Date,TimeStamp,GravityX,GravityY,GravityZ,UserAccelerationX,UserAccelerationY,UserAccelerationZ,RotationRateX,RotationRateY,RotationRateZ,AttitudeRoll,AttitudePitch,AttitudeYaw
2024-09-23 11:37:37.197,162590.04,0.041,0.737,-0.675,-0.1,-0.049,-0.112,0.081,0.186,0.205,0.061,-0.829,1.962
2024-09-23 11:37:37.208,162590.05,0.044,0.737,-0.675,-0.069,-0.066,-0.129,-0.035,0.259,0.17,0.065,-0.828,1.965
2024-09-23 11:37:37.218,162590.06,0.047,0.737,-0.674,-0.027,-0.018,-0.116,-0.05,0.398,0.245,0.07,-0.829,1.968
2024-09-23 11:37:37.227,162590.07,0.052,0.737,-0.673,-0.001,-0.004,-0.093,-0.07,0.423,0.209,0.077,-0.829,1.972
2024-09-23 11:37:37.237,162590.08,0.056,0.738,-0.673,0.033,-0.043,-0.062,-0.134,0.424,0.178,0.083,-0.83,1.975
2024-09-23 11:37:37.248,162590.09,0.06,0.739,-0.671,0.058,-0.007,-0.009,-0.22,0.369,0.112,0.089,-0.832,1.977
2024-09-23 11:37:37.258,162590.1,0.063,0.741,-0.669,0.012,0.035,-0.017,-0.283,0.304,0.056,0.094,-0.834,1.979
2024-09-23 11:37:37.268,162590.11,0.065,0.743,-0.667,0.001,-0.011,-0.038,-0.331,0.243,-0.014,0.097,-0.837,1.979
2024-09-23 11:37:37.277,162590.12,0.066,0.745,-0.664,0.008,-0.049,-0.032,-0.338,0.143,-0.072,0.099,-0.84,1.979
2024-09-23 11:37:37.288,162590.13,0.066,0.747,-0.661,-0.009,-0.031,-0.017,-0.349,0.017,-0.123,0.099,-0.844,1.978
2024-09-23 11:37:37.297,162590.14,0.064,0.749,-0.659,0.023,-0.004,-0.018,-0.294,-0.084,-0.182,0.097,-0.847,1.976
2024-09-23 11:37:37.308,162590.15,0.063,0.751,-0.657,0.026,-0.004,-0.035,-0.123,-0.133,-0.091,0.095,-0.85,1.975
2024-09-23 11:37:37.317,162590.16,0.061,0.751,-0.657,0.025,0.017,-0.044,0.07,-0.192,-0.045,0.093,-0.85,1.974
2024-09-23 11:37:37.327,162590.17,0.059,0.751,-0.658,0.034,0.059,-0.048,0.083,-0.239,-0.101,0.089,-0.849,1.973
2024-09-23 11:37:37.337,162590.18,0.057,0.75,-0.659,0.044,0.045,-0.091,0.122,-0.098,-0.101,0.086,-0.848,1.971
2024-09-23 11:37:37.347,162590.19,0.058,0.75,-0.658,-0.006,0.074,-0.14,-0.194,0.324,0.094,0.088,-0.849,1.971
2024-09-23 11:37:37.357,162590.2,0.061,0.751,-0.657,-0.073,0.182,-0.188,-0.18,0.388,0.177,0.093,-0.85,1.973
2024-09-23 11:37:37.367,162590.21,0.065,0.753,-0.655,-0.129,0.106,-0.02,-0.395,0.483,0.152,0.1,-0.853,1.976
2024-09-23 11:37:37.377,162590.22,0.07,0.756,-0.651,-0.048,-0.089,0.255,-0.459,0.468,0.13,0.106,-0.857,1.979
2024-09-23 11:37:37.386,162590.23,0.074,0.758,-0.648,0.025,-0.015,0.232,-0.195,0.422,0.164,0.113,-0.86,1.982
2024-09-23 11:37:37.396,162590.24,0.077,0.758,-0.648,-0.101,-0.024,0.13,0.165,0.316,0.047,0.118,-0.86,1.984
2024-09-23 11:37:37.408,162590.25,0.079,0.756,-0.65,-0.06,0.015,0.027,0.589,0.232,0.138,0.121,-0.856,1.984
2024-09-23 11:37:37.417,162590.26,0.081,0.751,-0.655,-0.066,0.083,-0.009,0.68,0.044,0.093,0.123,-0.85,1.985
2024-09-23 11:37:37.427,162590.27,0.082,0.747,-0.659,-0.105,0.004,0.017,0.427,-0.055,0.04,0.123,-0.844,1.985
2024-09-23 11:37:37.437,162590.28,0.081,0.746,-0.661,0.002,-0.147,0.096,0.118,-0.128,-0.065,0.122,-0.842,1.984
2024-09-23 11:37:37.447,162590.29,0.079,0.746,-0.662,-0.011,-0.193,0.126,-0.109,-0.211,-0.122,0.119,-0.842,1.983
2024-09-23 11:37:37.457,162590.3,0.077,0.747,-0.66,-0.029,-0.185,0.161,-0.215,-0.221,-0.125,0.116,-0.843,1.981
2024-09-23 11:37:37.467,162590.31,0.075,0.748,-0.659,0.022,-0.179,0.18,-0.099,-0.261,-0.017,0.113,-0.845,1.98
2024-09-23 11:37:37.477,162590.32,0.073,0.748,-0.66,0.058,-0.115,0.082,0.191,-0.252,0.096,0.11,-0.845,1.981
2024-09-23 11:37:37.487,162590.33,0.072,0.746,-0.662,0.094,-0.031,-0.072,0.366,-0.184,0.08,0.109,-0.842,1.982
2024-09-23 11:37:37.497,162590.34,0.072,0.744,-0.665,0.161,0.123,-0.157,0.206,-0.12,-0.003,0.107,-0.839,1.982
2024-09-23 11:37:37.507,162590.35,0.071,0.742,-0.666,0.124,0.226,-0.107,0.191,-0.066,-0.043,0.106,-0.836,1.982
2024-09-23 11:37:37.516,162590.36,0.07,0.741,-0.667,0.045,0.106,-0.003,0.067,-0.02,-0.13,0.105,-0.835,1.98
2024-09-23 11:37:37.526,162590.37,0.069,0.741,-0.668,0.085,0.012,-0.028,0.022,-0.05,-0.135,0.103,-0.835,1.978
2024-09-23 11:37:37.537,162590.38,0.068,0.742,-0.668,0.045,0.037,-0.046,-0.054,-0.058,-0.126,0.101,-0.835,1.976
2024-09-23 11:37:37.547,162590.389,0.066,0.742,-0.667,-0.018,-0.039,-0.021,-0.005,-0.057,-0.079,0.099,-0.836,1.975
2024-09-23 11:37:37.557,162590.399,0.065,0.742,-0.668,0.038,-0.034,-0.01,0.11,-0.062,-0.113,0.098,-0.835,1.973
2024-09-23 11:37:37.567,162590.409,0.064,0.741,-0.669,0.008,0.029,0.003,0.182,-0.107,-0.152,0.095,-0.834,1.971
2024-09-23 11:37:37.577,162590.419,0.062,0.74,-0.67,-0.011,0.058,0.017,0.162,-0.15,-0.165,0.092,-0.832,1.968
2024-09-23 11:37:37.587,162590.429,0.059,0.739,-0.671,-0.01,0.018,0.012,0.125,-0.186,-0.145,0.088,-0.831,1.966
2024-09-23 11:37:37.597,162590.439,0.057,0.738,-0.673,-0.01,-0.021,-0.004,0.183,-0.122,-0.118,0.085,-0.83,1.964
2024-09-23 11:37:37.607,162590.449,0.056,0.736,-0.675,-0.002,-0.0,-0.006,0.324,-0.026,-0.093,0.083,-0.827,1.962
2024-09-23 11:37:37.617,162590.459,0.056,0.734,-0.677,0.008,0.055,0.008,0.427,0.025,-0.049,0.082,-0.824,1.96
2024-09-23 11:37:37.627,162590.469,0.056,0.731,-0.68,0.004,0.086,0.024,0.388,0.046,-0.054,0.081,-0.819,1.959
2024-09-23 11:37:37.636,162590.479,0.055,0.729,-0.683,0.009,0.068,0.03,0.278,0.016,-0.086,0.081,-0.816,1.958
2024-09-23 11:37:37.646,162590.489,0.055,0.727,-0.684,-0.007,0.005,0.019,0.204,-0.028,-0.087,0.08,-0.814,1.956
2024-09-23 11:37:37.656,162590.499,0.054,0.726,-0.686,-0.029,-0.073,0.001,0.198,-0.038,-0.068,0.078,-0.812,1.955
2024-09-23 11:37:37.666,162590.509,0.053,0.724,-0.687,-0.013,-0.074,-0.001,0.236,-0.012,-0.064,0.077,-0.81,1.954
2024-09-23 11:37:37.676,162590.519,0.053,0.723,-0.689,-0.004,0.002,0.008,0.263,0.024,-0.053,0.076,-0.808,1.952
2024-09-23 11:37:37.687,162590.529,0.053,0.721,-0.691,-0.025,0.048,0.017,0.275,0.044,-0.023,0.076,-0.805,1.952
2024-09-23 11:37:37.697,162590.539,0.053,0.719,-0.693,-0.029,0.033,0.02,0.255,0.043,-0.007,0.076,-0.802,1.951
2024-09-23 11:37:37.707,162590.549,0.053,0.717,-0.695,-0.023,0.014,0.015,0.192,0.059,-0.008,0.076,-0.8,1.951
2024-09-23 11:37:37.717,162590.559,0.053,0.716,-0.696,-0.022,-0.005,0.004,0.113,0.056,-0.019,0.077,-0.799,1.95
2024-09-23 11:37:37.727,162590.569,0.054,0.716,-0.696,-0.018,-0.011,-0.006,0.048,0.061,-0.057,0.077,-0.798,1.95
2024-09-23 11:37:37.737,162590.579,0.054,0.716,-0.696,-0.01,-0.037,-0.005,0.016,0.056,-0.077,0.077,-0.797,1.949
2024-09-23 11:37:37.747,162590.589,0.053,0.716,-0.696,0.008,-0.029,0.002,-0.007,0.043,-0.092,0.076,-0.798,1.948
2024-09-23 11:37:37.758,162590.599,0.053,0.716,-0.696,0.003,-0.019,-0.002,-0.014,0.034,-0.085,0.076,-0.798,1.946
2024-09-23 11:37:37.767,162590.609,0.053,0.716,-0.696,0.006,-0.014,-0.003,0.019,0.03,-0.072,0.075,-0.798,1.945
2024-09-23 11:37:37.777,162590.619,0.052,0.716,-0.697,0.004,-0.008,0.0,0.079,0.013,-0.06,0.075,-0.797,1.944
2024-09-23 11:37:37.787,162590.629,0.052,0.715,-0.698,-0.001,0.008,0.008,0.177,-0.028,-0.053,0.074,-0.796,1.943
2024-09-23 11:37:37.796,162590.639,0.051,0.713,-0.699,0.007,0.029,0.018,0.291,-0.027,-0.052,0.073,-0.794,1.942
2024-09-23 11:37:37.807,162590.649,0.051,0.711,-0.702,0.006,0.03,0.018,0.385,-0.044,-0.044,0.072,-0.79,1.941
2024-09-23 11:37:37.816,162590.659,0.05,0.708,-0.705,0.002,0.041,0.024,0.428,-0.061,-0.035,0.071,-0.786,1.94
2024-09-23 11:37:37.826,162590.669,0.049,0.705,-0.708,0.008,0.039,0.03,0.441,-0.072,-0.041,0.069,-0.782,1.939
2024-09-23 11:37:37.836,162590.679,0.048,0.702,-0.711,0.014,0.028,0.029,0.42,-0.084,-0.038,0.068,-0.778,1.938
2024-09-23 11:37:37.846,162590.689,0.048,0.699,-0.714,0.001,0.025,0.021,0.379,-0.041,-0.024,0.067,-0.774,1.938
2024-09-23 11:37:37.857,162590.699,0.047,0.696,-0.716,-0.004,0.01,0.014,0.351,-0.023,-0.014,0.066,-0.77,1.937
2024-09-23 11:37:37.866,162590.709,0.047,0.694,-0.718,-0.017,-0.011,0.008,0.305,-0.034,-0.015,0.065,-0.767,1.937
2024-09-23 11:37:37.877,162590.719,0.047,0.692,-0.72,-0.027,-0.012,0.01,0.246,-0.025,-0.01,0.065,-0.764,1.936
2024-09-23 11:37:37.887,162590.729,0.047,0.691,-0.722,-0.016,-0.009,0.004,0.175,-0.036,-0.013,0.064,-0.763,1.936
2024-09-23 11:37:37.896,162590.739,0.046,0.69,-0.723,-0.011,-0.017,0.001,0.132,-0.062,-0.026,0.064,-0.761,1.936
2024-09-23 11:37:37.906,162590.749,0.045,0.689,-0.723,-0.006,-0.022,-0.001,0.139,-0.086,-0.04,0.063,-0.76,1.935
2024-09-23 11:37:37.916,162590.759,0.044,0.688,-0.725,0.007,-0.028,0.0,0.203,-0.123,-0.029,0.061,-0.758,1.934
2024-09-23 11:37:37.926,162590.769,0.043,0.686,-0.727,0.009,-0.01,0.009,0.395,-0.175,-0.003,0.059,-0.755,1.934
2024-09-23 11:37:37.936,162590.779,0.042,0.682,-0.73,0.009,0.016,0.019,0.578,-0.243,0.012,0.057,-0.751,1.934
2024-09-23 11:37:37.946,162590.789,0.04,0.677,-0.735,0.018,0.047,0.028,0.752,-0.326,0.029,0.054,-0.744,1.933
2024-09-23 11:37:37.956,162590.799,0.037,0.671,-0.74,0.025,0.077,0.039,0.888,-0.298,-0.101,0.05,-0.736,1.933
2024-09-23 11:37:37.966,162590.809,0.035,0.665,-0.746,0.021,0.083,0.048,0.75,-0.233,-0.015,0.047,-0.727,1.932
2024-09-23 11:37:37.976,162590.819,0.033,0.66,-0.75,0.03,0.103,0.049,0.52,-0.243,-0.086,0.044,-0.721,1.93
2024-09-23 11:37:37.986,162590.829,0.031,0.657,-0.753,-0.031,0.04,0.011,0.272,-0.252,-0.036,0.041,-0.717,1.929
2024-09-23 11:37:37.996,162590.839,0.029,0.655,-0.755,-0.041,-0.118,-0.019,0.272,-0.235,0.037,0.038,-0.715,1.929
2024-09-23 11:37:38.006,162590.849,0.027,0.654,-0.756,0.027,-0.159,-0.035,0.039,-0.216,0.092,0.036,-0.713,1.93
2024-09-23 11:37:38.017,162590.859,0.027,0.655,-0.755,-0.009,-0.022,-0.046,-0.263,-0.264,0.232,0.035,-0.714,1.932
2024-09-23 11:37:38.025,162590.869,0.026,0.658,-0.753,-0.005,-0.003,-0.027,-0.624,-0.199,0.265,0.035,-0.718,1.935
2024-09-23 11:37:38.035,162590.879,0.027,0.664,-0.747,-0.023,-0.097,-0.038,-0.912,-0.026,0.267,0.036,-0.726,1.939
2024-09-23 11:37:38.045,162590.889,0.03,0.671,-0.741,-0.028,-0.132,-0.064,-1.122,0.186,0.339,0.04,-0.736,1.944
2024-09-23 11:37:38.056,162590.899,0.034,0.68,-0.733,-0.056,-0.134,-0.077,-1.088,0.377,0.213,0.046,-0.747,1.948
2024-09-23 11:37:38.066,162590.909,0.038,0.686,-0.726,-0.077,-0.111,-0.056,-0.78,0.455,0.157,0.052,-0.756,1.951
2024-09-23 11:37:38.076,162590.919,0.042,0.691,-0.722,-0.068,-0.037,0.008,-0.54,0.407,0.047,0.058,-0.763,1.953
2024-09-23 11:37:38.086,162590.929,0.045,0.694,-0.718,0.009,0.074,0.044,-0.376,0.295,0.005,0.062,-0.768,1.954
2024-09-23 11:37:38.096,162590.939,0.047,0.697,-0.716,0.003,0.072,0.069,-0.341,0.301,-0.014,0.065,-0.771,1.954
2024-09-23 11:37:38.106,162590.949,0.049,0.699,-0.713,0.015,0.047,0.078,-0.323,0.258,-0.052,0.068,-0.774,1.954
2024-09-23 11:37:38.116,162590.959,0.05,0.702,-0.711,0.007,0.086,0.008,-0.355,0.205,-0.046,0.07,-0.778,1.954
2024-09-23 11:37:38.126,162590.969,0.051,0.704,-0.708,-0.041,-0.026,-0.008,-0.307,0.153,-0.032,0.072,-0.781,1.953
2024-09-23 11:37:38.136,162590.979,0.051,0.706,-0.706,0.014,-0.066,-0.006,-0.208,0.089,-0.046,0.073,-0.784,1.953
2024-09-23 11:37:38.147,162590.988,0.051,0.707,-0.705,0.004,0.013,0.004,-0.122,0.03,-0.055,0.073,-0.785,1.953
2024-09-23 11:37:38.155,162590.998,0.051,0.708,-0.705,0.002,0.05,0.017,-0.009,-0.039,-0.055,0.072,-0.786,1.952
2024-09-23 11:37:38.165,162591.008,0.05,0.707,-0.705,0.021,0.035,0.022,0.108,-0.074,-0.053,0.071,-0.786,1.951
2024-09-23 11:37:38.176,162591.018,0.049,0.706,-0.707,0.02,0.027,0.025,0.295,-0.116,-0.052,0.07,-0.784,1.95
2024-09-23 11:37:38.186,162591.028,0.048,0.703,-0.709,0.027,0.046,0.03,0.473,-0.142,-0.072,0.067,-0.78,1.949
2024-09-23 11:37:38.195,162591.038,0.046,0.699,-0.713,0.021,0.072,0.048,0.662,-0.216,-0.066,0.065,-0.774,1.947
2024-09-23 11:37:38.205,162591.048,0.044,0.694,-0.719,0.023,0.095,0.049,0.861,-0.304,-0.059,0.061,-0.767,1.946
2024-09-23 11:37:38.215,162591.058,0.041,0.687,-0.726,0.016,0.073,0.046,1.152,-0.407,-0.027,0.057,-0.757,1.944
2024-09-23 11:37:38.226,162591.068,0.038,0.677,-0.735,0.028,0.062,0.056,1.501,-0.514,-0.015,0.051,-0.744,1.943
2024-09-23 11:37:38.236,162591.078,0.034,0.666,-0.745,0.039,0.094,0.062,1.404,-0.525,0.085,0.045,-0.729,1.941
2024-09-23 11:37:38.246,162591.088,0.031,0.657,-0.753,0.049,0.14,0.071,1.016,-0.172,-0.113,0.042,-0.717,1.941
2024-09-23 11:37:38.256,162591.098,0.03,0.652,-0.758,0.027,0.156,0.062,0.257,-0.265,0.13,0.039,-0.71,1.941
2024-09-23 11:37:38.266,162591.108,0.029,0.653,-0.757,-0.135,-0.036,-0.055,-0.513,-0.086,0.087,0.038,-0.711,1.942
2024-09-23 11:37:38.276,162591.118,0.03,0.659,-0.752,-0.025,-0.268,-0.097,-1.072,0.072,0.227,0.04,-0.719,1.945
2024-09-23 11:37:38.286,162591.128,0.033,0.669,-0.742,-0.01,-0.317,-0.147,-1.698,0.394,0.158,0.045,-0.733,1.948
2024-09-23 11:37:38.296,162591.138,0.038,0.682,-0.73,-0.067,-0.215,-0.161,-1.758,0.471,0.216,0.051,-0.751,1.952
2024-09-23 11:37:38.306,162591.148,0.042,0.694,-0.719,-0.113,-0.207,-0.149,-1.578,0.478,0.178,0.059,-0.767,1.955
2024-09-23 11:37:38.316,162591.158,0.047,0.704,-0.708,-0.119,-0.191,-0.034,-1.387,0.484,0.129,0.066,-0.782,1.959
2024-09-23 11:37:38.326,162591.168,0.051,0.715,-0.698,-0.026,-0.086,0.01,-1.6,0.505,0.147,0.073,-0.796,1.962
2024-09-23 11:37:38.336,162591.178,0.056,0.726,-0.685,-0.035,0.014,0.063,-1.767,0.577,-0.001,0.081,-0.813,1.965
2024-09-23 11:37:38.346,162591.188,0.06,0.738,-0.672,-0.044,0.053,0.088,-1.787,0.583,0.059,0.089,-0.831,1.968
2024-09-23 11:37:38.356,162591.198,0.064,0.75,-0.658,-0.077,-0.034,-0.004,-1.695,0.534,0.097,0.097,-0.848,1.971
2024-09-23 11:37:38.366,162591.208,0.068,0.76,-0.646,-0.055,-0.119,-0.081,-1.475,0.493,0.159,0.105,-0.864,1.976
2024-09-23 11:37:38.376,162591.218,0.073,0.769,-0.635,-0.027,-0.143,-0.015,-1.257,0.463,0.198,0.114,-0.877,1.981
2024-09-23 11:37:38.386,162591.228,0.077,0.776,-0.626,-0.024,-0.01,0.068,-0.992,0.413,0.262,0.123,-0.888,1.987
2024-09-23 11:37:38.396,162591.238,0.082,0.781,-0.619,-0.059,0.112,0.092,-0.696,0.368,0.323,0.132,-0.896,1.993
2024-09-23 11:37:38.406,162591.248,0.087,0.784,-0.615,-0.059,0.155,0.111,-0.335,0.293,0.389,0.14,-0.901,2.0
2024-09-23 11:37:38.414,162591.258,0.091,0.784,-0.614,-0.044,0.208,0.1,0.071,0.161,0.338,0.148,-0.901,2.006
2024-09-23 11:37:38.424,162591.268,0.093,0.783,-0.615,-0.031,0.209,0.065,0.178,-0.049,-0.002,0.15,-0.9,2.008
2024-09-23 11:37:38.434,162591.278,0.094,0.782,-0.617,0.001,0.224,0.071,0.249,-0.152,0.21,0.151,-0.897,2.011
2024-09-23 11:37:38.444,162591.288,0.095,0.781,-0.617,-0.107,0.185,0.078,-0.063,-0.216,0.314,0.153,-0.897,2.015
2024-09-23 11:37:38.455,162591.298,0.095,0.781,-0.617,-0.066,0.176,0.09,-0.074,-0.432,0.32,0.153,-0.897,2.02
2024-09-23 11:37:38.465,162591.308,0.095,0.781,-0.617,-0.004,0.107,0.156,-0.013,-0.564,0.332,0.153,-0.897,2.025
2024-09-23 11:37:38.476,162591.318,0.094,0.781,-0.618,-0.061,0.099,0.082,0.15,-0.635,0.328,0.15,-0.896,2.03
2024-09-23 11:37:38.486,162591.328,0.092,0.779,-0.62,-0.033,0.12,0.022,0.315,-0.659,0.297,0.147,-0.893,2.035
2024-09-23 11:37:38.495,162591.338,0.09,0.776,-0.624,-0.009,0.026,0.02,0.585,-0.666,0.219,0.143,-0.888,2.038
2024-09-23 11:37:38.505,162591.348,0.087,0.771,-0.631,0.035,-0.073,0.051,1.006,-0.664,0.124,0.137,-0.88,2.039
2024-09-23 11:37:38.515,162591.358,0.084,0.763,-0.641,0.067,-0.11,0.067,1.389,-0.606,0.064,0.13,-0.868,2.038
2024-09-23 11:37:38.525,162591.368,0.08,0.753,-0.653,0.117,-0.085,0.021,1.781,-0.51,0.015,0.123,-0.852,2.035
2024-09-23 11:37:38.536,162591.378,0.078,0.74,-0.668,0.147,-0.052,-0.03,2.022,-0.448,0.043,0.116,-0.833,2.032
2024-09-23 11:37:38.546,162591.388,0.075,0.727,-0.682,0.161,-0.067,-0.044,1.69,-0.371,-0.035,0.109,-0.815,2.029
2024-09-23 11:37:38.556,162591.398,0.072,0.718,-0.693,0.191,-0.085,-0.038,1.173,-0.292,-0.142,0.103,-0.8,2.026
2024-09-23 11:37:38.565,162591.408,0.069,0.711,-0.7,0.151,-0.091,-0.037,0.761,-0.238,-0.18,0.098,-0.791,2.022
2024-09-23 11:37:38.575,162591.418,0.066,0.707,-0.704,0.059,-0.133,-0.054,0.504,-0.25,-0.277,0.093,-0.785,2.018
2024-09-23 11:37:38.585,162591.428,0.062,0.705,-0.706,0.067,-0.161,-0.071,0.139,-0.14,-0.292,0.088,-0.783,2.014
2024-09-23 11:37:38.595,162591.438,0.06,0.705,-0.707,0.072,-0.15,-0.089,0.084,-0.032,-0.199,0.084,-0.782,2.01
2024-09-23 11:37:38.605,162591.448,0.058,0.704,-0.708,0.029,-0.065,-0.104,0.149,0.043,-0.212,0.082,-0.781,2.007
2024-09-23 11:37:38.615,162591.458,0.057,0.703,-0.709,-0.008,0.024,-0.057,0.139,0.107,-0.24,0.081,-0.78,2.004
2024-09-23 11:37:38.624,162591.468,0.057,0.703,-0.709,-0.018,0.008,-0.003,0.032,0.15,-0.222,0.08,-0.779,2.0
2024-09-23 11:37:38.634,162591.478,0.056,0.703,-0.709,-0.025,-0.003,-0.019,-0.099,0.166,-0.228,0.079,-0.779,1.997
2024-09-23 11:37:38.644,162591.488,0.056,0.704,-0.708,-0.057,-0.041,-0.029,-0.232,0.188,-0.205,0.079,-0.781,1.994
2024-09-23 11:37:38.655,162591.498,0.056,0.706,-0.706,-0.061,-0.036,-0.02,-0.376,0.196,-0.157,0.079,-0.784,1.992
2024-09-23 11:37:38.665,162591.508,0.056,0.709,-0.702,-0.064,-0.022,-0.029,-0.453,0.2,-0.098,0.08,-0.789,1.991
2024-09-23 11:37:38.675,162591.518,0.057,0.713,-0.699,-0.072,-0.029,-0.021,-0.446,0.193,-0.041,0.082,-0.793,1.99
2024-09-23 11:37:38.685,162591.528,0.059,0.715,-0.696,-0.066,-0.002,-0.01,-0.331,0.179,-0.006,0.084,-0.797,1.991
2024-09-23 11:37:38.695,162591.538,0.06,0.717,-0.694,-0.056,0.025,0.001,-0.141,0.143,-0.0,0.086,-0.8,1.991
2024-09-23 11:37:38.705,162591.548,0.061,0.718,-0.694,-0.036,0.03,0.027,-0.005,0.111,0.005,0.087,-0.8,1.991
2024-09-23 11:37:38.715,162591.558,0.061,0.717,-0.694,-0.011,0.056,0.058,0.101,0.078,-0.026,0.088,-0.8,1.991
2024-09-23 11:37:38.725,162591.568,0.061,0.717,-0.695,0.003,0.075,0.055,0.097,0.035,-0.012,0.088,-0.799,1.99
2024-09-23 11:37:38.735,162591.578,0.061,0.716,-0.696,0.006,0.027,0.036,0.11,0.0,-0.014,0.088,-0.798,1.99
2024-09-23 11:37:38.745,162591.587,0.061,0.715,-0.697,0.021,-0.016,0.026,0.146,-0.034,-0.034,0.087,-0.797,1.989
2024-09-23 11:37:38.755,162591.597,0.061,0.714,-0.698,0.028,0.018,0.012,0.137,-0.053,-0.03,0.087,-0.795,1.989
2024-09-23 11:37:38.765,162591.607,0.06,0.713,-0.698,0.012,0.031,0.008,0.096,-0.039,-0.026,0.086,-0.794,1.988
2024-09-23 11:37:38.775,162591.617,0.06,0.713,-0.699,0.011,-0.01,0.01,0.069,-0.032,-0.018,0.085,-0.793,1.988
2024-09-23 11:37:38.786,162591.627,0.059,0.712,-0.699,-0.005,-0.013,-0.005,0.056,-0.021,-0.022,0.084,-0.793,1.987
2024-09-23 11:37:38.795,162591.637,0.059,0.712,-0.7,-0.015,-0.008,-0.002,0.047,-0.005,-0.042,0.084,-0.792,1.987
2024-09-23 11:37:38.805,162591.647,0.058,0.712,-0.7,-0.007,-0.004,0.002,0.019,-0.011,-0.051,0.083,-0.792,1.986
2024-09-23 11:37:38.815,162591.657,0.058,0.712,-0.7,-0.008,-0.005,0.002,0.0,0.012,-0.057,0.083,-0.792,1.985
2024-09-23 11:37:38.825,162591.667,0.058,0.712,-0.7,0.001,-0.019,0.003,0.005,0.055,-0.045,0.083,-0.792,1.985
2024-09-23 11:37:38.835,162591.677,0.058,0.712,-0.7,-0.002,-0.008,0.0,0.028,0.113,-0.035,0.083,-0.792,1.984
2024-09-23 11:37:38.845,162591.687,0.059,0.712,-0.7,-0.014,-0.003,0.001,0.023,0.142,-0.027,0.084,-0.792,1.984
2024-09-23 11:37:38.855,162591.697,0.06,0.712,-0.7,-0.017,0.012,0.006,-0.034,0.126,-0.036,0.085,-0.792,1.983
2024-09-23 11:37:38.865,162591.707,0.06,0.712,-0.699,-0.021,0.006,0.002,-0.105,0.108,-0.031,0.086,-0.793,1.983
2024-09-23 11:37:38.875,162591.717,0.061,0.713,-0.698,-0.012,-0.017,-0.009,-0.154,0.071,-0.035,0.087,-0.794,1.983
2024-09-23 11:37:38.885,162591.727,0.061,0.714,-0.697,-0.004,-0.044,-0.014,-0.121,0.04,-0.032,0.087,-0.795,1.982
2024-09-23 11:37:38.895,162591.737,0.061,0.715,-0.697,-0.001,-0.036,-0.006,-0.033,-0.007,-0.032,0.087,-0.796,1.982
2024-09-23 11:37:38.905,162591.747,0.06,0.715,-0.697,0.005,0.007,0.005,0.068,-0.041,-0.024,0.086,-0.796,1.981
2024-09-23 11:37:38.915,162591.757,0.06,0.714,-0.698,0.014,0.029,0.018,0.208,-0.078,-0.023,0.085,-0.795,1.981
2024-09-23 11:37:38.924,162591.767,0.059,0.712,-0.7,0.014,0.045,0.031,0.369,-0.124,-0.011,0.084,-0.792,1.98
2024-09-23 11:37:38.933,162591.777,0.058,0.709,-0.703,0.008,0.061,0.053,0.5,-0.176,0.007,0.082,-0.787,1.98
2024-09-23 11:37:38.944,162591.787,0.056,0.705,-0.707,0.01,0.077,0.052,0.627,-0.237,0.014,0.079,-0.782,1.979
2024-09-23 11:37:38.954,162591.797,0.054,0.7,-0.712,0.011,0.06,0.044,0.786,-0.309,0.022,0.076,-0.775,1.979
2024-09-23 11:37:38.964,162591.807,0.052,0.693,-0.719,0.017,0.045,0.043,0.974,-0.384,0.023,0.072,-0.766,1.978
2024-09-23 11:37:38.974,162591.817,0.049,0.686,-0.726,0.024,0.061,0.043,1.104,-0.267,-0.111,0.068,-0.756,1.977
2024-09-23 11:37:38.984,162591.827,0.047,0.678,-0.733,0.027,0.068,0.049,0.966,-0.287,0.106,0.064,-0.745,1.976
2024-09-23 11:37:38.994,162591.837,0.045,0.672,-0.739,0.032,0.078,0.052,0.659,-0.167,-0.109,0.061,-0.737,1.975
2024-09-23 11:37:39.005,162591.847,0.044,0.669,-0.742,-0.025,0.049,0.005,0.122,-0.182,0.055,0.059,-0.733,1.974
2024-09-23 11:37:39.014,162591.857,0.043,0.67,-0.741,-0.074,-0.103,-0.043,-0.473,-0.19,0.125,0.058,-0.735,1.975
2024-09-23 11:37:39.024,162591.867,0.043,0.675,-0.736,0.01,-0.236,-0.059,-0.901,-0.127,0.228,0.058,-0.742,1.978
2024-09-23 11:37:39.035,162591.877,0.044,0.683,-0.729,-0.046,-0.188,-0.122,-1.153,-0.115,0.25,0.06,-0.752,1.983
2024-09-23 11:37:39.045,162591.887,0.046,0.692,-0.721,-0.029,-0.206,-0.118,-1.321,0.128,0.306,0.063,-0.764,1.987
2024-09-23 11:37:39.054,162591.897,0.049,0.701,-0.712,-0.044,-0.144,-0.11,-1.28,0.237,0.248,0.069,-0.777,1.993
2024-09-23 11:37:39.064,162591.907,0.053,0.709,-0.703,-0.066,-0.103,-0.077,-0.941,0.337,0.198,0.075,-0.788,1.997
2024-09-23 11:37:39.074,162591.917,0.056,0.714,-0.698,-0.052,-0.077,-0.023,-0.629,0.348,0.077,0.08,-0.795,2.0
2024-09-23 11:37:39.084,162591.927,0.059,0.718,-0.693,0.014,0.056,0.071,-0.622,0.39,-0.02,0.085,-0.801,2.001
2024-09-23 11:37:39.094,162591.937,0.061,0.723,-0.688,0.021,0.196,0.137,-0.723,0.371,-0.046,0.089,-0.808,2.001
2024-09-23 11:37:39.105,162591.947,0.063,0.728,-0.683,0.01,0.125,0.106,-0.767,0.303,-0.041,0.092,-0.816,2.002
2024-09-23 11:37:39.114,162591.957,0.065,0.733,-0.677,-0.032,-0.068,-0.011,-0.699,0.232,-0.05,0.095,-0.823,2.002
2024-09-23 11:37:39.124,162591.967,0.066,0.737,-0.672,-0.027,-0.114,-0.059,-0.542,0.148,-0.055,0.097,-0.829,2.002
2024-09-23 11:37:39.134,162591.977,0.066,0.74,-0.669,-0.006,-0.041,-0.037,-0.308,0.054,-0.062,0.098,-0.834,2.002
2024-09-23 11:37:39.144,162591.987,0.065,0.741,-0.668,0.001,0.034,0.011,-0.003,-0.058,-0.062,0.098,-0.835,2.001
2024-09-23 11:37:39.154,162591.997,0.064,0.74,-0.669,0.023,0.098,0.043,0.36,-0.19,-0.073,0.095,-0.834,2.0
2024-09-23 11:37:39.165,162592.007,0.062,0.737,-0.673,0.034,0.115,0.058,0.748,-0.338,-0.061,0.091,-0.828,1.998
2024-09-23 11:37:39.174,162592.017,0.059,0.73,-0.681,0.045,0.119,0.069,1.11,-0.487,-0.031,0.086,-0.819,1.996
2024-09-23 11:37:39.183,162592.027,0.055,0.721,-0.69,0.059,0.145,0.08,1.49,-0.641,-0.016,0.079,-0.806,1.994
2024-09-23 11:37:39.193,162592.037,0.05,0.71,-0.703,0.065,0.156,0.099,1.825,-0.708,0.016,0.071,-0.789,1.993
2024-09-23 11:37:39.204,162592.047,0.045,0.697,-0.716,0.066,0.168,0.114,1.756,-0.376,-0.182,0.063,-0.771,1.99
2024-09-23 11:37:39.214,162592.057,0.044,0.686,-0.726,0.047,0.17,0.108,1.02,-0.274,0.348,0.06,-0.757,1.991
2024-09-23 11:37:39.224,162592.067,0.043,0.681,-0.731,0.027,0.14,0.105,0.492,-0.083,-0.043,0.059,-0.749,1.992
2024-09-23 11:37:39.234,162592.077,0.043,0.681,-0.731,-0.073,0.012,-0.028,-0.516,-0.081,0.122,0.059,-0.749,1.993
2024-09-23 11:37:39.244,162592.087,0.044,0.687,-0.725,-0.149,-0.301,-0.151,-1.151,0.117,0.068,0.06,-0.758,1.995
2024-09-23 11:37:39.254,162592.097,0.046,0.697,-0.715,0.014,-0.45,-0.148,-1.637,0.369,0.163,0.064,-0.771,1.997
2024-09-23 11:37:39.264,162592.107,0.05,0.71,-0.702,-0.106,-0.355,-0.222,-1.996,0.44,0.151,0.071,-0.79,2.001
2024-09-23 11:37:39.274,162592.117,0.055,0.724,-0.688,-0.095,-0.2,-0.2,-1.916,0.533,0.128,0.079,-0.809,2.005
2024-09-23 11:37:39.284,162592.127,0.06,0.736,-0.674,-0.109,-0.208,-0.074,-1.94,0.713,0.09,0.088,-0.828,2.009
2024-09-23 11:37:39.294,162592.137,0.065,0.75,-0.658,-0.023,-0.074,0.0,-2.148,0.899,0.002,0.099,-0.848,2.013
2024-09-23 11:37:39.304,162592.147,0.071,0.764,-0.641,-0.026,0.053,0.042,-2.196,1.011,-0.064,0.111,-0.87,2.015
2024-09-23 11:37:39.314,162592.157,0.077,0.778,-0.623,-0.074,-0.001,0.029,-2.268,1.021,-0.063,0.123,-0.892,2.019
2024-09-23 11:37:39.324,162592.167,0.083,0.792,-0.604,-0.037,-0.101,-0.051,-2.269,1.027,-0.061,0.137,-0.915,2.022
2024-09-23 11:37:39.334,162592.177,0.089,0.806,-0.586,-0.015,-0.185,-0.034,-2.111,1.019,-0.079,0.15,-0.937,2.027
2024-09-23 11:37:39.344,162592.186,0.093,0.817,-0.569,-0.022,-0.085,-0.002,-1.775,1.007,-0.156,0.163,-0.956,2.03
2024-09-23 11:37:39.354,162592.196,0.098,0.827,-0.554,-0.038,0.087,-0.004,-1.651,0.959,-0.156,0.174,-0.973,2.032
2024-09-23 11:37:39.364,162592.206,0.101,0.835,-0.54,-0.054,0.068,-0.024,-1.454,0.901,-0.181,0.185,-0.989,2.034
2024-09-23 11:37:39.374,162592.216,0.104,0.843,-0.528,-0.014,-0.023,-0.044,-1.194,0.83,-0.18,0.195,-1.002,2.035
2024-09-23 11:37:39.384,162592.226,0.107,0.848,-0.518,0.001,-0.044,-0.069,-1.004,0.768,-0.177,0.204,-1.013,2.036
2024-09-23 11:37:39.394,162592.236,0.109,0.853,-0.511,0.016,0.014,-0.077,-0.559,0.667,-0.188,0.211,-1.021,2.036
2024-09-23 11:37:39.404,162592.246,0.111,0.855,-0.507,0.015,0.045,-0.066,-0.163,0.523,-0.149,0.215,-1.025,2.034
2024-09-23 11:37:39.414,162592.256,0.112,0.854,-0.507,-0.001,0.053,-0.074,0.342,0.403,-0.144,0.217,-1.025,2.031
2024-09-23 11:37:39.425,162592.266,0.112,0.852,-0.512,0.009,0.055,-0.025,0.764,0.259,-0.151,0.216,-1.019,2.026
2024-09-23 11:37:39.434,162592.276,0.112,0.847,-0.52,0.009,0.087,0.018,1.121,0.1,-0.189,0.212,-1.011,2.019
2024-09-23 11:37:39.444,162592.286,0.11,0.841,-0.529,0.013,0.091,-0.01,1.169,-0.017,-0.197,0.206,-1.0,2.011
2024-09-23 11:37:39.454,162592.296,0.108,0.836,-0.538,0.012,0.068,-0.043,0.851,-0.082,-0.217,0.199,-0.99,2.003
2024-09-23 11:37:39.463,162592.306,0.106,0.833,-0.543,0.022,0.012,-0.011,0.369,-0.133,-0.225,0.193,-0.984,1.997
2024-09-23 11:37:39.473,162592.316,0.103,0.833,-0.544,0.034,-0.054,0.098,-0.166,-0.093,-0.194,0.188,-0.984,1.993
2024-09-23 11:37:39.484,162592.326,0.102,0.834,-0.542,0.039,-0.044,0.204,-0.264,-0.063,-0.105,0.186,-0.987,1.991
2024-09-23 11:37:39.494,162592.336,0.101,0.834,-0.542,0.045,0.035,0.237,0.21,-0.029,-0.002,0.184,-0.987,1.99
2024-09-23 11:37:39.504,162592.346,0.101,0.832,-0.545,0.055,0.117,0.188,0.45,-0.047,0.069,0.184,-0.984,1.99
2024-09-23 11:37:39.513,162592.356,0.101,0.83,-0.549,0.058,0.219,0.075,0.426,-0.098,0.071,0.183,-0.979,1.99
2024-09-23 11:37:39.523,162592.366,0.101,0.828,-0.552,0.024,0.147,0.044,0.44,-0.155,0.056,0.181,-0.975,1.99
2024-09-23 11:37:39.533,162592.376,0.101,0.825,-0.556,-0.01,-0.028,0.065,0.491,-0.211,0.028,0.179,-0.97,1.989
2024-09-23 11:37:39.543,162592.386,0.099,0.822,-0.561,-0.008,-0.047,0.047,0.558,-0.261,0.018,0.176,-0.965,1.988
2024-09-23 11:37:39.554,162592.396,0.098,0.819,-0.566,-0.012,-0.023,0.02,0.55,-0.265,0.023,0.172,-0.959,1.986
2024-09-23 11:37:39.563,162592.406,0.097,0.816,-0.57,-0.009,-0.02,0.015,0.542,-0.265,0.03,0.168,-0.954,1.985
2024-09-23 11:37:39.573,162592.416,0.096,0.813,-0.575,-0.003,0.005,0.017,0.54,-0.247,0.05,0.165,-0.949,1.984
2024-09-23 11:37:39.583,162592.426,0.095,0.809,-0.579,-0.02,0.021,0.026,0.531,-0.196,0.052,0.162,-0.943,1.984
2024-09-23 11:37:39.594,162592.436,0.094,0.806,-0.584,-0.021,0.041,0.027,0.56,-0.166,0.071,0.16,-0.938,1.983
2024-09-23 11:37:39.604,162592.446,0.094,0.803,-0.589,-0.025,0.054,0.043,0.599,-0.15,0.092,0.158,-0.932,1.983
2024-09-23 11:37:39.614,162592.456,0.094,0.799,-0.594,-0.02,0.021,0.05,0.627,-0.137,0.127,0.157,-0.926,1.983
2024-09-23 11:37:39.624,162592.466,0.094,0.795,-0.599,-0.022,0.036,0.023,0.64,-0.145,0.168,0.156,-0.919,1.984
2024-09-23 11:37:39.634,162592.476,0.095,0.791,-0.604,-0.036,0.062,0.0,0.695,-0.174,0.209,0.156,-0.912,1.985
2024-09-23 11:37:39.643,162592.486,0.096,0.786,-0.61,-0.04,0.084,0.031,0.721,-0.218,0.26,0.155,-0.905,1.987
2024-09-23 11:37:39.654,162592.496,0.096,0.782,-0.616,-0.052,0.112,0.076,0.665,-0.281,0.326,0.155,-0.898,1.99
2024-09-23 11:37:39.663,162592.506,0.097,0.778,-0.621,-0.041,0.11,0.089,0.491,-0.328,0.4,0.155,-0.891,1.994
2024-09-23 11:37:39.674,162592.516,0.098,0.775,-0.624,-0.035,0.083,0.089,0.224,-0.387,0.481,0.156,-0.887,2.0
2024-09-23 11:37:39.684,162592.526,0.1,0.774,-0.625,-0.045,0.084,0.101,0.004,-0.388,0.57,0.159,-0.885,2.009
2024-09-23 11:37:39.693,162592.536,0.102,0.774,-0.625,-0.054,0.078,0.102,-0.137,-0.408,0.665,0.162,-0.885,2.018
2024-09-23 11:37:39.704,162592.546,0.105,0.774,-0.624,-0.045,0.086,0.128,-0.133,-0.433,0.713,0.167,-0.885,2.029
2024-09-23 11:37:39.713,162592.556,0.108,0.774,-0.624,-0.043,0.101,0.088,-0.035,-0.481,0.716,0.171,-0.885,2.041
2024-09-23 11:37:39.723,162592.566,0.11,0.773,-0.625,-0.013,0.061,0.084,0.105,-0.569,0.697,0.174,-0.883,2.052
2024-09-23 11:37:39.733,162592.576,0.111,0.771,-0.627,0.009,0.023,0.072,0.245,-0.665,0.641,0.176,-0.881,2.062
2024-09-23 11:37:39.743,162592.586,0.112,0.769,-0.63,0.019,-0.039,0.084,0.31,-0.729,0.559,0.175,-0.877,2.07
2024-09-23 11:37:39.753,162592.596,0.111,0.766,-0.633,0.032,-0.071,0.061,0.407,-0.823,0.495,0.173,-0.872,2.077
2024-09-23 11:37:39.764,162592.606,0.109,0.762,-0.638,0.01,-0.113,0.023,0.553,-0.909,0.392,0.169,-0.867,2.083
2024-09-23 11:37:39.773,162592.616,0.105,0.758,-0.644,0.018,-0.153,0.003,0.836,-0.889,0.237,0.162,-0.86,2.086
2024-09-23 11:37:39.783,162592.626,0.101,0.751,-0.653,0.05,-0.113,-0.009,1.168,-0.844,0.101,0.153,-0.849,2.086
2024-09-23 11:37:39.793,162592.636,0.096,0.743,-0.663,0.062,-0.004,-0.01,1.318,-0.809,-0.002,0.144,-0.837,2.084
2024-09-23 11:37:39.804,162592.646,0.09,0.734,-0.673,0.062,-0.021,-0.038,1.229,-0.752,-0.103,0.133,-0.824,2.08
2024-09-23 11:37:39.814,162592.656,0.084,0.727,-0.682,0.065,-0.135,-0.072,0.906,-0.652,-0.207,0.123,-0.814,2.076
2024-09-23 11:37:39.823,162592.666,0.079,0.722,-0.687,0.071,-0.19,-0.112,0.565,-0.532,-0.163,0.114,-0.807,2.072
2024-09-23 11:37:39.833,162592.676,0.074,0.721,-0.689,0.048,-0.187,-0.126,-0.032,-0.392,-0.344,0.106,-0.805,2.067
2024-09-23 11:37:39.843,162592.686,0.07,0.722,-0.689,0.022,-0.185,-0.152,-0.236,-0.18,-0.219,0.101,-0.806,2.063
2024-09-23 11:37:39.853,162592.696,0.068,0.724,-0.687,0.026,-0.061,-0.213,-0.25,0.069,-0.041,0.099,-0.809,2.062
2024-09-23 11:37:39.863,162592.706,0.068,0.726,-0.684,-0.12,0.101,-0.125,-0.449,0.086,-0.114,0.099,-0.813,2.061
2024-09-23 11:37:39.873,162592.716,0.068,0.73,-0.681,-0.104,0.016,-0.06,-0.528,0.078,-0.046,0.1,-0.818,2.061
2024-09-23 11:37:39.883,162592.726,0.069,0.733,-0.677,-0.023,-0.089,-0.03,-0.384,0.065,0.035,0.101,-0.822,2.061
2024-09-23 11:37:39.893,162592.736,0.07,0.734,-0.675,-0.088,-0.098,-0.019,-0.102,0.068,0.076,0.103,-0.825,2.062
2024-09-23 11:37:39.903,162592.746,0.071,0.734,-0.675,-0.026,0.047,0.006,0.153,0.051,0.103,0.104,-0.824,2.064
2024-09-23 11:37:39.913,162592.756,0.072,0.732,-0.677,-0.023,0.141,0.045,0.31,0.031,0.097,0.105,-0.822,2.065
2024-09-23 11:37:39.923,162592.766,0.072,0.73,-0.68,-0.024,0.135,0.084,0.37,-0.0,0.096,0.106,-0.818,2.066
2024-09-23 11:37:39.933,162592.776,0.073,0.727,-0.682,0.004,0.098,0.065,0.41,-0.042,0.081,0.106,-0.814,2.066
2024-09-23 11:37:39.943,162592.786,0.073,0.724,-0.686,0.005,0.031,0.038,0.444,-0.054,0.051,0.106,-0.81,2.067
2024-09-23 11:37:39.953,162592.795,0.073,0.721,-0.689,0.03,0.002,0.027,0.419,-0.068,0.01,0.105,-0.806,2.066
2024-09-23 11:37:39.963,162592.805,0.072,0.719,-0.692,0.028,0.009,0.023,0.341,-0.056,-0.019,0.104,-0.802,2.066
2024-09-23 11:37:39.973,162592.815,0.072,0.717,-0.694,0.019,-0.014,0.018,0.284,-0.06,-0.038,0.103,-0.799,2.065
2024-09-23 11:37:39.983,162592.825,0.071,0.715,-0.696,0.02,-0.043,0.002,0.205,-0.061,-0.068,0.102,-0.796,2.064
2024-09-23 11:37:39.993,162592.835,0.07,0.714,-0.697,0.008,-0.032,-0.001,0.143,-0.039,-0.107,0.1,-0.795,2.062
2024-09-23 11:37:40.003,162592.845,0.069,0.713,-0.698,-0.002,-0.016,-0.011,0.073,0.005,-0.119,0.099,-0.794,2.061
2024-09-23 11:37:40.013,162592.855,0.068,0.713,-0.698,-0.012,-0.045,-0.009,-0.023,0.044,-0.122,0.098,-0.794,2.059
2024-09-23 11:37:40.023,162592.865,0.068,0.713,-0.697,-0.007,-0.027,-0.004,-0.095,0.075,-0.121,0.097,-0.794,2.057
2024-09-23 11:37:40.033,162592.875,0.068,0.714,-0.697,-0.024,-0.016,-0.022,-0.132,0.094,-0.115,0.097,-0.796,2.056
2024-09-23 11:37:40.042,162592.885,0.068,0.715,-0.696,-0.019,-0.042,-0.017,-0.119,0.09,-0.101,0.097,-0.797,2.054
2024-09-23 11:37:40.054,162592.895,0.068,0.716,-0.695,-0.018,-0.03,-0.01,-0.075,0.078,-0.092,0.097,-0.798,2.053
2024-09-23 11:37:40.063,162592.905,0.067,0.716,-0.694,-0.012,-0.002,-0.001,-0.042,0.058,-0.072,0.097,-0.799,2.052
2024-09-23 11:37:40.072,162592.915,0.067,0.717,-0.694,-0.007,0.015,0.005,0.004,0.026,-0.054,0.097,-0.799,2.051
2024-09-23 11:37:40.082,162592.925,0.067,0.716,-0.694,0.001,0.027,0.012,0.077,0.004,-0.036,0.096,-0.799,2.05
2024-09-23 11:37:40.092,162592.935,0.067,0.716,-0.695,0.008,0.03,0.012,0.159,0.021,-0.039,0.096,-0.797,2.05
2024-09-23 11:37:40.103,162592.945,0.067,0.714,-0.697,0.008,0.023,0.015,0.193,0.027,-0.044,0.095,-0.796,2.049
2024-09-23 11:37:40.113,162592.955,0.066,0.713,-0.698,0.006,0.034,0.031,0.201,0.006,-0.052,0.095,-0.794,2.048
2024-09-23 11:37:40.123,162592.965,0.066,0.712,-0.7,-0.006,0.031,0.023,0.199,0.014,-0.062,0.094,-0.792,2.047
2024-09-23 11:37:40.133,162592.975,0.066,0.71,-0.701,-0.0,0.005,0.01,0.191,-0.002,-0.07,0.093,-0.79,2.045
2024-09-23 11:37:40.142,162592.985,0.065,0.709,-0.702,-0.001,-0.01,0.006,0.169,-0.015,-0.043,0.092,-0.788,2.044
2024-09-23 11:37:40.153,162592.995,0.065,0.708,-0.703,-0.007,-0.009,0.001,0.13,-0.022,-0.03,0.092,-0.787,2.044
2024-09-23 11:37:40.162,162593.005,0.064,0.707,-0.704,0.002,-0.006,-0.006,0.096,-0.038,-0.011,0.091,-0.786,2.043
2024-09-23 11:37:40.172,162593.015,0.064,0.707,-0.705,-0.007,-0.008,-0.006,0.113,-0.053,0.002,0.091,-0.785,2.043
2024-09-23 11:37:40.183,162593.025,0.064,0.706,-0.706,-0.01,-0.008,-0.003,0.155,-0.087,0.005,0.09,-0.784,2.043
2024-09-23 11:37:40.193,162593.035,0.063,0.704,-0.707,-0.007,-0.001,0.005,0.261,-0.152,0.001,0.089,-0.782,2.043
2024-09-23 11:37:40.203,162593.045,0.061,0.702,-0.709,0.002,0.011,0.017,0.465,-0.22,-0.019,0.086,-0.778,2.042
2024-09-23 11:37:40.213,162593.055,0.059,0.698,-0.714,0.008,0.03,0.028,0.673,-0.299,-0.044,0.083,-0.773,2.041
2024-09-23 11:37:40.223,162593.065,0.057,0.693,-0.719,0.022,0.077,0.046,0.9,-0.405,-0.051,0.079,-0.765,2.04
2024-09-23 11:37:40.233,162593.075,0.053,0.685,-0.726,0.034,0.103,0.06,1.078,-0.311,-0.151,0.073,-0.755,2.038
2024-09-23 11:37:40.242,162593.085,0.051,0.678,-0.733,0.04,0.094,0.051,0.949,-0.238,0.006,0.069,-0.745,2.036
2024-09-23 11:37:40.253,162593.095,0.049,0.672,-0.739,0.033,0.115,0.044,0.688,-0.173,-0.048,0.066,-0.736,2.035
2024-09-23 11:37:40.263,162593.105,0.048,0.668,-0.742,-0.044,0.05,0.012,0.198,-0.139,-0.012,0.064,-0.732,2.034
2024-09-23 11:37:40.273,162593.115,0.047,0.668,-0.742,-0.053,-0.105,-0.016,-0.121,-0.126,0.101,0.063,-0.732,2.034
2024-09-23 11:37:40.283,162593.125,0.047,0.67,-0.741,-0.005,-0.215,-0.034,-0.341,-0.175,0.146,0.063,-0.734,2.036
2024-09-23 11:37:40.292,162593.135,0.046,0.673,-0.738,-0.042,-0.14,-0.084,-0.528,-0.207,0.2,0.063,-0.738,2.039
2024-09-23 11:37:40.303,162593.145,0.047,0.677,-0.734,-0.0,-0.116,-0.059,-0.66,-0.125,0.205,0.063,-0.744,2.042
2024-09-23 11:37:40.312,162593.155,0.048,0.683,-0.729,-0.008,-0.119,-0.045,-0.797,0.051,0.208,0.065,-0.751,2.046
2024-09-23 11:37:40.323,162593.165,0.05,0.688,-0.724,-0.03,-0.079,-0.018,-0.778,0.256,0.208,0.069,-0.759,2.049
2024-09-23 11:37:40.332,162593.175,0.054,0.693,-0.719,-0.022,-0.015,0.033,-0.539,0.29,0.16,0.074,-0.766,2.052
2024-09-23 11:37:40.342,162593.185,0.056,0.696,-0.716,-0.033,0.014,0.019,-0.373,0.256,0.079,0.079,-0.77,2.055
2024-09-23 11:37:40.352,162593.195,0.058,0.699,-0.713,-0.028,0.081,0.013,-0.319,0.215,0.015,0.082,-0.773,2.055
2024-09-23 11:37:40.362,162593.205,0.06,0.701,-0.711,0.01,0.101,0.03,-0.407,0.182,-0.022,0.084,-0.777,2.056
2024-09-23 11:37:40.372,162593.215,0.061,0.704,-0.707,0.004,-0.007,0.011,-0.508,0.169,-0.05,0.086,-0.782,2.056
2024-09-23 11:37:40.382,162593.225,0.061,0.708,-0.703,-0.003,-0.051,-0.026,-0.551,0.155,-0.071,0.087,-0.787,2.056
2024-09-23 11:37:40.392,162593.235,0.062,0.712,-0.699,-0.023,-0.057,-0.033,-0.526,0.107,-0.086,0.088,-0.792,2.055
2024-09-23 11:37:40.402,162593.245,0.062,0.715,-0.696,-0.013,-0.054,-0.012,-0.408,0.055,-0.081,0.089,-0.797,2.055
2024-09-23 11:37:40.412,162593.255,0.061,0.717,-0.694,0.001,-0.013,-0.003,-0.15,-0.016,-0.083,0.088,-0.8,2.054
2024-09-23 11:37:40.422,162593.265,0.06,0.717,-0.694,0.007,0.04,0.016,0.168,-0.112,-0.088,0.087,-0.8,2.053
2024-09-23 11:37:40.433,162593.275,0.058,0.715,-0.697,0.018,0.078,0.042,0.54,-0.26,-0.074,0.084,-0.797,2.051
2024-09-23 11:37:40.442,162593.285,0.056,0.71,-0.702,0.029,0.122,0.058,0.91,-0.409,-0.053,0.079,-0.789,2.049
2024-09-23 11:37:40.453,162593.295,0.052,0.702,-0.71,0.041,0.131,0.076,1.273,-0.548,-0.006,0.073,-0.779,2.048
2024-09-23 11:37:40.462,162593.305,0.048,0.693,-0.719,0.061,0.137,0.085,1.231,-0.436,-0.04,0.067,-0.766,2.046
2024-09-23 11:37:40.472,162593.315,0.046,0.685,-0.727,0.047,0.152,0.085,0.912,-0.209,0.049,0.064,-0.755,2.045
2024-09-23 11:37:40.482,162593.325,0.045,0.68,-0.731,0.026,0.163,0.087,0.31,-0.119,0.048,0.062,-0.748,2.045
2024-09-23 11:37:40.492,162593.335,0.045,0.681,-0.731,-0.078,0.006,-0.035,-0.383,-0.014,0.104,0.062,-0.749,2.046
2024-09-23 11:37:40.502,162593.345,0.046,0.685,-0.727,-0.047,-0.235,-0.103,-0.655,0.077,0.133,0.064,-0.754,2.049
2024-09-23 11:37:40.512,162593.355,0.049,0.691,-0.721,-0.029,-0.334,-0.128,-1.139,0.254,0.107,0.067,-0.763,2.051
2024-09-23 11:37:40.522,162593.365,0.052,0.701,-0.712,-0.071,-0.193,-0.152,-1.397,0.402,0.18,0.073,-0.776,2.055
2024-09-23 11:37:40.532,162593.375,0.056,0.71,-0.702,-0.045,-0.158,-0.112,-1.266,0.48,0.14,0.08,-0.789,2.058
2024-09-23 11:37:40.542,162593.385,0.061,0.718,-0.693,-0.091,-0.16,-0.001,-1.225,0.605,0.113,0.088,-0.801,2.062
2024-09-23 11:37:40.552,162593.394,0.066,0.727,-0.683,-0.032,-0.033,0.043,-1.402,0.716,0.037,0.096,-0.814,2.064
2024-09-23 11:37:40.562,162593.404,0.071,0.737,-0.672,-0.025,0.052,0.068,-1.558,0.807,-0.021,0.106,-0.829,2.067
2024-09-23 11:37:40.573,162593.414,0.076,0.748,-0.659,-0.073,-0.001,0.022,-1.713,0.822,-0.083,0.115,-0.845,2.069
2024-09-23 11:37:40.582,162593.424,0.081,0.76,-0.645,-0.067,-0.077,-0.083,-1.775,0.848,-0.108,0.125,-0.863,2.07
2024-09-23 11:37:40.592,162593.434,0.086,0.771,-0.631,-0.028,-0.183,-0.1,-1.651,0.868,-0.117,0.135,-0.88,2.072
2024-09-23 11:37:40.602,162593.444,0.09,0.781,-0.619,-0.014,-0.135,-0.075,-1.464,0.899,-0.149,0.145,-0.896,2.073
2024-09-23 11:37:40.612,162593.454,0.094,0.789,-0.607,-0.011,-0.005,-0.026,-1.34,0.902,-0.155,0.154,-0.91,2.074
2024-09-23 11:37:40.622,162593.464,0.099,0.797,-0.596,-0.014,0.045,0.01,-1.172,0.846,-0.128,0.164,-0.922,2.075
2024-09-23 11:37:40.632,162593.474,0.102,0.803,-0.587,-0.015,0.025,-0.006,-1.014,0.767,-0.114,0.173,-0.933,2.076
2024-09-23 11:37:40.642,162593.484,0.105,0.809,-0.578,-0.009,0.025,-0.061,-0.872,0.619,-0.106,0.18,-0.943,2.077
2024-09-23 11:37:40.652,162593.494,0.108,0.813,-0.572,-0.017,0.022,-0.086,-0.621,0.45,-0.095,0.186,-0.95,2.078
2024-09-23 11:37:40.662,162593.504,0.109,0.816,-0.568,-0.005,-0.014,-0.038,-0.084,0.26,-0.142,0.189,-0.954,2.076
2024-09-23 11:37:40.672,162593.514,0.109,0.816,-0.568,0.005,0.03,0.024,0.039,0.013,-0.098,0.189,-0.954,2.075
2024-09-23 11:37:40.682,162593.524,0.108,0.816,-0.568,-0.003,0.094,0.016,-0.014,-0.134,-0.041,0.187,-0.954,2.073
2024-09-23 11:37:40.692,162593.534,0.107,0.816,-0.568,0.034,0.069,0.029,-0.128,-0.208,0.037,0.185,-0.955,2.074
2024-09-23 11:37:40.702,162593.544,0.106,0.816,-0.568,-0.0,0.062,0.083,0.029,-0.23,0.111,0.184,-0.955,2.075
2024-09-23 11:37:40.712,162593.554,0.106,0.815,-0.57,0.004,0.11,0.128,0.379,-0.224,0.208,0.184,-0.953,2.077
2024-09-23 11:37:40.721,162593.564,0.107,0.812,-0.574,0.004,0.157,0.128,0.613,-0.243,0.301,0.184,-0.947,2.08
2024-09-23 11:37:40.731,162593.574,0.108,0.808,-0.579,-0.015,0.215,0.103,0.539,-0.279,0.349,0.184,-0.941,2.083
2024-09-23 11:37:40.742,162593.584,0.109,0.805,-0.583,-0.03,0.186,0.128,0.35,-0.374,0.361,0.185,-0.936,2.088
2024-09-23 11:37:40.752,162593.594,0.11,0.803,-0.585,-0.04,0.136,0.144,0.147,-0.491,0.473,0.185,-0.933,2.094
2024-09-23 11:37:40.762,162593.604,0.11,0.802,-0.587,-0.085,0.094,0.117,0.002,-0.618,0.5,0.186,-0.931,2.102
2024-09-23 11:37:40.771,162593.614,0.111,0.802,-0.587,-0.084,0.041,0.11,-0.084,-0.69,0.535,0.186,-0.931,2.111
2024-09-23 11:37:40.782,162593.624,0.111,0.802,-0.587,-0.074,0.0,0.112,-0.106,-0.616,0.556,0.187,-0.931,2.12
2024-09-23 11:37:40.792,162593.634,0.112,0.801,-0.588,-0.083,-0.003,0.092,0.279,-0.679,0.547,0.188,-0.929,2.129
2024-09-23 11:37:40.802,162593.644,0.112,0.797,-0.593,-0.074,-0.019,0.103,0.844,-0.688,0.456,0.186,-0.922,2.135
2024-09-23 11:37:40.812,162593.654,0.111,0.79,-0.602,-0.011,-0.036,0.153,1.213,-0.663,0.357,0.182,-0.911,2.139
2024-09-23 11:37:40.821,162593.664,0.109,0.782,-0.613,0.09,0.072,0.08,1.261,-0.681,0.238,0.176,-0.899,2.14
2024-09-23 11:37:40.832,162593.674,0.106,0.775,-0.623,0.062,0.076,0.014,1.054,-0.714,0.112,0.169,-0.887,2.14
2024-09-23 11:37:40.841,162593.684,0.102,0.769,-0.631,0.047,-0.066,0.007,0.908,-0.709,-0.007,0.161,-0.877,2.138
2024-09-23 11:37:40.851,162593.694,0.098,0.763,-0.639,0.065,-0.159,0.018,0.892,-0.675,-0.083,0.152,-0.868,2.135
2024-09-23 11:37:40.861,162593.704,0.093,0.757,-0.647,0.073,-0.163,-0.015,1.07,-0.634,-0.083,0.142,-0.859,2.131
2024-09-23 11:37:40.871,162593.714,0.088,0.75,-0.656,0.077,-0.159,-0.073,1.116,-0.559,-0.108,0.134,-0.848,2.128
2024-09-23 11:37:40.881,162593.724,0.084,0.744,-0.663,0.108,-0.147,-0.17,0.807,-0.427,-0.127,0.126,-0.838,2.124
2024-09-23 11:37:40.891,162593.734,0.08,0.74,-0.668,0.114,-0.071,-0.226,0.482,-0.272,-0.182,0.12,-0.832,2.121
2024-09-23 11:37:40.901,162593.744,0.078,0.737,-0.671,0.052,-0.0,-0.123,0.271,-0.147,-0.197,0.115,-0.829,2.117
2024-09-23 11:37:40.911,162593.754,0.075,0.736,-0.673,-0.008,0.028,-0.016,0.15,-0.127,-0.176,0.112,-0.827,2.114
2024-09-23 11:37:40.921,162593.764,0.073,0.736,-0.673,-0.022,0.008,-0.007,0.002,-0.137,-0.127,0.108,-0.827,2.112
2024-09-23 11:37:40.931,162593.774,0.072,0.736,-0.673,-0.02,-0.073,-0.028,-0.026,-0.125,-0.06,0.106,-0.827,2.11
2024-09-23 11:37:40.941,162593.784,0.071,0.736,-0.674,-0.018,-0.074,-0.051,0.053,-0.099,0.001,0.105,-0.827,2.11
2024-09-23 11:37:40.951,162593.794,0.07,0.735,-0.674,-0.043,-0.003,-0.033,0.124,-0.047,0.007,0.104,-0.826,2.11
2024-09-23 11:37:40.962,162593.804,0.07,0.734,-0.675,-0.029,0.027,0.003,0.191,0.031,0.036,0.104,-0.824,2.11
2024-09-23 11:37:40.970,162593.814,0.071,0.733,-0.677,-0.017,0.024,0.045,0.218,0.121,0.038,0.105,-0.822,2.11
2024-09-23 11:37:40.981,162593.824,0.072,0.731,-0.678,-0.008,0.039,0.043,0.202,0.138,0.029,0.106,-0.82,2.11
2024-09-23 11:37:40.991,162593.834,0.073,0.73,-0.679,-0.017,0.043,0.014,0.119,0.144,0.002,0.108,-0.818,2.11
2024-09-23 11:37:41.001,162593.844,0.074,0.729,-0.68,-0.021,-0.008,-0.0,0.079,0.127,-0.01,0.109,-0.817,2.11
2024-09-23 11:37:41.011,162593.854,0.075,0.729,-0.681,-0.002,-0.044,-0.005,0.088,0.094,-0.044,0.11,-0.817,2.11
2024-09-23 11:37:41.021,162593.864,0.075,0.728,-0.681,-0.01,-0.042,-0.008,0.104,0.065,-0.073,0.11,-0.816,2.109
2024-09-23 11:37:41.031,162593.874,0.075,0.728,-0.682,-0.005,-0.012,-0.001,0.086,0.032,-0.122,0.109,-0.815,2.107
2024-09-23 11:37:41.041,162593.884,0.074,0.727,-0.682,0.005,-0.003,0.007,0.017,0.022,-0.118,0.108,-0.814,2.105
2024-09-23 11:37:41.051,162593.894,0.073,0.727,-0.682,0.009,-0.015,0.002,0.012,0.01,-0.107,0.107,-0.815,2.103
2024-09-23 11:37:41.061,162593.904,0.072,0.727,-0.682,0.009,-0.023,-0.002,0.04,-0.002,-0.121,0.106,-0.814,2.102
2024-09-23 11:37:41.071,162593.914,0.071,0.727,-0.683,0.001,0.005,0.007,0.098,-0.008,-0.111,0.104,-0.814,2.1
2024-09-23 11:37:41.081,162593.924,0.071,0.726,-0.684,0.003,0.031,0.009,0.172,-0.04,-0.1,0.103,-0.813,2.098
2024-09-23 11:37:41.091,162593.934,0.069,0.725,-0.685,0.002,0.03,0.013,0.24,-0.057,-0.106,0.101,-0.811,2.097
2024-09-23 11:37:41.101,162593.944,0.068,0.723,-0.687,0.006,0.038,0.022,0.295,-0.025,-0.082,0.099,-0.808,2.095
2024-09-23 11:37:41.111,162593.954,0.068,0.721,-0.69,0.004,0.037,0.017,0.384,-0.018,-0.092,0.098,-0.805,2.093
2024-09-23 11:37:41.121,162593.964,0.067,0.718,-0.693,-0.001,0.029,0.022,0.377,-0.009,-0.089,0.096,-0.801,2.091
2024-09-23 11:37:41.131,162593.974,0.067,0.716,-0.695,-0.001,0.031,0.031,0.331,0.027,-0.062,0.095,-0.798,2.09
2024-09-23 11:37:41.141,162593.984,0.066,0.714,-0.697,0.002,0.021,0.011,0.251,0.022,-0.067,0.095,-0.795,2.088
2024-09-23 11:37:41.151,162593.993,0.066,0.712,-0.699,-0.017,-0.022,-0.005,0.135,0.034,-0.059,0.094,-0.793,2.087
2024-09-23 11:37:41.161,162594.003,0.066,0.712,-0.699,-0.007,-0.051,-0.004,0.034,0.035,-0.034,0.094,-0.792,2.086
2024-09-23 11:37:41.171,162594.013,0.066,0.712,-0.699,-0.014,-0.028,-0.016,0.028,0.057,-0.013,0.094,-0.792,2.086
2024-09-23 11:37:41.181,162594.023,0.066,0.712,-0.699,-0.021,-0.032,-0.012,0.05,0.055,-0.026,0.095,-0.792,2.086
2024-09-23 11:37:41.191,162594.033,0.066,0.711,-0.7,-0.012,-0.014,0.01,0.026,0.062,-0.058,0.095,-0.791,2.085
2024-09-23 11:37:41.201,162594.043,0.067,0.712,-0.699,-0.017,0.018,0.008,-0.059,0.074,-0.058,0.095,-0.792,2.084
2024-09-23 11:37:41.212,162594.053,0.067,0.712,-0.699,-0.009,-0.016,-0.004,-0.129,0.059,-0.055,0.095,-0.793,2.084
2024-09-23 11:37:41.221,162594.063,0.067,0.713,-0.698,-0.012,-0.036,-0.015,-0.115,0.018,-0.06,0.095,-0.794,2.083
2024-09-23 11:37:41.231,162594.073,0.066,0.714,-0.697,-0.006,-0.022,-0.015,-0.018,-0.013,-0.075,0.094,-0.795,2.082
2024-09-23 11:37:41.241,162594.083,0.065,0.713,-0.698,0.005,-0.008,-0.0,0.133,-0.049,-0.078,0.093,-0.794,2.081
2024-09-23 11:37:41.251,162594.093,0.064,0.712,-0.699,0.014,0.032,0.024,0.272,-0.108,-0.067,0.092,-0.792,2.08
2024-09-23 11:37:41.260,162594.103,0.063,0.71,-0.702,0.022,0.053,0.029,0.43,-0.185,-0.048,0.089,-0.789,2.078
2024-09-23 11:37:41.271,162594.113,0.061,0.706,-0.706,0.026,0.05,0.029,0.604,-0.275,-0.039,0.086,-0.784,2.077
2024-09-23 11:37:41.281,162594.123,0.058,0.701,-0.711,0.02,0.055,0.04,0.787,-0.371,-0.036,0.082,-0.777,2.076
2024-09-23 11:37:41.291,162594.133,0.055,0.695,-0.717,0.022,0.069,0.047,0.994,-0.454,-0.024,0.077,-0.768,2.074
2024-09-23 11:37:41.301,162594.143,0.052,0.687,-0.725,0.025,0.075,0.049,1.105,-0.277,-0.161,0.071,-0.758,2.073
2024-09-23 11:37:41.311,162594.153,0.05,0.68,-0.731,0.031,0.083,0.05,0.787,-0.192,0.063,0.068,-0.748,2.071
2024-09-23 11:37:41.321,162594.163,0.049,0.676,-0.736,0.018,0.095,0.052,0.395,-0.091,-0.061,0.066,-0.742,2.07
2024-09-23 11:37:41.331,162594.173,0.048,0.675,-0.737,-0.065,0.017,-0.004,-0.094,-0.09,0.027,0.065,-0.74,2.07
2024-09-23 11:37:41.341,162594.183,0.047,0.677,-0.734,-0.08,-0.185,-0.05,-0.583,-0.109,0.121,0.065,-0.744,2.071
2024-09-23 11:37:41.351,162594.193,0.048,0.683,-0.729,-0.001,-0.272,-0.064,-0.888,-0.054,0.173,0.066,-0.751,2.074
2024-09-23 11:37:41.361,162594.203,0.049,0.689,-0.723,-0.046,-0.183,-0.101,-0.808,-0.085,0.171,0.067,-0.76,2.077
2024-09-23 11:37:41.370,162594.213,0.05,0.694,-0.718,-0.024,-0.15,-0.058,-0.76,0.084,0.201,0.069,-0.767,2.081
2024-09-23 11:37:41.380,162594.223,0.052,0.699,-0.713,0.002,-0.053,-0.052,-0.615,0.219,0.14,0.073,-0.774,2.084
2024-09-23 11:37:41.391,162594.233,0.055,0.702,-0.71,0.003,0.058,-0.005,-0.304,0.298,0.082,0.077,-0.779,2.086
2024-09-23 11:37:41.400,162594.243,0.057,0.704,-0.708,-0.045,0.064,0.061,-0.114,0.302,0.038,0.081,-0.781,2.087
2024-09-23 11:37:41.410,162594.253,0.06,0.705,-0.707,-0.009,0.139,0.06,-0.114,0.26,0.009,0.084,-0.782,2.087
2024-09-23 11:37:41.420,162594.263,0.061,0.706,-0.706,-0.003,0.077,0.046,-0.238,0.231,-0.012,0.087,-0.783,2.087
2024-09-23 11:37:41.430,162594.273,0.063,0.708,-0.704,-0.005,0.007,0.005,-0.36,0.179,-0.033,0.089,-0.787,2.087
2024-09-23 11:37:41.440,162594.283,0.063,0.711,-0.701,-0.027,-0.063,-0.033,-0.403,0.134,-0.063,0.09,-0.79,2.087
2024-09-23 11:37:41.450,162594.293,0.063,0.713,-0.698,-0.015,-0.09,-0.025,-0.303,0.05,-0.094,0.091,-0.794,2.087
2024-09-23 11:37:41.460,162594.303,0.063,0.715,-0.697,-0.002,-0.045,-0.013,-0.103,-0.03,-0.12,0.09,-0.796,2.085
2024-09-23 11:37:41.470,162594.313,0.061,0.715,-0.697,0.014,0.018,0.011,0.134,-0.119,-0.108,0.088,-0.796,2.084
2024-09-23 11:37:41.480,162594.323,0.059,0.713,-0.699,0.034,0.075,0.038,0.482,-0.256,-0.055,0.085,-0.793,2.082
2024-09-23 11:37:41.490,162594.333,0.057,0.708,-0.704,0.027,0.107,0.049,0.815,-0.424,-0.021,0.081,-0.787,2.081
2024-09-23 11:37:41.501,162594.343,0.053,0.701,-0.711,0.037,0.111,0.058,1.12,-0.548,-0.005,0.075,-0.777,2.08
2024-09-23 11:37:41.511,162594.353,0.049,0.693,-0.719,0.058,0.136,0.077,1.04,-0.444,-0.008,0.069,-0.766,2.078
2024-09-23 11:37:41.520,162594.363,0.047,0.687,-0.725,0.047,0.143,0.09,0.7,-0.18,0.015,0.065,-0.758,2.077
2024-09-23 11:37:41.530,162594.373,0.047,0.685,-0.728,0.017,0.127,0.059,-0.013,-0.053,0.075,0.064,-0.754,2.078
2024-09-23 11:37:41.540,162594.383,0.048,0.687,-0.725,-0.078,-0.064,-0.082,-0.697,0.141,0.138,0.066,-0.758,2.079
2024-09-23 11:37:41.550,162594.393,0.05,0.693,-0.719,-0.03,-0.257,-0.112,-0.99,0.226,0.187,0.07,-0.766,2.083
2024-09-23 11:37:41.560,162594.403,0.053,0.701,-0.711,-0.093,-0.314,-0.131,-1.187,0.292,0.164,0.075,-0.777,2.086
2024-09-23 11:37:41.570,162594.413,0.057,0.709,-0.703,-0.096,-0.189,-0.127,-1.052,0.316,0.187,0.081,-0.788,2.09
2024-09-23 11:37:41.580,162594.423,0.06,0.715,-0.696,-0.052,-0.13,-0.037,-0.762,0.266,0.131,0.086,-0.797,2.093
2024-09-23 11:37:41.590,162594.433,0.063,0.72,-0.691,-0.033,-0.037,0.076,-0.648,0.275,0.094,0.09,-0.804,2.096
2024-09-23 11:37:41.601,162594.443,0.065,0.724,-0.687,-0.0,0.085,0.109,-0.615,0.245,0.066,0.095,-0.81,2.098
2024-09-23 11:37:41.610,162594.453,0.067,0.728,-0.682,-0.013,0.138,0.07,-0.591,0.169,0.102,0.098,-0.816,2.1
2024-09-23 11:37:41.620,162594.463,0.069,0.732,-0.677,-0.037,0.047,-0.011,-0.625,0.12,0.087,0.101,-0.822,2.102
2024-09-23 11:37:41.630,162594.473,0.07,0.736,-0.673,-0.001,-0.07,-0.035,-0.613,0.147,0.073,0.104,-0.828,2.104
2024-09-23 11:37:41.640,162594.483,0.072,0.741,-0.668,0.003,-0.062,-0.015,-0.625,0.194,0.036,0.107,-0.834,2.106
2024-09-23 11:37:41.650,162594.493,0.073,0.744,-0.664,-0.023,0.044,0.005,-0.488,0.168,-0.022,0.11,-0.839,2.107
2024-09-23 11:37:41.660,162594.503,0.074,0.747,-0.66,-0.045,0.098,0.061,-0.495,0.156,-0.014,0.111,-0.844,2.107
2024-09-23 11:37:41.670,162594.513,0.074,0.751,-0.656,-0.023,0.102,0.098,-0.585,0.011,-0.032,0.113,-0.849,2.108
2024-09-23 11:37:41.680,162594.523,0.075,0.754,-0.653,-0.011,0.103,0.155,-0.309,0.01,0.133,0.114,-0.853,2.11
2024-09-23 11:37:41.690,162594.533,0.072,0.756,-0.65,-0.086,0.15,0.247,-0.718,-0.765,-0.988,0.11,-0.858,2.108
2024-09-23 11:37:41.700,162594.543,0.068,0.763,-0.643,-0.05,0.213,-0.027,-0.842,-0.25,0.076,0.106,-0.867,2.106
2024-09-23 11:37:41.710,162594.553,0.065,0.767,-0.638,-0.188,-0.073,0.046,-0.667,-0.395,-0.074,0.102,-0.875,2.106
2024-09-23 11:37:41.720,162594.563,0.063,0.771,-0.634,-0.209,0.046,0.144,-0.461,-0.375,-0.062,0.098,-0.881,2.106
2024-09-23 11:37:41.730,162594.573,0.06,0.773,-0.631,0.1,0.134,-0.08,-0.297,-0.315,0.01,0.095,-0.884,2.106
2024-09-23 11:37:41.739,162594.583,0.059,0.775,-0.629,-0.148,-0.007,-0.107,-0.349,-0.224,0.035,0.093,-0.887,2.107
2024-09-23 11:37:41.749,162594.592,0.058,0.777,-0.626,-0.071,0.053,-0.071,-0.285,-0.108,0.068,0.092,-0.891,2.108
2024-09-23 11:37:41.759,162594.602,0.058,0.778,-0.625,-0.043,-0.056,0.006,-0.013,-0.052,0.115,0.093,-0.892,2.11
2024-09-23 11:37:41.770,162594.612,0.059,0.777,-0.626,-0.04,-0.144,0.023,0.293,-0.023,0.147,0.094,-0.891,2.112
2024-09-23 11:37:41.780,162594.622,0.06,0.775,-0.63,0.025,-0.156,-0.002,0.558,0.025,0.189,0.096,-0.886,2.114
2024-09-23 11:37:41.790,162594.632,0.063,0.77,-0.635,0.059,-0.136,-0.05,0.73,0.061,0.281,0.098,-0.879,2.117
2024-09-23 11:37:41.800,162594.642,0.065,0.765,-0.64,0.073,-0.115,-0.068,0.756,0.064,0.313,0.102,-0.872,2.12
2024-09-23 11:37:41.810,162594.652,0.068,0.759,-0.647,0.121,-0.085,-0.042,0.736,0.076,0.224,0.105,-0.862,2.124
2024-09-23 11:37:41.820,162594.662,0.07,0.755,-0.652,0.187,-0.055,-0.023,0.568,0.098,0.072,0.107,-0.856,2.125
2024-09-23 11:37:41.830,162594.672,0.07,0.752,-0.655,0.254,0.015,-0.087,0.423,0.021,-0.144,0.107,-0.851,2.124
2024-09-23 11:37:41.840,162594.682,0.068,0.75,-0.658,0.151,0.097,-0.061,0.244,-0.072,-0.367,0.103,-0.848,2.12
2024-09-23 11:37:41.851,162594.692,0.065,0.749,-0.659,0.044,-0.042,-0.033,0.085,-0.031,-0.357,0.098,-0.847,2.113
2024-09-23 11:37:41.859,162594.702,0.063,0.749,-0.66,0.092,-0.107,-0.032,0.093,-0.041,-0.262,0.095,-0.846,2.109
2024-09-23 11:37:41.870,162594.712,0.061,0.748,-0.661,0.034,-0.061,-0.042,0.136,0.002,-0.181,0.092,-0.845,2.106
2024-09-23 11:37:41.879,162594.722,0.06,0.747,-0.662,0.062,-0.015,-0.035,0.206,0.011,-0.12,0.09,-0.844,2.103
2024-09-23 11:37:41.889,162594.732,0.059,0.746,-0.664,0.043,0.036,-0.002,0.243,0.015,-0.091,0.089,-0.842,2.101
2024-09-23 11:37:41.900,162594.742,0.059,0.744,-0.665,-0.018,0.053,0.015,0.245,0.012,-0.064,0.088,-0.839,2.1
2024-09-23 11:37:41.909,162594.752,0.058,0.743,-0.667,-0.029,0.037,0.036,0.231,-0.001,-0.051,0.087,-0.837,2.099
2024-09-23 11:37:41.919,162594.762,0.058,0.741,-0.669,-0.04,0.033,0.027,0.237,-0.017,-0.055,0.086,-0.835,2.098
2024-09-23 11:37:41.929,162594.772,0.057,0.74,-0.671,-0.05,0.009,0.018,0.23,-0.03,-0.052,0.085,-0.832,2.096
2024-09-23 11:37:41.940,162594.782,0.057,0.738,-0.672,-0.048,0.012,0.017,0.231,-0.019,-0.03,0.084,-0.83,2.096
2024-09-23 11:37:41.949,162594.792,0.057,0.736,-0.674,-0.051,0.007,0.011,0.289,-0.006,-0.01,0.084,-0.828,2.095
2024-09-23 11:37:41.959,162594.802,0.057,0.734,-0.677,-0.044,-0.002,0.012,0.354,0.022,-0.004,0.083,-0.824,2.094
2024-09-23 11:37:41.969,162594.812,0.057,0.732,-0.679,-0.03,0.017,0.018,0.375,0.045,-0.005,0.083,-0.821,2.094
2024-09-23 11:37:41.980,162594.822,0.057,0.729,-0.682,-0.011,0.042,0.025,0.342,0.027,-0.009,0.083,-0.817,2.093
2024-09-23 11:37:41.990,162594.832,0.057,0.727,-0.684,-0.007,0.033,0.016,0.278,0.033,-0.019,0.083,-0.814,2.093
2024-09-23 11:37:42.000,162594.842,0.057,0.725,-0.686,-0.005,-0.009,0.0,0.211,0.027,-0.022,0.083,-0.812,2.092
2024-09-23 11:37:42.009,162594.852,0.057,0.724,-0.687,0.003,-0.03,0.0,0.161,0.032,-0.028,0.083,-0.81,2.092
2024-09-23 11:37:42.019,162594.862,0.057,0.723,-0.688,0.003,-0.035,0.002,0.092,0.012,-0.046,0.083,-0.809,2.091
2024-09-23 11:37:42.029,162594.872,0.057,0.723,-0.689,-0.005,-0.022,-0.004,0.017,0.003,-0.044,0.082,-0.808,2.09
2024-09-23 11:37:42.039,162594.882,0.056,0.723,-0.688,-0.002,-0.018,-0.008,-0.024,-0.007,-0.029,0.082,-0.808,2.09
2024-09-23 11:37:42.049,162594.892,0.056,0.723,-0.688,-0.003,-0.024,-0.011,-0.025,-0.022,-0.03,0.081,-0.809,2.089
2024-09-23 11:37:42.059,162594.902,0.056,0.723,-0.688,-0.011,-0.022,-0.005,0.006,0.012,-0.037,0.081,-0.809,2.089
2024-09-23 11:37:42.069,162594.912,0.056,0.723,-0.688,-0.005,-0.006,0.001,0.07,0.026,-0.045,0.081,-0.809,2.088
2024-09-23 11:37:42.079,162594.922,0.055,0.723,-0.689,-0.011,0.006,0.002,0.134,0.013,-0.05,0.08,-0.808,2.087
2024-09-23 11:37:42.089,162594.932,0.055,0.722,-0.69,-0.013,0.019,0.013,0.181,0.002,-0.049,0.08,-0.806,2.086
2024-09-23 11:37:42.099,162594.942,0.055,0.72,-0.692,0.008,0.026,0.023,0.222,-0.027,-0.037,0.079,-0.804,2.086
2024-09-23 11:37:42.110,162594.952,0.054,0.718,-0.693,0.01,0.021,0.012,0.257,-0.068,-0.021,0.078,-0.802,2.085
2024-09-23 11:37:42.119,162594.962,0.053,0.717,-0.696,0.007,0.004,0.004,0.287,-0.099,-0.006,0.077,-0.799,2.084
2024-09-23 11:37:42.129,162594.972,0.053,0.714,-0.698,0.011,0.005,0.011,0.348,-0.135,0.009,0.075,-0.796,2.084
2024-09-23 11:37:42.139,162594.982,0.052,0.712,-0.701,0.001,0.026,0.022,0.376,-0.146,0.028,0.074,-0.792,2.084
2024-09-23 11:37:42.149,162594.992,0.051,0.709,-0.703,-0.004,0.033,0.024,0.405,-0.162,0.027,0.072,-0.788,2.084
2024-09-23 11:37:42.159,162595.002,0.05,0.706,-0.706,-0.001,0.033,0.029,0.455,-0.198,0.022,0.07,-0.784,2.084
2024-09-23 11:37:42.169,162595.012,0.048,0.703,-0.71,-0.001,0.024,0.027,0.526,-0.22,-0.005,0.068,-0.779,2.083
2024-09-23 11:37:42.179,162595.022,0.047,0.699,-0.714,0.006,0.013,0.024,0.608,-0.241,-0.029,0.065,-0.774,2.083
2024-09-23 11:37:42.189,162595.032,0.045,0.695,-0.718,0.017,0.03,0.03,0.62,-0.207,-0.064,0.062,-0.768,2.081
2024-09-23 11:37:42.199,162595.042,0.044,0.691,-0.722,0.013,0.041,0.029,0.483,-0.092,-0.061,0.06,-0.762,2.081
2024-09-23 11:37:42.209,162595.052,0.042,0.688,-0.725,0.001,0.043,0.019,0.276,-0.121,-0.014,0.058,-0.758,2.079
2024-09-23 11:37:42.219,162595.062,0.041,0.686,-0.726,-0.047,-0.025,-0.016,0.137,-0.09,-0.027,0.057,-0.756,2.079
2024-09-23 11:37:42.229,162595.072,0.041,0.685,-0.727,-0.02,-0.119,-0.022,0.133,-0.077,-0.012,0.056,-0.755,2.079
2024-09-23 11:37:42.240,162595.082,0.04,0.684,-0.728,-0.003,-0.084,-0.024,0.18,-0.055,-0.023,0.055,-0.754,2.078
2024-09-23 11:37:42.249,162595.092,0.04,0.683,-0.73,-0.012,0.008,0.007,0.229,-0.039,-0.014,0.054,-0.752,2.078
2024-09-23 11:37:42.259,162595.102,0.039,0.681,-0.731,0.002,0.021,0.02,0.228,-0.027,-0.009,0.054,-0.749,2.078
2024-09-23 11:37:42.269,162595.112,0.039,0.68,-0.732,-0.001,0.031,0.017,0.113,-0.037,0.033,0.053,-0.748,2.077
2024-09-23 11:37:42.279,162595.122,0.039,0.68,-0.732,-0.004,0.006,0.016,-0.094,-0.03,0.113,0.054,-0.747,2.078
2024-09-23 11:37:42.289,162595.132,0.04,0.681,-0.731,-0.003,-0.024,-0.01,-0.322,0.001,0.192,0.055,-0.749,2.08
2024-09-23 11:37:42.299,162595.142,0.042,0.684,-0.728,-0.025,-0.055,-0.036,-0.537,0.039,0.174,0.057,-0.753,2.084
2024-09-23 11:37:42.309,162595.152,0.043,0.689,-0.724,-0.026,-0.101,-0.039,-0.69,0.065,0.227,0.06,-0.76,2.087
2024-09-23 11:37:42.319,162595.162,0.045,0.694,-0.719,-0.014,-0.094,-0.042,-0.753,0.138,0.14,0.063,-0.767,2.09
2024-09-23 11:37:42.329,162595.172,0.048,0.699,-0.713,-0.011,-0.059,-0.032,-0.739,0.227,0.167,0.067,-0.774,2.093
2024-09-23 11:37:42.339,162595.182,0.051,0.704,-0.709,-0.027,-0.037,-0.031,-0.594,0.331,0.159,0.072,-0.781,2.096
2024-09-23 11:37:42.349,162595.191,0.054,0.707,-0.705,-0.036,-0.028,-0.017,-0.459,0.319,0.094,0.077,-0.786,2.098
2024-09-23 11:37:42.359,162595.201,0.057,0.71,-0.701,-0.041,0.011,0.011,-0.463,0.278,0.046,0.08,-0.79,2.1
2024-09-23 11:37:42.369,162595.211,0.059,0.714,-0.698,-0.011,0.049,0.023,-0.576,0.288,0.02,0.084,-0.795,2.101
2024-09-23 11:37:42.378,162595.221,0.061,0.719,-0.693,0.011,0.017,0.002,-0.72,0.282,0.002,0.088,-0.802,2.102
2024-09-23 11:37:42.389,162595.231,0.063,0.724,-0.687,-0.017,-0.063,-0.027,-0.768,0.262,-0.026,0.091,-0.809,2.102
2024-09-23 11:37:42.399,162595.241,0.064,0.729,-0.682,-0.027,-0.103,-0.037,-0.706,0.229,-0.061,0.094,-0.817,2.103
2024-09-23 11:37:42.409,162595.251,0.065,0.733,-0.677,-0.015,-0.067,-0.027,-0.569,0.179,-0.087,0.096,-0.823,2.103
2024-09-23 11:37:42.419,162595.261,0.065,0.737,-0.673,-0.003,-0.011,0.001,-0.375,0.109,-0.092,0.097,-0.828,2.102
2024-09-23 11:37:42.429,162595.271,0.065,0.738,-0.671,0.012,0.036,0.019,-0.15,0.006,-0.08,0.096,-0.831,2.101
2024-09-23 11:37:42.439,162595.281,0.064,0.739,-0.671,0.014,0.066,0.033,0.113,-0.117,-0.063,0.095,-0.831,2.1
2024-09-23 11:37:42.449,162595.291,0.062,0.737,-0.673,0.028,0.084,0.044,0.467,-0.257,-0.02,0.093,-0.828,2.099
2024-09-23 11:37:42.458,162595.301,0.06,0.732,-0.679,0.038,0.108,0.057,0.892,-0.415,0.021,0.089,-0.821,2.098
2024-09-23 11:37:42.469,162595.311,0.057,0.725,-0.687,0.043,0.131,0.069,1.212,-0.545,0.007,0.083,-0.811,2.097
2024-09-23 11:37:42.478,162595.321,0.053,0.716,-0.697,0.057,0.162,0.081,1.462,-0.671,0.034,0.076,-0.797,2.096
2024-09-23 11:37:42.488,162595.331,0.048,0.705,-0.708,0.05,0.157,0.095,1.539,-0.587,-0.025,0.068,-0.782,2.095
2024-09-23 11:37:42.499,162595.341,0.045,0.695,-0.718,0.043,0.126,0.093,1.233,-0.436,0.165,0.062,-0.768,2.092
2024-09-23 11:37:42.509,162595.351,0.044,0.689,-0.724,0.038,0.118,0.076,0.463,0.014,-0.078,0.061,-0.76,2.093
2024-09-23 11:37:42.519,162595.361,0.044,0.689,-0.723,-0.018,0.056,0.008,-0.51,0.072,0.175,0.061,-0.76,2.094
2024-09-23 11:37:42.528,162595.371,0.047,0.695,-0.717,-0.167,-0.24,-0.149,-1.135,0.201,0.235,0.065,-0.768,2.097
2024-09-23 11:37:42.538,162595.381,0.05,0.703,-0.709,-0.066,-0.472,-0.143,-1.217,0.342,0.266,0.071,-0.78,2.102
2024-09-23 11:37:42.548,162595.391,0.055,0.711,-0.701,-0.052,-0.347,-0.131,-0.993,0.316,0.311,0.078,-0.791,2.107
2024-09-23 11:37:42.558,162595.401,0.059,0.717,-0.695,-0.107,-0.078,-0.047,-0.623,0.277,0.285,0.084,-0.799,2.112
2024-09-23 11:37:42.568,162595.411,0.063,0.72,-0.691,-0.044,-0.013,0.033,-0.367,0.289,0.335,0.091,-0.804,2.117
2024-09-23 11:37:42.578,162595.421,0.067,0.722,-0.689,0.022,0.104,0.071,-0.308,0.307,0.317,0.098,-0.807,2.123
2024-09-23 11:37:42.588,162595.431,0.072,0.724,-0.686,-0.013,0.122,0.06,-0.361,0.271,0.306,0.104,-0.81,2.128
2024-09-23 11:37:42.599,162595.441,0.076,0.726,-0.683,-0.04,0.027,0.002,-0.417,0.283,0.265,0.11,-0.813,2.132
2024-09-23 11:37:42.608,162595.451,0.079,0.729,-0.68,-0.019,-0.071,-0.013,-0.428,0.286,0.216,0.116,-0.817,2.136
2024-09-23 11:37:42.620,162595.461,0.083,0.732,-0.676,-0.02,-0.051,-0.015,-0.453,0.261,0.213,0.122,-0.821,2.14
2024-09-23 11:37:42.629,162595.471,0.086,0.735,-0.673,-0.047,0.007,-0.005,-0.53,0.217,0.195,0.127,-0.826,2.144
2024-09-23 11:37:42.638,162595.481,0.089,0.739,-0.668,-0.022,-0.005,-0.014,-0.603,0.192,0.2,0.132,-0.831,2.148
2024-09-23 11:37:42.648,162595.491,0.091,0.743,-0.663,-0.001,-0.034,-0.03,-0.644,0.102,0.202,0.137,-0.837,2.153
2024-09-23 11:37:42.658,162595.501,0.093,0.746,-0.659,-0.002,-0.06,-0.022,-0.509,-0.038,0.161,0.14,-0.843,2.156
2024-09-23 11:37:42.668,162595.511,0.093,0.748,-0.657,0.016,-0.027,-0.014,-0.063,-0.19,0.154,0.141,-0.845,2.159
2024-09-23 11:37:42.678,162595.521,0.093,0.747,-0.658,0.027,0.009,0.015,0.433,-0.199,0.079,0.14,-0.843,2.161
2024-09-23 11:37:42.688,162595.531,0.092,0.743,-0.663,0.06,0.138,0.087,0.678,-0.222,-0.005,0.137,-0.838,2.16
2024-09-23 11:37:42.698,162595.541,0.09,0.739,-0.668,0.037,0.29,0.117,0.664,-0.239,-0.019,0.134,-0.831,2.159
2024-09-23 11:37:42.708,162595.551,0.088,0.734,-0.673,0.008,0.156,0.06,0.639,-0.254,-0.014,0.13,-0.825,2.157
2024-09-23 11:37:42.718,162595.561,0.086,0.73,-0.678,0.036,-0.031,0.008,0.62,-0.229,-0.027,0.127,-0.818,2.156
2024-09-23 11:37:42.728,162595.571,0.085,0.726,-0.682,0.033,-0.042,0.007,0.566,-0.188,-0.037,0.124,-0.813,2.154
2024-09-23 11:37:42.738,162595.581,0.083,0.723,-0.686,0.006,0.014,0.011,0.456,-0.144,-0.035,0.121,-0.807,2.153
2024-09-23 11:37:42.749,162595.591,0.082,0.72,-0.689,-0.007,0.001,0.004,0.327,-0.121,-0.051,0.119,-0.804,2.151
2024-09-23 11:37:42.758,162595.601,0.081,0.718,-0.691,-0.01,-0.041,-0.01,0.22,-0.113,-0.056,0.117,-0.801,2.15
2024-09-23 11:37:42.768,162595.611,0.08,0.717,-0.693,-0.018,-0.056,-0.022,0.152,-0.12,-0.064,0.115,-0.799,2.149
2024-09-23 11:37:42.778,162595.621,0.079,0.716,-0.694,-0.012,-0.048,-0.016,0.093,-0.104,-0.058,0.113,-0.798,2.148
2024-09-23 11:37:42.788,162595.631,0.078,0.716,-0.694,-0.011,-0.039,-0.007,-0.006,-0.036,-0.023,0.112,-0.798,2.147
2024-09-23 11:37:42.798,162595.641,0.078,0.716,-0.694,-0.013,-0.037,-0.002,-0.092,-0.005,0.023,0.111,-0.798,2.147
2024-09-23 11:37:42.808,162595.651,0.078,0.717,-0.693,-0.018,-0.022,-0.01,-0.143,0.027,0.035,0.112,-0.799,2.148
2024-09-23 11:37:42.818,162595.661,0.078,0.718,-0.692,-0.03,-0.014,-0.018,-0.155,0.04,0.041,0.113,-0.801,2.149
2024-09-23 11:37:42.828,162595.671,0.079,0.719,-0.69,-0.019,-0.032,-0.007,-0.156,0.035,0.046,0.114,-0.802,2.15
2024-09-23 11:37:42.838,162595.681,0.08,0.72,-0.689,-0.013,-0.025,-0.001,-0.107,0.034,0.047,0.115,-0.804,2.151
2024-09-23 11:37:42.848,162595.691,0.08,0.72,-0.689,-0.009,-0.001,0.001,-0.02,0.049,0.041,0.116,-0.804,2.151
2024-09-23 11:37:42.858,162595.701,0.081,0.72,-0.689,-0.007,0.011,0.007,0.043,0.049,0.027,0.117,-0.804,2.152
2024-09-23 11:37:42.868,162595.711,0.081,0.72,-0.689,-0.006,0.031,0.017,0.05,0.054,0.021,0.118,-0.804,2.152
2024-09-23 11:37:42.878,162595.721,0.082,0.719,-0.69,-0.006,0.034,0.018,0.044,0.034,0.018,0.118,-0.803,2.152
2024-09-23 11:37:42.889,162595.731,0.082,0.719,-0.69,-0.0,0.003,0.011,0.005,0.016,0.012,0.118,-0.803,2.152
2024-09-23 11:37:42.899,162595.741,0.082,0.719,-0.69,0.001,-0.003,0.002,-0.017,-0.016,0.011,0.118,-0.803,2.152
2024-09-23 11:37:42.908,162595.751,0.082,0.719,-0.69,-0.001,0.003,-0.005,-0.025,-0.055,-0.013,0.118,-0.803,2.152
2024-09-23 11:37:42.918,162595.761,0.081,0.719,-0.69,-0.001,-0.015,-0.001,0.018,-0.089,-0.031,0.117,-0.803,2.152
2024-09-23 11:37:42.928,162595.771,0.08,0.719,-0.69,0.005,-0.018,0.005,0.107,-0.089,-0.046,0.116,-0.802,2.151
2024-09-23 11:37:42.938,162595.781,0.079,0.718,-0.692,0.01,0.003,0.013,0.223,-0.111,-0.056,0.114,-0.801,2.15
2024-09-23 11:37:42.948,162595.791,0.078,0.716,-0.694,0.007,0.039,0.021,0.35,-0.152,-0.069,0.112,-0.798,2.149
2024-09-23 11:37:42.958,162595.8,0.076,0.713,-0.697,0.004,0.048,0.028,0.486,-0.2,-0.08,0.109,-0.794,2.147
2024-09-23 11:37:42.968,162595.81,0.074,0.71,-0.701,0.016,0.053,0.033,0.607,-0.275,-0.097,0.105,-0.789,2.145
2024-09-23 11:37:42.978,162595.82,0.071,0.705,-0.706,0.018,0.066,0.035,0.773,-0.357,-0.1,0.1,-0.782,2.143
2024-09-23 11:37:42.988,162595.83,0.067,0.699,-0.712,0.019,0.061,0.035,0.968,-0.413,-0.107,0.094,-0.774,2.14
2024-09-23 11:37:42.998,162595.84,0.064,0.691,-0.72,0.03,0.058,0.044,1.172,-0.455,-0.099,0.088,-0.763,2.138
2024-09-23 11:37:43.009,162595.85,0.06,0.682,-0.729,0.029,0.092,0.056,1.285,-0.32,-0.115,0.082,-0.751,2.135
2024-09-23 11:37:43.017,162595.86,0.058,0.674,-0.737,0.02,0.101,0.061,1.019,-0.197,-0.067,0.078,-0.74,2.132
2024-09-23 11:37:43.028,162595.87,0.056,0.668,-0.742,0.004,0.113,0.047,0.686,-0.173,-0.115,0.075,-0.731,2.13
2024-09-23 11:37:43.038,162595.88,0.054,0.665,-0.745,-0.07,-0.027,-0.022,0.119,-0.101,-0.035,0.072,-0.727,2.129
2024-09-23 11:37:43.048,162595.89,0.054,0.665,-0.745,-0.03,-0.246,-0.018,-0.275,-0.057,0.051,0.072,-0.728,2.129
2024-09-23 11:37:43.058,162595.9,0.054,0.668,-0.742,-0.02,-0.217,-0.083,-0.563,0.015,0.067,0.072,-0.732,2.13
2024-09-23 11:37:43.068,162595.91,0.055,0.673,-0.737,-0.064,-0.172,-0.084,-0.752,0.073,0.095,0.074,-0.739,2.132
2024-09-23 11:37:43.078,162595.92,0.056,0.679,-0.732,-0.021,-0.131,-0.049,-0.81,0.149,0.11,0.077,-0.746,2.134
2024-09-23 11:37:43.088,162595.93,0.058,0.684,-0.727,-0.018,-0.049,-0.038,-0.686,0.244,0.128,0.08,-0.754,2.137
2024-09-23 11:37:43.098,162595.94,0.061,0.689,-0.723,-0.021,-0.008,-0.017,-0.473,0.328,0.131,0.085,-0.76,2.139
2024-09-23 11:37:43.108,162595.95,0.065,0.692,-0.719,-0.022,0.018,0.004,-0.355,0.323,0.1,0.09,-0.764,2.141
2024-09-23 11:37:43.118,162595.96,0.067,0.694,-0.717,-0.033,0.073,0.024,-0.363,0.27,0.068,0.094,-0.767,2.143
2024-09-23 11:37:43.128,162595.97,0.069,0.697,-0.714,-0.029,0.059,0.023,-0.39,0.22,0.048,0.097,-0.771,2.144
2024-09-23 11:37:43.138,162595.98,0.071,0.7,-0.711,0.004,-0.034,0.002,-0.445,0.2,0.01,0.1,-0.775,2.145
2024-09-23 11:37:43.147,162595.99,0.072,0.703,-0.708,0.006,-0.042,-0.008,-0.474,0.158,-0.023,0.102,-0.779,2.146
2024-09-23 11:37:43.157,162596.0,0.073,0.706,-0.704,-0.011,-0.024,-0.013,-0.436,0.099,-0.05,0.103,-0.784,2.146
2024-09-23 11:37:43.167,162596.01,0.073,0.709,-0.702,-0.007,-0.05,-0.009,-0.293,0.024,-0.059,0.104,-0.788,2.145
2024-09-23 11:37:43.177,162596.02,0.073,0.71,-0.7,0.013,-0.029,0.0,-0.08,-0.037,-0.07,0.103,-0.79,2.145
2024-09-23 11:37:43.187,162596.03,0.072,0.71,-0.701,0.019,0.05,0.021,0.137,-0.123,-0.061,0.102,-0.789,2.144
2024-09-23 11:37:43.198,162596.04,0.07,0.708,-0.703,0.017,0.091,0.042,0.389,-0.24,-0.064,0.099,-0.787,2.143
2024-09-23 11:37:43.207,162596.05,0.067,0.705,-0.706,0.028,0.096,0.047,0.641,-0.385,-0.066,0.095,-0.782,2.141
2024-09-23 11:37:43.217,162596.06,0.064,0.699,-0.712,0.038,0.093,0.056,0.859,-0.508,-0.048,0.089,-0.774,2.139
2024-09-23 11:37:43.227,162596.07,0.06,0.693,-0.718,0.05,0.112,0.061,0.818,-0.409,0.018,0.084,-0.766,2.138
2024-09-23 11:37:43.237,162596.08,0.058,0.689,-0.722,0.045,0.124,0.051,0.294,-0.213,0.046,0.08,-0.76,2.138
2024-09-23 11:37:43.247,162596.09,0.057,0.689,-0.723,0.02,0.123,0.028,-0.243,-0.143,0.08,0.079,-0.76,2.139
2024-09-23 11:37:43.258,162596.1,0.057,0.693,-0.719,-0.073,-0.054,-0.08,-0.869,-0.013,0.093,0.08,-0.765,2.14
2024-09-23 11:37:43.267,162596.11,0.059,0.701,-0.711,-0.058,-0.332,-0.089,-1.334,0.135,0.11,0.082,-0.776,2.143
2024-09-23 11:37:43.276,162596.12,0.061,0.711,-0.701,-0.031,-0.3,-0.107,-1.519,0.277,0.178,0.087,-0.79,2.147
2024-09-23 11:37:43.288,162596.13,0.065,0.721,-0.689,-0.097,-0.222,-0.12,-1.594,0.393,0.162,0.093,-0.806,2.151
2024-09-23 11:37:43.296,162596.14,0.069,0.732,-0.678,-0.07,-0.179,-0.053,-1.39,0.506,0.199,0.101,-0.821,2.156
2024-09-23 11:37:43.306,162596.15,0.074,0.74,-0.668,-0.038,-0.049,-0.034,-1.316,0.687,0.177,0.111,-0.834,2.161
2024-09-23 11:37:43.317,162596.16,0.08,0.749,-0.657,-0.042,0.037,0.011,-1.512,0.787,0.073,0.122,-0.847,2.165
2024-09-23 11:37:43.327,162596.17,0.085,0.76,-0.644,-0.05,0.079,-0.012,-1.752,0.78,-0.034,0.132,-0.864,2.169
2024-09-23 11:37:43.338,162596.18,0.09,0.772,-0.629,-0.086,-0.05,-0.031,-1.899,0.828,-0.057,0.142,-0.882,2.172
2024-09-23 11:37:43.347,162596.19,0.095,0.784,-0.614,-0.029,-0.206,-0.027,-1.929,0.884,-0.044,0.154,-0.901,2.175
2024-09-23 11:37:43.357,162596.2,0.1,0.795,-0.598,-0.003,-0.135,-0.056,-1.896,0.926,-0.075,0.166,-0.92,2.18
2024-09-23 11:37:43.367,162596.21,0.105,0.807,-0.582,-0.036,-0.044,-0.03,-1.87,0.955,-0.129,0.179,-0.938,2.183
2024-09-23 11:37:43.377,162596.22,0.109,0.817,-0.566,-0.022,0.001,0.008,-1.71,0.933,-0.248,0.19,-0.956,2.186
2024-09-23 11:37:43.388,162596.23,0.112,0.827,-0.551,-0.006,0.015,0.001,-1.749,0.914,-0.375,0.2,-0.974,2.186
2024-09-23 11:37:43.398,162596.24,0.113,0.838,-0.534,-0.005,-0.01,-0.046,-1.993,0.92,-0.442,0.208,-0.993,2.186
2024-09-23 11:37:43.407,162596.25,0.114,0.849,-0.516,0.004,-0.043,-0.1,-2.145,0.935,-0.425,0.218,-1.014,2.186
2024-09-23 11:37:43.417,162596.26,0.116,0.86,-0.497,0.002,-0.078,-0.129,-2.025,0.985,-0.329,0.229,-1.035,2.187
2024-09-23 11:37:43.427,162596.27,0.118,0.869,-0.48,0.038,-0.092,-0.154,-1.653,0.933,-0.327,0.241,-1.054,2.191
2024-09-23 11:37:43.437,162596.28,0.119,0.877,-0.465,0.123,-0.048,-0.2,-1.448,0.9,-0.361,0.251,-1.07,2.191
2024-09-23 11:37:43.447,162596.29,0.119,0.883,-0.453,0.119,0.03,-0.223,-0.891,0.746,-0.51,0.257,-1.083,2.189
2024-09-23 11:37:43.457,162596.3,0.117,0.886,-0.449,0.029,0.028,-0.165,-0.033,0.542,-0.562,0.255,-1.088,2.179
2024-09-23 11:37:43.467,162596.31,0.114,0.886,-0.45,0.049,0.046,-0.138,0.349,0.311,-0.528,0.249,-1.088,2.168
2024-09-23 11:37:43.477,162596.32,0.11,0.884,-0.455,0.051,0.099,-0.271,0.737,0.271,-0.656,0.238,-1.084,2.152
2024-09-23 11:37:43.487,162596.33,0.106,0.881,-0.461,0.158,0.038,-0.235,0.724,0.267,-0.614,0.226,-1.078,2.135
2024-09-23 11:37:43.497,162596.34,0.102,0.879,-0.466,0.107,0.084,-0.184,0.516,0.288,-0.619,0.215,-1.073,2.12
2024-09-23 11:37:43.507,162596.35,0.098,0.877,-0.47,0.071,0.067,-0.078,0.353,0.302,-0.585,0.205,-1.07,2.106
2024-09-23 11:37:43.518,162596.36,0.094,0.877,-0.472,0.119,-0.09,0.085,0.261,0.318,-0.59,0.197,-1.069,2.093
2024-09-23 11:37:43.528,162596.37,0.09,0.876,-0.474,0.125,-0.11,0.116,0.162,0.307,-0.61,0.189,-1.068,2.08
2024-09-23 11:37:43.537,162596.38,0.086,0.876,-0.475,0.109,-0.059,0.071,0.281,0.246,-0.6,0.18,-1.067,2.066
2024-09-23 11:37:43.547,162596.39,0.082,0.874,-0.479,0.088,-0.017,0.018,0.624,0.124,-0.582,0.17,-1.063,2.053
2024-09-23 11:37:43.557,162596.399,0.077,0.871,-0.485,0.1,0.007,-0.038,0.746,0.031,-0.646,0.158,-1.057,2.038
2024-09-23 11:37:43.567,162596.409,0.072,0.868,-0.492,0.126,0.079,-0.132,0.842,-0.083,-0.607,0.145,-1.051,2.023
2024-09-23 11:37:43.577,162596.419,0.066,0.864,-0.499,0.081,0.108,-0.123,0.801,0.001,-0.522,0.132,-1.043,2.01
2024-09-23 11:37:43.587,162596.429,0.062,0.86,-0.506,0.084,0.058,-0.048,0.886,0.003,-0.454,0.122,-1.036,1.998
2024-09-23 11:37:43.597,162596.439,0.059,0.856,-0.514,0.094,0.044,0.014,1.014,0.026,-0.361,0.114,-1.027,1.988
2024-09-23 11:37:43.607,162596.449,0.056,0.85,-0.523,0.047,-0.063,0.171,1.071,0.103,-0.329,0.107,-1.017,1.979
2024-09-23 11:37:43.617,162596.459,0.054,0.845,-0.532,0.097,-0.08,0.233,0.962,0.209,-0.313,0.102,-1.007,1.971
2024-09-23 11:37:43.627,162596.469,0.053,0.84,-0.539,0.068,0.002,0.194,0.823,0.196,-0.243,0.098,-0.998,1.964
2024-09-23 11:37:43.637,162596.479,0.052,0.836,-0.546,-0.013,-0.029,0.185,0.704,0.18,-0.189,0.096,-0.991,1.959
2024-09-23 11:37:43.647,162596.489,0.052,0.833,-0.551,-0.01,-0.093,0.222,0.559,0.171,-0.141,0.094,-0.985,1.955
2024-09-23 11:37:43.657,162596.499,0.052,0.83,-0.555,-0.025,-0.054,0.208,0.423,0.13,-0.109,0.093,-0.98,1.952
2024-09-23 11:37:43.667,162596.509,0.052,0.829,-0.558,-0.096,0.0,0.186,0.292,0.091,-0.073,0.092,-0.976,1.95
2024-09-23 11:37:43.676,162596.519,0.052,0.827,-0.559,-0.126,-0.003,0.177,0.129,0.074,-0.035,0.092,-0.974,1.949
2024-09-23 11:37:43.687,162596.529,0.052,0.827,-0.559,-0.14,-0.032,0.179,-0.069,0.001,-0.009,0.092,-0.974,1.948
2024-09-23 11:37:43.697,162596.539,0.051,0.828,-0.559,-0.16,-0.106,0.226,-0.154,-0.071,-0.08,0.091,-0.975,1.948
2024-09-23 11:37:43.707,162596.549,0.05,0.829,-0.557,-0.161,-0.164,0.289,-0.143,-0.101,-0.222,0.089,-0.977,1.945
2024-09-23 11:37:43.717,162596.559,0.046,0.83,-0.556,-0.184,-0.131,0.304,-0.082,-0.191,-0.336,0.083,-0.978,1.94
2024-09-23 11:37:43.726,162596.569,0.043,0.829,-0.557,-0.211,-0.057,0.296,0.364,-0.191,-0.084,0.077,-0.978,1.936
2024-09-23 11:37:43.736,162596.579,0.044,0.825,-0.564,-0.216,-0.035,0.225,1.157,-0.146,0.413,0.077,-0.97,1.938
2024-09-23 11:37:43.746,162596.589,0.047,0.817,-0.574,-0.156,0.244,-0.0,1.276,0.055,0.341,0.081,-0.957,1.943
2024-09-23 11:37:43.756,162596.599,0.049,0.811,-0.583,-0.104,0.797,-0.237,0.843,0.068,0.154,0.084,-0.946,1.946
2024-09-23 11:37:43.766,162596.609,0.05,0.807,-0.588,-0.279,0.759,-0.111,0.485,-0.023,0.151,0.085,-0.939,1.947
2024-09-23 11:37:43.777,162596.619,0.052,0.804,-0.592,-0.271,0.011,0.145,0.53,-0.03,0.192,0.087,-0.935,1.95
2024-09-23 11:37:43.787,162596.629,0.053,0.8,-0.597,-0.0,-0.361,0.224,0.853,-0.032,0.186,0.088,-0.927,1.952
2024-09-23 11:37:43.797,162596.639,0.054,0.794,-0.605,0.018,-0.204,0.136,1.113,-0.061,0.196,0.089,-0.917,1.953
2024-09-23 11:37:43.806,162596.649,0.055,0.787,-0.615,-0.068,-0.013,-0.029,1.231,-0.098,0.222,0.09,-0.906,1.955
2024-09-23 11:37:43.817,162596.659,0.056,0.779,-0.624,-0.036,0.117,-0.163,1.167,-0.1,0.238,0.09,-0.893,1.957
2024-09-23 11:37:43.826,162596.669,0.058,0.773,-0.632,0.012,0.175,-0.181,0.825,-0.067,0.196,0.091,-0.883,1.959
2024-09-23 11:37:43.837,162596.679,0.059,0.768,-0.637,0.045,0.099,-0.108,0.579,-0.035,0.114,0.092,-0.876,1.961
2024-09-23 11:37:43.847,162596.689,0.059,0.765,-0.642,0.062,-0.046,-0.021,0.502,0.006,0.025,0.092,-0.871,1.961
2024-09-23 11:37:43.856,162596.699,0.059,0.762,-0.645,0.059,-0.105,-0.004,0.491,0.024,-0.023,0.091,-0.866,1.96
2024-09-23 11:37:43.867,162596.709,0.059,0.759,-0.649,0.052,-0.047,-0.028,0.345,0.029,-0.006,0.091,-0.862,1.959
2024-09-23 11:37:43.877,162596.719,0.059,0.757,-0.651,0.04,-0.037,-0.038,0.222,-0.01,0.025,0.091,-0.859,1.959
2024-09-23 11:37:43.886,162596.729,0.059,0.756,-0.652,0.01,-0.037,-0.044,0.19,-0.067,0.033,0.091,-0.857,1.959
2024-09-23 11:37:43.897,162596.739,0.059,0.754,-0.654,-0.013,-0.045,-0.027,0.203,-0.108,0.054,0.09,-0.855,1.96
2024-09-23 11:37:43.907,162596.749,0.059,0.753,-0.655,0.001,-0.018,-0.005,0.23,-0.131,0.039,0.089,-0.853,1.96
2024-09-23 11:37:43.916,162596.759,0.058,0.751,-0.657,0.004,0.026,0.009,0.237,-0.147,0.009,0.088,-0.85,1.96
2024-09-23 11:37:43.927,162596.769,0.057,0.75,-0.659,0.004,0.038,0.01,0.27,-0.148,-0.039,0.086,-0.848,1.96
2024-09-23 11:37:43.937,162596.779,0.056,0.748,-0.661,0.007,-0.011,0.006,0.32,-0.122,-0.06,0.084,-0.845,1.959
2024-09-23 11:37:43.947,162596.789,0.054,0.746,-0.664,0.017,-0.03,0.008,0.368,-0.092,-0.069,0.082,-0.842,1.957
2024-09-23 11:37:43.956,162596.799,0.053,0.743,-0.667,0.011,0.002,0.01,0.338,-0.03,-0.056,0.08,-0.838,1.956
2024-09-23 11:37:43.966,162596.809,0.053,0.742,-0.669,-0.007,0.022,0.011,0.217,0.04,-0.029,0.079,-0.835,1.955
2024-09-23 11:37:43.976,162596.819,0.054,0.74,-0.67,-0.019,0.015,0.004,0.147,0.088,-0.002,0.08,-0.834,1.954
2024-09-23 11:37:43.986,162596.829,0.054,0.74,-0.671,-0.034,-0.013,0.007,0.066,0.141,-0.004,0.081,-0.832,1.954
2024-09-23 11:37:43.996,162596.839,0.055,0.74,-0.671,-0.024,-0.014,0.007,-0.089,0.162,-0.015,0.082,-0.832,1.954
2024-09-23 11:37:44.006,162596.849,0.056,0.741,-0.669,-0.019,-0.01,-0.007,-0.271,0.176,-0.038,0.084,-0.834,1.954
2024-09-23 11:37:44.026,162596.859,0.057,0.743,-0.667,-0.025,-0.071,-0.03,-0.407,0.174,-0.063,0.085,-0.838,1.954
2024-09-23 11:37:44.032,162596.869,0.057,0.746,-0.663,-0.016,-0.096,-0.043,-0.456,0.148,-0.095,0.086,-0.842,1.953
2024-09-23 11:37:44.038,162596.879,0.058,0.749,-0.66,-0.019,-0.089,-0.039,-0.428,0.158,-0.111,0.087,-0.847,1.952
2024-09-23 11:37:44.045,162596.889,0.058,0.752,-0.657,-0.006,-0.049,-0.023,-0.314,0.117,-0.093,0.088,-0.851,1.951
2024-09-23 11:37:44.055,162596.899,0.058,0.753,-0.656,-0.001,0.002,-0.007,-0.079,0.036,-0.037,0.088,-0.853,1.95
2024-09-23 11:37:44.066,162596.909,0.058,0.753,-0.656,-0.001,0.027,0.01,0.114,-0.035,-0.033,0.088,-0.852,1.95
2024-09-23 11:37:44.076,162596.919,0.057,0.752,-0.657,0.029,0.061,0.014,0.299,-0.117,-0.036,0.086,-0.85,1.949
2024-09-23 11:37:44.086,162596.929,0.056,0.749,-0.66,0.025,0.079,0.032,0.492,-0.201,-0.029,0.084,-0.847,1.948
2024-09-23 11:37:44.095,162596.939,0.054,0.745,-0.665,0.018,0.066,0.058,0.713,-0.273,-0.024,0.081,-0.841,1.947
2024-09-23 11:37:44.105,162596.949,0.052,0.74,-0.671,0.036,0.077,0.056,0.916,-0.348,-0.018,0.077,-0.832,1.945
2024-09-23 11:37:44.116,162596.959,0.049,0.733,-0.679,0.03,0.092,0.056,1.04,-0.388,0.004,0.072,-0.823,1.944
2024-09-23 11:37:44.125,162596.969,0.046,0.726,-0.686,0.023,0.088,0.056,0.963,-0.389,0.028,0.068,-0.813,1.943
2024-09-23 11:37:44.135,162596.979,0.044,0.72,-0.693,0.014,0.077,0.05,0.838,-0.396,0.062,0.063,-0.804,1.943
2024-09-23 11:37:44.145,162596.989,0.042,0.715,-0.698,-0.005,0.038,0.042,0.645,-0.265,-0.021,0.06,-0.796,1.943
2024-09-23 11:37:44.155,162596.998,0.041,0.712,-0.701,-0.017,-0.004,0.016,0.175,-0.172,0.136,0.058,-0.792,1.944
2024-09-23 11:37:44.164,162597.008,0.041,0.712,-0.701,-0.017,-0.024,-0.015,-0.356,0.014,0.022,0.058,-0.793,1.945
2024-09-23 11:37:44.175,162597.018,0.042,0.716,-0.697,-0.061,-0.117,-0.062,-0.744,0.061,0.131,0.06,-0.798,1.947
2024-09-23 11:37:44.184,162597.028,0.043,0.721,-0.692,-0.095,-0.264,-0.112,-0.602,0.178,0.093,0.062,-0.805,1.949
2024-09-23 11:37:44.195,162597.038,0.045,0.724,-0.688,-0.026,-0.266,-0.088,-0.346,0.302,0.068,0.066,-0.81,1.95
2024-09-23 11:37:44.205,162597.048,0.048,0.727,-0.685,-0.032,-0.035,-0.054,-0.336,0.384,-0.076,0.07,-0.813,1.951
2024-09-23 11:37:44.215,162597.058,0.05,0.729,-0.683,-0.016,0.128,0.042,-0.274,0.358,-0.164,0.072,-0.816,1.949
2024-09-23 11:37:44.226,162597.068,0.051,0.73,-0.681,-0.033,0.079,0.079,-0.223,0.301,-0.169,0.074,-0.819,1.947
2024-09-23 11:37:44.235,162597.078,0.051,0.732,-0.68,0.005,0.016,0.04,-0.156,0.207,-0.132,0.075,-0.821,1.945
2024-09-23 11:37:44.245,162597.088,0.051,0.732,-0.679,0.03,-0.021,-0.002,-0.006,0.094,-0.077,0.076,-0.822,1.944
2024-09-23 11:37:44.255,162597.098,0.051,0.732,-0.679,0.006,-0.019,-0.016,0.183,-0.016,-0.055,0.075,-0.821,1.943
2024-09-23 11:37:44.265,162597.108,0.05,0.73,-0.682,0.021,0.036,0.001,0.407,-0.143,-0.037,0.074,-0.818,1.942
2024-09-23 11:37:44.275,162597.118,0.049,0.726,-0.686,0.023,0.083,0.033,0.645,-0.234,-0.013,0.071,-0.813,1.941
2024-09-23 11:37:44.286,162597.128,0.047,0.721,-0.691,0.025,0.09,0.05,0.825,-0.324,0.016,0.068,-0.806,1.94
2024-09-23 11:37:44.296,162597.138,0.045,0.715,-0.698,0.032,0.091,0.046,0.955,-0.401,0.025,0.064,-0.797,1.939
2024-09-23 11:37:44.306,162597.148,0.042,0.708,-0.705,0.023,0.079,0.051,0.932,-0.414,0.005,0.059,-0.787,1.939
2024-09-23 11:37:44.316,162597.158,0.039,0.703,-0.71,0.019,0.07,0.064,0.647,-0.221,-0.006,0.056,-0.779,1.937
2024-09-23 11:37:44.325,162597.168,0.039,0.7,-0.713,0.009,0.055,0.066,0.244,0.018,-0.104,0.054,-0.775,1.937
2024-09-23 11:37:44.336,162597.178,0.038,0.699,-0.714,-0.03,0.028,0.034,-0.05,-0.03,-0.007,0.053,-0.774,1.936
2024-09-23 11:37:44.345,162597.188,0.038,0.7,-0.713,-0.121,-0.121,-0.056,-0.258,0.011,-0.033,0.053,-0.776,1.936
2024-09-23 11:37:44.355,162597.198,0.038,0.702,-0.711,-0.011,-0.236,-0.091,-0.175,-0.001,0.062,0.054,-0.778,1.936
2024-09-23 11:37:44.366,162597.208,0.038,0.703,-0.71,-0.002,-0.175,-0.095,-0.194,-0.026,0.033,0.054,-0.78,1.937
2024-09-23 11:37:44.376,162597.218,0.038,0.704,-0.709,-0.02,-0.018,-0.043,-0.132,-0.069,0.027,0.054,-0.781,1.938
2024-09-23 11:37:44.385,162597.228,0.038,0.705,-0.708,0.005,0.022,0.009,0.009,-0.101,0.022,0.053,-0.782,1.938
2024-09-23 11:37:44.396,162597.238,0.037,0.704,-0.709,-0.007,0.037,0.038,0.119,-0.119,-0.003,0.052,-0.781,1.938
2024-09-23 11:37:44.405,162597.248,0.036,0.703,-0.71,0.022,0.085,0.046,0.17,-0.101,-0.029,0.051,-0.78,1.938
2024-09-23 11:37:44.416,162597.258,0.035,0.702,-0.711,0.013,0.078,0.058,0.104,-0.085,-0.018,0.05,-0.778,1.937
2024-09-23 11:37:44.426,162597.268,0.035,0.702,-0.712,0.007,0.047,0.037,0.071,-0.091,-0.014,0.049,-0.778,1.937
2024-09-23 11:37:44.435,162597.278,0.034,0.701,-0.712,-0.004,-0.003,0.013,-0.018,-0.076,-0.001,0.048,-0.777,1.937
2024-09-23 11:37:44.446,162597.288,0.034,0.702,-0.711,-0.01,-0.054,-0.001,-0.154,-0.06,0.03,0.047,-0.778,1.937
2024-09-23 11:37:44.455,162597.298,0.034,0.704,-0.71,-0.002,-0.035,-0.02,-0.32,-0.043,0.064,0.047,-0.78,1.938
2024-09-23 11:37:44.465,162597.308,0.034,0.706,-0.707,-0.017,-0.044,-0.036,-0.471,-0.022,0.088,0.048,-0.784,1.939
2024-09-23 11:37:44.475,162597.318,0.035,0.71,-0.703,-0.018,-0.067,-0.042,-0.502,0.083,0.125,0.05,-0.789,1.941
2024-09-23 11:37:44.485,162597.328,0.037,0.714,-0.699,-0.019,-0.084,-0.036,-0.588,0.148,0.127,0.052,-0.795,1.944
2024-09-23 11:37:44.496,162597.338,0.039,0.718,-0.695,-0.023,-0.072,-0.03,-0.53,0.18,0.091,0.055,-0.8,1.946
2024-09-23 11:37:44.505,162597.348,0.041,0.721,-0.692,-0.042,-0.037,0.006,-0.478,0.274,-0.001,0.059,-0.805,1.947
2024-09-23 11:37:44.515,162597.358,0.042,0.725,-0.688,-0.027,-0.007,0.031,-0.558,0.307,-0.056,0.061,-0.81,1.947
2024-09-23 11:37:44.526,162597.368,0.044,0.729,-0.683,-0.011,0.047,0.027,-0.678,0.329,-0.068,0.064,-0.817,1.946
2024-09-23 11:37:44.536,162597.378,0.046,0.733,-0.678,-0.032,0.006,-0.015,-0.655,0.308,-0.042,0.067,-0.823,1.946
2024-09-23 11:37:44.546,162597.388,0.047,0.737,-0.674,-0.019,-0.073,-0.056,-0.542,0.257,-0.051,0.07,-0.829,1.946
2024-09-23 11:37:44.555,162597.398,0.048,0.741,-0.67,-0.011,-0.062,-0.049,-0.378,0.191,-0.066,0.072,-0.834,1.946
2024-09-23 11:37:44.565,162597.408,0.049,0.742,-0.668,0.01,0.013,-0.002,-0.132,0.102,-0.057,0.073,-0.837,1.945
2024-09-23 11:37:44.575,162597.418,0.049,0.742,-0.668,0.013,0.048,0.022,0.126,-0.019,-0.037,0.073,-0.837,1.944
2024-09-23 11:37:44.585,162597.428,0.048,0.741,-0.67,0.016,0.06,0.03,0.402,-0.138,-0.024,0.072,-0.834,1.944
2024-09-23 11:37:44.595,162597.438,0.047,0.737,-0.674,0.039,0.088,0.043,0.68,-0.245,-0.017,0.069,-0.829,1.943
2024-09-23 11:37:44.605,162597.448,0.045,0.732,-0.68,0.038,0.1,0.061,0.944,-0.334,-0.006,0.066,-0.821,1.942
2024-09-23 11:37:44.615,162597.458,0.042,0.724,-0.688,0.033,0.109,0.076,1.173,-0.413,-0.009,0.061,-0.81,1.941
2024-09-23 11:37:44.625,162597.468,0.039,0.716,-0.697,0.033,0.118,0.074,1.357,-0.467,-0.007,0.056,-0.797,1.94
2024-09-23 11:37:44.635,162597.478,0.036,0.706,-0.707,0.026,0.116,0.066,1.37,-0.309,-0.103,0.05,-0.784,1.938
2024-09-23 11:37:44.645,162597.488,0.033,0.699,-0.715,0.024,0.1,0.052,0.612,-0.205,0.085,0.047,-0.774,1.937
2024-09-23 11:37:44.656,162597.498,0.033,0.696,-0.717,0.014,0.054,0.048,0.07,0.041,-0.164,0.046,-0.77,1.936
2024-09-23 11:37:44.666,162597.508,0.032,0.698,-0.716,-0.055,-0.046,0.016,-0.39,0.004,0.033,0.045,-0.772,1.935
2024-09-23 11:37:44.675,162597.518,0.033,0.701,-0.712,-0.141,-0.244,-0.089,-0.581,0.122,0.016,0.046,-0.777,1.936
2024-09-23 11:37:44.684,162597.528,0.034,0.706,-0.708,0.008,-0.291,-0.128,-0.68,0.19,0.04,0.049,-0.783,1.937
2024-09-23 11:37:44.695,162597.538,0.036,0.711,-0.702,-0.042,-0.184,-0.125,-0.899,0.202,0.052,0.052,-0.791,1.938
2024-09-23 11:37:44.705,162597.548,0.038,0.717,-0.696,-0.041,-0.059,-0.042,-0.842,0.189,0.053,0.054,-0.8,1.939
2024-09-23 11:37:44.715,162597.558,0.04,0.723,-0.69,-0.031,-0.075,0.001,-0.842,0.187,0.087,0.058,-0.808,1.941
2024-09-23 11:37:44.725,162597.568,0.041,0.729,-0.683,-0.016,-0.025,-0.0,-0.818,0.216,0.005,0.061,-0.817,1.943
2024-09-23 11:37:44.735,162597.578,0.043,0.734,-0.678,-0.001,0.045,0.019,-0.707,0.161,0.005,0.063,-0.824,1.943
2024-09-23 11:37:44.745,162597.588,0.044,0.738,-0.673,-0.034,0.002,0.01,-0.571,0.101,-0.004,0.065,-0.831,1.944
2024-09-23 11:37:44.755,162597.597,0.044,0.741,-0.67,0.007,-0.024,-0.013,-0.275,-0.003,-0.01,0.066,-0.835,1.944
2024-09-23 11:37:44.765,162597.607,0.043,0.742,-0.669,0.018,0.006,-0.002,0.186,-0.162,-0.027,0.065,-0.836,1.944
2024-09-23 11:37:44.775,162597.617,0.041,0.739,-0.673,0.027,0.081,0.022,0.715,-0.328,-0.049,0.061,-0.831,1.943
2024-09-23 11:37:44.785,162597.627,0.038,0.732,-0.68,0.059,0.136,0.058,1.171,-0.445,-0.054,0.056,-0.822,1.941
2024-09-23 11:37:44.796,162597.637,0.035,0.723,-0.69,0.077,0.169,0.095,1.545,-0.541,-0.032,0.05,-0.808,1.94
2024-09-23 11:37:44.804,162597.647,0.03,0.712,-0.702,0.064,0.207,0.121,1.744,-0.608,-0.004,0.043,-0.792,1.938
2024-09-23 11:37:44.814,162597.657,0.027,0.701,-0.713,0.046,0.199,0.109,1.125,-0.252,-0.103,0.038,-0.776,1.936
2024-09-23 11:37:44.824,162597.667,0.026,0.696,-0.718,0.035,0.157,0.079,0.284,0.132,-0.069,0.037,-0.77,1.936
2024-09-23 11:37:44.835,162597.677,0.027,0.696,-0.718,-0.013,0.078,0.059,-0.31,0.174,-0.027,0.037,-0.77,1.934
2024-09-23 11:37:44.845,162597.687,0.029,0.7,-0.714,-0.183,-0.242,-0.062,-0.706,0.308,0.043,0.04,-0.775,1.935
2024-09-23 11:37:44.855,162597.697,0.032,0.705,-0.709,-0.102,-0.446,-0.158,-0.615,0.324,0.101,0.045,-0.782,1.936
2024-09-23 11:37:44.865,162597.707,0.034,0.708,-0.705,-0.036,-0.356,-0.144,-0.463,0.28,0.084,0.049,-0.787,1.938
2024-09-23 11:37:44.875,162597.717,0.037,0.711,-0.702,-0.076,-0.056,-0.087,-0.476,0.218,0.119,0.053,-0.792,1.94
2024-09-23 11:37:44.885,162597.727,0.039,0.715,-0.698,-0.003,0.032,0.022,-0.47,0.161,0.204,0.056,-0.796,1.942
2024-09-23 11:37:44.895,162597.737,0.042,0.718,-0.695,-0.023,0.017,0.053,-0.396,0.141,0.229,0.06,-0.8,1.946
2024-09-23 11:37:44.905,162597.747,0.045,0.72,-0.692,-0.018,0.062,0.036,-0.346,0.09,0.24,0.064,-0.804,1.95
2024-09-23 11:37:44.915,162597.757,0.047,0.722,-0.69,-0.002,0.048,0.001,-0.366,0.045,0.249,0.068,-0.807,1.953
2024-09-23 11:37:44.924,162597.767,0.049,0.725,-0.687,-0.0,-0.038,-0.002,-0.31,-0.024,0.25,0.071,-0.811,1.957
2024-09-23 11:37:44.934,162597.777,0.05,0.726,-0.686,0.012,-0.053,-0.019,-0.114,-0.101,0.232,0.073,-0.813,1.961
2024-09-23 11:37:44.944,162597.787,0.051,0.726,-0.686,0.001,-0.004,-0.021,0.116,-0.103,0.169,0.074,-0.813,1.964
2024-09-23 11:37:44.954,162597.797,0.051,0.724,-0.687,0.027,0.064,0.022,0.298,-0.142,0.082,0.074,-0.81,1.966
2024-09-23 11:37:44.964,162597.807,0.05,0.722,-0.69,0.021,0.159,0.073,0.333,-0.099,0.049,0.073,-0.807,1.966
2024-09-23 11:37:44.974,162597.817,0.05,0.72,-0.692,0.02,0.088,0.057,0.352,-0.061,0.047,0.072,-0.804,1.967
2024-09-23 11:37:44.985,162597.827,0.05,0.717,-0.695,0.032,0.007,0.032,0.413,-0.059,0.032,0.072,-0.8,1.967
2024-09-23 11:37:44.995,162597.837,0.05,0.714,-0.698,-0.011,0.025,0.012,0.459,-0.059,-0.009,0.071,-0.795,1.967
2024-09-23 11:37:45.005,162597.847,0.049,0.711,-0.701,-0.003,0.041,0.018,0.379,-0.033,-0.078,0.07,-0.791,1.965
2024-09-23 11:37:45.015,162597.857,0.048,0.709,-0.703,0.004,0.037,0.022,0.2,-0.026,-0.088,0.069,-0.788,1.964
2024-09-23 11:37:45.025,162597.867,0.048,0.708,-0.704,-0.01,-0.012,-0.002,0.005,0.011,-0.084,0.068,-0.787,1.963
2024-09-23 11:37:45.034,162597.877,0.047,0.709,-0.704,-0.007,-0.086,-0.033,-0.121,0.025,-0.08,0.067,-0.788,1.962
2024-09-23 11:37:45.045,162597.887,0.047,0.71,-0.703,-0.012,-0.063,-0.038,-0.171,0.057,-0.069,0.067,-0.79,1.961
2024-09-23 11:37:45.055,162597.897,0.047,0.711,-0.701,-0.02,-0.057,-0.023,-0.205,0.093,-0.048,0.067,-0.792,1.96
2024-09-23 11:37:45.065,162597.907,0.048,0.713,-0.7,-0.013,-0.033,-0.006,-0.169,0.103,-0.037,0.068,-0.793,1.96
2024-09-23 11:37:45.074,162597.917,0.048,0.714,-0.699,-0.028,0.0,0.003,-0.097,0.086,-0.022,0.069,-0.795,1.959
2024-09-23 11:37:45.084,162597.927,0.048,0.714,-0.698,-0.022,-0.01,0.01,-0.037,0.063,-0.003,0.069,-0.795,1.959
2024-09-23 11:37:45.095,162597.937,0.049,0.714,-0.698,-0.003,0.011,0.009,0.017,0.022,0.009,0.07,-0.796,1.959
2024-09-23 11:37:45.104,162597.947,0.049,0.714,-0.698,-0.003,0.021,0.009,0.07,-0.003,0.013,0.07,-0.795,1.959
2024-09-23 11:37:45.114,162597.957,0.049,0.713,-0.699,0.003,0.014,0.013,0.136,-0.015,0.01,0.07,-0.794,1.959
2024-09-23 11:37:45.124,162597.967,0.049,0.712,-0.7,0.006,0.026,0.013,0.193,-0.043,-0.011,0.069,-0.792,1.959
2024-09-23 11:37:45.134,162597.977,0.048,0.711,-0.702,0.001,0.028,0.019,0.209,-0.051,-0.022,0.068,-0.79,1.959
2024-09-23 11:37:45.144,162597.987,0.048,0.709,-0.704,0.005,0.015,0.02,0.206,-0.064,-0.041,0.067,-0.788,1.958
2024-09-23 11:37:45.154,162597.997,0.047,0.708,-0.705,0.003,0.009,0.009,0.187,-0.073,-0.05,0.066,-0.786,1.957
2024-09-23 11:37:45.164,162598.007,0.046,0.707,-0.706,-0.002,0.0,0.005,0.171,-0.074,-0.045,0.065,-0.785,1.956
2024-09-23 11:37:45.174,162598.017,0.045,0.705,-0.707,0.002,-0.009,0.001,0.176,-0.069,-0.044,0.063,-0.783,1.956
2024-09-23 11:37:45.185,162598.027,0.044,0.704,-0.709,-0.0,-0.007,0.007,0.17,-0.06,-0.037,0.062,-0.781,1.955
2024-09-23 11:37:45.194,162598.037,0.044,0.703,-0.71,-0.002,0.005,0.013,0.162,-0.043,-0.031,0.061,-0.78,1.954
2024-09-23 11:37:45.204,162598.047,0.043,0.702,-0.711,-0.008,-0.0,0.005,0.092,-0.008,-0.02,0.061,-0.779,1.954
2024-09-23 11:37:45.214,162598.057,0.043,0.702,-0.711,-0.009,-0.01,0.002,0.015,-0.008,-0.013,0.061,-0.778,1.954
2024-09-23 11:37:45.224,162598.067,0.043,0.702,-0.71,-0.016,-0.02,-0.004,-0.09,0.004,-0.017,0.061,-0.779,1.953
2024-09-23 11:37:45.234,162598.077,0.043,0.703,-0.709,-0.015,-0.04,-0.012,-0.191,0.033,-0.018,0.061,-0.78,1.953
2024-09-23 11:37:45.244,162598.087,0.043,0.705,-0.708,-0.011,-0.051,-0.017,-0.255,0.053,-0.012,0.061,-0.783,1.953
2024-09-23 11:37:45.254,162598.097,0.044,0.707,-0.706,-0.017,-0.044,-0.022,-0.278,0.123,-0.006,0.062,-0.785,1.953
2024-09-23 11:37:45.264,162598.107,0.045,0.709,-0.704,-0.015,-0.033,-0.015,-0.241,0.144,0.008,0.064,-0.788,1.954
2024-09-23 11:37:45.274,162598.117,0.046,0.71,-0.702,-0.016,-0.016,-0.007,-0.199,0.131,-0.006,0.065,-0.79,1.954
2024-09-23 11:37:45.284,162598.127,0.047,0.712,-0.701,-0.025,-0.001,0.006,-0.166,0.105,0.0,0.066,-0.792,1.954
2024-09-23 11:37:45.294,162598.137,0.047,0.713,-0.7,-0.001,0.012,0.011,-0.128,0.055,0.005,0.067,-0.793,1.954
2024-09-23 11:37:45.304,162598.147,0.047,0.713,-0.699,-0.001,0.016,0.007,-0.065,0.013,0.002,0.068,-0.794,1.954
2024-09-23 11:37:45.314,162598.157,0.047,0.713,-0.699,0.002,0.009,0.005,0.021,-0.025,0.002,0.067,-0.794,1.954
2024-09-23 11:37:45.324,162598.167,0.047,0.713,-0.7,0.007,0.016,0.009,0.112,-0.035,-0.018,0.067,-0.793,1.954
2024-09-23 11:37:45.334,162598.177,0.046,0.712,-0.701,0.006,0.029,0.017,0.166,-0.053,-0.028,0.066,-0.792,1.953
2024-09-23 11:37:45.344,162598.187,0.046,0.71,-0.703,0.006,0.046,0.022,0.189,-0.065,-0.026,0.065,-0.79,1.953
2024-09-23 11:37:45.354,162598.197,0.045,0.709,-0.704,0.003,0.03,0.017,0.164,-0.035,-0.016,0.064,-0.788,1.952
2024-09-23 11:37:45.364,162598.206,0.045,0.708,-0.705,0.002,0.003,0.014,0.143,-0.041,-0.01,0.064,-0.787,1.952
2024-09-23 11:37:45.374,162598.216,0.045,0.707,-0.706,-0.006,-0.004,0.008,0.089,-0.02,-0.014,0.063,-0.785,1.952
2024-09-23 11:37:45.384,162598.226,0.045,0.707,-0.706,-0.012,-0.011,-0.0,0.034,0.036,0.001,0.063,-0.785,1.952
2024-09-23 11:37:45.394,162598.236,0.045,0.707,-0.706,-0.01,-0.018,-0.005,-0.028,0.036,0.008,0.064,-0.785,1.952
2024-09-23 11:37:45.404,162598.246,0.045,0.707,-0.706,-0.027,-0.032,-0.01,-0.101,0.048,-0.002,0.064,-0.786,1.952
2024-09-23 11:37:45.414,162598.256,0.046,0.708,-0.704,-0.019,-0.032,-0.011,-0.188,0.046,0.007,0.065,-0.787,1.952
2024-09-23 11:37:45.424,162598.266,0.046,0.71,-0.703,-0.009,-0.027,-0.012,-0.248,0.049,0.011,0.065,-0.789,1.952
2024-09-23 11:37:45.435,162598.276,0.046,0.712,-0.701,-0.013,-0.042,-0.015,-0.233,0.047,0.017,0.066,-0.792,1.953
2024-09-23 11:37:45.443,162598.286,0.047,0.713,-0.699,-0.007,-0.034,-0.012,-0.178,0.022,0.001,0.067,-0.794,1.953
2024-09-23 11:37:45.452,162598.296,0.047,0.714,-0.698,-0.006,-0.013,0.002,-0.092,-0.004,-0.011,0.067,-0.795,1.953
2024-09-23 11:37:45.463,162598.306,0.047,0.714,-0.698,0.003,0.018,0.01,-0.002,-0.031,-0.011,0.067,-0.796,1.953
2024-09-23 11:37:45.473,162598.316,0.046,0.714,-0.699,0.008,0.027,0.017,0.099,-0.05,-0.007,0.066,-0.795,1.953
2024-09-23 11:37:45.483,162598.326,0.046,0.713,-0.7,0.007,0.033,0.02,0.158,-0.071,0.0,0.065,-0.794,1.953
2024-09-23 11:37:45.494,162598.336,0.045,0.712,-0.701,0.003,0.046,0.024,0.184,-0.092,-0.003,0.064,-0.792,1.952
2024-09-23 11:37:45.504,162598.346,0.044,0.71,-0.702,0.003,0.034,0.02,0.208,-0.095,0.001,0.063,-0.79,1.952
2024-09-23 11:37:45.513,162598.356,0.044,0.709,-0.704,0.0,0.012,0.011,0.217,-0.077,-0.008,0.062,-0.788,1.952
2024-09-23 11:37:45.523,162598.366,0.043,0.707,-0.705,-0.003,0.001,0.008,0.189,-0.038,-0.007,0.061,-0.786,1.952
2024-09-23 11:37:45.534,162598.376,0.043,0.706,-0.707,-0.008,0.0,0.007,0.136,-0.015,-0.01,0.061,-0.784,1.951
2024-09-23 11:37:45.545,162598.386,0.043,0.706,-0.707,-0.012,-0.011,0.002,0.09,-0.007,-0.026,0.061,-0.783,1.951
2024-09-23 11:37:45.554,162598.396,0.043,0.705,-0.708,-0.014,-0.025,-0.003,0.055,-0.015,-0.023,0.06,-0.783,1.951
2024-09-23 11:37:45.564,162598.406,0.042,0.705,-0.708,-0.008,-0.027,-0.004,0.049,0.002,-0.01,0.06,-0.782,1.95
2024-09-23 11:37:45.574,162598.416,0.043,0.705,-0.708,-0.006,-0.014,-0.004,0.043,0.007,0.009,0.06,-0.782,1.95
2024-09-23 11:37:45.584,162598.426,0.043,0.705,-0.708,-0.01,0.004,0.002,0.003,0.035,0.03,0.06,-0.782,1.951
2024-09-23 11:37:45.594,162598.436,0.043,0.705,-0.708,-0.012,0.014,0.007,-0.079,0.062,0.054,0.061,-0.782,1.951
2024-09-23 11:37:45.604,162598.446,0.044,0.706,-0.707,-0.014,-0.003,0.0,-0.194,0.096,0.047,0.063,-0.783,1.952
2024-09-23 11:37:45.613,162598.456,0.045,0.707,-0.705,-0.019,-0.028,-0.011,-0.298,0.113,0.03,0.064,-0.786,1.953
2024-09-23 11:37:45.624,162598.466,0.046,0.71,-0.703,-0.021,-0.054,-0.022,-0.41,0.106,-0.01,0.066,-0.789,1.953
2024-09-23 11:37:45.633,162598.476,0.047,0.713,-0.7,-0.019,-0.076,-0.023,-0.445,0.098,-0.033,0.067,-0.794,1.953
2024-09-23 11:37:45.644,162598.486,0.047,0.716,-0.697,-0.006,-0.055,-0.02,-0.385,0.072,-0.037,0.067,-0.798,1.953
2024-09-23 11:37:45.653,162598.496,0.047,0.718,-0.694,-0.005,-0.024,-0.01,-0.267,0.035,-0.04,0.068,-0.801,1.953
2024-09-23 11:37:45.663,162598.506,0.047,0.719,-0.693,0.006,0.008,-0.0,-0.105,-0.001,-0.023,0.068,-0.803,1.953
2024-09-23 11:37:45.674,162598.516,0.047,0.72,-0.693,0.011,0.033,0.014,0.068,-0.026,0.005,0.067,-0.803,1.953
2024-09-23 11:37:45.683,162598.526,0.047,0.719,-0.694,0.011,0.048,0.026,0.109,-0.004,0.032,0.067,-0.802,1.953
2024-09-23 11:37:45.694,162598.536,0.047,0.718,-0.695,0.005,0.06,0.033,0.144,0.011,0.06,0.068,-0.801,1.953
2024-09-23 11:37:45.704,162598.546,0.047,0.717,-0.696,-0.005,0.052,0.034,0.092,0.017,0.03,0.068,-0.799,1.954
2024-09-23 11:37:45.713,162598.556,0.048,0.717,-0.696,-0.019,0.008,0.022,-0.018,0.025,0.026,0.069,-0.799,1.954
2024-09-23 11:37:45.723,162598.566,0.048,0.717,-0.695,-0.012,-0.016,-0.001,-0.131,0.037,0.018,0.069,-0.8,1.954
2024-09-23 11:37:45.733,162598.576,0.049,0.718,-0.694,-0.016,-0.05,-0.026,-0.228,0.056,-0.005,0.07,-0.801,1.955
2024-09-23 11:37:45.743,162598.586,0.049,0.72,-0.692,-0.015,-0.065,-0.033,-0.324,0.093,-0.03,0.071,-0.804,1.955
2024-09-23 11:37:45.753,162598.596,0.049,0.723,-0.689,-0.007,-0.047,-0.024,-0.353,0.128,-0.038,0.072,-0.808,1.954
2024-09-23 11:37:45.763,162598.606,0.05,0.725,-0.687,-0.011,-0.016,-0.011,-0.316,0.128,-0.017,0.073,-0.811,1.954
2024-09-23 11:37:45.773,162598.616,0.051,0.727,-0.685,-0.011,0.003,-0.012,-0.308,0.128,0.011,0.074,-0.814,1.955
2024-09-23 11:37:45.783,162598.626,0.052,0.729,-0.682,0.002,0.018,-0.021,-0.272,0.121,0.017,0.076,-0.817,1.955
2024-09-23 11:37:45.793,162598.636,0.053,0.731,-0.681,-0.011,0.019,-0.005,-0.188,0.101,0.002,0.077,-0.819,1.956
2024-09-23 11:37:45.803,162598.646,0.053,0.732,-0.68,-0.019,0.013,0.014,-0.121,0.092,-0.008,0.078,-0.821,1.956
2024-09-23 11:37:45.813,162598.656,0.054,0.732,-0.679,0.001,0.016,0.021,-0.11,0.103,-0.015,0.079,-0.822,1.956
2024-09-23 11:37:45.823,162598.666,0.054,0.733,-0.678,0.014,0.045,0.013,-0.089,0.07,-0.018,0.08,-0.823,1.955
2024-09-23 11:37:45.833,162598.676,0.054,0.733,-0.678,0.005,0.06,0.015,-0.066,0.026,-0.017,0.08,-0.823,1.955
2024-09-23 11:37:45.843,162598.686,0.054,0.734,-0.677,-0.0,0.021,0.025,-0.087,0.019,-0.018,0.08,-0.824,1.955
2024-09-23 11:37:45.853,162598.696,0.054,0.735,-0.676,0.008,-0.01,0.01,-0.147,0.023,-0.041,0.08,-0.825,1.955
2024-09-23 11:37:45.863,162598.706,0.054,0.736,-0.675,0.003,-0.022,-0.018,-0.234,0.026,-0.068,0.08,-0.827,1.954
2024-09-23 11:37:45.873,162598.716,0.054,0.738,-0.673,0.0,-0.038,-0.025,-0.312,0.034,-0.093,0.08,-0.83,1.953
2024-09-23 11:37:45.883,162598.726,0.053,0.74,-0.67,0.013,-0.035,-0.017,-0.385,0.036,-0.098,0.079,-0.834,1.952
2024-09-23 11:37:45.893,162598.736,0.053,0.743,-0.667,0.018,-0.015,-0.021,-0.419,0.011,-0.092,0.079,-0.838,1.951
2024-09-23 11:37:45.903,162598.746,0.052,0.746,-0.664,0.017,-0.004,-0.036,-0.5,-0.029,-0.059,0.078,-0.842,1.951
2024-09-23 11:37:45.913,162598.756,0.052,0.75,-0.66,0.018,0.012,-0.048,-0.566,0.018,-0.047,0.078,-0.848,1.951
2024-09-23 11:37:45.923,162598.766,0.052,0.754,-0.655,0.012,0.03,-0.061,-0.631,0.036,-0.001,0.079,-0.854,1.951
2024-09-23 11:37:45.933,162598.776,0.052,0.758,-0.65,0.005,0.021,-0.065,-0.75,0.028,-0.01,0.08,-0.861,1.952
2024-09-23 11:37:45.943,162598.786,0.052,0.763,-0.644,0.004,-0.013,-0.031,-0.889,0.01,-0.03,0.08,-0.868,1.952
2024-09-23 11:37:45.954,162598.796,0.052,0.77,-0.636,0.021,-0.066,0.051,-1.078,-0.011,-0.125,0.081,-0.879,1.953
2024-09-23 11:37:45.963,162598.805,0.051,0.776,-0.629,0.039,-0.053,0.088,-0.71,-0.038,-0.112,0.08,-0.888,1.953
2024-09-23 11:37:45.973,162598.815,0.049,0.779,-0.625,0.051,-0.023,0.121,-0.319,-0.086,-0.114,0.079,-0.893,1.951
2024-09-23 11:37:45.983,162598.825,0.048,0.781,-0.623,0.012,0.051,-0.005,-0.169,-0.129,-0.064,0.077,-0.896,1.95
2024-09-23 11:37:45.993,162598.835,0.047,0.782,-0.622,0.038,0.093,-0.05,-0.146,-0.181,-0.033,0.075,-0.897,1.95
2024-09-23 11:37:46.003,162598.845,0.045,0.783,-0.621,0.014,0.027,-0.019,-0.193,-0.212,-0.012,0.073,-0.899,1.949
2024-09-23 11:37:46.013,162598.855,0.044,0.784,-0.619,0.011,-0.024,0.02,-0.402,-0.239,0.028,0.071,-0.902,1.95
2024-09-23 11:37:46.023,162598.865,0.042,0.787,-0.615,0.02,-0.007,0.048,-0.505,-0.251,-0.002,0.069,-0.906,1.951
2024-09-23 11:37:46.033,162598.875,0.041,0.79,-0.611,0.014,-0.001,0.078,-0.519,-0.268,0.001,0.067,-0.911,1.951
2024-09-23 11:37:46.043,162598.885,0.039,0.793,-0.607,0.009,-0.009,0.062,-0.491,-0.297,0.009,0.064,-0.917,1.952
2024-09-23 11:37:46.053,162598.895,0.037,0.796,-0.604,0.017,0.012,0.026,-0.387,-0.331,0.009,0.062,-0.921,1.952
2024-09-23 11:37:46.063,162598.905,0.035,0.798,-0.601,0.014,0.018,0.006,-0.244,-0.351,0.022,0.059,-0.924,1.953
2024-09-23 11:37:46.073,162598.915,0.034,0.8,-0.599,0.009,0.018,-0.019,-0.361,-0.086,-0.048,0.057,-0.927,1.954
2024-09-23 11:37:46.082,162598.925,0.032,0.803,-0.595,0.017,0.039,-0.031,-0.625,-0.319,0.077,0.054,-0.932,1.953
2024-09-23 11:37:46.092,162598.935,0.032,0.806,-0.591,0.057,0.018,0.015,-0.496,-0.18,0.134,0.054,-0.937,1.956
2024-09-23 11:37:46.102,162598.945,0.032,0.809,-0.587,0.157,-0.02,0.123,-0.563,-0.226,0.115,0.054,-0.942,1.959
2024-09-23 11:37:46.112,162598.955,0.031,0.812,-0.582,0.054,0.099,0.052,-0.553,-0.272,0.126,0.054,-0.948,1.961
2024-09-23 11:37:46.122,162598.965,0.031,0.815,-0.579,0.01,0.001,0.002,-0.417,-0.227,0.058,0.053,-0.953,1.963
2024-09-23 11:37:46.132,162598.975,0.03,0.817,-0.575,0.077,-0.058,0.018,-0.383,-0.324,0.112,0.052,-0.957,1.965
2024-09-23 11:37:46.142,162598.985,0.029,0.819,-0.573,0.057,0.027,0.005,-0.248,-0.299,0.1,0.051,-0.96,1.967
2024-09-23 11:37:46.153,162598.995,0.028,0.82,-0.572,0.08,0.025,0.033,-0.134,-0.291,0.121,0.049,-0.962,1.969
2024-09-23 11:37:46.163,162599.005,0.028,0.821,-0.571,0.065,0.047,0.013,-0.089,-0.27,0.167,0.049,-0.963,1.972
2024-09-23 11:37:46.173,162599.015,0.028,0.821,-0.57,0.04,0.018,-0.004,-0.079,-0.242,0.184,0.049,-0.963,1.975
2024-09-23 11:37:46.183,162599.025,0.028,0.822,-0.569,0.059,-0.014,0.008,-0.11,-0.227,0.186,0.049,-0.964,1.978
2024-09-23 11:37:46.193,162599.035,0.028,0.822,-0.568,0.027,-0.034,0.018,-0.151,-0.206,0.164,0.049,-0.965,1.982
2024-09-23 11:37:46.204,162599.045,0.028,0.823,-0.567,0.013,-0.046,0.049,-0.137,-0.213,0.126,0.05,-0.967,1.984
2024-09-23 11:37:46.213,162599.055,0.028,0.824,-0.567,0.001,-0.052,0.053,-0.038,-0.22,0.104,0.049,-0.968,1.986
2024-09-23 11:37:46.222,162599.065,0.027,0.823,-0.567,-0.043,-0.088,0.05,0.071,-0.206,0.084,0.048,-0.967,1.988
2024-09-23 11:37:46.232,162599.075,0.027,0.823,-0.568,-0.058,-0.092,0.035,0.176,-0.219,0.085,0.047,-0.966,1.989
2024-09-23 11:37:46.242,162599.085,0.026,0.821,-0.57,-0.085,-0.089,0.017,0.327,-0.221,0.093,0.046,-0.964,1.991
2024-09-23 11:37:46.252,162599.095,0.026,0.819,-0.573,-0.11,-0.113,0.022,0.501,-0.173,0.078,0.045,-0.96,1.992
2024-09-23 11:37:46.262,162599.105,0.025,0.815,-0.579,-0.131,-0.105,0.014,0.786,-0.131,0.024,0.044,-0.953,1.992
2024-09-23 11:37:46.272,162599.115,0.025,0.81,-0.586,-0.169,-0.064,-0.011,0.982,-0.068,0.089,0.043,-0.944,1.992
2024-09-23 11:37:46.282,162599.125,0.026,0.804,-0.593,-0.19,-0.037,-0.048,0.842,-0.003,0.14,0.044,-0.935,1.994
2024-09-23 11:37:46.293,162599.135,0.027,0.8,-0.599,-0.204,0.002,-0.106,0.533,0.046,0.137,0.046,-0.928,1.996
2024-09-23 11:37:46.302,162599.145,0.029,0.798,-0.602,-0.236,0.012,-0.123,0.311,0.09,0.129,0.048,-0.924,1.997
2024-09-23 11:37:46.312,162599.155,0.03,0.796,-0.604,-0.241,-0.024,-0.101,0.188,0.124,0.132,0.05,-0.921,1.999
2024-09-23 11:37:46.322,162599.165,0.032,0.795,-0.605,-0.202,-0.035,-0.077,0.163,0.13,0.12,0.053,-0.919,2.001
2024-09-23 11:37:46.333,162599.175,0.034,0.794,-0.607,-0.162,-0.06,-0.049,0.223,0.12,0.096,0.056,-0.917,2.003
2024-09-23 11:37:46.342,162599.185,0.035,0.792,-0.609,-0.103,-0.062,-0.029,0.321,0.101,0.076,0.058,-0.915,2.004
2024-09-23 11:37:46.352,162599.195,0.036,0.79,-0.612,-0.055,-0.005,-0.003,0.437,0.082,0.074,0.059,-0.911,2.005
2024-09-23 11:37:46.362,162599.205,0.037,0.787,-0.616,-0.014,0.057,0.03,0.597,0.036,0.084,0.061,-0.906,2.006
2024-09-23 11:37:46.372,162599.215,0.038,0.783,-0.621,0.014,0.087,0.07,0.609,0.061,0.098,0.062,-0.899,2.007
2024-09-23 11:37:46.382,162599.225,0.039,0.779,-0.625,0.045,0.099,0.116,0.592,0.032,0.109,0.063,-0.893,2.008
2024-09-23 11:37:46.392,162599.235,0.04,0.775,-0.63,0.065,0.1,0.131,0.69,-0.014,0.138,0.064,-0.887,2.009
2024-09-23 11:37:46.402,162599.245,0.041,0.77,-0.636,0.067,0.033,0.133,0.795,-0.007,0.13,0.065,-0.88,2.01
2024-09-23 11:37:46.412,162599.255,0.042,0.765,-0.642,0.112,0.036,0.088,0.847,-0.019,0.088,0.066,-0.871,2.011
2024-09-23 11:37:46.422,162599.265,0.043,0.76,-0.649,0.095,0.084,0.018,0.864,-0.046,0.041,0.065,-0.863,2.011
2024-09-23 11:37:46.432,162599.275,0.042,0.754,-0.656,0.057,0.064,-0.02,0.894,-0.081,-0.013,0.064,-0.854,2.011
2024-09-23 11:37:46.442,162599.285,0.041,0.748,-0.663,0.063,0.037,-0.032,0.924,-0.118,-0.035,0.062,-0.845,2.009
2024-09-23 11:37:46.452,162599.295,0.04,0.742,-0.669,0.053,0.035,-0.044,0.838,-0.105,-0.047,0.06,-0.836,2.008
2024-09-23 11:37:46.463,162599.305,0.039,0.737,-0.675,0.038,0.019,-0.061,0.66,-0.066,-0.066,0.058,-0.829,2.006
2024-09-23 11:37:46.472,162599.315,0.038,0.733,-0.679,0.028,-0.014,-0.054,0.486,-0.02,-0.079,0.057,-0.823,2.005
2024-09-23 11:37:46.482,162599.325,0.038,0.73,-0.682,0.015,-0.053,-0.02,0.329,0.053,-0.09,0.056,-0.819,2.003
2024-09-23 11:37:46.492,162599.335,0.038,0.729,-0.684,0.01,-0.061,-0.006,0.173,0.107,-0.091,0.055,-0.817,2.002
2024-09-23 11:37:46.502,162599.345,0.038,0.728,-0.684,-0.008,-0.036,-0.033,0.059,0.121,-0.092,0.055,-0.815,2.0
2024-09-23 11:37:46.512,162599.355,0.038,0.728,-0.685,-0.032,-0.045,-0.048,0.001,0.142,-0.092,0.056,-0.815,1.999
2024-09-23 11:37:46.522,162599.365,0.039,0.728,-0.685,-0.028,-0.057,-0.038,0.017,0.147,-0.095,0.056,-0.815,1.998
2024-09-23 11:37:46.532,162599.375,0.039,0.728,-0.685,-0.031,-0.04,-0.04,0.086,0.12,-0.085,0.057,-0.815,1.996
2024-09-23 11:37:46.542,162599.385,0.039,0.727,-0.686,-0.033,-0.016,-0.025,0.191,0.116,-0.093,0.057,-0.813,1.995
2024-09-23 11:37:46.553,162599.395,0.039,0.725,-0.687,-0.025,-0.004,-0.003,0.145,0.077,-0.073,0.057,-0.812,1.993
2024-09-23 11:37:46.562,162599.404,0.039,0.725,-0.688,-0.015,-0.0,-0.003,0.104,0.042,-0.052,0.057,-0.811,1.992
2024-09-23 11:37:46.572,162599.414,0.039,0.724,-0.689,-0.004,-0.001,0.007,0.11,0.031,-0.025,0.056,-0.81,1.992
2024-09-23 11:37:46.582,162599.424,0.039,0.723,-0.69,0.0,0.008,0.012,0.156,0.058,-0.033,0.056,-0.808,1.991
2024-09-23 11:37:46.593,162599.434,0.039,0.722,-0.691,-0.001,0.045,0.03,0.178,0.087,-0.039,0.057,-0.807,1.991
2024-09-23 11:37:46.602,162599.444,0.04,0.721,-0.692,-0.002,0.047,0.039,0.198,0.091,-0.039,0.057,-0.805,1.99
2024-09-23 11:37:46.612,162599.454,0.04,0.719,-0.694,-0.004,0.029,0.031,0.166,0.101,-0.05,0.058,-0.803,1.989
2024-09-23 11:37:46.622,162599.464,0.04,0.718,-0.694,0.001,0.007,0.014,0.076,0.081,-0.041,0.058,-0.802,1.988
2024-09-23 11:37:46.632,162599.474,0.04,0.718,-0.695,-0.007,-0.015,-0.014,-0.003,0.071,-0.041,0.058,-0.801,1.988
2024-09-23 11:37:46.641,162599.484,0.041,0.718,-0.694,-0.024,-0.038,-0.02,-0.048,0.052,-0.036,0.058,-0.802,1.987
2024-09-23 11:37:46.652,162599.494,0.041,0.719,-0.694,-0.009,-0.05,-0.02,-0.044,0.038,-0.045,0.058,-0.802,1.987
2024-09-23 11:37:46.662,162599.504,0.04,0.719,-0.694,-0.008,-0.041,-0.022,-0.037,0.016,-0.066,0.058,-0.803,1.986
2024-09-23 11:37:46.672,162599.514,0.04,0.719,-0.693,0.003,-0.013,-0.015,0.005,-0.017,-0.079,0.057,-0.803,1.985
2024-09-23 11:37:46.682,162599.524,0.039,0.719,-0.694,0.012,0.011,0.003,0.104,-0.075,-0.081,0.056,-0.803,1.984
2024-09-23 11:37:46.692,162599.534,0.038,0.718,-0.695,0.009,0.02,0.01,0.289,-0.17,-0.074,0.054,-0.801,1.982
2024-09-23 11:37:46.702,162599.544,0.036,0.715,-0.698,0.019,0.037,0.012,0.536,-0.251,-0.073,0.051,-0.797,1.981
2024-09-23 11:37:46.712,162599.554,0.033,0.711,-0.703,0.026,0.064,0.026,0.789,-0.355,-0.046,0.047,-0.79,1.98
2024-09-23 11:37:46.722,162599.564,0.03,0.704,-0.709,0.028,0.111,0.044,1.011,-0.381,-0.041,0.042,-0.781,1.979
2024-09-23 11:37:46.732,162599.574,0.028,0.697,-0.716,0.032,0.117,0.053,0.834,-0.382,0.138,0.038,-0.772,1.978
2024-09-23 11:37:46.742,162599.584,0.026,0.693,-0.721,0.037,0.102,0.064,0.477,-0.124,-0.05,0.037,-0.765,1.979
2024-09-23 11:37:46.752,162599.594,0.025,0.691,-0.723,0.028,0.068,0.098,0.026,-0.127,0.086,0.035,-0.762,1.979
2024-09-23 11:37:46.762,162599.604,0.025,0.692,-0.722,-0.104,-0.084,0.034,-0.235,-0.076,0.065,0.035,-0.764,1.98
2024-09-23 11:37:46.772,162599.614,0.025,0.694,-0.72,-0.056,-0.185,-0.023,-0.419,-0.029,0.098,0.035,-0.767,1.981
2024-09-23 11:37:46.782,162599.624,0.026,0.698,-0.716,-0.044,-0.2,-0.099,-0.64,0.007,0.145,0.036,-0.772,1.983
2024-09-23 11:37:46.791,162599.634,0.027,0.703,-0.711,-0.057,-0.069,-0.143,-0.81,0.097,0.048,0.038,-0.78,1.985
2024-09-23 11:37:46.801,162599.644,0.029,0.708,-0.705,-0.047,-0.125,-0.092,-0.664,0.227,0.097,0.041,-0.787,1.986
2024-09-23 11:37:46.811,162599.654,0.031,0.712,-0.701,-0.053,-0.111,-0.035,-0.515,0.224,0.062,0.044,-0.793,1.988
2024-09-23 11:37:46.821,162599.664,0.033,0.715,-0.698,-0.037,-0.019,0.007,-0.368,0.217,0.09,0.047,-0.797,1.989
2024-09-23 11:37:46.831,162599.674,0.035,0.718,-0.695,-0.028,0.05,0.066,-0.359,0.231,0.046,0.051,-0.801,1.99
2024-09-23 11:37:46.841,162599.684,0.037,0.72,-0.693,0.015,0.077,0.105,-0.321,0.196,0.001,0.053,-0.804,1.991
2024-09-23 11:37:46.851,162599.694,0.038,0.722,-0.69,0.002,0.059,0.068,-0.303,0.149,-0.013,0.055,-0.807,1.991
2024-09-23 11:37:46.861,162599.704,0.039,0.724,-0.688,-0.015,0.013,0.01,-0.27,0.078,-0.001,0.056,-0.81,1.991
2024-09-23 11:37:46.871,162599.714,0.039,0.726,-0.687,0.026,-0.022,-0.03,-0.166,0.009,-0.012,0.057,-0.812,1.991
2024-09-23 11:37:46.881,162599.724,0.039,0.727,-0.686,0.018,-0.03,-0.031,-0.02,-0.078,-0.025,0.056,-0.813,1.991
2024-09-23 11:37:46.891,162599.734,0.038,0.726,-0.687,0.02,0.0,-0.02,0.153,-0.154,-0.037,0.055,-0.813,1.99
2024-09-23 11:37:46.901,162599.744,0.036,0.724,-0.689,0.036,0.032,-0.002,0.367,-0.243,-0.036,0.052,-0.81,1.99
2024-09-23 11:37:46.911,162599.754,0.034,0.721,-0.692,0.039,0.064,0.014,0.614,-0.343,-0.025,0.049,-0.805,1.989
2024-09-23 11:37:46.922,162599.764,0.031,0.716,-0.697,0.039,0.084,0.023,0.822,-0.425,0.002,0.044,-0.798,1.988
2024-09-23 11:37:46.932,162599.774,0.028,0.71,-0.704,0.034,0.091,0.031,0.989,-0.371,-0.034,0.04,-0.789,1.988
2024-09-23 11:37:46.942,162599.784,0.026,0.703,-0.71,0.023,0.093,0.033,0.71,-0.378,0.183,0.036,-0.78,1.988
2024-09-23 11:37:46.951,162599.794,0.024,0.699,-0.715,0.017,0.086,0.055,0.565,-0.143,-0.101,0.034,-0.774,1.988
2024-09-23 11:37:46.961,162599.804,0.023,0.696,-0.718,-0.011,0.064,0.076,0.322,-0.167,0.071,0.032,-0.769,1.988
2024-09-23 11:37:46.972,162599.814,0.023,0.694,-0.72,-0.125,-0.048,-0.004,0.272,-0.097,0.045,0.031,-0.767,1.988
2024-09-23 11:37:46.981,162599.824,0.022,0.692,-0.722,-0.012,-0.128,-0.025,0.202,-0.041,0.036,0.031,-0.764,1.989
2024-09-23 11:37:46.992,162599.834,0.022,0.691,-0.723,-0.032,-0.112,-0.061,0.105,-0.044,0.031,0.031,-0.763,1.989
2024-09-23 11:37:47.001,162599.844,0.022,0.69,-0.723,-0.033,-0.0,-0.036,-0.0,-0.034,-0.008,0.031,-0.762,1.989
2024-09-23 11:37:47.012,162599.854,0.022,0.69,-0.723,-0.017,-0.041,0.006,0.086,-0.03,0.02,0.031,-0.762,1.989
2024-09-23 11:37:47.021,162599.864,0.022,0.689,-0.724,0.0,-0.021,0.02,0.107,-0.041,-0.007,0.03,-0.761,1.99
2024-09-23 11:37:47.031,162599.874,0.022,0.689,-0.725,0.014,0.012,0.018,0.113,-0.036,0.022,0.03,-0.76,1.99
2024-09-23 11:37:47.041,162599.884,0.022,0.688,-0.725,0.015,0.014,0.039,0.026,0.02,0.006,0.03,-0.759,1.99
2024-09-23 11:37:47.051,162599.894,0.022,0.688,-0.725,0.006,-0.009,0.031,-0.147,0.039,0.026,0.03,-0.759,1.99
2024-09-23 11:37:47.061,162599.904,0.023,0.691,-0.723,-0.023,-0.041,0.014,-0.566,0.118,0.029,0.031,-0.763,1.991
2024-09-23 11:37:47.071,162599.914,0.024,0.696,-0.718,-0.038,-0.073,-0.008,-0.791,0.192,0.117,0.034,-0.769,1.992
2024-09-23 11:37:47.081,162599.924,0.027,0.701,-0.712,-0.05,-0.092,-0.028,-0.767,0.232,0.121,0.038,-0.777,1.994
2024-09-23 11:37:47.091,162599.934,0.029,0.707,-0.707,-0.072,-0.098,-0.038,-0.772,0.235,0.139,0.042,-0.785,1.997
2024-09-23 11:37:47.101,162599.944,0.032,0.712,-0.701,-0.038,-0.047,-0.019,-0.716,0.206,0.119,0.045,-0.792,1.999
2024-09-23 11:37:47.111,162599.954,0.034,0.717,-0.696,0.003,0.002,-0.011,-0.736,0.231,0.096,0.049,-0.799,2.001
2024-09-23 11:37:47.121,162599.964,0.036,0.722,-0.691,-0.004,0.018,-0.028,-0.853,0.232,0.059,0.052,-0.807,2.003
2024-09-23 11:37:47.131,162599.974,0.038,0.728,-0.684,0.002,0.008,-0.029,-0.901,0.238,-0.014,0.056,-0.816,2.004
2024-09-23 11:37:47.141,162599.984,0.039,0.735,-0.677,-0.015,-0.05,-0.023,-0.865,0.229,-0.032,0.058,-0.825,2.004
2024-09-23 11:37:47.151,162599.994,0.041,0.74,-0.671,-0.015,-0.071,-0.022,-0.817,0.188,-0.02,0.061,-0.833,2.004
2024-09-23 11:37:47.161,162600.003,0.042,0.745,-0.665,0.004,-0.039,-0.041,-0.694,0.136,-0.016,0.062,-0.841,2.005
2024-09-23 11:37:47.171,162600.013,0.042,0.749,-0.661,0.004,-0.013,-0.035,-0.461,0.084,-0.007,0.064,-0.847,2.005
2024-09-23 11:37:47.181,162600.023,0.043,0.751,-0.659,0.008,0.017,-0.009,-0.126,0.001,0.021,0.065,-0.85,2.005
2024-09-23 11:37:47.191,162600.033,0.042,0.751,-0.659,0.013,0.048,0.004,0.208,-0.097,0.032,0.064,-0.849,2.006
2024-09-23 11:37:47.201,162600.043,0.042,0.748,-0.662,0.017,0.068,0.025,0.557,-0.212,0.019,0.063,-0.846,2.006
2024-09-23 11:37:47.211,162600.053,0.04,0.743,-0.668,0.033,0.1,0.065,0.898,-0.296,0.024,0.06,-0.838,2.005
2024-09-23 11:37:47.221,162600.063,0.038,0.736,-0.675,0.03,0.119,0.085,1.202,-0.366,0.041,0.056,-0.828,2.005
2024-09-23 11:37:47.231,162600.073,0.036,0.727,-0.685,0.032,0.136,0.08,1.458,-0.385,0.04,0.052,-0.814,2.005
2024-09-23 11:37:47.241,162600.083,0.033,0.716,-0.697,0.035,0.131,0.078,1.704,-0.403,0.036,0.048,-0.799,2.004
2024-09-23 11:37:47.251,162600.093,0.031,0.704,-0.709,0.028,0.13,0.094,1.566,-0.203,-0.074,0.044,-0.782,2.002
2024-09-23 11:37:47.261,162600.103,0.03,0.695,-0.718,0.021,0.124,0.1,1.102,-0.08,0.042,0.042,-0.768,2.003
2024-09-23 11:37:47.271,162600.113,0.03,0.689,-0.724,0.027,0.111,0.074,0.473,0.046,-0.079,0.041,-0.76,2.001
2024-09-23 11:37:47.281,162600.123,0.03,0.688,-0.725,-0.075,-0.058,-0.022,-0.165,0.059,-0.01,0.041,-0.759,2.001
2024-09-23 11:37:47.291,162600.133,0.031,0.69,-0.723,-0.132,-0.25,-0.074,-0.23,0.076,0.041,0.042,-0.761,2.001
2024-09-23 11:37:47.301,162600.143,0.031,0.692,-0.722,-0.045,-0.32,-0.064,-0.216,0.123,-0.022,0.044,-0.764,2.001
2024-09-23 11:37:47.311,162600.153,0.032,0.693,-0.72,-0.045,-0.083,-0.129,-0.283,0.11,-0.018,0.045,-0.766,2.001
2024-09-23 11:37:47.321,162600.163,0.033,0.696,-0.717,-0.015,-0.005,-0.053,-0.429,0.068,-0.021,0.046,-0.77,2.001
2024-09-23 11:37:47.330,162600.173,0.033,0.699,-0.714,-0.01,-0.06,-0.011,-0.376,-0.057,0.028,0.046,-0.774,2.002
2024-09-23 11:37:47.340,162600.183,0.033,0.701,-0.713,-0.021,-0.047,-0.007,-0.191,-0.16,0.114,0.046,-0.777,2.003
2024-09-23 11:37:47.350,162600.193,0.032,0.702,-0.712,0.002,-0.014,0.004,-0.02,-0.222,0.107,0.045,-0.778,2.004
2024-09-23 11:37:47.361,162600.203,0.031,0.701,-0.712,0.036,0.062,0.006,0.033,-0.245,0.093,0.044,-0.777,2.006
2024-09-23 11:37:47.370,162600.213,0.03,0.702,-0.712,0.026,0.061,0.022,-0.057,-0.136,0.06,0.042,-0.778,2.007
2024-09-23 11:37:47.380,162600.223,0.03,0.702,-0.712,0.025,0.054,-0.009,0.037,0.006,0.08,0.042,-0.778,2.008
2024-09-23 11:37:47.391,162600.233,0.031,0.702,-0.712,-0.021,0.019,-0.002,-0.072,0.213,-0.025,0.044,-0.778,2.008
2024-09-23 11:37:47.400,162600.243,0.033,0.703,-0.711,-0.011,0.031,0.025,-0.207,0.367,-0.016,0.047,-0.779,2.008
2024-09-23 11:37:47.410,162600.253,0.036,0.704,-0.709,-0.027,0.046,0.045,-0.28,0.351,-0.025,0.05,-0.782,2.008
2024-09-23 11:37:47.421,162600.263,0.038,0.707,-0.707,-0.033,-0.085,0.062,-0.346,0.307,-0.02,0.053,-0.785,2.008
2024-09-23 11:37:47.430,162600.273,0.04,0.709,-0.704,-0.027,-0.102,0.02,-0.296,0.288,-0.037,0.056,-0.788,2.007
2024-09-23 11:37:47.440,162600.283,0.042,0.711,-0.702,-0.045,-0.076,-0.007,-0.312,0.327,0.0,0.059,-0.791,2.007
2024-09-23 11:37:47.451,162600.293,0.044,0.714,-0.699,-0.051,-0.068,-0.016,-0.476,0.369,0.056,0.063,-0.795,2.008
2024-09-23 11:37:47.461,162600.303,0.047,0.717,-0.695,-0.039,-0.05,-0.034,-0.612,0.429,0.039,0.068,-0.8,2.009
2024-09-23 11:37:47.470,162600.313,0.051,0.722,-0.69,-0.052,-0.041,-0.005,-0.644,0.479,0.054,0.074,-0.806,2.011
2024-09-23 11:37:47.481,162600.323,0.055,0.726,-0.685,-0.058,-0.016,0.008,-0.735,0.495,0.078,0.08,-0.813,2.012
2024-09-23 11:37:47.491,162600.333,0.059,0.731,-0.679,-0.051,-0.013,-0.023,-0.792,0.491,0.149,0.087,-0.82,2.015
2024-09-23 11:37:47.500,162600.343,0.063,0.737,-0.673,-0.034,-0.046,-0.043,-0.858,0.457,0.177,0.094,-0.828,2.019
2024-09-23 11:37:47.510,162600.353,0.068,0.743,-0.666,-0.02,-0.017,-0.086,-0.874,0.401,0.24,0.102,-0.837,2.023
2024-09-23 11:37:47.520,162600.363,0.072,0.748,-0.66,-0.056,-0.014,-0.059,-0.733,0.31,0.3,0.109,-0.845,2.028
2024-09-23 11:37:47.530,162600.373,0.077,0.752,-0.655,-0.043,-0.012,-0.018,-0.517,0.196,0.383,0.116,-0.851,2.034
2024-09-23 11:37:47.540,162600.383,0.08,0.754,-0.652,-0.028,0.04,0.008,-0.212,0.046,0.393,0.122,-0.854,2.041
2024-09-23 11:37:47.550,162600.393,0.082,0.754,-0.652,-0.014,0.093,0.04,0.13,-0.183,0.123,0.125,-0.854,2.045
2024-09-23 11:37:47.560,162600.403,0.081,0.753,-0.653,-0.016,0.153,0.054,0.045,-0.327,0.029,0.123,-0.853,2.046
2024-09-23 11:37:47.570,162600.413,0.08,0.753,-0.653,-0.089,0.2,0.059,-0.205,-0.325,0.266,0.122,-0.853,2.049
2024-09-23 11:37:47.580,162600.423,0.08,0.755,-0.65,-0.153,0.175,0.094,-0.45,-0.352,0.245,0.122,-0.856,2.053
2024-09-23 11:37:47.590,162600.433,0.079,0.758,-0.647,-0.044,0.108,0.142,-0.54,-0.396,0.297,0.122,-0.861,2.058
2024-09-23 11:37:47.600,162600.443,0.079,0.761,-0.644,-0.065,0.023,0.153,-0.409,-0.413,0.286,0.122,-0.865,2.063
2024-09-23 11:37:47.610,162600.453,0.079,0.763,-0.641,-0.084,0.016,0.119,-0.205,-0.389,0.258,0.122,-0.868,2.068
2024-09-23 11:37:47.620,162600.463,0.078,0.763,-0.641,-0.01,0.052,0.054,0.145,-0.393,0.22,0.121,-0.868,2.072
2024-09-23 11:37:47.630,162600.473,0.077,0.761,-0.644,0.002,0.027,0.025,0.536,-0.412,0.176,0.119,-0.865,2.074
2024-09-23 11:37:47.640,162600.483,0.075,0.756,-0.65,0.043,-0.037,0.036,0.83,-0.391,0.141,0.116,-0.858,2.076
2024-09-23 11:37:47.650,162600.493,0.074,0.75,-0.657,0.104,-0.059,0.019,0.935,-0.362,0.087,0.112,-0.849,2.076
2024-09-23 11:37:47.660,162600.503,0.072,0.744,-0.664,0.121,-0.046,-0.013,0.862,-0.307,0.035,0.108,-0.84,2.075
2024-09-23 11:37:47.670,162600.513,0.07,0.739,-0.67,0.125,-0.066,-0.031,0.689,-0.229,-0.019,0.105,-0.832,2.074
2024-09-23 11:37:47.680,162600.523,0.069,0.735,-0.675,0.124,-0.093,-0.055,0.577,-0.179,-0.091,0.101,-0.826,2.072
2024-09-23 11:37:47.690,162600.533,0.066,0.731,-0.679,0.117,-0.111,-0.076,0.488,-0.161,-0.183,0.098,-0.82,2.07
2024-09-23 11:37:47.700,162600.543,0.064,0.729,-0.682,0.109,-0.122,-0.087,0.384,-0.123,-0.229,0.093,-0.816,2.066
2024-09-23 11:37:47.710,162600.553,0.061,0.726,-0.684,0.092,-0.102,-0.098,0.305,-0.082,-0.233,0.09,-0.813,2.062
2024-09-23 11:37:47.720,162600.563,0.059,0.725,-0.687,0.056,-0.057,-0.077,0.281,-0.055,-0.217,0.086,-0.81,2.058
2024-09-23 11:37:47.730,162600.573,0.058,0.723,-0.689,0.034,-0.029,-0.033,0.321,-0.041,-0.169,0.083,-0.808,2.055
2024-09-23 11:37:47.741,162600.583,0.056,0.721,-0.691,0.017,-0.009,-0.014,0.27,-0.042,-0.123,0.081,-0.805,2.053
2024-09-23 11:37:47.750,162600.593,0.055,0.719,-0.693,-0.007,0.028,-0.011,0.201,-0.042,-0.117,0.079,-0.803,2.051
2024-09-23 11:37:47.760,162600.603,0.054,0.718,-0.694,-0.031,0.027,0.001,0.176,-0.03,-0.107,0.078,-0.801,2.049
2024-09-23 11:37:47.770,162600.612,0.053,0.717,-0.695,-0.037,0.003,0.018,0.119,0.003,-0.096,0.077,-0.799,2.047
2024-09-23 11:37:47.780,162600.622,0.053,0.716,-0.696,-0.037,0.021,0.018,0.061,0.04,-0.052,0.076,-0.799,2.046
2024-09-23 11:37:47.790,162600.632,0.053,0.716,-0.696,-0.038,0.011,0.005,0.081,0.07,-0.018,0.076,-0.798,2.046
2024-09-23 11:37:47.800,162600.642,0.053,0.715,-0.697,-0.032,-0.009,0.003,0.199,0.084,-0.055,0.076,-0.797,2.045
2024-09-23 11:37:47.810,162600.652,0.054,0.714,-0.698,-0.037,0.002,0.008,0.12,0.108,-0.076,0.077,-0.795,2.044
2024-09-23 11:37:47.820,162600.662,0.054,0.714,-0.699,-0.037,0.019,0.0,-0.035,0.131,-0.076,0.077,-0.795,2.043
2024-09-23 11:37:47.830,162600.672,0.054,0.714,-0.698,-0.027,-0.029,-0.008,-0.161,0.13,-0.081,0.078,-0.796,2.042
2024-09-23 11:37:47.840,162600.682,0.055,0.716,-0.696,-0.023,-0.061,-0.021,-0.219,0.133,-0.088,0.078,-0.798,2.041
2024-09-23 11:37:47.849,162600.692,0.055,0.717,-0.695,-0.021,-0.044,-0.029,-0.202,0.125,-0.118,0.079,-0.8,2.04
2024-09-23 11:37:47.859,162600.702,0.055,0.719,-0.693,-0.01,-0.023,-0.011,-0.213,0.132,-0.117,0.079,-0.802,2.038
2024-09-23 11:37:47.870,162600.712,0.055,0.72,-0.691,-0.008,-0.006,-0.004,-0.226,0.129,-0.085,0.079,-0.804,2.037
2024-09-23 11:37:47.880,162600.722,0.055,0.722,-0.69,-0.011,-0.01,-0.013,-0.192,0.12,-0.061,0.08,-0.806,2.036
2024-09-23 11:37:47.890,162600.732,0.055,0.723,-0.689,-0.012,-0.014,-0.006,-0.125,0.11,-0.061,0.08,-0.808,2.035
2024-09-23 11:37:47.899,162600.742,0.056,0.724,-0.688,0.0,0.008,0.008,-0.052,0.113,-0.065,0.081,-0.809,2.034
2024-09-23 11:37:47.910,162600.752,0.056,0.724,-0.688,0.0,0.024,0.013,0.018,0.096,-0.076,0.081,-0.809,2.033
2024-09-23 11:37:47.919,162600.762,0.056,0.723,-0.688,-0.001,0.011,0.015,0.071,0.099,-0.071,0.081,-0.808,2.032
2024-09-23 11:37:47.930,162600.772,0.056,0.723,-0.689,0.003,0.022,0.013,0.089,0.083,-0.073,0.081,-0.808,2.031
2024-09-23 11:37:47.939,162600.782,0.056,0.722,-0.69,0.006,0.025,0.011,0.073,0.058,-0.068,0.081,-0.807,2.03
2024-09-23 11:37:47.949,162600.792,0.056,0.722,-0.69,0.01,0.007,0.005,0.075,0.03,-0.066,0.08,-0.806,2.029
2024-09-23 11:37:47.959,162600.802,0.055,0.721,-0.691,0.01,-0.009,-0.003,0.107,0.0,-0.076,0.08,-0.805,2.027
2024-09-23 11:37:47.970,162600.812,0.054,0.72,-0.692,0.01,-0.012,0.001,0.191,-0.036,-0.074,0.078,-0.804,2.026
2024-09-23 11:37:47.980,162600.822,0.054,0.718,-0.694,0.014,0.007,0.009,0.316,-0.091,-0.056,0.077,-0.801,2.025
2024-09-23 11:37:47.990,162600.832,0.052,0.716,-0.697,0.015,0.029,0.008,0.479,-0.173,-0.044,0.075,-0.798,2.024
2024-09-23 11:37:48.000,162600.842,0.05,0.712,-0.701,0.012,0.043,0.021,0.682,-0.279,-0.027,0.072,-0.792,2.023
