,Date,timestamp,UserAccelerationX,UserAccelerationY,UserAccelerationZ,AttitudeRoll,AttitudePitch,AttitudeYaw,GravityX,GravityY,GravityZ,RotationRateX,RotationRateY,RotationRateZ
0,37:37.2,1730438818.0,-0.525321424,0.789426267,0.182720423,-0.688715837,0.786190546,-0.922808662,0.546363294,0.635546267,-0.545498133,-1.23983705,-0.708815455,4.535608292
1,37:37.2,1730438818.0,-0.383632064,0.658056974,0.273171723,-0.664398906,0.809399317,-0.870744983,0.569896162,0.61658603,-0.543175995,-1.182371974,-1.170091152,4.62977314
2,37:37.2,1730438818.0,-0.302536309,0.544475198,0.312887251,-0.638183965,0.826135315,-0.819980391,0.590591669,0.595737815,-0.544332504,-1.141832948,-1.645766377,4.738839149
3,37:37.2,1730438818.0,-0.277927637,0.508280873,0.339893043,-0.610276676,0.836809083,-0.770241818,0.608478725,0.573094189,-0.548923194,-1.045288563,-2.02854085,4.822987556
4,37:37.2,1730438818.0,-0.241427422,0.493077695,0.362091184,-0.581156366,0.841751701,-0.72228028,0.623370171,0.548990846,-0.556793272,-1.006667137,-2.377830267,4.831396103
5,37:37.2,1730438818.0,-0.20182097,0.388781607,0.3738662,-0.552238466,0.841632663,-0.674748471,0.634880662,0.524594247,-0.567210317,-1.145089388,-2.768909454,4.838896275
6,37:37.3,1730438818.0,-0.161547661,0.249370158,0.38364923,-0.525225449,0.837153206,-0.625835125,0.642626762,0.5014081,-0.579327941,-1.553012252,-3.149032116,4.805398941
7,37:37.3,1730438818.0,-0.124839962,0.165287435,0.392032564,-0.50264637,0.830443571,-0.572928862,0.646919429,0.481746256,-0.591113985,-2.259881735,-3.382234812,4.738790512
8,37:37.3,1730438818.0,-0.146287799,0.096299142,0.412916958,-0.486734346,0.823435356,-0.514633838,0.648301899,0.467741996,-0.600767851,-3.168521643,-3.537633896,4.573448658
9,37:37.3,1730438818.0,-0.170564592,-0.002029002,0.409253836,-0.478431957,0.817506417,-0.450696272,0.647539079,0.460387766,-0.607236564,-3.974064827,-3.585256338,4.372483253
10,37:37.3,1730438818.0,-0.161296129,-0.112373263,0.316691518,-0.477684796,0.812774808,-0.38250671,0.644908249,0.459724367,-0.610529959,-4.764733791,-3.65903759,4.052558422
11,37:37.3,1730438818.0,-0.11197108,-0.19811663,0.156147599,-0.485178372,0.808682991,-0.310489184,0.639894664,0.466366142,-0.610767961,-5.5208745,-3.833997726,3.665274858
12,37:37.3,1730438818.0,-0.045309424,-0.274387628,0.037414789,-0.500845874,0.805232383,-0.234983298,0.63243717,0.480167687,-0.607834101,-6.288279057,-4.00415802,3.301860094
13,37:37.3,1730438818.0,0.024642944,-0.364276946,-0.043748438,-0.524554935,0.803837104,-0.155151255,0.623214662,0.500827849,-0.600645423,-7.005977631,-4.101751328,2.939088583
14,37:37.3,1730438818.0,0.063405871,-0.453209639,-0.131869435,-0.554744995,0.805173196,-0.072767012,0.612833142,0.526726544,-0.589062512,-7.359039783,-4.096457958,2.530016899
15,37:37.3,1730438818.0,0.080632925,-0.559600949,-0.233971298,-0.589198278,0.809502686,0.010439233,0.601877391,0.55569464,-0.573539019,-7.510232925,-4.029233932,2.191826582
16,37:37.4,1730438818.0,0.083718956,-0.608489513,-0.378104389,-0.625640557,0.818399634,0.093589981,0.591772377,0.585616648,-0.553948164,-7.41412735,-3.670017004,1.908156037
17,37:37.4,1730438818.0,0.077307701,-0.456211805,-0.38957715,-0.661740862,0.832679795,0.175341354,0.58359623,0.614491165,-0.530863464,-7.074607372,-3.328133106,1.656696558
18,37:37.4,1730438818.0,0.014312148,-0.253036141,-0.367713034,-0.696265617,0.848138134,0.253074368,0.575470567,0.641357005,-0.507439494,-6.570545197,-3.422025681,1.270470381
19,37:37.4,1730438818.0,-0.059284985,-0.27735275,-0.420483768,-0.729992267,0.860980881,0.326684498,0.565205395,0.666863859,-0.485628903,-6.354438305,-3.638476849,0.991062164
20,37:37.4,1730438818.0,-0.016550004,-0.657654405,-0.407275528,-0.76375132,0.875539675,0.401173452,0.554605424,0.691635668,-0.462658525,-6.365754604,-3.527582884,0.950288594
21,37:37.4,1730438818.0,0.054084599,-0.883862495,-0.192236006,-0.796331079,0.896757193,0.478636038,0.546394527,0.714795113,-0.436487079,-6.259789467,-3.118078709,0.960290372
22,37:37.4,1730438818.0,0.012678266,-0.644190013,-0.150220871,-0.825726943,0.923374221,0.55536942,0.540819049,0.735040843,-0.408937454,-5.631465912,-2.71457386,0.885584235
23,37:37.4,1730438818.0,-0.097671092,-0.183569849,-0.304248571,-0.84897227,0.948352304,0.623633456,0.536834359,0.750601709,-0.385235071,-4.478314877,-2.46172905,0.795911074
24,37:37.4,1730438818.0,-0.148909867,0.303222954,-0.48404789,-0.865513942,0.966959137,0.679626947,0.533614516,0.761428535,-0.368079185,-3.470212698,-2.296168327,0.728630245
25,37:37.4,1730438818.0,-0.138162374,0.73204267,-0.592675209,-0.877100355,0.980582442,0.726204862,0.531213522,0.768888116,-0.355841607,-2.862861395,-2.092711926,0.729828954
26,37:37.5,1730438818.0,-0.133002639,0.904157639,-0.616182566,-0.886491259,0.995563412,0.770280613,0.530402541,0.774858534,-0.343900442,-2.965611935,-1.712688088,0.805737734
27,37:37.5,1730438818.0,-0.146447241,0.653844416,-0.617703378,-0.896315186,1.020213953,0.821269005,0.532204688,0.781031072,-0.326724052,-3.499922037,-1.320811152,0.947971284
28,37:37.5,1730438818.0,-0.179664195,0.295782745,-0.561845124,-0.906766423,1.054126848,0.879904687,0.535850108,0.787515044,-0.304442108,-3.804734707,-1.125507116,0.934496641
29,37:37.5,1730438818.0,-0.200290561,0.163996041,-0.486371815,-0.917079063,1.091988329,0.94144994,0.539752841,0.793828666,-0.280183941,-3.762777567,-1.052453995,0.853216171
30,37:37.5,1730438818.0,-0.169147372,0.145220518,-0.394395798,-0.925746379,1.128924937,1.000759829,0.543491364,0.799069762,-0.257108748,-3.418456554,-1.009695649,0.782674551
31,37:37.5,1730438818.0,-0.122884274,0.210787594,-0.295443058,-0.932143468,1.162096925,1.054070662,0.547017574,0.802899539,-0.236905545,-2.911183834,-0.892334938,0.666759968
32,37:37.5,1730438818.0,-0.100709617,0.264851689,-0.244463742,-0.936838935,1.190161279,1.099077492,0.549943626,0.805689692,-0.220059529,-2.349382401,-0.713483691,0.543894768
33,37:37.5,1730438818.0,-0.128356159,0.276290894,-0.28324461,-0.93958286,1.211948824,1.133859298,0.552535236,0.807312012,-0.20724915,-1.771211863,-0.540602744,0.425003558
34,37:37.5,1730438818.0,-0.156066954,0.324285924,-0.419397354,-0.941592177,1.228610989,1.159916943,0.554382443,0.808496118,-0.197469682,-1.264058709,-0.349499077,0.248226911
35,37:37.5,1730438818.0,-0.134127915,0.335958898,-0.552627087,-0.943435503,1.243103525,1.181365574,0.555774093,0.809579551,-0.188934863,-1.332021236,-0.231321841,0.288233429
36,37:37.6,1730438818.0,-0.133409262,0.219219387,-0.634929597,-0.944466476,1.263767586,1.209385857,0.558763266,0.8101843,-0.1771584,-1.864599347,-0.161560863,0.520162106
37,37:37.6,1730438818.0,-0.164844453,0.104426682,-0.731134236,-0.945640264,1.291142179,1.244759317,0.562488556,0.81087178,-0.161535412,-2.115529299,-0.112528071,0.421890169
38,37:37.6,1730438818.0,-0.21374011,0.052216649,-0.767409742,-0.947066276,1.318610371,1.279973526,0.565592587,0.81170553,-0.145737201,-1.837520361,-0.107586578,0.421985745
39,37:37.6,1730438818.0,-0.280256689,-0.022928417,-0.745658994,-0.945727618,1.337182669,1.303098503,0.569258213,0.810922921,-0.135459751,-0.664350629,0.143315956,0.460517436
40,37:37.6,1730438818.0,-0.277950108,0.07489717,-0.670636296,-0.941305345,1.342684125,1.305027931,0.573482335,0.808327317,-0.133135617,0.672960162,0.620513916,0.496275216
41,37:37.6,1730438818.0,-0.243875563,0.370106816,-0.571428418,-0.932370238,1.334158974,1.284571072,0.579324782,0.803034723,-0.139707416,2.082017899,0.967721105,0.669448078
42,37:37.6,1730438818.0,-0.184715331,0.739073217,-0.55039376,-0.919107811,1.31315003,1.244856026,0.586509824,0.795060813,-0.154547006,3.127120018,1.171511054,0.721225083
43,37:37.6,1730438818.0,-0.070377469,0.822654426,-0.6406762,-0.903552736,1.286586412,1.195011706,0.593998075,0.785530388,-0.173517466,3.530563354,1.391530514,0.651912093
44,37:37.6,1730438818.0,-0.027410448,0.618540108,-0.632225215,-0.88664154,1.26061948,1.142438198,0.60185802,0.774953485,-0.192909047,3.73477459,1.620401502,0.662272811
45,37:37.6,1730438819.0,-0.113486409,0.438095868,-0.607999563,-0.868342409,1.23831371,1.090742385,0.61070925,0.763259053,-0.210878596,3.684211493,1.88922286,0.735835135
46,37:37.7,1730438819.0,-0.252690375,0.344003916,-0.65977633,-0.849224622,1.221814922,1.042087183,0.620747626,0.750768423,-0.22587429,3.597933292,2.160613298,0.720323801
47,37:37.7,1730438819.0,-0.352032781,0.315910876,-0.62713176,-0.830687557,1.209481028,0.995312805,0.630826116,0.738395214,-0.238392502,3.587765455,2.34016943,0.577093959
48,37:37.7,1730438819.0,-0.333450854,0.317506731,-0.568502963,-0.812881177,1.19863347,0.947566609,0.640350878,0.726270735,-0.249963209,3.782976627,2.496945858,0.42311734
49,37:37.7,1730438819.0,-0.254977882,0.296114206,-0.470393121,-0.795045634,1.187881894,0.897014463,0.649539649,0.713895559,-0.261631995,4.089586258,2.641293049,0.302539259
50,37:37.7,1730438819.0,-0.216743648,0.26273644,-0.33299306,-0.776682528,1.175730398,0.841840525,0.658302426,0.700917125,-0.274505019,4.534093857,2.734562397,0.13550441
51,37:37.7,1730438819.0,-0.196472228,0.100109875,-0.041560292,-0.757792897,1.161791457,0.781832545,0.666442931,0.687319994,-0.288868755,4.920801163,2.82951498,-0.050048143
52,37:37.7,1730438819.0,-0.16866225,-0.088236451,0.168247312,-0.738565469,1.146490579,0.717032052,0.673865438,0.673227847,-0.304416656,5.321817875,2.919758797,-0.262653887
53,37:37.7,1730438819.0,-0.171028912,-0.088051796,0.16628623,-0.7185423,1.131138207,0.650170971,0.681176007,0.658288062,-0.32039997,5.375448704,2.921643257,-0.253936291
54,37:37.7,1730438819.0,-0.207396805,0.00123167,0.096856833,-0.698561114,1.119408598,0.588028452,0.689071059,0.643116474,-0.33403942,4.786030769,2.819551229,-0.222812563
55,37:37.7,1730438819.0,-0.195164502,0.120673656,0.09072271,-0.68237578,1.114852214,0.537416723,0.696797132,0.630638599,-0.341714472,3.600730419,2.737465382,-0.296394378
56,37:37.8,1730438819.0,-0.183104992,0.131310821,0.105010629,-0.67310842,1.119830294,0.502339501,0.703719616,0.623419404,-0.340774179,2.135034561,2.664341927,-0.439516485
57,37:37.8,1730438819.0,-0.218660951,-0.033968091,0.111922324,-0.671152885,1.133313476,0.481731819,0.709353149,0.621889234,-0.331770927,1.046890974,2.612447739,-0.596591294
58,37:37.8,1730438819.0,-0.263527632,-0.193013489,0.160939872,-0.673594813,1.15062341,0.467883362,0.713600874,0.623799682,-0.318822563,0.860445797,2.591996193,-0.751466393
59,37:37.8,1730438819.0,-0.299573839,-0.233528912,0.255696237,-0.676609198,1.165060326,0.449495746,0.71639818,0.626152813,-0.307743937,1.63789916,2.598825216,-0.949825287
60,37:37.8,1730438819.0,-0.299216688,-0.170985281,0.342657954,-0.676631503,1.170220087,0.417075376,0.717963576,0.626170218,-0.304037929,3.071228743,2.481043816,-1.009913683
61,37:37.8,1730438819.0,-0.258808494,-0.024606347,0.351774037,-0.670616592,1.163154746,0.367411182,0.719242454,0.62146914,-0.310590565,4.489591122,2.316217661,-0.923744142
62,37:37.8,1730438819.0,-0.19846034,0.167068183,0.239037246,-0.659493902,1.1483146,0.307646764,0.720814466,0.612716973,-0.32404393,4.859033108,2.092795134,-0.830557883
63,37:37.8,1730438819.0,-0.171557665,0.332886457,0.136227161,-0.648016811,1.135188632,0.2534499,0.722827196,0.603606403,-0.336422414,3.757319927,1.892706275,-0.658481419
64,37:37.8,1730438819.0,-0.178950191,0.371515691,0.184385777,-0.642257107,1.133057331,0.219783843,0.725245357,0.599004328,-0.339430302,1.53957057,1.741017938,-0.61234355
65,37:37.8,1730438819.0,-0.175132692,0.198183,0.343305558,-0.647077945,1.145113629,0.21134401,0.726646364,0.602857649,-0.329465777,-0.648982942,1.696337819,-0.860750735
66,37:37.9,1730438819.0,-0.225776851,-0.141022325,0.506314576,-0.661523205,1.168415161,0.221434894,0.72603631,0.614319444,-0.309003115,-1.819655776,1.740397692,-1.132127166
67,37:37.9,1730438819.0,-0.342558026,-0.43037039,0.558756948,-0.679257911,1.195298623,0.236926092,0.723829389,0.628215849,-0.285334617,-1.600779891,1.706547022,-1.201962352
68,37:37.9,1730438819.0,-0.417013466,-0.371773839,0.462526739,-0.693436958,1.2158735,0.243611269,0.721121192,0.639184177,-0.267260015,-0.295473278,1.555092335,-1.053340316
69,37:37.9,1730438819.0,-0.375555873,-0.020206869,0.29547298,-0.70041564,1.223843678,0.233421522,0.719015956,0.644535542,-0.259981006,1.271503568,1.357580781,-0.780165255
70,37:37.9,1730438819.0,-0.248863935,0.298037291,0.164087474,-0.700167176,1.219831695,0.207525256,0.718117476,0.644345522,-0.262918651,2.375822067,1.181686997,-0.539318621
71,37:37.9,1730438819.0,-0.134744048,0.433725536,0.101457,-0.695537833,1.209792606,0.174826807,0.718224883,0.64079845,-0.271165252,2.522138357,1.024968743,-0.353114635
72,37:37.9,1730438819.0,-0.101117492,0.391470075,0.110767335,-0.690366327,1.201408713,0.146245746,0.719006836,0.636819661,-0.278369844,1.894791126,0.959476769,-0.26947993
73,37:37.9,1730438819.0,-0.119339526,0.219790399,0.221930236,-0.687819945,1.198805512,0.127531436,0.719788074,0.634854317,-0.280829102,0.986165047,0.897777736,-0.324619085
74,37:37.9,1730438819.0,-0.14740026,0.011008143,0.283758968,-0.689257678,1.201631687,0.118441295,0.71972692,0.635964513,-0.278464109,0.264004648,0.819556713,-0.458776832
75,37:37.9,1730438819.0,-0.168334961,-0.140313864,0.290594637,-0.693616298,1.206994396,0.114775286,0.718612671,0.639322042,-0.273611546,0.007020262,0.71280551,-0.549085736
76,37:38.0,1730438819.0,-0.173794389,-0.136452556,0.25674814,-0.698706049,1.211767686,0.111937968,0.716854692,0.643227458,-0.269031465,0.068119258,0.617918372,-0.546684504
77,37:38.0,1730438819.0,-0.169660866,-0.033489108,0.163490742,-0.703042157,1.214721268,0.107493369,0.715025246,0.646541476,-0.265938193,0.276536644,0.550047994,-0.505560219
78,37:38.0,1730438819.0,-0.145281851,0.050239921,0.101736426,-0.706040947,1.215101204,0.100051131,0.713305593,0.648826301,-0.264990151,0.590475619,0.4897663,-0.44895345
79,37:38.0,1730438819.0,-0.088987112,0.034528553,0.14494428,-0.707398426,1.212448737,0.088955921,0.711774528,0.649858654,-0.266572028,0.869289935,0.417134702,-0.398127019
80,37:38.0,1730438819.0,-0.021791995,-0.01663512,0.204056352,-0.707680825,1.207701649,0.075752605,0.710329533,0.65007323,-0.269882679,0.982741952,0.343551576,-0.36791712
81,37:38.0,1730438819.0,0.006100118,0.010052264,0.159071743,-0.707540584,1.202116189,0.062215041,0.70889622,0.649966657,-0.273878872,0.925049365,0.309733957,-0.344304204
82,37:38.0,1730438819.0,-0.016405582,0.038651884,0.087425172,-0.707875818,1.197532157,0.050651632,0.707430422,0.650221407,-0.277046144,0.682389379,0.27459994,-0.360753119
83,37:38.0,1730438819.0,-0.037200153,0.000838399,0.056773067,-0.709426267,1.1946948,0.042230792,0.70570296,0.65139854,-0.278681606,0.397080153,0.256344497,-0.399231821
84,37:38.0,1730438819.0,-0.051441133,-0.027938426,0.068894416,-0.712243577,1.193727191,0.036806531,0.703723907,0.653533578,-0.278687507,0.168734729,0.256937593,-0.419328332
85,37:38.0,1730438819.0,-0.070007384,-0.030647576,0.10373053,-0.715767589,1.194407746,0.033844359,0.701767027,0.656196833,-0.277360201,0.001005388,0.264873266,-0.404058576
86,37:38.1,1730438819.0,-0.096129954,0.004981697,0.105690271,-0.719859575,1.196234239,0.032435171,0.69976759,0.659279108,-0.275093257,-0.091808155,0.291223645,-0.435910285
87,37:38.1,1730438819.0,-0.125731289,0.025796294,0.110086054,-0.72435126,1.198525983,0.031240161,0.697630703,0.662649751,-0.272408992,-0.03813374,0.322317123,-0.461732835
88,37:38.1,1730438819.0,-0.145936489,-0.004614413,0.129454046,-0.728453884,1.199793321,0.028336707,0.695435941,0.665716708,-0.270536751,0.139256671,0.318168998,-0.455695778
89,37:38.1,1730438819.0,-0.137710452,-0.022170305,0.109877676,-0.731680067,1.19941555,0.023374538,0.693328679,0.668120623,-0.270018607,0.316409081,0.261396259,-0.417578489
90,37:38.1,1730438819.0,-0.091770411,0.017144918,0.07247746,-0.73394715,1.197319499,0.016418505,0.691349268,0.669805765,-0.270917982,0.473148972,0.253559649,-0.381915003
91,37:38.1,1730438819.0,-0.045073628,0.06597054,0.039908677,-0.735472228,1.194289357,0.008120874,0.689574361,0.670937419,-0.272635669,0.54490304,0.254867792,-0.359845132
92,37:38.1,1730438819.0,-0.033590853,0.077857614,-0.007685065,-0.73685125,1.19149164,4.94e-06,0.687948823,0.671959341,-0.274221003,0.452952445,0.279453814,-0.334389538
93,37:38.1,1730438819.0,-0.043977737,0.081475616,-0.018314958,-0.738519113,1.190434446,-0.005822051,0.686616957,0.673193574,-0.274531692,0.208708093,0.289248645,-0.299464047
94,37:38.1,1730438819.0,-0.042415082,0.054399431,0.002252996,-0.741049091,1.191738563,-0.00825055,0.685389996,0.675062239,-0.273004949,-0.057371121,0.300374001,-0.305502146
95,37:38.1,1730438819.0,-0.023335636,-0.004741788,0.014264435,-0.744526752,1.19488068,-0.00802166,0.684056401,0.677623868,-0.269986451,-0.202684373,0.30222252,-0.327231944
96,37:38.2,1730438819.0,-0.016496718,-0.051624656,0.027968705,-0.748362104,1.198330655,-0.007303707,0.682558179,0.680439413,-0.266677171,-0.156404808,0.28934294,-0.341374516
97,37:38.2,1730438819.0,-0.023309469,-0.039752662,0.037664354,-0.751781475,1.200504962,-0.008083497,0.680963337,0.682941139,-0.264348865,0.024073094,0.247296676,-0.337012798
98,37:38.2,1730438819.0,-0.018618405,0.006039798,0.037106484,-0.754373608,1.200381762,-0.011511957,0.679278195,0.684832335,-0.263790995,0.253578186,0.192373514,-0.327997893
99,37:38.2,1730438819.0,0.006027877,0.031899333,0.037524819,-0.755971963,1.197536395,-0.017933956,0.677504838,0.685996175,-0.265323281,0.497256637,0.116942666,-0.30779916
100,37:38.2,1730438819.0,0.037552655,0.03153944,0.044793278,-0.756445642,1.191984865,-0.027336413,0.67571938,0.686340749,-0.268960118,0.745022595,0.07017836,-0.287238926
101,37:38.2,1730438819.0,0.057450891,0.036359787,0.044698685,-0.755944165,1.184401787,-0.03931401,0.673979163,0.685975969,-0.274206042,0.894697011,0.061028272,-0.269603193
102,37:38.2,1730438819.0,0.050230861,0.048137009,0.040088475,-0.754857856,1.176416938,-0.052057725,0.672455907,0.685185134,-0.279865086,0.89000082,0.086961336,-0.236532062
103,37:38.2,1730438819.0,0.02620846,0.069845557,0.02873528,-0.753712728,1.16944334,-0.063525093,0.671209753,0.68435061,-0.284854025,0.721532404,0.092798181,-0.199408665
104,37:38.2,1730438819.0,0.021711707,0.070995092,0.01925534,-0.753015368,1.164542233,-0.07210098,0.670243859,0.683841944,-0.288328797,0.480844051,0.096825413,-0.166870192
105,37:38.2,1730438819.0,0.031311154,0.039687395,0.024127305,-0.752927076,1.161655557,-0.077789866,0.669463992,0.683777571,-0.290286332,0.307283431,0.099920809,-0.147589445
106,37:38.3,1730438819.0,0.023716629,0.01878351,0.034172773,-0.75311441,1.159998092,-0.081760969,0.668864608,0.683914244,-0.291344404,0.220416278,0.112046182,-0.117415354
107,37:38.3,1730438819.0,-0.007114887,0.029859304,0.030249029,-0.753263624,1.158936373,-0.085027871,0.668461263,0.684023082,-0.292013496,0.216323003,0.123187512,-0.102571428
108,37:38.3,1730438819.0,-0.026495993,0.048389673,0.043700904,-0.75312963,1.157562472,-0.08864721,0.668143332,0.683925331,-0.292968422,0.286539763,0.099247292,-0.081063636
109,37:38.3,1730438819.0,-0.025690079,0.050772071,0.065151751,-0.752436989,1.155317,-0.093238292,0.667917252,0.683419824,-0.294659197,0.379553348,0.082579903,-0.063269988
110,37:38.3,1730438819.0,-0.027201951,0.042890429,0.077193469,-0.751298977,1.152403041,-0.098661862,0.667765856,0.682588637,-0.296919942,0.429603696,0.073472425,-0.053149387
111,37:38.3,1730438819.0,-0.04010272,0.02110821,0.087483525,-0.750057863,1.14911791,-0.104589247,0.667559445,0.681681097,-0.299458623,0.46237576,0.080484793,-0.076992668
112,37:38.3,1730438819.0,-0.059705019,-0.008404255,0.094489306,-0.748976615,1.145498543,-0.111177382,0.667142093,0.680889606,-0.302176654,0.498452276,0.093790211,-0.12457218
113,37:38.3,1730438819.0,-0.082860827,-0.053702533,0.112990707,-0.748219824,1.141619265,-0.118259593,0.666433215,0.680335164,-0.304976732,0.508018911,0.091397628,-0.170027003
114,37:38.3,1730438819.0,-0.09771657,-0.110050142,0.126131624,-0.74792427,1.137318085,-0.125606105,0.665297687,0.680118501,-0.307924807,0.496687502,0.048350558,-0.228565201
115,37:38.3,1730438819.0,-0.092535853,-0.157905817,0.132163882,-0.748221372,1.132313493,-0.133210017,0.663565516,0.680336297,-0.311164737,0.492786497,-0.013200155,-0.300061733
116,37:38.4,1730438819.0,-0.084251881,-0.213668346,0.158382148,-0.749293036,1.126284815,-0.141489525,0.661018789,0.68112129,-0.314845711,0.519201577,-0.069728412,-0.416494936
117,37:38.4,1730438819.0,-0.081022441,-0.272686243,0.190336585,-0.751270503,1.118728179,-0.151066479,0.657407939,0.682567835,-0.319242775,0.581128061,-0.134752423,-0.549401343
118,37:38.4,1730438819.0,-0.087651432,-0.315680563,0.199094325,-0.754107011,1.109083278,-0.162549683,0.65256232,0.684638083,-0.324704647,0.683109999,-0.223570436,-0.706375062
119,37:38.4,1730438819.0,-0.098080635,-0.332502425,0.212618411,-0.757870208,1.096874603,-0.176521694,0.646252632,0.687376142,-0.331469059,0.787911296,-0.303446621,-0.885431886
120,37:38.4,1730438819.0,-0.11040169,-0.355710924,0.242128611,-0.762565433,1.081976293,-0.193140105,0.638386309,0.690778673,-0.33954072,0.930654049,-0.392528296,-1.067814469
121,37:38.4,1730438819.0,-0.11169827,-0.410705149,0.268474042,-0.767602211,1.063197092,-0.213818937,0.628849149,0.694411814,-0.349772841,1.230833054,-0.497096509,-1.242486477
122,37:38.4,1730438819.0,-0.091159463,-0.484163404,0.292285442,-0.771983141,1.039162526,-0.240391496,0.617633462,0.697557569,-0.363238752,1.670133233,-0.619642437,-1.414316773
123,37:38.4,1730438819.0,-0.07062608,-0.514309824,0.281901717,-0.774727047,1.008557715,-0.274061347,0.604607403,0.699521065,-0.380946487,2.141968966,-0.810863018,-1.568948984
124,37:38.4,1730438819.0,-0.067553699,-0.45740509,0.229196757,-0.77604506,0.972324429,-0.31280721,0.589648366,0.700462282,-0.402078778,2.314079523,-1.005899787,-1.679930329
125,37:38.4,1730438819.0,-0.071447313,-0.410666406,0.200599581,-0.777198863,0.933704299,-0.352604606,0.573034167,0.701285303,-0.424064517,2.130424738,-1.118577361,-1.813316107
126,37:38.5,1730438819.0,-0.073291302,-0.441314578,0.185619831,-0.780813197,0.896347131,-0.390179205,0.554812849,0.703857303,-0.443584859,1.685667396,-1.051056147,-2.039510012
127,37:38.5,1730438819.0,-0.090381145,-0.486994863,0.153621852,-0.787163724,0.860866326,-0.427015704,0.535327435,0.708354115,-0.460064113,1.577150106,-0.842754364,-2.26454401
128,37:38.5,1730438819.0,-0.144842386,-0.445798874,0.135369658,-0.793848234,0.825757044,-0.465814843,0.515356302,0.713056564,-0.475350738,1.605539441,-0.690864146,-2.352135658
129,37:38.5,1730438819.0,-0.206335306,-0.36867094,0.062594712,-0.80018778,0.791039272,-0.504469929,0.495321512,0.717486918,-0.489764482,1.378685474,-0.758433878,-2.284878969
130,37:38.5,1730438819.0,-0.192796081,-0.263300896,-0.033061445,-0.808337366,0.759070293,-0.537011309,0.475373626,0.723139763,-0.501087725,0.524730504,-0.944136083,-2.083265066
131,37:38.5,1730438819.0,-0.112349629,-0.172006488,-0.059385359,-0.822379376,0.735952526,-0.556913979,0.456801534,0.732767045,-0.504365861,-0.834493637,-0.752824485,-1.767825365
132,37:38.5,1730438819.0,-0.078119785,-0.136802077,-0.054495513,-0.843952945,0.726116537,-0.561721221,0.441217929,0.74727571,-0.496896088,-1.852918625,-0.492603242,-1.701099277
133,37:38.5,1730438819.0,-0.138459712,0.040028691,-0.176830292,-0.869234107,0.721089705,-0.564499285,0.426103175,0.763834834,-0.484760284,-1.560391665,-0.110362925,-1.810592294
134,37:38.5,1730438819.0,-0.301799417,0.32905829,-0.268269211,-0.889071106,0.717506213,-0.569865674,0.414317697,0.776486754,-0.474772692,-1.009301901,0.223309055,-1.343332529
135,37:38.5,1730438819.0,-0.426432073,0.395053566,-0.361204922,-0.902745668,0.715121722,-0.575799067,0.40618366,0.785030663,-0.467698276,-0.587743998,0.196668923,-0.998346925
136,37:38.6,1730438819.0,-0.270772427,0.595140576,-0.474638343,-0.911990234,0.712440446,-0.580597773,0.400166988,0.790723681,-0.463273644,-0.46304369,0.041522212,-0.696739018
137,37:38.6,1730438819.0,-0.06900239,0.742725134,-0.410063297,-0.919803991,0.710421904,-0.583578249,0.395189494,0.795482874,-0.459382445,-0.476960838,0.057078801,-0.614996493
138,37:38.6,1730438819.0,0.047302783,0.620448172,-0.30327028,-0.927282759,0.709946118,-0.585722344,0.391082227,0.799992502,-0.45504573,-0.512347639,0.200806409,-0.561214745
139,37:38.6,1730438819.0,-0.004478067,0.364045858,-0.178981692,-0.935146078,0.711641995,-0.58668487,0.387733042,0.804685831,-0.449604034,-0.593152702,0.268377185,-0.550883293
140,37:38.6,1730438819.0,-0.048105478,0.167792737,-0.126839817,-0.942576602,0.713281127,-0.587468771,0.384546578,0.809075058,-0.444434047,-0.459405005,0.156741217,-0.492625892
141,37:38.6,1730438819.0,0.030383438,0.169630527,-0.137664199,-0.948508866,0.712360905,-0.589294892,0.380993515,0.812547207,-0.441147447,-0.275602698,-0.036056999,-0.452818811
142,37:38.6,1730438819.0,0.109599292,0.245847225,-0.179504991,-0.952290002,0.708102029,-0.59387562,0.377110302,0.814745426,-0.440429091,0.055629294,-0.037812557,-0.44929108
143,37:38.6,1730438819.0,0.117445618,0.276987195,-0.192550242,-0.953849978,0.701246824,-0.602471043,0.37326178,0.815648913,-0.442032248,0.306685507,0.073441796,-0.509953916
144,37:38.6,1730438819.0,0.066420704,0.234342754,-0.151224732,-0.954265429,0.693716613,-0.613439706,0.369706005,0.815889239,-0.444569945,0.450185448,0.201531321,-0.511685193
145,37:38.6,1730438820.0,-0.011072397,0.266158104,-0.13825056,-0.953340985,0.685960505,-0.625990865,0.366724223,0.815354347,-0.448007315,0.622849107,0.28544727,-0.49569422
146,37:38.7,1730438820.0,-0.049086899,0.275275767,-0.140028685,-0.951063884,0.677815908,-0.639910148,0.364226609,0.814033866,-0.452424288,0.757388353,0.360189676,-0.475185424
147,37:38.7,1730438820.0,-0.045793056,0.199585378,-0.11040923,-0.946571027,0.668236037,-0.656323373,0.362138242,0.811416149,-0.458758801,1.180490851,0.366144508,-0.459510595
148,37:38.7,1730438820.0,-0.016756862,0.250745952,-0.005107284,-0.937597537,0.654264031,-0.677845571,0.360110164,0.806138813,-0.469532549,1.809289336,0.304100573,-0.436546683
149,37:38.7,1730438820.0,-0.000651449,0.363131225,0.073820114,-0.923162146,0.635555023,-0.70402169,0.358134359,0.797513306,-0.485502213,2.344829082,0.135782138,-0.304498106
150,37:38.7,1730438820.0,-0.010158449,0.411049187,0.076544404,-0.904439977,0.615285378,-0.731186963,0.356777102,0.786079109,-0.50476706,2.636868954,0.117324032,-0.218061864
151,37:38.7,1730438820.0,-0.018109769,0.368680656,0.080347955,-0.882950907,0.595136291,-0.758128711,0.35592407,0.772615671,-0.525721431,2.797280312,0.03650615,-0.072691344
152,37:38.7,1730438820.0,-0.030746043,0.257961452,0.116357923,-0.859678944,0.577619181,-0.780684372,0.35638386,0.75763303,-0.546793044,2.646580935,-0.082735293,0.209722564
153,37:38.7,1730438820.0,-0.038602501,0.181375921,0.144260764,-0.838250929,0.564934596,-0.796907941,0.358029991,0.743474543,-0.564854026,2.116807938,0.020933846,0.282615393
154,37:38.7,1730438820.0,-0.059558451,0.1797629,0.134930432,-0.820798503,0.557787251,-0.807629948,0.360797435,0.731690347,-0.578320265,1.612415314,0.125179559,0.377773672
155,37:38.7,1730438820.0,-0.089212775,0.11427325,0.11590308,-0.806798867,0.555148653,-0.813532214,0.364633918,0.722076297,-0.58791846,1.28662467,0.21576272,0.352739155
156,37:38.8,1730438820.0,-0.064738989,0.028032005,0.022270322,-0.792043865,0.550036104,-0.824045882,0.3671529,0.711790323,-0.598793089,2.0766747,0.247501209,-0.032212947
157,37:38.8,1730438820.0,-0.032895684,-0.080708027,-0.02914691,-0.771943714,0.539352286,-0.84157815,0.36800921,0.697529316,-0.614835024,2.588486433,0.083054744,0.053904627
158,37:38.8,1730438820.0,0.026118249,-0.071533144,-0.030806422,-0.748772814,0.527667076,-0.857913039,0.368840247,0.680740356,-0.632889807,2.567275286,-0.144539803,0.209088355
159,37:38.8,1730438820.0,0.153615296,0.418557048,0.055754304,-0.727657401,0.517255443,-0.8720495,0.369257629,0.665122151,-0.649046481,2.068151474,-0.000567451,0.075873569
160,37:38.8,1730438820.0,0.104007542,0.471128047,0.105386853,-0.712731062,0.511188068,-0.883456003,0.370128781,0.653902471,-0.65986073,1.393881083,0.274120033,-0.100373626
161,37:38.8,1730438820.0,-0.058896422,-0.071566343,0.00843966,-0.703630964,0.508558241,-0.892743317,0.371274352,0.646990538,-0.666001916,0.922312438,0.377293825,-0.246183559
162,37:38.8,1730438820.0,-0.088214904,-0.35521996,-0.043332815,-0.69817087,0.50653082,-0.900759666,0.371631682,0.642817616,-0.669832408,0.654792488,0.241244912,-0.276569337
163,37:38.8,1730438820.0,0.010961086,-0.293264627,0.002964616,-0.693731047,0.503535237,-0.907936464,0.370996922,0.639410317,-0.673435807,0.675758719,0.058841016,-0.254548997
164,37:38.8,1730438820.0,0.13675645,-0.157032728,0.059480786,-0.689015113,0.498751959,-0.914230532,0.369209737,0.635777295,-0.677843213,0.595318913,-0.197751626,-0.138506576
165,37:38.8,1730438820.0,0.17733562,-0.130070746,0.122846246,-0.684831711,0.494616223,-0.917543823,0.367662549,0.63254267,-0.681699395,0.45129624,-0.1317316,0.097799696
166,37:38.9,1730438820.0,0.117417097,-0.132575989,0.230452538,-0.679096103,0.492731235,-0.919422165,0.368087053,0.628089905,-0.685576439,0.676804602,0.008456404,0.168831691
167,37:38.9,1730438820.0,0.010003895,-0.071486592,0.240855217,-0.671012846,0.491821087,-0.92219262,0.3698484,0.621779561,-0.690363884,1.015886188,0.139258891,0.227099791
168,37:38.9,1730438820.0,-0.097369641,0.10145998,0.151628315,-0.658310785,0.489904378,-0.926629185,0.37221092,0.611781538,-0.697984517,1.515345335,-0.003650059,0.34814766
169,37:38.9,1730438820.0,-0.04275164,0.362805247,0.061993957,-0.642368546,0.486794831,-0.931413697,0.374554008,0.599093556,-0.707669616,1.637690902,-0.060386576,0.481310487
170,37:38.9,1730438820.0,0.086686939,0.407041669,-0.033383369,-0.625793964,0.483986883,-0.934961257,0.377134472,0.585740983,-0.717410028,1.538682222,-0.057616621,0.550855339
171,37:38.9,1730438820.0,0.120729148,0.283373177,-0.047763944,-0.610007726,0.482622933,-0.937429812,0.380399972,0.572873771,-0.726024449,1.46707809,0.062988356,0.558346033
172,37:38.9,1730438820.0,0.042447746,0.135855258,-0.075114012,-0.594983216,0.482649607,-0.938992518,0.384371072,0.56049484,-0.733556032,1.311406493,0.128543928,0.615076184
173,37:38.9,1730438820.0,-0.045431167,0.110432267,-0.143880963,-0.581084257,0.48423138,-0.939086373,0.389120132,0.548930526,-0.73977071,1.147889972,0.189660013,0.660018086
174,37:38.9,1730438820.0,-0.079524547,0.148816526,-0.160096407,-0.568946174,0.487241018,-0.937942708,0.394435436,0.538744509,-0.74442929,0.93463701,0.315764695,0.645418763
175,37:38.9,1730438820.0,-0.093088061,0.100705504,-0.166740656,-0.558584091,0.491950837,-0.936296997,0.40055266,0.529986024,-0.747443914,0.761120617,0.435698003,0.554367721
176,37:39.0,1730438820.0,-0.105789691,0.073499024,-0.136179328,-0.550077687,0.497071464,-0.935114628,0.406509906,0.522753477,-0.749318719,0.6655159,0.462449998,0.442418069
177,37:39.0,1730438820.0,-0.093804538,0.084685504,-0.04989481,-0.541862433,0.501904891,-0.934847033,0.412179142,0.515732527,-0.751084745,0.76962471,0.472127408,0.393746406
178,37:39.0,1730438820.0,-0.04821229,0.05491513,0.030453146,-0.532645052,0.506281116,-0.935669266,0.417749614,0.507813752,-0.753399253,0.926130354,0.498048216,0.381023109
179,37:39.0,1730438820.0,-0.020860821,0.001220882,0.040862799,-0.522101598,0.510328991,-0.937499483,0.423387706,0.498702854,-0.756332099,1.065921307,0.498102546,0.376176417
180,37:39.0,1730438820.0,-0.041780293,-0.021728665,0.020125747,-0.510626485,0.514254147,-0.939461323,0.429139942,0.488723904,-0.759597182,1.097666621,0.486052006,0.460055321
181,37:39.0,1730438820.0,-0.093438029,-0.050902188,-0.003877997,-0.498788391,0.51860835,-0.940618149,0.435280681,0.478361905,-0.762693048,1.068310261,0.508289635,0.530681014
182,37:39.0,1730438820.0,-0.135691226,-0.073515028,0.010750353,-0.486129205,0.523875798,-0.941583846,0.442286074,0.467207044,-0.765572071,1.290526032,0.657877266,0.597844899
183,37:39.0,1730438820.0,-0.12854293,-0.032727629,0.018590689,-0.469905586,0.52894015,-0.944025835,0.449923515,0.452802122,-0.769765615,1.710397959,0.540522695,0.641170561
184,37:39.0,1730438820.0,-0.090886831,0.100106001,-0.056253016,-0.451348535,0.531443883,-0.948317102,0.456029654,0.436179429,-0.775747716,1.870296955,0.346108198,0.55692482
185,37:39.0,1730438820.0,-0.02914688,0.255707204,-0.103993714,-0.433106583,0.531668844,-0.954306398,0.460161865,0.419692576,-0.782374024,1.786863089,0.225097641,0.35500741
186,37:39.1,1730438820.0,0.059872031,0.280811012,-0.009573817,-0.417925109,0.531046155,-0.960894809,0.462848306,0.405865014,-0.788064063,1.42401886,0.201581657,0.157667294
187,37:39.1,1730438820.0,0.073885143,0.095204026,0.050388813,-0.40703122,0.530654825,-0.966516489,0.464750111,0.395884842,-0.792011738,0.987475574,0.155754507,0.069303341
188,37:39.1,1730438820.0,0.01893726,-0.094084442,0.13322717,-0.400016557,0.530418823,-0.970316881,0.465956569,0.389433593,-0.794497311,0.578911185,0.105647936,0.063444443
189,37:39.1,1730438820.0,0.016709,-0.267511219,0.201474726,-0.395856958,0.530564289,-0.972166048,0.466887832,0.385599017,-0.795819819,0.338737488,0.036671799,0.041628357
190,37:39.1,1730438820.0,0.052856535,-0.327212006,0.248006761,-0.392940652,0.529872567,-0.973353894,0.466903597,0.382906616,-0.797109544,0.310196072,-0.081289724,0.083347254
191,37:39.1,1730438820.0,0.051346391,-0.266439885,0.250725627,-0.388752724,0.528174967,-0.974414683,0.466353804,0.379034489,-0.799279094,0.54548794,-0.163527876,0.165899396
192,37:39.1,1730438820.0,0.060633212,-0.188986152,0.228496194,-0.381113482,0.525467743,-0.976624137,0.465627164,0.371954292,-0.80302012,1.028271914,-0.214670956,0.246449143
193,37:39.1,1730438820.0,0.055828214,-0.100372702,0.206598938,-0.368252637,0.520618965,-0.981463583,0.464069247,0.359985769,-0.809351623,1.636054039,-0.41520831,0.253877491
194,37:39.1,1730438820.0,0.074101299,0.06022948,0.190954506,-0.35083912,0.513175136,-0.988948946,0.461039722,0.343685925,-0.818121254,2.044943571,-0.526746869,0.244531348
195,37:39.1,1730438820.0,0.113368243,0.179758579,0.1616171,-0.331691784,0.50501374,-0.997689932,0.457447827,0.325643063,-0.827464879,2.071927786,-0.515186071,0.187786579
196,37:39.2,1730438820.0,0.110106856,0.079756707,0.14426887,-0.313490745,0.497364476,-1.005993455,0.453857988,0.30838111,-0.836010814,1.882332087,-0.485720038,0.187591955
197,37:39.2,1730438820.0,0.050266951,-0.115474433,0.121717155,-0.296560152,0.491033582,-1.013387929,0.450953752,0.292232245,-0.843351066,1.79600656,-0.32700175,0.165465355
198,37:39.2,1730438820.0,0.029385686,-0.245773375,0.122348368,-0.281012501,0.486009222,-1.020243694,0.448778987,0.277328581,-0.84952122,1.500730157,-0.368368089,0.179742292
199,37:39.2,1730438820.0,0.017403483,-0.238616854,0.020357013,-0.268883722,0.48117271,-1.021260248,0.446189046,0.265655428,-0.854600787,0.732449472,-0.379583746,0.651124716
200,37:39.2,1730438820.0,0.00730592,-0.15714249,-0.197712898,-0.265000101,0.480008061,-1.017478563,0.445666492,0.261909366,-0.856028557,-0.176357478,-0.077767432,0.418944061
201,37:39.2,1730438820.0,-0.048935324,-0.180790514,-0.38493365,-0.263748024,0.479792876,-1.01277336,0.445633322,0.260700792,-0.856414616,-0.056073941,-0.20674485,0.501982212
202,37:39.2,1730438820.0,-0.113855571,-0.018534034,-0.335821986,-0.263168963,0.479491012,-1.006951302,0.445444345,0.260141701,-0.856682897,-0.360168755,-0.159299836,0.553910971
203,37:39.2,1730438820.0,-0.12643218,0.067149848,-0.311927199,-0.264158682,0.480382354,-0.998585843,0.446088552,0.261097223,-0.856056809,-0.566190124,-0.078506187,0.822711587
204,37:39.2,1730438820.0,-0.147939295,0.10511288,-0.287152946,-0.265598273,0.4835037,-0.98763727,0.448583245,0.262486607,-0.854326546,-0.633152723,0.115208685,0.897629857
205,37:39.2,1730438820.0,-0.204324692,0.124621511,-0.312685728,-0.266143617,0.488380179,-0.976342528,0.452676773,0.263012797,-0.852002382,-0.451570928,0.243634835,0.96978581
206,37:39.3,1730438820.0,-0.327006429,0.329403013,-0.231750965,-0.26354189,0.493418207,-0.965224805,0.45728597,0.260501772,-0.850310743,-0.084992297,0.186227202,1.198596478
207,37:39.3,1730438820.0,-0.349171698,0.486177206,-0.167244256,-0.257046333,0.498490005,-0.953426126,0.462391913,0.254225045,-0.84944886,0.123570502,0.226057172,1.415123463
208,37:39.3,1730438820.0,-0.280479312,0.398526311,-0.111691713,-0.248367439,0.50448941,-0.940512344,0.468528599,0.245821819,-0.848559082,0.162810847,0.321775973,1.621039391
209,37:39.3,1730438820.0,-0.251556903,0.240199938,-0.118390977,-0.239374486,0.511387887,-0.925393739,0.475433856,0.237094998,-0.847200453,-0.034442037,0.35940057,1.802076817
210,37:39.3,1730438820.0,-0.253592223,0.09819515,-0.164920926,-0.231739074,0.519916134,-0.908623154,0.483526945,0.22967045,-0.844661593,-0.210885748,0.583649874,1.777098536
211,37:39.3,1730438820.0,-0.192573994,0.070893973,-0.138000906,-0.224849654,0.53045132,-0.892284938,0.493187428,0.222959802,-0.840865672,-0.165984318,0.772254944,1.669766188
212,37:39.3,1730438820.0,-0.139883816,0.186483905,-0.119271159,-0.217259829,0.541879488,-0.877643668,0.50362283,0.215554684,-0.836600423,0.004814789,0.862179816,1.580509782
213,37:39.3,1730438820.0,-0.13953495,0.303606212,-0.185387909,-0.209192469,0.554003327,-0.863909073,0.514626503,0.207670048,-0.83188504,-0.054964654,0.999609053,1.560735583
214,37:39.3,1730438820.0,-0.155593574,0.263468027,-0.269386709,-0.201983381,0.567996048,-0.849662041,0.527007759,0.200612783,-0.825843394,-0.211126059,1.228654027,1.579978108
215,37:39.3,1730438820.0,-0.155755341,0.135633647,-0.325112104,-0.195131126,0.584317853,-0.834484606,0.541161835,0.193895176,-0.818259418,-0.226196632,1.434545875,1.678612828
216,37:39.4,1730438820.0,-0.138179839,0.038337693,-0.367683351,-0.186465352,0.602199023,-0.819050027,0.55663693,0.185386688,-0.809806883,-0.011305857,1.557829499,1.807678461
217,37:39.4,1730438820.0,-0.139606476,0.032589406,-0.417977095,-0.175090958,0.62062321,-0.80409379,0.572650909,0.174197704,-0.801078081,0.170528114,1.583444834,1.909561157
218,37:39.4,1730438820.0,-0.155827522,0.056434199,-0.460775673,-0.16212484,0.638761926,-0.789251544,0.588383675,0.161415547,-0.792306602,0.165850937,1.533761382,1.99742353
219,37:39.4,1730438820.0,-0.130750954,0.042864114,-0.424276888,-0.149232775,0.655909881,-0.772609249,0.603102028,0.14867948,-0.783685148,-0.134111285,1.370995402,2.213033915
220,37:39.4,1730438820.0,-0.061233938,-0.011632383,-0.321357071,-0.1380778,0.672132836,-0.751663679,0.616730154,0.137639463,-0.775047958,-0.663836539,1.337016463,2.389072418
221,37:39.4,1730438820.0,0.017959297,0.073943049,-0.169627309,-0.129436256,0.688821037,-0.728597803,0.630310297,0.12907514,-0.765538037,-0.804679692,1.377379537,2.253669262
222,37:39.4,1730438820.0,0.058907211,0.337598741,0.047237754,-0.120609717,0.704706057,-0.706765063,0.643103898,0.120317519,-0.756267905,-0.598041594,1.25235796,2.221007824
223,37:39.4,1730438820.0,0.038766682,0.480220109,0.138831139,-0.108677784,0.718467669,-0.687678148,0.654348612,0.10846398,-0.748373926,-0.06316755,1.078810692,2.226815939
224,37:39.4,1730438820.0,0.034859478,0.49479562,0.162188172,-0.092770246,0.730358133,-0.671666279,0.664267719,0.092637233,-0.74173224,0.30182147,0.997437775,2.277714014
225,37:39.4,1730438820.0,-0.037279963,0.364662617,0.144260585,-0.074554387,0.741509488,-0.657270005,0.673525631,0.074485339,-0.735401332,0.449016243,1.004540443,2.302229166
226,37:39.5,1730438820.0,-0.084803164,0.143789411,0.110791862,-0.055197973,0.752777617,-0.643410646,0.682627201,0.055169947,-0.728681207,0.517648399,1.085683823,2.374789238
227,37:39.5,1730438820.0,-0.073081374,-0.023226477,0.070211172,-0.034723328,0.764507295,-0.629898262,0.691764235,0.034716349,-0.721288443,0.556506813,1.118163943,2.355092049
228,37:39.5,1730438820.0,-0.070065022,-0.103962749,0.018148124,-0.015615005,0.773586482,-0.614511698,0.698620379,0.015614371,-0.715322196,-0.085919276,0.654566407,2.574071646
229,37:39.5,1730438820.0,-0.07382232,-0.117022291,-0.022023678,-0.002840787,0.779079376,-0.591002632,0.702621818,0.002840783,-0.711557806,-1.349848866,0.511583984,2.513703823
230,37:39.5,1730438820.0,-0.037985325,-0.065454639,0.142887831,0.002004463,0.785841729,-0.561415085,0.707418919,-0.002004462,-0.706791639,-2.061825037,0.862065017,2.420472383
231,37:39.5,1730438820.0,-0.008414984,-0.081549287,0.29570365,0.004952805,0.794744879,-0.529454865,0.713676214,-0.004952785,-0.700458288,-1.958137989,0.869579136,2.47944808
232,37:39.5,1730438820.0,-0.085965097,-0.095833816,0.23614639,0.010871099,0.801840221,-0.500780995,0.718594551,-0.010870884,-0.695344388,-1.319649458,0.601377487,2.36708498
233,37:39.5,1730438820.0,-0.086259127,0.253375888,0.18589294,0.019963525,0.806523477,-0.476604957,0.721741915,-0.019962199,-0.691874385,-0.954587877,0.426712245,2.322535276
234,37:39.5,1730438820.0,-0.076657712,0.385116488,0.112164617,0.030293231,0.80986125,-0.453350686,0.723859251,-0.030288598,-0.689282537,-1.046093702,0.37988615,2.397274733
235,37:39.5,1730438820.0,-0.090263605,0.18590799,0.066926122,0.039204769,0.812930287,-0.427688396,0.725746393,-0.039194725,-0.686844945,-1.470627308,0.41563803,2.421617746
236,37:39.6,1730438820.0,-0.107269466,-0.062493447,0.032992005,0.04509629,0.816053388,-0.398672045,0.727707088,-0.045081005,-0.68440491,-1.938020706,0.446340263,2.426523447
237,37:39.6,1730438820.0,-0.146732152,-0.175086185,0.042822063,0.048168511,0.818846186,-0.366317239,0.729511082,-0.048149887,-0.682272077,-2.361124754,0.406824827,2.450466156
238,37:39.6,1730438820.0,-0.159385204,-0.224137813,0.070970893,0.048494717,0.820591969,-0.330992429,0.730689526,-0.048475713,-0.680986762,-2.754230022,0.303964496,2.41315937
239,37:39.6,1730438820.0,-0.11958468,-0.237341002,0.08896637,0.046275361,0.821726149,-0.293582671,0.731538415,-0.046258848,-0.680229187,-2.990357161,0.283088773,2.37075758
240,37:39.6,1730438820.0,-0.075775802,-0.235420495,0.131516874,0.043447544,0.822957376,-0.255919537,0.732468367,-0.043433875,-0.679414213,-2.836279869,0.317320764,2.332966089
241,37:39.6,1730438820.0,-0.054936767,-0.20241338,0.159146845,0.043113875,0.824724225,-0.221587924,0.733678222,-0.043100521,-0.678128779,-2.264672279,0.321498483,2.288682938
242,37:39.6,1730438820.0,-0.045958281,-0.092474326,0.117959321,0.045664096,0.826391786,-0.191556926,0.73472476,-0.045648228,-0.676827729,-1.812595606,0.287930667,2.164563179
243,37:39.6,1730438820.0,-0.05755657,0.064328328,0.082009912,0.050097567,0.828001681,-0.164884952,0.735657156,-0.050076615,-0.675500453,-1.554470301,0.267748415,2.111219645
244,37:39.6,1730438820.0,-0.050290883,0.145862266,0.098021209,0.055069781,0.82916494,-0.139173262,0.736249745,-0.05504195,-0.674467742,-1.606513858,0.230624765,2.096810818
245,37:39.6,1730438821.0,-0.038233399,0.023781884,0.047127903,0.058513741,0.830008087,-0.112140051,0.736673892,-0.058480356,-0.673714817,-1.92827642,0.243857473,2.060408592
246,37:39.7,1730438821.0,-0.039835215,-0.098132432,0.036493897,0.059281434,0.830668913,-0.082627208,0.737085581,-0.059246719,-0.673197389,-2.321531534,0.229666546,2.035219193
247,37:39.7,1730438821.0,-0.049040735,-0.18370387,0.061303139,0.057920904,0.830950839,-0.051058368,0.737334192,-0.057888523,-0.673043251,-2.497048616,0.195145056,2.030761957
248,37:39.7,1730438821.0,-0.028570831,-0.217450917,0.084460437,0.05619927,0.83094475,-0.019139582,0.737402618,-0.056169692,-0.673113942,-2.421670675,0.186075136,2.007938147
249,37:39.7,1730438821.0,-0.007183254,-0.180781141,0.096449435,0.055392206,0.830971139,0.011273771,0.73745364,-0.055363882,-0.67312485,-2.138247252,0.164542675,1.980303049
250,37:39.7,1730438821.0,-0.002994835,-0.07922934,0.092775762,0.057016738,0.830924104,0.038873706,0.737354577,-0.056985851,-0.673097968,-1.717939615,0.135761097,1.974481225
251,37:39.7,1730438821.0,0.009076416,0.034369603,0.095192015,0.061324528,0.830725219,0.063477594,0.737032592,-0.061286099,-0.673072815,-1.358923912,0.114172451,1.980644345
252,37:39.7,1730438821.0,0.022949994,0.116201624,0.085572004,0.067577505,0.830096594,0.086018993,0.736312091,-0.06752608,-0.673264265,-1.139034867,0.044102818,1.989020824
253,37:39.7,1730438821.0,0.020962834,0.151895523,0.096521139,0.074985164,0.828708729,0.107681407,0.734988153,-0.07491491,-0.673928976,-1.076569915,-0.012056061,2.027025938
254,37:39.7,1730438821.0,0.030408382,0.11417231,0.092167497,0.082451126,0.826656955,0.129683336,0.73317194,-0.082357734,-0.67503792,-1.16645205,-0.055599809,2.043200493
255,37:39.7,1730438821.0,0.021896362,0.038983233,0.083506584,0.089211389,0.823964589,0.152599015,0.730926514,-0.089093104,-0.676615715,-1.268755317,-0.094543211,2.057966948
256,37:39.8,1730438821.0,0.005633235,-0.02065102,0.090392411,0.095460689,0.82059802,0.176212472,0.728222966,-0.095315769,-0.678679705,-1.320659995,-0.140587673,2.059893131
257,37:39.8,1730438821.0,0.01131773,-0.048100211,0.096852303,0.101503308,0.816735435,0.199829837,0.725163043,-0.101329103,-0.681080759,-1.267482877,-0.172766373,2.042241335
258,37:39.8,1730438821.0,0.008953393,-0.032790646,0.07909143,0.1087505,0.812491194,0.222072134,0.721713722,-0.108536266,-0.683629394,-0.952940345,-0.210994199,2.057637215
259,37:39.8,1730438821.0,0.011681914,-0.011421524,0.057334304,0.117864252,0.808237778,0.241988755,0.718054414,-0.117591545,-0.685981154,-0.671624184,-0.198309287,1.992037058
260,37:39.8,1730438821.0,0.018992066,0.023450151,0.033920407,0.128063229,0.803820439,0.259845981,0.714116514,-0.127713472,-0.688278258,-0.484927863,-0.266488612,1.938484669
261,37:39.8,1730438821.0,0.003540576,0.097416744,0.053005099,0.138832142,0.798953739,0.27651479,0.709731579,-0.138386592,-0.690746129,-0.437992036,-0.288884193,1.907699347
262,37:39.8,1730438821.0,0.007031977,0.039963663,0.05141592,0.148942694,0.793532605,0.293024021,0.70494312,-0.148392618,-0.69356674,-0.497023314,-0.314528853,1.839296818
263,37:39.8,1730438821.0,0.01043123,-0.10146077,0.022756755,0.157891962,0.787779837,0.309794889,0.699972212,-0.15723674,-0.696645916,-0.607680619,-0.317790955,1.758722782
264,37:39.8,1730438821.0,-0.011954844,-0.219682649,0.003214657,0.165223312,0.781830007,0.326765155,0.694984019,-0.16447261,-0.699961424,-0.717241049,-0.324814767,1.655693889
265,37:39.8,1730438821.0,-0.046442866,-0.265684098,-0.004729569,0.171139453,0.775780372,0.343635535,0.69004333,-0.170305267,-0.703446031,-0.775966406,-0.32901749,1.550066471
266,37:39.9,1730438821.0,-0.047688603,-0.269358873,-0.002294064,0.175928976,0.769646095,0.360075729,0.685139775,-0.175022855,-0.707071781,-0.798259974,-0.333523035,1.440334797
267,37:39.9,1730438821.0,-0.042985797,-0.27167365,-0.010239601,0.179685374,0.763597735,0.375834313,0.680391192,-0.178720027,-0.710722864,-0.808134973,-0.312083244,1.322559476
268,37:39.9,1730438821.0,-0.048707843,-0.251722515,-0.018875659,0.18274945,0.757899783,0.390657385,0.675950885,-0.181733921,-0.714187086,-0.759548366,-0.296462744,1.215864539
269,37:39.9,1730438821.0,-0.062153578,-0.220464945,-0.028077424,0.1854578,0.752473852,0.404320661,0.671727002,-0.184396505,-0.717482269,-0.688052654,-0.289679408,1.120458364
270,37:39.9,1730438821.0,-0.0579018,-0.17906177,-0.042030632,0.187979634,0.747301553,0.416840066,0.667688787,-0.186874509,-0.720603645,-0.623368561,-0.27537477,1.028095007
271,37:39.9,1730438821.0,-0.050537705,-0.139865384,-0.04700613,0.190166642,0.74251811,0.428350637,0.663956285,-0.189022541,-0.723486364,-0.597363889,-0.250195384,0.937593639
272,37:39.9,1730438821.0,-0.058976352,-0.117643028,-0.051556945,0.191804159,0.73802964,0.439246535,0.660493076,-0.190630272,-0.72622925,-0.603111506,-0.230633676,0.866575837
273,37:39.9,1730438821.0,-0.065319717,-0.119325176,-0.055283964,0.192904151,0.733792497,0.449673281,0.657269239,-0.19170998,-0.728865206,-0.612637103,-0.219494998,0.802120686
274,37:39.9,1730438821.0,-0.061745167,-0.131399348,-0.050742745,0.193210541,0.729849139,0.459859865,0.654350758,-0.192010686,-0.731407523,-0.672760248,-0.175650313,0.730331481
275,37:39.9,1730438821.0,-0.064008772,-0.118674368,-0.038625538,0.192960928,0.726396799,0.469715594,0.651853621,-0.191765711,-0.73369807,-0.642289162,-0.140257433,0.687924087
276,37:40.0,1730438821.0,-0.075624406,-0.092346787,-0.024750888,0.192858379,0.723434826,0.47879331,0.649690568,-0.191665053,-0.735640347,-0.552533925,-0.106454469,0.633881569
277,37:40.0,1730438821.0,-0.06635499,-0.057203263,-0.02743119,0.193249649,0.72096438,0.486869426,0.647821665,-0.192049056,-0.73718673,-0.440371722,-0.077056631,0.60888195
278,37:40.0,1730438821.0,-0.048782408,-0.003088102,-0.029218554,0.19419026,0.718941361,0.494078717,0.646209776,-0.192972079,-0.738359511,-0.358028203,-0.042749524,0.5830369
279,37:40.0,1730438821.0,-0.033274829,0.022664547,-0.027183771,0.19547691,0.717318739,0.500705697,0.644847095,-0.194234386,-0.739219368,-0.306477398,-0.025686653,0.567358017
280,37:40.0,1730438821.0,-0.022132635,0.016949281,-0.026778638,0.196899509,0.716033795,0.506947815,0.643714666,-0.195629686,-0.739838183,-0.283925951,0.019159915,0.542507231
281,37:40.0,1730438821.0,-0.02578336,0.003533602,-0.025481343,0.198359044,0.715365149,0.512848635,0.643031895,-0.197060823,-0.740052104,-0.245522648,0.073942736,0.523678422
282,37:40.0,1730438821.0,-0.0392676,-8.23e-05,-0.011670172,0.200211947,0.715168681,0.51814181,0.642645955,-0.198877051,-0.739901483,-0.149287164,0.094283164,0.506038725
283,37:40.0,1730438821.0,-0.040154457,-0.001398385,-0.001666188,0.202762146,0.715314197,0.522586385,0.642418861,-0.201375663,-0.739422679,-0.041772418,0.109243467,0.487758011
284,37:40.0,1730438821.0,-0.025842309,0.033159822,0.000294447,0.20592249,0.715760416,0.52636506,0.642327905,-0.204470247,-0.738651991,0.024635162,0.125618443,0.493754774
285,37:40.0,1730438821.0,-0.017578185,0.082471818,0.004208982,0.209395415,0.716260681,0.530030353,0.642227232,-0.207868561,-0.737790525,0.017645963,0.121583492,0.505842328
286,37:40.1,1730438821.0,-0.016186655,0.06740281,0.0029338,0.212694879,0.716603108,0.534041642,0.642025888,-0.211094812,-0.737049401,-0.038631253,0.116075546,0.519275963
287,37:40.1,1730438821.0,-0.00736028,0.004511014,-0.005491078,0.215635658,0.716799137,0.538448905,0.641759694,-0.213968411,-0.736452281,-0.091510713,0.11059662,0.524833143
288,37:40.1,1730438821.0,-0.012777507,-0.0347078,7.8e-05,0.218131834,0.716905917,0.543192828,0.641485393,-0.216406107,-0.735978842,-0.139095157,0.117892087,0.503860056
289,37:40.1,1730438821.0,-0.022332609,-0.033943415,0.015004992,0.220196808,0.717062195,0.548055576,0.641305387,-0.218421683,-0.735540211,-0.158290431,0.127453372,0.489393979
290,37:40.1,1730438821.0,-0.02843082,-0.02089259,0.019998491,0.222203381,0.717323947,0.552782945,0.64120847,-0.220379367,-0.735040545,-0.136526033,0.131816685,0.470267504
291,37:40.1,1730438821.0,-0.029459298,-0.015520096,0.009981632,0.22469282,0.717805312,0.556807252,0.64119941,-0.222806916,-0.734316289,0.00698506,0.141883969,0.450600594
292,37:40.1,1730438821.0,-0.021331549,-0.000636071,-0.00780642,0.228050598,0.718841972,0.55962984,0.641463995,-0.226079032,-0.733084023,0.126425102,0.181676656,0.403607696
293,37:40.1,1730438821.0,-0.019260526,0.020524964,-0.01826787,0.231824376,0.720225984,0.56147609,0.641910732,-0.229753479,-0.731549025,0.202278584,0.18069236,0.36982125
294,37:40.1,1730438821.0,-0.030927539,0.049114451,-0.009293795,0.235849967,0.721603268,0.562689252,0.6423015,-0.233669505,-0.729963958,0.24083285,0.148251861,0.331690043
295,37:40.1,1730438821.0,-0.022719026,0.025794402,-0.001837373,0.239660414,0.722961852,0.563631003,0.642698824,-0.237372756,-0.728417695,0.198639318,0.161870733,0.30545792
296,37:40.2,1730438821.0,-0.009888232,-0.028877676,-0.006965041,0.242881961,0.724272942,0.564564132,0.643143296,-0.240500987,-0.726997912,0.161517084,0.150416479,0.262860447
297,37:40.2,1730438821.0,-0.029646218,-0.070324421,-0.004841864,0.245629941,0.72546479,0.565533535,0.643568397,-0.2431674,-0.725733697,0.127037138,0.123793386,0.239413455
298,37:40.2,1730438821.0,-0.033365726,-0.089314833,0.002642512,0.247839881,0.726437789,0.56650521,0.643915713,-0.245310411,-0.72470367,0.085704468,0.105972841,0.195923761
299,37:40.2,1730438821.0,-0.031214416,-0.0875891,0.019940555,0.249667636,0.727061355,0.567429986,0.64406842,-0.247081921,-0.723965824,0.070980385,0.070854001,0.177616388
300,37:40.2,1730438821.0,-0.037311018,-0.069527581,0.03677243,0.2511431,0.727535313,0.568259493,0.644168317,-0.248511359,-0.72338742,0.043349572,0.061206169,0.139553592
301,37:40.2,1730438821.0,-0.044929326,-0.055069283,0.061678529,0.252254458,0.72775349,0.569065468,0.644141972,-0.2495877,-0.723040164,0.023449633,0.026801055,0.126049504
302,37:40.2,1730438821.0,-0.039597094,-0.014667779,0.102764547,0.253369515,0.727747262,0.569736891,0.643951952,-0.250667304,-0.722835958,0.055392213,0.004562863,0.11948438
303,37:40.2,1730438821.0,-0.021269381,0.015006989,0.107010126,0.254595444,0.727479145,0.570239128,0.643553317,-0.251853913,-0.722778499,0.06934984,-0.030557575,0.121471897
304,37:40.2,1730438821.0,-0.015922546,0.035314471,0.08835417,0.25609158,0.726889273,0.570657066,0.642875731,-0.253301531,-0.722875595,0.097826302,-0.067653276,0.1391408
305,37:40.2,1730438821.0,-0.008410573,0.056062222,0.072527766,0.25782266,0.726168432,0.570999667,0.642062366,-0.254975796,-0.723009884,0.116294257,-0.059089348,0.144797891
306,37:40.3,1730438821.0,7.91e-05,0.062178254,0.059207976,0.259792887,0.725483716,0.571193919,0.64123261,-0.256880403,-0.723072112,0.148392007,-0.070565708,0.14400059
307,37:40.3,1730438821.0,-0.006651103,0.050563484,0.04498744,0.261843059,0.724746196,0.571251835,0.640348673,-0.258861214,-0.723149002,0.147343263,-0.068374723,0.141128898
308,37:40.3,1730438821.0,-0.006417215,0.03158322,0.019412637,0.263614487,0.724042553,0.571388475,0.639534891,-0.260571867,-0.7232548,0.106574036,-0.060000949,0.113491945
309,37:40.3,1730438821.0,-0.008150935,0.010955334,6.35e-05,0.265260639,0.723563518,0.571463958,0.638903499,-0.262160808,-0.723238587,0.116231456,-0.035645541,0.104296319
310,37:40.3,1730438821.0,-0.01540488,-0.012967229,-0.020121276,0.266861304,0.723471827,0.571304538,0.638558626,-0.263705134,-0.722981751,0.132926062,-0.0162817,0.084246926
311,37:40.3,1730438821.0,-0.025749445,-0.01617834,-0.035519004,0.268483939,0.723568095,0.5709054,0.638344049,-0.265269995,-0.722598612,0.154419363,-0.012541822,0.080679625
312,37:40.3,1730438821.0,-0.02130121,0.004016489,-0.034975469,0.270153795,0.723605245,0.570425234,0.638076723,-0.266879648,-0.722241938,0.157067552,-0.019870043,0.081905685
313,37:40.3,1730438821.0,-0.00585252,0.016752124,-0.030791163,0.271795149,0.72368174,0.570013572,0.637841046,-0.268461108,-0.721863866,0.161239132,-0.014466221,0.096550405
314,37:40.3,1730438821.0,0.000294209,0.02868855,-0.012830615,0.273605607,0.723561823,0.569655638,0.637431681,-0.270204663,-0.721574903,0.167120472,-0.035840753,0.110911563
315,37:40.3,1730438821.0,0.004675627,0.032395542,0.000344515,0.275538699,0.723341738,0.569439155,0.636925936,-0.272065341,-0.721322298,0.168475211,-0.026492525,0.126592249
316,37:40.4,1730438821.0,0.012142897,0.04150489,0.008456647,0.277648117,0.723079641,0.56931641,0.636355698,-0.274094611,-0.721057355,0.166162193,-0.029158616,0.142471135
317,37:40.4,1730438821.0,0.004599452,0.038294762,0.015231609,0.279721263,0.722743017,0.569433018,0.635735691,-0.276087761,-0.720843732,0.135208264,-0.043197468,0.151819631
318,37:40.4,1730438821.0,0.003602266,0.021259308,0.014974177,0.28177878,0.722066708,0.569827615,0.634871244,-0.278064728,-0.720845759,0.119995691,-0.056627788,0.170671195
319,37:40.4,1730438821.0,0.010088146,0.010688931,0.017799973,0.283689674,0.721262907,0.57039597,0.633939624,-0.279899746,-0.720955491,0.102940805,-0.045647044,0.164044708
320,37:40.4,1730438821.0,0.017767608,0.009422332,0.008924007,0.285374751,0.720526074,0.571094419,0.633096099,-0.281517059,-0.721066892,0.077756926,-0.033449765,0.16651921
321,37:40.4,1730438821.0,0.003894031,0.018046707,-0.005870938,0.286666343,0.719890609,0.572072472,0.632397473,-0.28275618,-0.721195102,0.027485764,-0.016232165,0.16563797
322,37:40.4,1730438821.0,-0.004359901,0.012956738,-0.020308018,0.287436753,0.719369227,0.573399551,0.631877661,-0.283495069,-0.721360624,-0.018994372,-8.86e-05,0.171416551
323,37:40.4,1730438821.0,-0.004450619,-0.006234676,-0.026030123,0.287950267,0.719099128,0.57483825,0.63158679,-0.283987492,-0.721421599,-0.025510062,0.009776534,0.16166459
324,37:40.4,1730438821.0,-0.004054844,-0.01485455,-0.019278646,0.288333628,0.71903069,0.576165435,0.631465733,-0.284355044,-0.721382916,-0.020015555,0.024647357,0.15026392
325,37:40.4,1730438821.0,0.000973701,-0.011326849,-0.004415631,0.288718643,0.719140262,0.577436637,0.631472588,-0.284724146,-0.721231282,-0.027797844,0.038922168,0.143760473
326,37:40.5,1730438821.0,-0.000743747,-0.010831058,0.007855415,0.28931553,0.719222772,0.578673539,0.631420016,-0.285296261,-0.721051216,-0.010547482,0.02012318,0.14708741
327,37:40.5,1730438821.0,0.002487242,-0.007702351,0.013419688,0.290144171,0.719190561,0.579792769,0.631240845,-0.286090374,-0.720893443,0.000626076,0.009618608,0.149738327
328,37:40.5,1730438821.0,0.018565357,-0.003573418,0.008442879,0.290981798,0.719077564,0.58100444,0.631001294,-0.286892891,-0.720784187,-0.01124166,0.014197647,0.154992938
329,37:40.5,1730438821.0,0.010856688,0.000368655,0.00699538,0.291704203,0.718826755,0.582393675,0.630683839,-0.287584841,-0.720786273,-0.03035197,0.014467426,0.16266951
330,37:40.5,1730438821.0,-0.000838697,-0.000550866,0.013945937,0.292305463,0.718317355,0.584016432,0.630202651,-0.288160652,-0.720977128,-0.049379006,0.00581588,0.161860272
331,37:40.5,1730438821.0,0.002070606,-0.012057722,0.0167135,0.292909246,0.717785107,0.585692126,0.629704297,-0.288738787,-0.721181273,-0.065020017,0.017777734,0.15968287
332,37:40.5,1730438821.0,0.004170358,-0.007116586,0.021432281,0.293480238,0.717436074,0.587476218,0.629344046,-0.289285392,-0.721276641,-0.075528376,0.037192978,0.164130732
333,37:40.5,1730438821.0,-0.012523293,0.005585223,0.016457558,0.293965239,0.717268589,0.589284165,0.62913096,-0.289749622,-0.721276224,-0.084317073,0.036879525,0.154545754
334,37:40.5,1730438821.0,-0.016760945,-0.004253596,0.004079878,0.294382996,0.717224911,0.591039715,0.629019797,-0.29014945,-0.721212387,-0.081662834,0.043576576,0.150163293
335,37:40.5,1730438821.0,-0.011659026,-0.011652201,-0.006040156,0.294815589,0.717395315,0.592654892,0.629060149,-0.290563405,-0.721010625,-0.067532629,0.063866667,0.13662912
336,37:40.6,1730438821.0,-0.01090759,-0.017722666,-0.012602329,0.295169056,0.71792844,0.593994499,0.629376888,-0.290901601,-0.720597744,-0.058483943,0.079922065,0.115319677
337,37:40.6,1730438821.0,-0.017289579,-0.02162531,-0.019339263,0.295364211,0.718430379,0.595319992,0.629701078,-0.291088313,-0.720238984,-0.074261315,0.079820603,0.115386516
338,37:40.6,1730438821.0,-0.018683553,-0.03383249,-0.017953157,0.295491643,0.718874452,0.596739543,0.629996419,-0.291210234,-0.719931364,-0.084413841,0.075226113,0.106580779
339,37:40.6,1730438821.0,-0.013705671,-0.043511957,-0.011776984,0.295725307,0.719355891,0.59805785,0.630298138,-0.291433752,-0.719576776,-0.059190247,0.079938047,0.105272636
340,37:40.6,1730438821.0,-0.019307137,-0.021215111,0.003334045,0.296096101,0.720114683,0.599154259,0.63077265,-0.291788429,-0.719017029,-0.066035904,0.096324742,0.099339381
341,37:40.6,1730438821.0,-0.018343508,0.008257419,0.015956223,0.296391448,0.720466453,0.600388396,0.63096863,-0.292070895,-0.718730271,-0.047998846,0.050328754,0.121489689
342,37:40.6,1730438821.0,-0.019186497,0.024271429,0.021635652,0.296973748,0.7205006,0.601692716,0.630880892,-0.292627782,-0.718580782,-0.037395563,0.054228686,0.126158327
343,37:40.6,1730438821.0,-0.003484845,0.019860089,0.016539812,0.297722184,0.720552797,0.602921936,0.630773723,-0.293343365,-0.718383074,-0.010580726,0.051830243,0.137253046
344,37:40.6,1730438821.0,-0.00936532,0.020752102,0.009877145,0.298623468,0.720591703,0.604081835,0.630626917,-0.294204891,-0.718159616,-0.011710219,0.054855328,0.130303904
345,37:40.6,1730438822.0,-0.015640974,0.014565468,0.006955087,0.299510476,0.720582758,0.605236855,0.630448043,-0.295052499,-0.717968822,-0.012125139,0.053081397,0.125415936
346,37:40.7,1730438822.0,-0.011411607,-0.010664642,0.005502999,0.300397212,0.720564838,0.606330572,0.630262315,-0.295899659,-0.717783213,-0.008746278,0.055484634,0.107583135
347,37:40.7,1730438822.0,-0.015813053,-0.021625876,0.005526721,0.301318194,0.720782924,0.607192165,0.630238712,-0.296779275,-0.717440784,-4.47e-05,0.062444806,0.091120809
348,37:40.7,1730438822.0,-0.022464871,-0.024359912,0.008218825,0.301938582,0.721206454,0.607816742,0.630420804,-0.297371656,-0.717035353,-0.006869923,0.073561907,0.057812706
349,37:40.7,1730438822.0,-0.031593025,-0.037894517,0.012082398,0.302082359,0.721803982,0.6083119,0.63082093,-0.297508925,-0.716626465,-0.024455842,0.082628638,0.030975768
350,37:40.7,1730438822.0,-0.038156092,-0.047235042,0.021939278,0.301936288,0.722533164,0.608646277,0.631372035,-0.29736945,-0.716198862,-0.018721163,0.084757566,0.015458114
351,37:40.7,1730438822.0,-0.044561088,-0.05283007,0.028624237,0.301813621,0.723346818,0.608758128,0.631978691,-0.297252327,-0.715712249,0.004946083,0.081274688,-0.003156051
352,37:40.7,1730438822.0,-0.036752343,-0.042362839,0.026887774,0.301877223,0.724116032,0.608570412,0.632516503,-0.297313064,-0.715211689,0.039138202,0.061189391,-0.005729623
353,37:40.7,1730438822.0,-0.024975538,-0.022861809,0.022575259,0.302197205,0.72474197,0.60814739,0.632901013,-0.297618568,-0.714744449,0.068539768,0.049782272,-0.012102036
354,37:40.7,1730438822.0,-0.01331383,-0.007736474,0.021260262,0.302696764,0.72536566,0.607541231,0.633247912,-0.298095435,-0.714238226,0.077266134,0.046343066,-0.015244724
355,37:40.7,1730438822.0,-0.011119485,0.0051893,0.029603601,0.303209986,0.725960916,0.606868192,0.633571327,-0.298585296,-0.713746607,0.069137901,0.040836181,-0.025194561
356,37:40.8,1730438822.0,-0.020306766,0.005976856,0.037470043,0.303475586,0.726528593,0.606282186,0.633923709,-0.298838764,-0.713327527,0.034722134,0.044616539,-0.031801865
357,37:40.8,1730438822.0,-0.021248698,-0.001097322,0.042985737,0.303529783,0.727051477,0.605872885,0.634285808,-0.298890501,-0.712983906,0.013262117,0.042557918,-0.039012372
358,37:40.8,1730438822.0,-0.020843387,-0.016398728,0.035615802,0.303501113,0.727566554,0.605453693,0.634658694,-0.298863143,-0.712663472,0.018334843,0.046779294,-0.050129525
359,37:40.8,1730438822.0,-0.014774919,-0.015033245,0.024363816,0.303524907,0.728264942,0.604833615,0.635151505,-0.298885822,-0.712214768,0.037790034,0.060311612,-0.061129976
360,37:40.8,1730438822.0,-0.012571096,-0.004691601,0.017029107,0.303568849,0.729082461,0.603977003,0.635724783,-0.298927784,-0.711685479,0.058829524,0.055236962,-0.07141079
361,37:40.8,1730438822.0,-0.018807352,-0.011580408,0.01288873,0.303673337,0.729941761,0.602909347,0.636315286,-0.299027473,-0.711115599,0.073955216,0.05938803,-0.081501506
362,37:40.8,1730438822.0,-0.010840595,-0.011905521,0.016291857,0.303668437,0.730925517,0.601770688,0.637015522,-0.299022794,-0.710490406,0.067154534,0.064336181,-0.086531103
363,37:40.8,1730438822.0,-0.010738194,-0.005491257,0.023557305,0.30356234,0.731868717,0.600660897,0.637706518,-0.298921555,-0.709912837,0.054898933,0.055421785,-0.084168613
364,37:40.8,1730438822.0,-0.013887048,-0.014644712,0.021121025,0.303356387,0.732721623,0.599635808,0.63835299,-0.298725009,-0.709414423,0.040957458,0.056649234,-0.091080792
365,37:40.8,1730438822.0,-0.006936371,-0.022325397,0.0176332,0.303014885,0.733690169,0.59861582,0.639108062,-0.298399091,-0.708871543,0.02708292,0.068964757,-0.103090584
366,37:40.9,1730438822.0,-0.016104937,-0.012970418,0.015291214,0.302504742,0.734641739,0.597676669,0.639884233,-0.297912151,-0.708375931,0.011587426,0.067471787,-0.109005734
367,37:40.9,1730438822.0,-0.025051773,-0.008943409,0.010010362,0.301880027,0.735550368,0.596803321,0.640652418,-0.297315747,-0.707932115,-0.001785371,0.062278889,-0.111074477
368,37:40.9,1730438822.0,-0.01455152,-0.008684367,0.009683013,0.301160576,0.736379452,0.595902909,0.641382635,-0.296628743,-0.70755899,0.000241562,0.053975154,-0.114875071
369,37:40.9,1730438822.0,-0.005525768,-0.000158042,0.009960592,0.300422171,0.737174376,0.595011295,0.64209193,-0.295923501,-0.707210958,-0.000117699,0.056076653,-0.119006433
370,37:40.9,1730438822.0,-0.000362754,0.005392283,0.013538003,0.299699363,0.73795609,0.594014174,0.642788291,-0.295232981,-0.70686686,0.010188045,0.044182979,-0.128999352
371,37:40.9,1730438822.0,0.001019359,0.004295886,0.015194297,0.299015042,0.738744577,0.592881185,0.643481374,-0.294579089,-0.706508994,0.023488138,0.046909787,-0.132759467
372,37:40.9,1730438822.0,-0.000152051,0.003815055,0.009680748,0.298432097,0.739613012,0.591609929,0.644210279,-0.294021964,-0.706076622,0.037866045,0.053969029,-0.137706205
373,37:40.9,1730438822.0,-0.00862968,0.001486659,-0.001397908,0.297816021,0.740555405,0.590335633,0.644997537,-0.29343307,-0.705602825,0.014609991,0.065150045,-0.146107137
374,37:40.9,1730438822.0,-0.017950296,-0.006254435,-0.006667435,0.297028874,0.741607353,0.589075844,0.645895243,-0.292680472,-0.70509398,0.013004871,0.073164828,-0.156809896
375,37:40.9,1730438822.0,-0.020210385,-0.014401108,-0.003924191,0.296073161,0.742662703,0.587790441,0.646827817,-0.291766495,-0.704617679,-0.002801255,0.083389238,-0.173636287
376,37:41.0,1730438822.0,-0.024791658,-0.01667732,0.000980794,0.294921967,0.74390546,0.586470685,0.647930026,-0.290665179,-0.704059958,-0.005080921,0.096978284,-0.185981631
377,37:41.0,1730438822.0,-0.026566207,-0.01015234,0.008527994,0.293624479,0.745305859,0.584996397,0.649170578,-0.289423466,-0.703428507,-0.000960212,0.102637231,-0.205418974
378,37:41.0,1730438822.0,-0.02161026,-0.01399821,0.009409666,0.292221269,0.746872432,0.583312339,0.650547087,-0.288080037,-0.702708006,0.011062095,0.110078372,-0.225433171
379,37:41.0,1730438822.0,-0.016067028,-0.015281737,0.002581716,0.290769689,0.748548194,0.581369142,0.652007639,-0.286689699,-0.701922476,0.0222764,0.113713056,-0.247110501
380,37:41.0,1730438822.0,-0.012517571,-0.015741855,-0.007759333,0.28914306,0.750301765,0.579294256,0.653554559,-0.285130948,-0.701118231,0.005942435,0.124511637,-0.271561235
381,37:41.0,1730438822.0,-0.015472233,-0.025538206,-0.017173409,0.287201195,0.752129875,0.577218107,0.655212283,-0.283269167,-0.70032531,-0.02514278,0.143254697,-0.299473852
382,37:41.0,1730438822.0,-0.024138451,-0.044703722,-0.016779184,0.284894468,0.754043421,0.575202365,0.656996727,-0.281056166,-0.699544728,-0.058086351,0.159215018,-0.322381824
383,37:41.0,1730438822.0,-0.029575408,-0.052329272,-0.012984574,0.282244243,0.756007924,0.573290893,0.658878386,-0.278511792,-0.69879216,-0.099817626,0.164382622,-0.344373733
384,37:41.0,1730438822.0,-0.0292992,-0.054037303,-0.004181564,0.27918033,0.758054865,0.571487315,0.660890996,-0.2755678,-0.698058426,-0.135766104,0.180089146,-0.370301187
385,37:41.0,1730438822.0,-0.028936148,-0.056520849,0.000634968,0.275646123,0.760275837,0.569742231,0.66310668,-0.272168726,-0.697290242,-0.169607684,0.197727799,-0.395605206
386,37:41.1,1730438822.0,-0.033712387,-0.059031546,-0.000914216,0.271754622,0.762628554,0.567990268,0.665472031,-0.268422067,-0.696488738,-0.183406383,0.199754193,-0.425814211
387,37:41.1,1730438822.0,-0.035516024,-0.060958713,-0.00389713,0.267348974,0.765237572,0.56596486,0.668099642,-0.264175534,-0.695596278,-0.1767634,0.216799229,-0.462562114
388,37:41.1,1730438822.0,-0.031502724,-0.061477363,-0.007973373,0.26273239,0.768091497,0.563622802,0.670922279,-0.259720147,-0.694556534,-0.173840418,0.233074337,-0.50123781
389,37:41.1,1730438822.0,-0.037925184,-0.060324997,-0.012307525,0.257845484,0.77113774,0.561080752,0.673911512,-0.254997849,-0.69341141,-0.179729193,0.233364612,-0.532595754
390,37:41.1,1730438822.0,-0.045438886,-0.056454837,-0.013243377,0.252872133,0.774374336,0.558085011,0.677030742,-0.250185788,-0.692124665,-0.137650728,0.263462603,-0.577887416
391,37:41.1,1730438822.0,-0.041735709,-0.050694972,-0.018212616,0.247792511,0.778027835,0.554489897,0.680438042,-0.2452645,-0.690542817,-0.101181671,0.299366534,-0.625334859
392,37:41.1,1730438822.0,-0.05771935,-0.043235376,-0.026932836,0.24267844,0.782083224,0.550455255,0.6841079,-0.240303442,-0.688658595,-0.072445624,0.311034113,-0.656483591
393,37:41.1,1730438822.0,-0.076601505,-0.033671424,-0.016307831,0.237490938,0.786285264,0.546081066,0.687868655,-0.235264733,-0.686649323,-0.058786005,0.316953242,-0.682357252
394,37:41.1,1730438822.0,-0.065330982,-0.037201598,-0.011883736,0.232088275,0.79057961,0.541417883,0.691704273,-0.230010316,-0.684573114,-0.061233751,0.321941882,-0.725701511
395,37:41.1,1730438822.0,-0.0603652,-0.036271885,-0.012510002,0.226321133,0.794963915,0.536424273,0.695634365,-0.224393994,-0.682451546,-0.056536205,0.335826546,-0.780817747
396,37:41.2,1730438822.0,-0.064779103,-0.049991727,-0.017931521,0.220185223,0.799567835,0.530937928,0.699743092,-0.218410373,-0.680188596,-0.031767752,0.346198767,-0.849398971
397,37:41.2,1730438822.0,-0.075683296,-0.079959229,-0.030849338,0.213592301,0.804507355,0.524757436,0.704116583,-0.211971924,-0.677707791,-0.010148745,0.379437417,-0.944556594
398,37:41.2,1730438822.0,-0.08949101,-0.112025186,-0.039818287,0.206610834,0.80996681,0.517601355,0.708860517,-0.205144003,-0.674857616,0.053090882,0.409433126,-1.039533615
399,37:41.2,1730438822.0,-0.10231483,-0.139933899,-0.043546796,0.199288516,0.815840611,0.509250936,0.713887155,-0.197971985,-0.671693623,0.138222292,0.426789463,-1.145014167
400,37:41.2,1730438822.0,-0.107595563,-0.154781193,-0.045518041,0.191852568,0.822056272,0.499543276,0.719106853,-0.190677807,-0.668227017,0.231518418,0.4428249,-1.248031855
401,37:41.2,1730438822.0,-0.096369743,-0.146339774,-0.042922735,0.184120766,0.828507123,0.488697645,0.724467278,-0.183082238,-0.66455102,0.285084188,0.436397374,-1.337053657
402,37:41.2,1730438822.0,-0.087816775,-0.135472044,-0.039107442,0.176012773,0.834888048,0.477084763,0.729769349,-0.175105348,-0.660889506,0.30769524,0.421629608,-1.405867696
403,37:41.2,1730438822.0,-0.083781004,-0.135045633,-0.028954506,0.167494228,0.841106142,0.464925096,0.734949827,-0.166712165,-0.657309592,0.334126323,0.404551804,-1.466917157
404,37:41.2,1730438822.0,-0.086624503,-0.150467575,-0.014194548,0.158622651,0.8471768,0.452219715,0.740005851,-0.157958299,-0.653789341,0.357328415,0.402778953,-1.529597998
405,37:41.2,1730438822.0,-0.102158427,-0.142151654,0.001851022,0.149388461,0.853150744,0.438978956,0.744965434,-0.148833439,-0.650288463,0.398656666,0.384197801,-1.591656089
406,37:41.3,1730438822.0,-0.110796511,-0.109582558,0.024728596,0.140112479,0.858911919,0.424969933,0.749712527,-0.139654487,-0.646859884,0.481952906,0.369163454,-1.630777955
407,37:41.3,1730438822.0,-0.102015555,-0.084735334,0.036025643,0.131109309,0.864564498,0.409937731,0.754283011,-0.130734012,-0.643401742,0.609864831,0.354643911,-1.6755234
408,37:41.3,1730438822.0,-0.086440325,-0.058341168,0.027073383,0.122491635,0.870028869,0.393669986,0.758620501,-0.122185551,-0.639973164,0.740711272,0.333991617,-1.735839844
409,37:41.3,1730438822.0,-0.068787694,-0.022315003,0.011865616,0.114178653,0.8752845,0.376095588,0.762726963,-0.113930725,-0.636606157,0.869359255,0.304187387,-1.789673448
410,37:41.3,1730438822.0,-0.046637475,-0.011758745,-2.71e-05,0.106192813,0.880236796,0.357135773,0.766547203,-0.105993338,-0.633380473,1.014453053,0.264804572,-1.850591779
411,37:41.3,1730438822.0,-0.032106459,-0.035290331,-0.013254941,0.09853603,0.884754651,0.336841427,0.770006299,-0.098376654,-0.630406559,1.125636578,0.224622265,-1.905886173
412,37:41.3,1730438822.0,-0.018129528,-0.060177103,-0.015597045,0.090918549,0.888815375,0.315465633,0.773119211,-0.090793341,-0.627728701,1.229913473,0.195334941,-1.958863735
413,37:41.3,1730438822.0,-0.007445216,-0.095782436,0.010523438,0.083421942,0.892579326,0.293081894,0.775984645,-0.083325215,-0.625223756,1.289095044,0.162306949,-2.026857853
414,37:41.3,1730438822.0,-0.01050967,-0.154480308,0.025101781,0.075771,0.895849187,0.269920674,0.778499842,-0.075698517,-0.623063147,1.360538483,0.121685758,-2.059968948
415,37:41.3,1730438822.0,-0.006627977,-0.159656197,0.050023675,0.068164525,0.898610556,0.245927759,0.78064537,-0.068111748,-0.621251702,1.438358784,0.086812466,-2.119428158
416,37:41.4,1730438822.0,0.015097082,-0.145226985,0.067759097,0.060620661,0.900806591,0.221092928,0.78238821,-0.060583539,-0.619837284,1.513228893,0.032805689,-2.149657249
417,37:41.4,1730438822.0,0.02346307,-0.12016812,0.063547015,0.053349623,0.90224628,0.195449102,0.783604801,-0.053324319,-0.618966937,1.605399609,-0.036958214,-2.172941923
418,37:41.4,1730438822.0,0.040491462,-0.107525364,0.06093061,0.046483079,0.902798764,0.168994692,0.784215629,-0.046466343,-0.618746161,1.697133899,-0.116231732,-2.184326887
419,37:41.4,1730438822.0,0.052494168,-0.092704095,0.062651515,0.040088604,0.902457435,0.141909709,0.78422159,-0.040077869,-0.619185269,1.752807975,-0.187968507,-2.182163477
420,37:41.4,1730438822.0,0.046398282,-0.07952112,0.082606733,0.034132966,0.901254374,0.114336929,0.783649266,-0.034126338,-0.620265365,1.845621347,-0.261745512,-2.171500683
421,37:41.4,1730438822.0,0.03852725,-0.085098654,0.109221697,0.028796921,0.899122545,0.086099104,0.782456577,-0.02879294,-0.62203902,1.91608274,-0.33671084,-2.18100214
422,37:41.4,1730438822.0,0.031263292,-0.074219838,0.117586255,0.023911722,0.896195727,0.057313816,0.780733168,-0.023909444,-0.624406874,1.982506156,-0.40598473,-2.178104401
423,37:41.4,1730438822.0,0.025783598,-0.034248639,0.126655996,0.019539816,0.892447678,0.027951012,0.778461337,-0.019538574,-0.627388299,2.058118343,-0.473330736,-2.186668396
424,37:41.4,1730438822.0,0.029019415,-0.011811191,0.13068372,0.015807876,0.887926539,-0.002116365,0.775668085,-0.015807217,-0.63094306,2.168643475,-0.53869915,-2.184087753
425,37:41.4,1730438822.0,0.035098433,0.012114012,0.113486767,0.013182508,0.882615578,-0.033190392,0.772335649,-0.013182126,-0.635077834,2.31662178,-0.615231156,-2.16637826
426,37:41.4,1730438822.0,0.041191757,0.020830393,0.105257809,0.01167538,0.876457136,-0.065191782,0.768424273,-0.011675115,-0.639834106,2.419774771,-0.698449373,-2.152117729
427,37:41.5,1730438822.0,0.051346719,0.024351902,0.105563879,0.010924375,0.869452798,-0.097556243,0.76393038,-0.010924158,-0.645206153,2.445627451,-0.778800428,-2.129302979
428,37:41.5,1730438822.0,0.052346349,0.006583907,0.120537519,0.010719237,0.861692961,-0.129786795,0.758902431,-0.010719032,-0.651116133,2.434573412,-0.840732992,-2.091524839
429,37:41.5,1730438822.0,0.048926473,-0.058864098,0.130169451,0.01038048,0.853458701,-0.16135198,0.753517985,-0.010380293,-0.657345355,2.305310011,-0.875088573,-2.096210003
430,37:41.5,1730438822.0,0.033293426,-0.115322001,0.13148874,0.009433991,0.844798301,-0.191893187,0.747803986,-0.009433852,-0.663852632,2.158574104,-0.926916659,-2.095386982
431,37:41.5,1730438822.0,0.012796104,-0.147439614,0.14111656,0.007849159,0.835529496,-0.221532912,0.741629004,-0.007849078,-0.670764446,2.064302921,-0.970040679,-2.102693081
432,37:41.5,1730438822.0,0.008520782,-0.176350534,0.134132624,0.00617513,0.82617406,-0.250820313,0.735329926,-0.006175091,-0.677681148,2.041033268,-0.947254419,-2.105292797
433,37:41.5,1730438822.0,-0.016293883,-0.143949434,0.10398078,0.004793251,0.816740474,-0.280053765,0.72890985,-0.004793233,-0.684592903,2.066871405,-0.982993245,-2.074707508
434,37:41.5,1730438822.0,-0.059989214,-0.052992508,0.070892513,0.004334764,0.806973206,-0.309362894,0.722190082,-0.00433475,-0.691681027,2.152676105,-0.987792253,-2.029316664
435,37:41.5,1730438822.0,-0.043182015,0.021217344,0.046113133,0.005348215,0.797266161,-0.339135189,0.715438485,-0.00534819,-0.698655248,2.241378546,-0.983303726,-1.988397002
436,37:41.5,1730438822.0,-0.035106182,0.038844764,0.018537521,0.006725057,0.787511327,-0.368864544,0.708583415,-0.006725006,-0.705595016,2.169689655,-1.012098789,-1.994789124
437,37:41.6,1730438822.0,-0.03959012,0.048400249,0.012372732,0.00736942,0.777421349,-0.397595407,0.701424837,-0.007369353,-0.712705314,1.972246647,-1.045942545,-2.000137568
438,37:41.6,1730438822.0,-0.013051093,0.008283135,0.039720416,0.006665749,0.767164517,-0.424993077,0.694081366,-0.006665699,-0.71986568,1.754721284,-1.050884366,-2.029692411
439,37:41.6,1730438822.0,0.009525478,-0.104662932,0.059219122,0.004132244,0.756615478,-0.450914353,0.686458409,-0.004132232,-0.727157295,1.449456215,-1.091256499,-2.081480503
440,37:41.6,1730438822.0,0.003882289,-0.191599548,0.071424007,-0.000773136,0.745851855,-0.474980566,0.678597569,0.000773136,-0.734509885,1.130544543,-1.074380636,-2.105618715
441,37:41.6,1730438822.0,-0.014512122,-0.239457279,0.094307542,-0.007554282,0.735220625,-0.497392768,0.670731664,0.00755421,-0.741661608,0.921528459,-1.033474684,-2.123911858
442,37:41.6,1730438822.0,-0.055348337,-0.241932824,0.106420517,-0.015096239,0.724877934,-0.519085058,0.662968516,0.015095665,-0.748495042,0.878544509,-0.992475927,-2.117937088
443,37:41.6,1730438822.0,-0.107388496,-0.14434509,0.090283871,-0.02197137,0.714790621,-0.540852723,0.655301094,0.021969602,-0.755048215,0.970769823,-0.939818323,-2.066299438
444,37:41.6,1730438822.0,-0.149467051,-0.0052392,0.06684041,-0.027230487,0.704953355,-0.563031424,0.647758067,0.027227122,-0.761359453,1.121093869,-0.923924565,-1.994458675
445,37:41.6,1730438823.0,-0.161624074,0.097292721,0.020945132,-0.030977616,0.694960822,-0.585576118,0.640048146,0.030972661,-0.767710268,1.204001069,-0.95453465,-1.936624169
446,37:41.7,1730438823.0,-0.142626524,0.152664304,-0.021281481,-0.033804554,0.684566412,-0.607959206,0.631975889,0.033798117,-0.774250686,1.203972697,-0.988169074,-1.884517431
447,37:41.7,1730438823.0,-0.097875059,0.134921998,-0.04215312,-0.036030024,0.673820254,-0.630122771,0.623570919,0.036022231,-0.78093648,1.247356296,-1.016061068,-1.846642017
448,37:41.7,1730438823.0,-0.053975523,0.087261543,-0.048223913,-0.037472575,0.662734457,-0.652316385,0.614842832,0.037463807,-0.787759364,1.277137995,-1.041841507,-1.827630043
449,37:41.7,1730438823.0,-0.034727216,0.065361224,-0.049495399,-0.038499612,0.651492684,-0.674491563,0.605924726,0.038490102,-0.794590294,1.262117505,-1.049263835,-1.806944013
450,37:41.7,1730438823.0,-0.047831357,0.083124533,-0.025913358,-0.039551194,0.64023767,-0.696217492,0.596918881,0.039540883,-0.801326632,1.19659996,-1.023611903,-1.797833443
451,37:41.7,1730438823.0,-0.083390594,0.082638457,0.010462761,-0.040877568,0.629246999,-0.717381255,0.588044524,0.040866185,-0.807795525,1.082101822,-1.015717268,-1.763884544
452,37:41.7,1730438823.0,-0.117014885,0.064970195,0.022309959,-0.043151728,0.618357406,-0.73716461,0.579157889,0.043138336,-0.814073265,0.851443768,-1.003527164,-1.720253229
453,37:41.7,1730438823.0,-0.146085918,0.035031073,0.024046302,-0.047246648,0.607585613,-0.754862311,0.570249796,0.047229074,-0.820112586,0.522797942,-0.988357365,-1.647316456
454,37:41.7,1730438823.0,-0.139806807,-0.031164426,0.01868546,-0.053284373,0.597012834,-0.770384314,0.561376691,0.053259164,-0.825844884,0.260460019,-0.966207862,-1.59618783
455,37:41.7,1730438823.0,-0.110124528,-0.080948897,-0.022988975,-0.060325088,0.586834869,-0.784533093,0.552720964,0.060288507,-0.831182778,0.165034994,-0.906100571,-1.543283343
456,37:41.7,1730438823.0,-0.106221259,-0.013719194,-0.059766293,-0.067251936,0.577044728,-0.798340367,0.544316351,0.067201249,-0.836184025,0.200963125,-0.892949343,-1.52670908
457,37:41.8,1730438823.0,-0.121795952,0.10549143,-0.064291358,-0.073483998,0.567224403,-0.81231896,0.535843194,0.07341788,-0.841119468,0.261143357,-0.873930097,-1.499758363
458,37:41.8,1730438823.0,-0.113547027,0.171191841,-0.071542442,-0.079073651,0.557714021,-0.826220919,0.527594268,0.078991272,-0.845815957,0.264822334,-0.821166515,-1.440101862
459,37:41.8,1730438823.0,-0.101555467,0.165857106,-0.071760714,-0.084364998,0.54871687,-0.839574498,0.51973778,0.084264956,-0.850160003,0.22510846,-0.762342572,-1.382899046
460,37:41.8,1730438823.0,-0.127238691,0.133934215,-0.074345767,-0.089712088,0.54030006,-0.852092218,0.51232475,0.089591801,-0.854105771,0.148585066,-0.713856578,-1.307812095
461,37:41.8,1730438823.0,-0.140010417,0.08659216,-0.072022736,-0.095468084,0.532345934,-0.86349625,0.505244851,0.09532313,-0.857695282,0.014473589,-0.676120341,-1.228148937
462,37:41.8,1730438823.0,-0.127837211,0.046191916,-0.071300209,-0.101811045,0.524814574,-0.873526499,0.498457968,0.101635247,-0.860935509,-0.10283953,-0.633894622,-1.151331663
463,37:41.8,1730438823.0,-0.104705453,0.014670804,-0.085559428,-0.108574004,0.517670134,-0.88269295,0.491942972,0.108360812,-0.863857627,-0.148129255,-0.595389545,-1.102792025
464,37:41.8,1730438823.0,-0.069330603,0.002872042,-0.117969334,-0.115072803,0.51091644,-0.891408716,0.485742956,0.114819013,-0.866527736,-0.124639593,-0.554387033,-1.049138784
465,37:41.8,1730438823.0,-0.062772572,0.073200636,-0.171312213,-0.121095361,0.504635597,-0.89972289,0.479947865,0.120799616,-0.868940473,-0.127706498,-0.512134373,-0.985899091
466,37:41.9,1730438823.0,-0.113881648,0.161403105,-0.185744703,-0.126670357,0.498728742,-0.907482985,0.474477321,0.126331881,-0.871155262,-0.115549125,-0.471210599,-0.900539696
467,37:41.9,1730438823.0,-0.119167149,0.17463699,-0.149240613,-0.131989825,0.493528578,-0.914394922,0.469615757,0.131606922,-0.873006701,-0.167767316,-0.380171239,-0.810612202
468,37:41.9,1730438823.0,-0.118949056,0.146273866,-0.104579031,-0.137206777,0.489273417,-0.920272799,0.465567708,0.136776686,-0.874379098,-0.201410905,-0.32405284,-0.708888769
469,37:41.9,1730438823.0,-0.139795452,0.125109762,-0.062728345,-0.1422611,0.485572565,-0.925180135,0.462000042,0.141781732,-0.875473559,-0.242453679,-0.288583785,-0.629779816
470,37:41.9,1730438823.0,-0.12760216,0.096437424,-0.047779262,-0.147335402,0.482318804,-0.929159598,0.458809406,0.146802932,-0.876323462,-0.285464644,-0.24897486,-0.546431422
471,37:41.9,1730438823.0,-0.099160999,0.061695188,-0.053241491,-0.152503057,0.479420399,-0.932467931,0.455911517,0.151912615,-0.876964808,-0.326599568,-0.233622,-0.519299626
472,37:41.9,1730438823.0,-0.071411133,0.049529538,-0.08040607,-0.157789464,0.47675925,-0.935540637,0.453201294,0.157135516,-0.877449155,-0.318425119,-0.20016472,-0.50948602
473,37:41.9,1730438823.0,-0.040569782,0.056863263,-0.100422442,-0.16283426,0.474324169,-0.938844757,0.450695485,0.162115619,-0.877833724,-0.286931634,-0.184691221,-0.535064936
474,37:41.9,1730438823.0,-0.005901575,0.049988732,-0.113988996,-0.167545148,0.471910615,-0.942509547,0.448223352,0.166762382,-0.878229022,-0.21697855,-0.183316231,-0.538483918
475,37:41.9,1730438823.0,0.009180039,0.058561563,-0.115477562,-0.171867047,0.469484119,-0.946294094,0.445760757,0.171022192,-0.878663063,-0.222320855,-0.173704073,-0.524226665
476,37:41.9,1730438823.0,0.009275973,0.039211839,-0.102267027,-0.176253143,0.467178105,-0.949902541,0.443391293,0.175342008,-0.879010439,-0.244959801,-0.155961305,-0.506292641
477,37:42.0,1730438823.0,-0.006165296,0.022657111,-0.08632952,-0.180857138,0.465130709,-0.953088743,0.44122389,0.179872796,-0.879185557,-0.294316709,-0.142750949,-0.463457555
478,37:42.0,1730438823.0,-0.036263138,0.012314126,-0.049562573,-0.185448045,0.463135304,-0.95572576,0.43909514,0.184386909,-0.879316151,-0.264365524,-0.152594268,-0.399567932
479,37:42.0,1730438823.0,-0.043067038,0.005262628,-0.010360539,-0.189829891,0.462924048,-0.956598122,0.438544333,0.18869184,-0.878677547,-0.521558166,0.334948242,-0.329852521
480,37:42.0,1730438823.0,-0.054682583,-0.00090462,-0.004790902,-0.196596085,0.465973898,-0.958774986,0.440638423,0.195332125,-0.876175284,-0.358474165,0.239903212,-0.558364689
481,37:42.0,1730438823.0,-0.175160557,0.036934733,-0.105405986,-0.200302881,0.466220746,-0.960910565,0.440526187,0.19896616,-0.875413716,-0.236004978,0.015286613,-0.183119163
482,37:42.0,1730438823.0,-0.001276821,0.08866781,-0.216502726,-0.204502704,0.467516065,-0.962378086,0.441279292,0.203080252,-0.874088705,-0.328083962,0.199177623,-0.407780647
483,37:42.0,1730438823.0,0.093795091,0.061980277,-0.207729936,-0.207776277,0.468444856,-0.96500856,0.441788405,0.206284523,-0.873080611,-0.065358333,0.073223419,-0.34796235
484,37:42.0,1730438823.0,-0.020883858,0.087036446,-0.163807333,-0.209381487,0.467928027,-0.968448975,0.441187173,0.207854941,-0.873012125,0.078610495,-0.004018641,-0.374866813
485,37:42.0,1730438823.0,0.079227448,0.042099312,-0.03584522,-0.210614002,0.467922783,-0.97109418,0.441066712,0.209060371,-0.872785151,-0.096609257,0.191617966,-0.301698059
486,37:42.0,1730438823.0,0.004051983,-0.00027971,0.028770089,-0.213428978,0.469606549,-0.973041245,0.442267597,0.211812317,-0.871513009,-0.174814701,0.177872866,-0.240573928
487,37:42.1,1730438823.0,-0.133892417,-0.164145559,-0.088622034,-0.215445266,0.471272144,-0.973580704,0.443523765,0.213782415,-0.870392859,-0.142833069,0.208567932,-0.08280614
488,37:42.1,1730438823.0,-0.048602015,-0.076361656,-0.191383719,-0.216757421,0.47402338,-0.974339512,0.445788294,0.215064064,-0.868919015,-0.01442351,0.368065178,-0.160406604
489,37:42.1,1730438823.0,-0.039482892,0.146231964,-0.205850005,-0.217009052,0.477397928,-0.97615412,0.448693097,0.215309799,-0.867361605,0.14204146,0.386995733,-0.17830278
490,37:42.1,1730438823.0,-0.116128474,0.229226112,-0.117528677,-0.215757587,0.480530237,-0.978870194,0.451531917,0.214087516,-0.866190195,0.320715427,0.35907194,-0.172807306
491,37:42.1,1730438823.0,-0.000881851,0.202924177,-0.004173458,-0.212786236,0.483455815,-0.982240969,0.454357803,0.211184114,-0.865424931,0.522489786,0.3855142,-0.14413172
492,37:42.1,1730438823.0,0.019647598,0.194954574,0.066054344,-0.208297075,0.486399751,-0.986869827,0.457342148,0.206794083,-0.864912927,0.689638436,0.394463241,-0.249892175
493,37:42.1,1730438823.0,-0.030697972,0.175857618,0.080931306,-0.203099263,0.489043706,-0.992682685,0.460126072,0.201705858,-0.864637911,0.747367799,0.374492705,-0.250743061
494,37:42.1,1730438823.0,-0.07810688,0.185787708,0.090631962,-0.1974197,0.491905143,-0.998409706,0.463131905,0.196139812,-0.864313662,0.797648489,0.44088158,-0.199252218
495,37:42.1,1730438823.0,-0.091106951,0.117360324,0.064899445,-0.190398079,0.495824741,-1.003958828,0.467159808,0.189249799,-0.863681793,0.965398312,0.560608506,-0.08203771
496,37:42.1,1730438823.0,-0.172573656,0.140958309,0.007349432,-0.181167592,0.501368159,-1.009109961,0.472759843,0.18017818,-0.862574041,1.166785717,0.76979661,0.083501615
497,37:42.2,1730438823.0,-0.327818841,0.336974025,-0.08330375,-0.168259089,0.50926538,-1.013195468,0.480650902,0.167466283,-0.860772789,1.473770976,0.98756355,0.433226585
498,37:42.2,1730438823.0,-0.44045198,0.501410782,-0.151838124,-0.15243821,0.520116332,-1.016048281,0.491218001,0.151848525,-0.857698619,1.563352466,1.26821208,0.637727022
499,37:42.2,1730438823.0,-0.527911007,0.579581261,-0.193242252,-0.134400259,0.53307801,-1.017860013,0.503603816,0.13399601,-0.85348016,1.745992303,1.36551249,0.869733095
500,37:42.2,1730438823.0,-0.551617622,0.638016582,-0.148662627,-0.113938804,0.546420488,-1.018634009,0.516262949,0.11369244,-0.848850191,1.828519344,1.318873882,1.111631632
501,37:42.2,1730438823.0,-0.413005233,0.61952579,-0.09171021,-0.092428252,0.559683289,-1.01723968,0.528651655,0.092296705,-0.843806088,1.667305589,1.308865786,1.395381093
502,37:42.2,1730438823.0,-0.30945015,0.547712266,0.007010937,-0.071275054,0.572920757,-1.012334164,0.540712357,0.071214721,-0.838187695,1.38100636,1.257386804,1.709096909
503,37:42.2,1730438823.0,-0.249565244,0.461062789,0.116052151,-0.049883206,0.585597292,-1.003555699,0.552009761,0.049862519,-0.832345486,1.084366679,1.18343699,2.099626541
504,37:42.2,1730438823.0,-0.182917356,0.444601059,0.17728883,-0.028883174,0.597259519,-0.990443841,0.562143981,0.028879158,-0.826535046,0.913678467,1.058391929,2.474859476
505,37:42.2,1730438823.0,-0.14010942,0.498730779,0.190029502,-0.006976063,0.607501687,-0.972716023,0.57080406,0.006976007,-0.821056724,0.701181948,0.932102144,2.930072069
506,37:42.2,1730438823.0,-0.140812516,0.489766777,0.163598359,0.015936273,0.616075395,-0.950477147,0.57776314,-0.015935598,-0.816048861,0.488235027,0.798229575,3.353559971
507,37:42.3,1730438823.0,-0.130743086,0.47698158,0.166748762,0.039797256,0.622494084,-0.923805084,0.582601547,-0.039786752,-0.811783493,0.315319717,0.634900331,3.76110363
508,37:42.3,1730438823.0,-0.153650522,0.47065264,0.150160789,0.065104752,0.626168461,-0.89355682,0.584802866,-0.065058768,-0.808562279,0.269259721,0.419742227,4.100563526
509,37:42.3,1730438823.0,-0.129991889,0.445776433,0.142706573,0.092192984,0.626835119,-0.860822157,0.584093392,-0.092062436,-0.806448638,0.282366186,0.226309374,4.371330261
510,37:42.3,1730438823.0,-0.070509493,0.436255753,0.153669715,0.120645501,0.624160595,-0.82583636,0.580168307,-0.120353043,-0.805555642,0.252443761,-0.020906013,4.611107349
511,37:42.3,1730438823.0,-0.026626348,0.473181844,0.139600754,0.149133808,0.618123087,-0.788492595,0.573074102,-0.148581609,-0.805921555,0.088935539,-0.170244902,4.72774744
512,37:42.3,1730438823.0,0.006018043,0.45120585,0.131245494,0.176733813,0.609469988,-0.749074557,0.563516259,-0.17581521,-0.807179332,-0.050437596,-0.285084665,4.829505444
513,37:42.3,1730438823.0,0.022851229,0.33462742,0.11621201,0.203475477,0.59804575,-0.707634197,0.551413298,-0.202074319,-0.80938822,-0.184112832,-0.454499245,4.928059578
514,37:42.3,1730438823.0,0.014298797,0.25916487,0.070373297,0.228932794,0.583312929,-0.663732361,0.536421418,-0.226938292,-0.812865973,-0.376605839,-0.594107509,5.042375565
515,37:42.3,1730438823.0,0.038182914,0.223055407,0.067604423,0.252304548,0.565794323,-0.617648469,0.519113839,-0.249636203,-0.817436576,-0.545261681,-0.710439742,5.009557724
516,37:42.3,1730438823.0,0.062885106,0.277892321,0.125846386,0.273634409,0.546256168,-0.571259173,0.500164211,-0.270232409,-0.822684765,-0.557325304,-0.780815065,4.861399651
517,37:42.4,1730438823.0,0.043698013,0.331933975,0.151389897,0.293639915,0.525731432,-0.525708389,0.480365127,-0.289438248,-0.827934086,-0.463566571,-0.785362184,4.726995945
518,37:42.4,1730438823.0,0.007873833,0.253754616,0.145737469,0.313410488,0.504517885,-0.481270068,0.459838599,-0.308304787,-0.832764447,-0.273925632,-0.814289689,4.615890026
519,37:42.4,1730438823.0,-0.037478656,0.152398109,0.117679715,0.333277329,0.482555152,-0.438242867,0.43851018,-0.327141762,-0.837070525,-0.092191793,-0.850173116,4.466961384
520,37:42.4,1730438823.0,-0.074453384,0.062023222,0.097744346,0.353162876,0.460025627,-0.39678897,0.416570723,-0.345867217,-0.840740561,0.094633572,-0.852830708,4.314044476
521,37:42.4,1730438823.0,-0.076726407,-0.025644034,0.100105882,0.3729405,0.437354092,-0.356536042,0.394429654,-0.364355385,-0.843605578,0.184023112,-0.846531749,4.206714153
522,37:42.4,1730438823.0,-0.063510001,-0.131355494,0.068347692,0.391723921,0.413687987,-0.316329769,0.371539176,-0.381782323,-0.846286535,0.140132725,-0.86341542,4.149947166
523,37:42.4,1730438823.0,-0.060966939,-0.19389087,0.029648602,0.408551413,0.389607348,-0.276029149,0.348564565,-0.397280395,-0.848923504,0.066456892,-0.807730079,3.990368128
524,37:42.4,1730438823.0,-0.048007846,-0.20189324,0.029808998,0.423624854,0.366345038,-0.237541074,0.326541781,-0.411067575,-0.851113319,0.151327237,-0.739800811,3.668868065
525,37:42.4,1730438823.0,-0.064948946,-0.139424831,-0.004986167,0.43764503,0.344522966,-0.202154751,0.305915743,-0.423807621,-0.852527201,0.236387804,-0.667731941,3.355392456
526,37:42.4,1730438823.0,-0.099924564,-0.164610714,-0.04263413,0.450646942,0.32425947,-0.169470902,0.286798984,-0.435547978,-0.853255153,0.275208443,-0.58032912,3.086725235
527,37:42.5,1730438823.0,-0.115427524,-0.267496109,-0.064995646,0.462211414,0.305423534,-0.138971367,0.269144565,-0.445928574,-0.85364449,0.219810963,-0.49036938,2.84987855
528,37:42.5,1730438823.0,-0.134761721,-0.351031363,-0.048558116,0.471856997,0.288041201,-0.110194452,0.253032625,-0.454541147,-0.854029775,0.132093877,-0.398928136,2.639186621
529,37:42.5,1730438823.0,-0.135007083,-0.409540594,0.002212524,0.47967639,0.272090216,-0.083102101,0.238415912,-0.461492121,-0.854507446,0.030625317,-0.30948481,2.434633017
530,37:42.5,1730438823.0,-0.111639261,-0.464874476,0.018778384,0.485578833,0.257481911,-0.057525615,0.225210443,-0.466720372,-0.855249882,-0.066128142,-0.2458864,2.253969669
531,37:42.5,1730438823.0,-0.094384223,-0.502358556,-0.006698489,0.490094944,0.243922701,-0.033620158,0.213082358,-0.470709652,-0.856170774,-0.098254383,-0.227985427,2.07223773
532,37:42.5,1730438823.0,-0.086207286,-0.474386156,-0.011577606,0.493664502,0.2312252,-0.011558612,0.201807886,-0.473856032,-0.85716629,-0.117023401,-0.226664498,1.883905411
533,37:42.5,1730438823.0,-0.073182896,-0.436959982,-0.006471455,0.496434862,0.219371512,0.008581755,0.191346958,-0.476293802,-0.858213603,-0.13408947,-0.226302043,1.706124187
534,37:42.5,1730438823.0,-0.071115911,-0.378185183,0.000368059,0.498637746,0.208446448,0.026900303,0.181742117,-0.478229612,-0.8592242,-0.10578841,-0.206341118,1.53576982
535,37:42.5,1730438823.0,-0.078157365,-0.330042571,0.000120997,0.50089914,0.1986977,0.043128073,0.173143342,-0.480214417,-0.859892726,-0.031037468,-0.18689099,1.348324299
536,37:42.5,1730438823.0,-0.094505101,-0.289835155,-0.037544489,0.503301892,0.190146352,0.057217704,0.165565297,-0.482320607,-0.860206366,0.025772128,-0.168177217,1.177404523
537,37:42.6,1730438823.0,-0.133485988,-0.249490172,-0.084035397,0.505708133,0.182710272,0.069508162,0.158952892,-0.484427065,-0.860269964,0.037900694,-0.12149334,1.032408476
538,37:42.6,1730438823.0,-0.168475673,-0.236318201,-0.113686502,0.507666861,0.176648086,0.080289741,0.153567851,-0.486139685,-0.860282004,0.001805369,-0.043747146,0.895433962
539,37:42.6,1730438823.0,-0.189948782,-0.251518071,-0.132833242,0.508904623,0.172109673,0.089612933,0.149558797,-0.487220973,-0.860376596,-0.038611297,0.042537678,0.757704854
540,37:42.6,1730438823.0,-0.205847904,-0.251776785,-0.128207564,0.509604461,0.169001983,0.097484821,0.146826908,-0.48783201,-0.860500932,-0.059343658,0.103297167,0.62704432
541,37:42.6,1730438823.0,-0.209742263,-0.237215489,-0.113183498,0.509871683,0.167116328,0.103961987,0.145182341,-0.488065243,-0.860647678,-0.082930215,0.151271075,0.502425432
542,37:42.6,1730438823.0,-0.201641262,-0.213266641,-0.091783524,0.509566013,0.16629152,0.109218263,0.144497111,-0.487798452,-0.86091423,-0.129263818,0.195943475,0.401207834
543,37:42.6,1730438823.0,-0.18971391,-0.187689215,-0.068181157,0.508731418,0.166343157,0.1136689,0.14460893,-0.487069696,-0.861307979,-0.160135716,0.246083871,0.341814816
544,37:42.6,1730438824.0,-0.183490619,-0.162289053,-0.052517056,0.507659432,0.167095501,0.117659788,0.145343646,-0.486133188,-0.86171329,-0.161055282,0.287670195,0.314326465
545,37:42.6,1730438824.0,-0.175344378,-0.140194088,-0.038554132,0.5066647,0.168261217,0.12139995,0.146428972,-0.485263675,-0.862019539,-0.145733312,0.30727905,0.297214061
546,37:42.6,1730438824.0,-0.160522297,-0.109869689,-0.03208065,0.505920378,0.169617756,0.12487837,0.147659123,-0.484612733,-0.862175882,-0.101993538,0.296943873,0.277469546
547,37:42.7,1730438824.0,-0.140914693,-0.071243852,-0.025620937,0.505560788,0.170946241,0.128104143,0.14883402,-0.48429814,-0.862150669,-0.068790317,0.280231446,0.266878158
548,37:42.7,1730438824.0,-0.119597241,-0.058704466,-0.010645092,0.505434899,0.172118971,0.131169773,0.149855435,-0.48418802,-0.862035573,-0.052592453,0.248226658,0.255074888
549,37:42.7,1730438824.0,-0.094695196,-0.062693,0.01146996,0.505428045,0.173021455,0.133982587,0.150633916,-0.484182,-0.86190325,-0.034956202,0.2026328,0.233446315
550,37:42.7,1730438824.0,-0.080037653,-0.047355354,0.031131029,0.505535602,0.173640999,0.13662922,0.151158869,-0.484276116,-0.861758471,-0.020673871,0.178723738,0.222863182
551,37:42.7,1730438824.0,-0.067179844,-0.037185729,0.04843241,0.505857884,0.174050442,0.139069659,0.151484668,-0.484558076,-0.861542761,0.006620865,0.142505825,0.20667915
552,37:42.7,1730438824.0,-0.058533922,-0.038568407,0.045553327,0.506230924,0.174252986,0.141354882,0.151627809,-0.484884351,-0.861333966,0.001500972,0.12352068,0.199080825
553,37:42.7,1730438824.0,-0.059208646,-0.050482869,0.026918292,0.506635291,0.174314055,0.143563489,0.151646391,-0.485237956,-0.861131489,0.011257462,0.110678114,0.198705584
554,37:42.7,1730438824.0,-0.059993669,-0.054731786,0.021105409,0.507081086,0.174312403,0.145687449,0.151607439,-0.485627711,-0.860918641,0.012349185,0.096251242,0.18112053
555,37:42.7,1730438824.0,-0.059566677,-0.051443696,0.007859111,0.507560968,0.174217849,0.147549741,0.151485622,-0.486047149,-0.860703349,0.02454007,0.069258772,0.15687564
556,37:42.7,1730438824.0,-0.053870514,-0.037065685,0.003916025,0.508089695,0.173998265,0.1491838,0.151252106,-0.486509144,-0.860483408,0.028939722,0.050352722,0.140890285
557,37:42.8,1730438824.0,-0.044678733,-0.030103058,0.015018404,0.508653921,0.173762736,0.1505836,0.15100196,-0.487002015,-0.860248506,0.038651738,0.041655373,0.119745322
558,37:42.8,1730438824.0,-0.040637642,-0.018124759,0.028597832,0.509265703,0.173541715,0.151770801,0.150760338,-0.487536252,-0.859988213,0.047909655,0.029208554,0.109636709
559,37:42.8,1730438824.0,-0.041512847,-0.005739391,0.032995939,0.509924466,0.173239844,0.152909961,0.150445342,-0.488111317,-0.859717131,0.048398077,0.017806763,0.10701669
560,37:42.8,1730438824.0,-0.041775644,-0.002625704,0.032081246,0.510589956,0.172829616,0.153993817,0.150036752,-0.488692045,-0.859458625,0.051479541,0.00581082,0.105386086
561,37:42.8,1730438824.0,-0.040495157,-0.004053146,0.027705848,0.511437548,0.172114778,0.155122181,0.149351344,-0.489431351,-0.859157264,0.058338515,-0.01538022,0.10622365
562,37:42.8,1730438824.0,-0.042546213,0.006875455,0.021821856,0.51243901,0.171082862,0.156328842,0.148381174,-0.49030441,-0.858827472,0.063065045,-0.034843929,0.109108172
563,37:42.8,1730438824.0,-0.043965399,0.022031188,0.026310384,0.513494069,0.169781422,0.157652636,0.147175834,-0.491223693,-0.858509481,0.057991721,-0.037766751,0.110939898
564,37:42.8,1730438824.0,-0.039791852,0.021611273,0.029745102,0.514431224,0.168547136,0.158938039,0.146038786,-0.49203977,-0.858236313,0.062551841,-0.042923961,0.115270831
565,37:42.8,1730438824.0,-0.036515936,0.021703154,0.032591343,0.51544847,0.167298768,0.160186423,0.144883856,-0.492925107,-0.857923925,0.085457958,-0.061739728,0.117287114
566,37:42.8,1730438824.0,-0.029562443,0.018567383,0.031411171,0.516614991,0.165938823,0.16135688,0.143621922,-0.493939728,-0.857552528,0.096032321,-0.078541346,0.112335972
567,37:42.9,1730438824.0,-0.017614216,0.015407711,0.030775964,0.517912779,0.164459408,0.162452664,0.14224802,-0.495067716,-0.857130945,0.117744803,-0.093876891,0.110156447
568,37:42.9,1730438824.0,-0.009617075,0.019289583,0.029452562,0.519307805,0.162843994,0.163510686,0.140751109,-0.496279329,-0.856677294,0.118477233,-0.105904259,0.108125359
569,37:42.9,1730438824.0,-0.006335482,0.025580496,0.018762648,0.520613872,0.161165717,0.164584016,0.139209047,-0.497412771,-0.856271803,0.101283066,-0.110847883,0.106945045
570,37:42.9,1730438824.0,-0.00624758,0.028202355,0.009396434,0.521701715,0.159488659,0.165660862,0.137686804,-0.498356193,-0.85596931,0.083507068,-0.104711428,0.104366623
571,37:42.9,1730438824.0,-0.009339616,0.024080873,0.010838449,0.52258006,0.157833723,0.166779753,0.136201188,-0.499117494,-0.855763376,0.064971201,-0.10193029,0.102899224
572,37:42.9,1730438824.0,-0.007889733,0.017116994,0.010668576,0.523295392,0.156258125,0.167906995,0.134797096,-0.499737233,-0.85562402,0.054534439,-0.096821815,0.10997083
573,37:42.9,1730438824.0,-0.008635819,0.010713398,0.009080827,0.523917914,0.154653979,0.169109429,0.13337642,-0.500276327,-0.855531633,0.041802932,-0.09614484,0.112902701
574,37:42.9,1730438824.0,-0.008532062,0.016028583,0.00650692,0.524487884,0.153067727,0.17034103,0.131975681,-0.500769794,-0.855460167,0.041702859,-0.093200445,0.113684654
575,37:42.9,1730438824.0,-0.00476785,0.02406466,0.008789957,0.525098872,0.151504254,0.171533355,0.130591825,-0.501298547,-0.855362833,0.052254304,-0.095099814,0.11012321
576,37:42.9,1730438824.0,0.001997605,0.0242576,0.006858766,0.525815748,0.150008476,0.172678935,0.129258499,-0.501918733,-0.855201662,0.060154162,-0.092359684,0.110138603
577,37:43.0,1730438824.0,0.000882804,0.01889807,0.003432393,0.526482003,0.148568851,0.173793133,0.127977669,-0.502494872,-0.855055928,0.051038962,-0.083918266,0.103052996
578,37:43.0,1730438824.0,-0.003152028,0.015691757,-0.000184536,0.527026971,0.147285212,0.174816503,0.126839772,-0.502965987,-0.854948521,0.042494837,-0.072731659,0.092549972
579,37:43.0,1730438824.0,-0.008414,0.019755602,-0.005050898,0.52740351,0.146154788,0.175778307,0.125845656,-0.503291368,-0.854903936,0.015223802,-0.052343827,0.086694211
580,37:43.0,1730438824.0,-0.013600215,0.010806501,-0.010436952,0.527447862,0.145246274,0.176732513,0.125065669,-0.503329694,-0.854995787,-0.022165272,-0.033281188,0.078892745
581,37:43.0,1730438824.0,-0.015915476,-0.001328051,-0.01181829,0.527107987,0.144588085,0.177690244,0.124527544,-0.503035963,-0.85524714,-0.065100752,-0.005421328,0.074610114
582,37:43.0,1730438824.0,-0.017962694,-0.008046687,-0.011037648,0.526396326,0.144102821,0.178636568,0.124163881,-0.502420783,-0.855661571,-0.086687855,0.002872555,0.065759897
583,37:43.0,1730438824.0,-0.015263356,-0.010458529,-0.009366751,0.525530725,0.143817749,0.179439685,0.123982236,-0.501672208,-0.856127024,-0.085256137,0.01731248,0.05326914
584,37:43.0,1730438824.0,-0.005632952,-0.010867119,-0.004170418,0.524705828,0.143728262,0.180055773,0.123964854,-0.500958443,-0.856547356,-0.068496503,0.012875387,0.040812153
585,37:43.0,1730438824.0,0.004853413,-0.003083944,0.002313375,0.52403738,0.143579133,0.180582871,0.123885006,-0.500379801,-0.856897056,-0.056789249,0.005459549,0.035022441
586,37:43.0,1730438824.0,0.011321753,0.011860907,0.005294323,0.523569122,0.143434836,0.180970999,0.123794839,-0.49997431,-0.85714674,-0.025276158,0.00526647,0.020456335
587,37:43.1,1730438824.0,0.013876021,0.026386976,0.004301608,0.523339726,0.143373061,0.181192756,0.123758264,-0.499775648,-0.857267857,-0.000437655,0.013364344,0.005155674
588,37:43.1,1730438824.0,0.010456555,0.028648734,0.001559019,0.523378983,0.143306883,0.181334931,0.123698734,-0.499809653,-0.857256651,0.014538696,0.009734722,0.01135514
589,37:43.1,1730438824.0,0.005874753,0.022679567,-0.00071919,0.523534103,0.143217865,0.181475183,0.123611361,-0.499944001,-0.857190907,0.013582887,0.007961056,0.004914286
590,37:43.1,1730438824.0,0.003621891,0.018947959,0.000349402,0.523612409,0.143146809,0.181638548,0.123544864,-0.500011802,-0.857160985,-0.008107355,0.019812122,0.008768199
591,37:43.1,1730438824.0,0.002130762,0.010575205,0.005415022,0.523458847,0.143146895,0.181888262,0.123555884,-0.499878824,-0.857236922,-0.036026072,0.024670526,0.01560773
592,37:43.1,1730438824.0,0.001158997,0.001574934,0.007000923,0.52303882,0.14323097,0.182187966,0.123657919,-0.499514997,-0.857434273,-0.067270055,0.030430678,0.018847039
593,37:43.1,1730438824.0,0.005989693,-0.000570595,0.009163141,0.522323729,0.143410211,0.182498009,0.123862624,-0.498895377,-0.857765436,-0.087026983,0.031377167,0.018496035
594,37:43.1,1730438824.0,0.007897511,0.004743069,0.011901736,0.521412592,0.143654046,0.182814677,0.124136791,-0.498105526,-0.858184695,-0.093500309,0.035855804,0.021870952
595,37:43.1,1730438824.0,0.008725844,0.008581102,0.009607017,0.520401533,0.143902707,0.183182838,0.124422349,-0.497228563,-0.858651757,-0.090985484,0.033688791,0.025084589
596,37:43.1,1730438824.0,0.007100739,0.011870742,0.006998777,0.519497665,0.144032076,0.183606131,0.124597885,-0.496444136,-0.859080076,-0.070516504,0.023263846,0.030037375
597,37:43.2,1730438824.0,0.002922378,0.018239468,0.009344578,0.518836501,0.144098602,0.184041532,0.124702148,-0.495870084,-0.859396458,-0.048022907,0.023697142,0.02767808
598,37:43.2,1730438824.0,0.001175575,0.016303092,0.005165637,0.518451657,0.144128469,0.184416029,0.124755211,-0.495535851,-0.85958153,-0.021707835,0.016812604,0.027341297
599,37:43.2,1730438824.0,-0.002285756,0.018462241,0.006223619,0.518355108,0.14409993,0.184765736,0.124737553,-0.495451987,-0.859632432,-0.006258305,0.011649001,0.029024148
600,37:43.2,1730438824.0,-0.002011351,0.012574911,0.010884583,0.518410757,0.144069332,0.185109952,0.124707289,-0.495500326,-0.859608948,0.002837627,0.013759824,0.030139001
601,37:43.2,1730438824.0,-0.000733711,0.001604289,0.013023496,0.518586946,0.144088675,0.185355936,0.124711379,-0.495653361,-0.859520078,0.010567451,0.009597302,0.021734864
602,37:43.2,1730438824.0,-0.00305602,0.00507462,0.009591997,0.518735092,0.144104409,0.185537647,0.12471436,-0.495782018,-0.859445512,0.006466528,0.0042052,0.020727657
603,37:43.2,1730438824.0,-0.005476393,0.010264665,0.005892932,0.51919432,0.14381612,0.185781333,0.124433935,-0.496180803,-0.85925597,0.16995053,-0.106235556,0.05788701
604,37:43.2,1730438824.0,-0.00379473,0.007720828,0.005633175,0.521520797,0.142583128,0.185923665,0.12321002,-0.498199344,-0.858263791,0.055334482,-0.086467445,0.014212392
605,37:43.2,1730438824.0,-0.00263828,0.000698566,0.016876161,0.521781089,0.142306066,0.185775292,0.122953825,-0.498425007,-0.858169496,0.079297341,-0.026553778,-0.024489729
606,37:43.2,1730438824.0,0.001714557,0.017436475,0.033982337,0.522061584,0.142039923,0.185672729,0.122705631,-0.498668164,-0.858063757,-0.031460471,-0.020380305,0.019560233
607,37:43.3,1730438824.0,0.000515394,0.002494186,0.023807108,0.521335456,0.14170629,0.185990656,0.122470453,-0.49803862,-0.85846287,-0.089638561,-0.020113455,0.008124087
608,37:43.3,1730438824.0,-0.010927722,-0.019553155,0.012183607,0.520387365,0.141627568,0.186281778,0.12246947,-0.497216254,-0.858939588,-0.103486069,0.029528134,0.020165304
609,37:43.3,1730438824.0,-0.003878005,0.005699784,0.007765532,0.519226632,0.141870033,0.186835339,0.122759245,-0.496208847,-0.859480619,-0.137306094,0.063974261,0.04883796
610,37:43.3,1730438824.0,-0.018425554,-0.004003793,-0.006655455,0.518278947,0.141941625,0.187525319,0.122887246,-0.495385826,-0.859936953,-0.063908979,0.016455742,0.036065761
611,37:43.3,1730438824.0,-0.030818976,-0.020921767,-0.011526883,0.51800258,0.141834203,0.187675639,0.122814223,-0.495145738,-0.860085666,0.010750081,-0.020197878,-0.016066417
612,37:43.3,1730438824.0,-0.011211179,-0.009961933,-0.005298436,0.518376008,0.141686878,0.187285242,0.122661389,-0.495470166,-0.859920621,0.063341275,-0.040832315,-0.035978124
613,37:43.3,1730438870.0,0.014119789,0.027569622,-0.001825094,0.128432049,0.181007126,-0.011671312,0.178537682,-0.128079265,-0.97556138,0.086585648,0.010998658,-0.018674504
614,37:43.3,1730438870.0,-0.003938392,0.009601414,-0.008575499,0.129146522,0.181218982,-0.01195927,0.178727821,-0.128787816,-0.97543329,0.066920154,0.027417578,-0.012517967
615,37:43.3,1730438870.0,-0.008709148,0.001637548,-0.009966135,0.129609368,0.181584467,-0.012240796,0.179073527,-0.129246801,-0.975309134,0.040233951,0.03973097,-0.026650831
616,37:43.3,1730438870.0,-0.002194837,0.001644298,-0.009119987,0.12980084,0.182090942,-0.012571953,0.179562986,-0.129436657,-0.975193977,0.008198678,0.056012206,-0.031140922
617,37:43.4,1730438870.0,-0.001472771,0.000825047,-0.004683495,0.129728666,0.182757037,-0.012883753,0.180214211,-0.129365087,-0.975083351,-0.011954261,0.070569314,-0.030538781
618,37:43.4,1730438870.0,-0.008057863,-0.002005234,-0.002222002,0.129598095,0.183498184,-0.01313122,0.180939928,-0.129235625,-0.974966109,-0.002908661,0.070561059,-0.025832549
619,37:43.4,1730438870.0,-0.008828744,-0.001696005,-0.003706038,0.12961755,0.184179821,-0.013422642,0.181603998,-0.129254907,-0.974840045,0.019677607,0.058364842,-0.031553019
620,37:43.4,1730438870.0,-0.005254671,0.00253658,-0.002081633,0.129885098,0.184793215,-0.013788928,0.182195559,-0.129520208,-0.974694431,0.038970079,0.054852664,-0.030546878
621,37:43.4,1730438870.0,-0.002302885,0.009606034,0.0058828,0.130305284,0.185422761,-0.014158472,0.182799086,-0.129936844,-0.974525988,0.054275535,0.055578645,-0.026229093
622,37:43.4,1730438870.0,-0.001613885,0.009269744,0.006139696,0.130750968,0.186042019,-0.0145331,0.183391809,-0.130378738,-0.974355578,0.042666547,0.055256668,-0.030772448
623,37:43.4,1730438870.0,-0.002580464,0.001650915,0.005546212,0.131084844,0.186713539,-0.014888356,0.184037983,-0.130709752,-0.974189401,0.038994048,0.06618841,-0.024956634
624,37:43.4,1730438870.0,-0.000295132,-0.00118126,0.010697484,0.131383291,0.187366801,-0.015174225,0.184667066,-0.13100563,-0.974030614,0.03183201,0.066955931,-0.021621559
625,37:43.4,1730438870.0,0.000867337,0.004695281,0.011366725,0.131585302,0.187979998,-0.015411971,0.185259357,-0.131205902,-0.973891139,0.014577921,0.052863818,-0.019474784
626,37:43.4,1730438870.0,0.002964929,0.012810811,0.013093591,0.131706266,0.188539805,-0.015639318,0.185801536,-0.131325826,-0.973771691,0.018364076,0.054405253,-0.020507665
627,37:43.5,1730438870.0,0.003312796,0.01002197,0.014908612,0.131879131,0.18908016,-0.015844561,0.186323419,-0.131497189,-0.973648846,0.021994494,0.048188638,-0.011965308
628,37:43.5,1730438870.0,-0.001271576,0.012318745,0.016845465,0.132010297,0.189403847,-0.015948788,0.18663533,-0.131627217,-0.973571539,0.012155384,0.032089561,-0.004488111
629,37:43.5,1730438870.0,0.002076522,0.016075879,0.01867187,0.131936843,0.189724537,-0.016056877,0.186949357,-0.131554395,-0.973521113,-0.007822853,0.043929443,-0.01810725
630,37:43.5,1730438870.0,0.004171193,0.002031237,0.020254135,0.131776298,0.190186334,-0.016161562,0.187402889,-0.131395251,-0.973455429,-0.007854637,0.043423977,-0.005077789
631,37:43.5,1730438870.0,-0.004313678,-0.003798306,0.017149925,0.131775612,0.190547857,-0.016165475,0.187754825,-0.131394565,-0.973387718,0.006833496,0.031703938,-0.00269346
632,37:43.5,1730438870.0,0.000114307,0.002861485,0.009755194,0.131844196,0.190875811,-0.016271089,0.188072324,-0.131462559,-0.973317206,0.009990735,0.03369385,-0.016963424
633,37:43.5,1730438871.0,0.003121659,0.005476907,0.00938046,0.13188119,0.191220254,-0.016448221,0.188406646,-0.131499231,-0.973247588,0.006844476,0.036966875,-0.009927884
634,37:43.5,1730438871.0,0.000908911,0.00499478,0.006373942,0.131810449,0.191594965,-0.016515363,0.188773096,-0.131429106,-0.973186076,0.00224529,0.041606102,-0.008143193
635,37:43.5,1730438871.0,0.006737098,0.007743537,-0.011515737,0.131781864,0.191971222,-0.016614525,0.189139962,-0.131400764,-0.973118663,0.005035751,0.028928654,-0.011238053
636,37:43.5,1730438871.0,0.003737167,0.008753404,-0.037543356,0.131707714,0.19232376,-0.016758537,0.189484879,-0.131327257,-0.973061502,-0.009965146,0.038990345,-0.018794505
637,37:43.6,1730438871.0,-0.003092006,0.009049654,-0.036091864,0.131313898,0.192902541,-0.016908095,0.190057933,-0.130936846,-0.973002315,-0.045512486,0.072392508,-0.022498429
638,37:43.6,1730438871.0,-0.006898478,0.00459297,-0.02132529,0.130743344,0.193867396,-0.01697808,0.191011012,-0.130371183,-0.972891629,-0.066362217,0.108427212,-0.014109793
639,37:43.6,1730438871.0,-0.003425553,-0.007308304,-0.024170101,0.130005232,0.195030965,-0.016884813,0.1921615,-0.129639328,-0.972762883,-0.089304015,0.124394462,-0.000185455
640,37:43.6,1730438871.0,0.001286909,-0.016971856,-0.052347183,0.129000257,0.196293924,-0.016770531,0.193415225,-0.128642768,-0.972646713,-0.118410744,0.131138921,-0.022017252
641,37:43.6,1730438871.0,0.00579524,-0.029393926,-0.074071944,0.127629538,0.197788953,-0.016910891,0.194903612,-0.12728332,-0.972528398,-0.138209745,0.162874743,-0.056088399
642,37:43.6,1730438871.0,0.00288415,-0.050108895,-0.087832272,0.126082441,0.199377652,-0.017354416,0.196487173,-0.125748649,-0.972409427,-0.1482016,0.147433206,-0.096694842
643,37:43.6,1730438871.0,-0.015370905,-0.036780298,-0.102764606,0.124290814,0.200922541,-0.018198616,0.198033854,-0.123971052,-0.972323895,-0.169883713,0.156751871,-0.13919197
644,37:43.6,1730438871.0,-0.040622458,-0.006282598,-0.093679667,0.122179726,0.202860385,-0.019216305,0.199969977,-0.121875972,-0.972192526,-0.211749896,0.21871537,-0.141632855
645,37:43.6,1730438871.0,-0.051506296,-0.005568251,-0.092952251,0.119486988,0.205449908,-0.020084925,0.202553034,-0.119202867,-0.971989155,-0.275093973,0.295402169,-0.137926266
646,37:43.6,1730438871.0,-0.032763019,-0.031093106,-0.108515024,0.116248007,0.208912119,-0.020854023,0.205996037,-0.115986362,-0.971654654,-0.340798497,0.380376965,-0.144693255
647,37:43.7,1730438871.0,-0.017700925,-0.054739624,-0.166037679,0.111890787,0.213280012,-0.021187454,0.210343122,-0.111657463,-0.971230328,-0.501116276,0.480065465,-0.094629563
648,37:43.7,1730438871.0,-0.010184377,-0.109681852,-0.256951571,0.106047203,0.21814324,-0.020455588,0.215201467,-0.105848551,-0.970816374,-0.677410305,0.502265036,-0.0162114
649,37:43.7,1730438871.0,0.004500821,-0.146049231,-0.301962316,0.098632705,0.223137977,-0.018796491,0.22021535,-0.098472863,-0.970468104,-0.84520328,0.540776193,0.005864075
650,37:43.7,1730438871.0,0.007816121,-0.113438763,-0.263237357,0.089224743,0.228780151,-0.016600268,0.225887492,-0.089106403,-0.970069528,-1.096711993,0.634045422,-0.003733158
651,37:43.7,1730438871.0,-0.016756937,-0.098198943,-0.18667227,0.076818605,0.235229535,-0.013788102,0.23237887,-0.076743074,-0.969592988,-1.460105419,0.704152346,-0.026041392
652,37:43.7,1730438871.0,-0.057422385,-0.089369267,-0.150857151,0.060600682,0.242388923,-0.010310816,0.239581794,-0.060563598,-0.968985379,-1.863550186,0.780510485,-0.065435618
653,37:43.7,1730438871.0,-0.082861438,-0.065078124,-0.14485836,0.040462697,0.250438372,-0.006066499,0.247625828,-0.040451657,-0.968010902,-2.244357586,0.866951108,-0.096811116
654,37:43.7,1730438871.0,-0.112828046,-0.06191007,-0.160106122,0.016917639,0.259047538,-0.001087381,0.256123334,-0.016916832,-0.96649605,-2.563644171,0.878247976,-0.128425926
655,37:43.7,1730438871.0,-0.126154959,-0.109960943,-0.167558014,-0.0090547,0.267481773,0.004365226,0.264292777,0.009054576,-0.964399993,-2.719089031,0.808147192,-0.174843758
656,37:43.7,1730438871.0,-0.085851729,-0.176720411,-0.103875339,-0.035813161,0.274979185,0.009623674,0.271352798,0.035805505,-0.961813748,-2.711908817,0.661324203,-0.252783656
657,37:43.8,1730438871.0,-0.024984211,-0.192591384,0.019224763,-0.062168775,0.280781283,0.014101122,0.276571095,0.062128738,-0.958983004,-2.607813358,0.454382211,-0.335508108
658,37:43.8,1730438871.0,0.016678154,-0.144511133,0.146049261,-0.087478494,0.284640951,0.017539324,0.279739082,0.087366968,-0.956092596,-2.446956635,0.264756083,-0.410254419
659,37:43.8,1730438871.0,0.032731771,-0.100383051,0.255002558,-0.111201698,0.286692498,0.020243171,0.281034678,0.110972658,-0.953260005,-2.269315004,0.102702215,-0.409291148
660,37:43.8,1730438871.0,0.023700923,-0.076300934,0.324970901,-0.133305511,0.287459825,0.02258625,0.281001836,0.132911041,-0.950459182,-2.115514994,0.000689561,-0.399321407
661,37:43.8,1730438871.0,-0.00094381,-0.068991676,0.368304491,-0.154042316,0.287432204,0.024704533,0.280133873,0.15343383,-0.947619677,-1.991592526,-0.067470849,-0.374956131
662,37:43.8,1730438871.0,-0.01421991,-0.071156159,0.386563063,-0.173821519,0.286641186,0.026850054,0.278471589,0.172947541,-0.944744766,-1.925725937,-0.170086712,-0.333571464
663,37:43.8,1730438871.0,0.001504779,-0.06785205,0.380334496,-0.192917319,0.285004266,0.029493782,0.275945753,0.1917229,-0.941857874,-1.894716859,-0.249985278,-0.237685159
664,37:43.8,1730438871.0,0.019720018,-0.065804139,0.35743022,-0.211481036,0.28280857,0.03309862,0.272836745,0.209908172,-0.938881636,-1.877141356,-0.336028814,-0.123318784
665,37:43.8,1730438871.0,0.021790385,-0.061612234,0.320818901,-0.22935886,0.280065079,0.037486018,0.269179463,0.227353215,-0.935870171,-1.778136253,-0.405687779,-0.058747247
666,37:43.8,1730438871.0,0.036484659,-0.029839545,0.289237797,-0.24585563,0.276176786,0.04174951,0.264479697,0.243386313,-0.933173954,-1.628943682,-0.574573755,-0.047854017
667,37:43.9,1730438871.0,0.060765326,0.002304375,0.246677995,-0.260788796,0.270692265,0.045789191,0.258356988,0.257842749,-0.931004167,-1.462397337,-0.72375977,-0.003580826
668,37:43.9,1730438871.0,0.064279407,0.031854212,0.221431911,-0.27425971,0.263889955,0.049535826,0.251089245,0.270834386,-0.929302394,-1.331472993,-0.825832069,-0.013345677
669,37:43.9,1730438871.0,0.048255891,0.065643638,0.204369903,-0.286416117,0.256180186,0.052772749,0.24306491,0.282516152,-0.927956939,-1.179482698,-0.895334721,-0.00247066
670,37:43.9,1730438871.0,0.028681234,0.094962478,0.181694031,-0.296940045,0.24781118,0.05584102,0.234548122,0.292595536,-0.927024841,-1.006340384,-0.954846025,0.05063815
671,37:43.9,1730438871.0,0.013196394,0.11006096,0.164181232,-0.305576476,0.238974841,0.059089914,0.225740984,0.300843,-0.926571369,-0.811660111,-1.00666225,0.146974012
672,37:43.9,1730438871.0,0.00045988,0.1283454,0.153529465,-0.311593559,0.229844878,0.062891624,0.216855779,0.306575835,-0.926814318,-0.500034273,-1.038959503,0.275507212
673,37:43.9,1730438871.0,-0.012501836,0.156638592,0.123011768,-0.313786959,0.220867411,0.066334218,0.208378896,0.308662891,-0.928065419,-0.091429695,-0.971545637,0.254998207
674,37:43.9,1730438871.0,-0.051288053,0.218114763,0.070409,-0.312794083,0.212812649,0.069335991,0.2009615,0.307718337,-0.930012822,0.134707212,-0.832581878,0.361190289
675,37:43.9,1730438871.0,-0.118675619,0.223005801,0.016052246,-0.309884151,0.206063694,0.072880075,0.194862738,0.3049483,-0.932220459,0.302911401,-0.736210346,0.416923851
676,37:43.9,1730438871.0,-0.119890362,0.141510576,-0.042657733,-0.305607167,0.200333532,0.076297804,0.189775601,0.300872266,-0.934591413,0.397114366,-0.63312763,0.387632519
677,37:44.0,1730438871.0,-0.110011041,0.098551244,-0.070018709,-0.301024519,0.195049157,0.079162875,0.185099527,0.296498805,-0.93692404,0.387563199,-0.633538008,0.316093087
678,37:44.0,1730438871.0,-0.07834518,0.035819948,-0.063454151,-0.296875627,0.189736858,0.081846869,0.180350184,0.292533934,-0.939094067,0.30472213,-0.552744627,0.315498948
679,37:44.0,1730438871.0,-0.010226205,-0.039686799,-0.056146443,-0.293867705,0.185500513,0.084649007,0.176531747,0.289656281,-0.940710247,0.196982607,-0.466019034,0.350458801
680,37:44.0,1730438871.0,-0.086118758,-0.048800528,-0.072363734,-0.291640956,0.182031573,0.088017572,0.173383743,0.287524283,-0.94194895,0.137896925,-0.438242525,0.345191866
681,37:44.0,1730438871.0,-0.065203443,-0.05506891,-0.042954087,-0.289631117,0.178365278,0.091149182,0.170031309,0.285598725,-0.943145156,0.157701254,-0.477716178,0.325235188
682,37:44.0,1730438871.0,-0.001354814,-0.021000475,-0.023595095,-0.287439253,0.174330602,0.094253772,0.166332841,0.283497483,-0.944437683,0.167620987,-0.50953722,0.344183058
683,37:44.0,1730438871.0,0.001462579,-0.009305239,0.001954556,-0.285189127,0.170023485,0.097538462,0.162371024,0.28133893,-0.945771694,0.172560439,-0.539955616,0.348612905
684,37:44.0,1730438871.0,0.008452207,-0.01994586,0.014135063,-0.283032721,0.165337026,0.100830799,0.158036426,0.27926898,-0.947118402,0.141248748,-0.589150846,0.349760413
685,37:44.0,1730438871.0,0.005790189,-0.022736311,0.015267372,-0.28191855,0.160525126,0.104531678,0.153526813,0.278198957,-0.948174477,-0.077018872,-0.625085652,0.408774465
686,37:44.0,1730438871.0,-0.014209077,-0.073714077,-0.007395506,-0.28266337,0.155969062,0.108889338,0.149173051,0.278914303,-0.948659182,-0.274476737,-0.472855359,0.342334509
687,37:44.1,1730438871.0,-0.08813715,-0.224247217,-0.054811478,-0.287900341,0.153182009,0.112140269,0.146303639,0.2839396,-0.94761467,-0.835747242,-0.301023424,0.147761285
688,37:44.1,1730438871.0,-0.136159882,-0.303695947,-0.001894474,-0.298384126,0.151268298,0.115732015,0.144033402,0.293976128,-0.944898129,-1.327995658,-0.327506155,0.2416659
689,37:44.1,1730438871.0,-0.054710969,-0.342304021,0.02908802,-0.312338771,0.150385912,0.120653404,0.142571047,0.3072851,-0.940876901,-1.533347249,-0.135063216,0.18875289
690,37:44.1,1730438871.0,0.006618321,-0.334742546,-0.000857294,-0.326875919,0.15044409,0.123396443,0.141941234,0.32108593,-0.936352789,-1.393101454,-0.056489304,-0.087853782
691,37:44.1,1730438871.0,-0.011340752,-0.194524676,-0.07407105,-0.340501149,0.149900522,0.123854498,0.140765786,0.33395952,-0.932017207,-1.372395635,-0.094084352,-0.219661087
692,37:44.1,1730438871.0,0.005075827,-0.123075247,-0.124856532,-0.355767867,0.149111933,0.123816884,0.139257059,0.348310262,-0.926977575,-1.679181576,-0.064722471,-0.24238877
