Date,TimeStamp,GravityX,GravityY,GravityZ,UserAccelerationX,UserAccelerationY,UserAccelerationZ,RotationRateX,RotationRateY,RotationRateZ,AttitudeRoll,AttitudePitch,AttitudeYaw
2024-09-23 11:40:14.407,162747.249,0.134,0.898,-0.419,-0.058,-0.126,0.013,0.45,-0.027,-0.032,0.31,-1.115,1.39
2024-09-23 11:40:14.417,162747.259,0.134,0.896,-0.423,0.044,-0.18,-0.018,0.483,0.084,0.05,0.307,-1.111,1.387
2024-09-23 11:40:14.427,162747.269,0.138,0.893,-0.428,0.173,-0.192,-0.057,0.603,0.227,0.581,0.312,-1.104,1.39
2024-09-23 11:40:14.436,162747.279,0.144,0.89,-0.433,0.24,-0.155,-0.076,0.439,0.044,0.461,0.321,-1.097,1.398
2024-09-23 11:40:14.446,162747.289,0.146,0.888,-0.436,0.378,-0.031,-0.122,0.354,-0.066,0.105,0.323,-1.093,1.401
2024-09-23 11:40:14.456,162747.299,0.145,0.886,-0.439,0.417,0.046,-0.037,0.366,-0.196,-0.179,0.319,-1.09,1.398
2024-09-23 11:40:14.467,162747.309,0.141,0.885,-0.443,0.214,-0.018,0.011,0.421,-0.332,-0.393,0.309,-1.087,1.389
2024-09-23 11:40:14.476,162747.319,0.135,0.884,-0.448,0.103,-0.055,0.026,0.491,-0.412,-0.598,0.293,-1.084,1.376
2024-09-23 11:40:14.487,162747.329,0.128,0.882,-0.453,0.107,-0.035,0.024,0.489,-0.369,-0.695,0.275,-1.081,1.36
2024-09-23 11:40:14.497,162747.339,0.12,0.881,-0.457,0.087,-0.02,0.025,0.414,-0.269,-0.642,0.258,-1.078,1.344
2024-09-23 11:40:14.507,162747.349,0.114,0.88,-0.461,0.042,-0.019,0.031,0.389,-0.222,-0.517,0.243,-1.076,1.33
2024-09-23 11:40:14.517,162747.359,0.109,0.879,-0.465,0.01,-0.008,0.019,0.419,-0.215,-0.418,0.231,-1.073,1.318
2024-09-23 11:40:14.527,162747.369,0.105,0.877,-0.469,-0.007,0.033,0.006,0.424,-0.201,-0.341,0.22,-1.07,1.309
2024-09-23 11:40:14.536,162747.379,0.101,0.876,-0.472,-0.02,0.062,-0.007,0.385,-0.154,-0.252,0.211,-1.067,1.301
2024-09-23 11:40:14.546,162747.389,0.099,0.874,-0.476,-0.033,0.055,-0.019,0.31,-0.077,-0.186,0.205,-1.064,1.295
2024-09-23 11:40:14.556,162747.399,0.097,0.873,-0.478,-0.042,0.025,-0.026,0.192,-0.024,-0.133,0.201,-1.061,1.291
2024-09-23 11:40:14.567,162747.409,0.096,0.873,-0.479,-0.051,-0.006,-0.042,0.06,0.013,-0.039,0.199,-1.06,1.289
2024-09-23 11:40:14.576,162747.419,0.097,0.872,-0.479,-0.063,-0.031,-0.057,-0.032,0.049,0.047,0.199,-1.06,1.289
2024-09-23 11:40:14.586,162747.429,0.098,0.873,-0.478,-0.063,-0.041,-0.056,-0.091,0.088,0.131,0.202,-1.061,1.291
2024-09-23 11:40:14.596,162747.439,0.1,0.873,-0.477,-0.054,-0.034,-0.045,-0.103,0.111,0.208,0.206,-1.061,1.294
2024-09-23 11:40:14.606,162747.449,0.102,0.873,-0.476,-0.049,-0.021,-0.037,-0.075,0.13,0.249,0.211,-1.062,1.299
2024-09-23 11:40:14.616,162747.459,0.105,0.873,-0.476,-0.038,-0.0,-0.024,-0.007,0.106,0.269,0.217,-1.062,1.305
2024-09-23 11:40:14.626,162747.469,0.108,0.873,-0.476,-0.027,0.005,-0.007,0.072,0.063,0.232,0.222,-1.061,1.31
2024-09-23 11:40:14.636,162747.479,0.11,0.872,-0.477,-0.009,0.009,0.007,0.142,0.018,0.171,0.226,-1.059,1.313
2024-09-23 11:40:14.646,162747.489,0.111,0.871,-0.478,0.011,0.016,0.015,0.173,-0.016,0.102,0.228,-1.057,1.315
2024-09-23 11:40:14.656,162747.499,0.111,0.87,-0.48,0.019,0.007,0.017,0.167,-0.035,0.03,0.228,-1.056,1.316
2024-09-23 11:40:14.666,162747.509,0.111,0.869,-0.481,0.021,0.004,0.007,0.151,-0.051,-0.024,0.227,-1.054,1.315
2024-09-23 11:40:14.676,162747.519,0.11,0.869,-0.483,0.016,0.004,-0.005,0.123,-0.062,-0.075,0.225,-1.053,1.313
2024-09-23 11:40:14.686,162747.529,0.109,0.868,-0.484,0.012,-0.009,-0.009,0.111,-0.067,-0.108,0.222,-1.052,1.311
2024-09-23 11:40:14.696,162747.539,0.108,0.868,-0.485,0.012,-0.014,-0.013,0.129,-0.054,-0.125,0.219,-1.051,1.308
2024-09-23 11:40:14.706,162747.549,0.106,0.867,-0.486,0.009,-0.004,-0.013,0.156,-0.051,-0.127,0.216,-1.05,1.305
2024-09-23 11:40:14.716,162747.559,0.105,0.867,-0.488,0.0,0.012,-0.006,0.238,-0.072,-0.104,0.212,-1.048,1.302
2024-09-23 11:40:14.726,162747.569,0.104,0.865,-0.49,-0.004,0.016,0.005,0.368,-0.075,-0.064,0.209,-1.046,1.299
2024-09-23 11:40:14.736,162747.579,0.103,0.864,-0.493,-0.003,0.014,0.017,0.316,-0.046,-0.024,0.207,-1.042,1.297
2024-09-23 11:40:14.746,162747.589,0.103,0.862,-0.496,-0.003,0.037,0.023,0.29,-0.037,0.028,0.205,-1.039,1.296
2024-09-23 11:40:14.756,162747.599,0.104,0.861,-0.498,-0.027,0.051,0.004,0.227,-0.064,0.079,0.205,-1.037,1.296
2024-09-23 11:40:14.766,162747.609,0.104,0.86,-0.5,-0.029,-0.05,0.001,0.12,-0.082,0.135,0.206,-1.035,1.297
2024-09-23 11:40:14.776,162747.619,0.105,0.859,-0.501,-0.009,-0.085,-0.014,0.029,-0.057,0.199,0.208,-1.034,1.3
2024-09-23 11:40:14.786,162747.629,0.107,0.859,-0.5,-0.017,-0.024,-0.023,-0.081,-0.015,0.253,0.211,-1.034,1.305
2024-09-23 11:40:14.796,162747.639,0.109,0.86,-0.499,-0.03,-0.03,-0.032,-0.208,0.006,0.284,0.216,-1.035,1.311
2024-09-23 11:40:14.806,162747.649,0.112,0.861,-0.497,-0.03,-0.045,-0.046,-0.295,0.037,0.272,0.222,-1.036,1.317
2024-09-23 11:40:14.816,162747.659,0.114,0.862,-0.494,-0.025,-0.031,-0.045,-0.323,-0.001,0.206,0.227,-1.039,1.323
2024-09-23 11:40:14.826,162747.669,0.115,0.863,-0.492,-0.01,-0.015,-0.037,-0.125,-0.068,0.112,0.23,-1.041,1.327
2024-09-23 11:40:14.836,162747.679,0.115,0.863,-0.492,0.006,-0.016,-0.024,-0.022,-0.105,-0.056,0.23,-1.041,1.328
2024-09-23 11:40:14.846,162747.688,0.114,0.864,-0.491,0.043,-0.03,0.023,-0.09,-0.087,-0.183,0.227,-1.042,1.326
2024-09-23 11:40:14.856,162747.698,0.111,0.864,-0.49,0.046,0.002,0.03,-0.172,-0.059,-0.194,0.224,-1.044,1.322
2024-09-23 11:40:14.866,162747.708,0.11,0.866,-0.489,0.015,-0.0,-0.019,-0.208,-0.003,-0.157,0.221,-1.046,1.32
2024-09-23 11:40:14.876,162747.718,0.109,0.867,-0.487,-0.007,-0.07,-0.04,-0.272,0.06,-0.135,0.22,-1.049,1.318
2024-09-23 11:40:14.886,162747.728,0.108,0.868,-0.484,-0.021,-0.06,-0.029,-0.296,0.138,-0.125,0.22,-1.052,1.317
2024-09-23 11:40:14.896,162747.738,0.108,0.87,-0.481,-0.028,0.013,-0.025,-0.235,0.201,-0.069,0.221,-1.055,1.316
2024-09-23 11:40:14.906,162747.748,0.109,0.871,-0.48,-0.034,0.01,-0.036,-0.094,0.215,0.007,0.223,-1.056,1.316
2024-09-23 11:40:14.916,162747.758,0.11,0.87,-0.48,-0.035,-0.018,-0.021,0.142,0.175,0.07,0.225,-1.056,1.317
2024-09-23 11:40:14.926,162747.768,0.111,0.869,-0.482,-0.029,0.033,0.013,0.416,0.107,0.099,0.227,-1.053,1.317
2024-09-23 11:40:14.936,162747.778,0.113,0.866,-0.487,-0.012,0.103,0.046,0.671,0.012,0.113,0.227,-1.048,1.317
2024-09-23 11:40:14.946,162747.788,0.114,0.863,-0.492,0.004,0.122,0.069,0.625,0.06,0.094,0.227,-1.041,1.316
2024-09-23 11:40:14.956,162747.798,0.115,0.86,-0.497,0.018,0.11,0.069,0.44,0.1,0.116,0.227,-1.036,1.315
2024-09-23 11:40:14.966,162747.808,0.117,0.858,-0.499,-0.008,0.087,-0.005,0.163,0.167,0.148,0.23,-1.032,1.317
2024-09-23 11:40:14.976,162747.818,0.119,0.858,-0.499,-0.046,-0.052,-0.034,-0.222,0.206,0.149,0.234,-1.032,1.32
2024-09-23 11:40:14.985,162747.828,0.121,0.86,-0.495,-0.027,-0.179,-0.066,-0.504,0.251,0.123,0.24,-1.036,1.324
2024-09-23 11:40:14.996,162747.838,0.123,0.863,-0.49,-0.03,-0.121,-0.094,-0.699,0.221,0.105,0.247,-1.041,1.329
2024-09-23 11:40:15.006,162747.848,0.125,0.867,-0.483,-0.032,-0.093,-0.079,-0.795,0.2,0.043,0.253,-1.048,1.334
2024-09-23 11:40:15.015,162747.858,0.126,0.87,-0.476,-0.008,-0.105,-0.056,-0.78,0.169,0.017,0.259,-1.056,1.339
2024-09-23 11:40:15.025,162747.868,0.127,0.874,-0.47,0.012,-0.094,-0.04,-0.614,0.104,0.044,0.264,-1.063,1.343
2024-09-23 11:40:15.035,162747.878,0.128,0.876,-0.465,0.008,-0.066,-0.018,-0.371,0.11,0.014,0.268,-1.067,1.346
2024-09-23 11:40:15.046,162747.888,0.128,0.877,-0.463,0.008,-0.017,0.018,-0.225,0.066,0.008,0.271,-1.07,1.348
2024-09-23 11:40:15.055,162747.898,0.129,0.878,-0.461,0.006,0.035,0.026,-0.187,0.028,0.011,0.272,-1.072,1.349
2024-09-23 11:40:15.066,162747.908,0.129,0.879,-0.459,0.002,0.068,0.017,-0.203,0.057,0.031,0.274,-1.074,1.351
2024-09-23 11:40:15.076,162747.918,0.13,0.88,-0.457,0.007,0.042,-0.014,-0.375,0.091,0.072,0.277,-1.076,1.354
2024-09-23 11:40:15.085,162747.928,0.131,0.883,-0.452,-0.014,-0.004,-0.025,-0.72,0.224,0.139,0.283,-1.081,1.359
2024-09-23 11:40:15.095,162747.938,0.134,0.886,-0.444,-0.029,-0.018,-0.046,-0.987,0.378,0.26,0.294,-1.089,1.368
2024-09-23 11:40:15.105,162747.948,0.139,0.89,-0.434,-0.067,0.005,-0.121,-1.1,0.524,0.372,0.311,-1.098,1.381
2024-09-23 11:40:15.115,162747.958,0.145,0.894,-0.423,-0.12,-0.028,-0.133,-1.115,0.599,0.451,0.331,-1.107,1.398
2024-09-23 11:40:15.125,162747.968,0.152,0.898,-0.413,-0.12,-0.052,-0.102,-0.7,0.391,0.42,0.352,-1.115,1.415
2024-09-23 11:40:15.135,162747.978,0.154,0.899,-0.411,-0.09,0.022,-0.063,-0.005,-0.291,0.047,0.359,-1.117,1.422
2024-09-23 11:40:15.145,162747.988,0.151,0.899,-0.412,-0.055,0.121,-0.034,0.115,-0.481,-0.358,0.351,-1.117,1.419
2024-09-23 11:40:15.155,162747.998,0.145,0.899,-0.413,-0.061,0.231,-0.009,-0.025,-0.254,-0.5,0.338,-1.118,1.408
2024-09-23 11:40:15.165,162748.008,0.142,0.9,-0.412,-0.21,0.26,0.098,-0.27,-0.069,-0.089,0.332,-1.12,1.403
2024-09-23 11:40:15.175,162748.018,0.141,0.902,-0.409,-0.344,0.047,0.125,-0.322,-0.097,-0.004,0.333,-1.123,1.405
2024-09-23 11:40:15.185,162748.028,0.14,0.903,-0.407,-0.165,-0.093,0.118,-0.156,-0.163,-0.082,0.332,-1.126,1.406
2024-09-23 11:40:15.196,162748.038,0.139,0.903,-0.407,-0.011,-0.085,0.145,0.155,-0.204,-0.108,0.328,-1.126,1.404
2024-09-23 11:40:15.205,162748.048,0.137,0.902,-0.41,-0.038,0.014,0.146,0.433,-0.212,-0.091,0.322,-1.124,1.399
2024-09-23 11:40:15.215,162748.058,0.135,0.9,-0.415,-0.058,0.053,0.129,0.585,-0.2,-0.069,0.315,-1.119,1.394
2024-09-23 11:40:15.225,162748.068,0.134,0.897,-0.421,-0.024,-0.001,0.09,0.64,-0.175,-0.049,0.308,-1.113,1.388
2024-09-23 11:40:15.235,162748.078,0.133,0.895,-0.427,0.023,-0.068,0.05,0.624,-0.138,-0.041,0.302,-1.107,1.383
2024-09-23 11:40:15.245,162748.088,0.132,0.892,-0.432,0.065,-0.12,0.028,0.565,-0.097,-0.041,0.297,-1.102,1.378
2024-09-23 11:40:15.255,162748.098,0.133,0.889,-0.438,0.097,-0.148,0.016,0.963,0.06,0.465,0.294,-1.095,1.376
2024-09-23 11:40:15.265,162748.108,0.14,0.884,-0.447,0.121,-0.143,0.012,1.017,0.049,0.844,0.303,-1.083,1.385
2024-09-23 11:40:15.275,162748.118,0.144,0.878,-0.456,0.224,-0.104,-0.07,0.854,-0.337,0.258,0.306,-1.072,1.39
2024-09-23 11:40:15.285,162748.128,0.143,0.875,-0.463,0.491,0.018,-0.162,0.632,-0.24,-0.177,0.3,-1.065,1.386
2024-09-23 11:40:15.295,162748.138,0.14,0.873,-0.467,0.362,0.028,-0.07,0.418,-0.189,-0.295,0.291,-1.061,1.378
2024-09-23 11:40:15.305,162748.148,0.136,0.872,-0.471,0.021,-0.095,-0.055,0.274,-0.228,-0.44,0.281,-1.059,1.369
2024-09-23 11:40:15.315,162748.158,0.13,0.871,-0.473,-0.019,-0.135,-0.045,0.174,-0.239,-0.61,0.268,-1.058,1.357
2024-09-23 11:40:15.325,162748.168,0.123,0.872,-0.474,0.057,-0.094,-0.042,0.079,-0.216,-0.642,0.254,-1.059,1.344
2024-09-23 11:40:15.335,162748.178,0.117,0.872,-0.475,0.049,-0.075,-0.043,0.014,-0.172,-0.541,0.242,-1.06,1.332
2024-09-23 11:40:15.345,162748.188,0.112,0.873,-0.475,0.008,-0.025,-0.042,0.032,-0.137,-0.391,0.232,-1.061,1.323
2024-09-23 11:40:15.355,162748.198,0.109,0.873,-0.476,-0.032,0.05,-0.024,0.079,-0.107,-0.261,0.225,-1.061,1.316
2024-09-23 11:40:15.365,162748.208,0.107,0.873,-0.477,-0.04,0.077,-0.006,0.096,-0.087,-0.139,0.221,-1.06,1.312
2024-09-23 11:40:15.375,162748.218,0.106,0.872,-0.478,-0.034,0.051,-0.009,0.07,-0.129,-0.016,0.218,-1.06,1.31
2024-09-23 11:40:15.385,162748.228,0.105,0.872,-0.478,-0.036,0.028,-0.013,0.103,-0.121,0.04,0.216,-1.059,1.31
2024-09-23 11:40:15.395,162748.238,0.105,0.871,-0.479,-0.035,0.001,0.0,0.091,-0.043,0.024,0.216,-1.058,1.31
2024-09-23 11:40:15.405,162748.248,0.105,0.871,-0.48,-0.014,0.008,-0.001,0.005,0.004,0.036,0.216,-1.057,1.31
2024-09-23 11:40:15.415,162748.258,0.106,0.871,-0.479,-0.025,0.072,-0.026,-0.114,0.009,0.079,0.217,-1.058,1.312
2024-09-23 11:40:15.425,162748.268,0.107,0.872,-0.478,-0.038,0.023,-0.026,-0.183,0.043,0.083,0.22,-1.059,1.314
2024-09-23 11:40:15.435,162748.278,0.108,0.873,-0.476,-0.021,-0.074,-0.035,-0.183,0.026,0.081,0.222,-1.061,1.317
2024-09-23 11:40:15.445,162748.287,0.108,0.873,-0.475,-0.016,-0.056,-0.034,-0.121,0.002,0.047,0.224,-1.062,1.319
2024-09-23 11:40:15.455,162748.297,0.108,0.874,-0.474,-0.009,-0.006,-0.007,-0.029,-0.016,-0.011,0.225,-1.063,1.319
2024-09-23 11:40:15.465,162748.307,0.108,0.874,-0.474,0.011,0.009,0.007,0.048,-0.035,-0.048,0.224,-1.063,1.319
2024-09-23 11:40:15.474,162748.317,0.107,0.873,-0.475,0.017,0.02,0.009,0.099,-0.062,-0.08,0.222,-1.062,1.317
2024-09-23 11:40:15.484,162748.327,0.106,0.873,-0.476,0.014,0.021,0.01,0.15,-0.084,-0.113,0.219,-1.061,1.314
2024-09-23 11:40:15.495,162748.337,0.104,0.872,-0.478,0.011,0.003,0.009,0.181,-0.104,-0.138,0.215,-1.06,1.311
2024-09-23 11:40:15.505,162748.347,0.103,0.871,-0.48,0.011,-0.012,0.006,0.175,-0.118,-0.131,0.211,-1.058,1.308
2024-09-23 11:40:15.515,162748.357,0.101,0.871,-0.481,0.009,-0.003,0.005,0.181,-0.11,-0.089,0.207,-1.057,1.305
2024-09-23 11:40:15.525,162748.367,0.1,0.87,-0.483,0.002,0.013,-0.001,0.176,-0.082,-0.059,0.204,-1.055,1.302
2024-09-23 11:40:15.535,162748.377,0.099,0.869,-0.484,-0.01,0.001,-0.005,0.108,-0.042,-0.03,0.202,-1.054,1.301
2024-09-23 11:40:15.545,162748.387,0.099,0.869,-0.485,-0.017,-0.023,-0.008,-0.006,0.009,-0.016,0.201,-1.053,1.3
2024-09-23 11:40:15.555,162748.397,0.099,0.869,-0.484,-0.021,-0.034,-0.022,-0.103,0.044,-0.001,0.202,-1.054,1.3
2024-09-23 11:40:15.565,162748.407,0.099,0.87,-0.483,-0.026,-0.047,-0.038,-0.158,0.064,-0.001,0.203,-1.055,1.301
2024-09-23 11:40:15.575,162748.417,0.1,0.871,-0.481,-0.025,-0.063,-0.037,-0.179,0.085,-0.023,0.204,-1.057,1.302
2024-09-23 11:40:15.585,162748.427,0.1,0.872,-0.48,-0.014,-0.045,-0.025,-0.149,0.084,-0.023,0.205,-1.059,1.302
2024-09-23 11:40:15.595,162748.437,0.1,0.872,-0.479,-0.009,-0.002,-0.02,-0.069,0.067,-0.019,0.206,-1.06,1.302
2024-09-23 11:40:15.605,162748.447,0.1,0.872,-0.479,-0.008,0.016,-0.01,0.067,0.033,-0.011,0.206,-1.06,1.302
2024-09-23 11:40:15.614,162748.457,0.1,0.872,-0.48,-0.003,0.026,0.006,0.223,-0.004,-0.017,0.206,-1.058,1.301
2024-09-23 11:40:15.624,162748.467,0.1,0.87,-0.483,0.003,0.048,0.021,0.367,-0.045,-0.029,0.204,-1.055,1.299
2024-09-23 11:40:15.634,162748.477,0.099,0.868,-0.487,0.008,0.067,0.034,0.489,-0.072,-0.042,0.201,-1.051,1.296
2024-09-23 11:40:15.645,162748.487,0.098,0.865,-0.491,0.011,0.064,0.036,0.573,-0.1,-0.047,0.198,-1.046,1.293
2024-09-23 11:40:15.654,162748.497,0.097,0.863,-0.497,0.012,0.034,0.031,0.628,-0.116,-0.059,0.193,-1.04,1.29
2024-09-23 11:40:15.664,162748.507,0.096,0.86,-0.502,0.008,0.021,0.027,0.521,-0.075,-0.035,0.19,-1.034,1.287
2024-09-23 11:40:15.674,162748.517,0.096,0.857,-0.506,0.004,0.036,0.021,0.343,-0.047,-0.034,0.187,-1.03,1.284
2024-09-23 11:40:15.684,162748.527,0.095,0.856,-0.508,-0.01,0.038,-0.017,0.193,-0.016,-0.021,0.186,-1.028,1.283
2024-09-23 11:40:15.694,162748.537,0.095,0.856,-0.509,-0.029,-0.047,-0.035,0.049,-0.021,0.034,0.185,-1.027,1.283
2024-09-23 11:40:15.704,162748.547,0.096,0.855,-0.509,-0.016,-0.148,-0.038,-0.03,0.002,0.093,0.186,-1.026,1.284
2024-09-23 11:40:15.715,162748.557,0.097,0.856,-0.509,-0.017,-0.081,-0.039,-0.054,0.028,0.148,0.188,-1.027,1.286
2024-09-23 11:40:15.724,162748.567,0.099,0.856,-0.508,-0.028,-0.011,-0.022,-0.174,0.008,0.206,0.192,-1.027,1.29
2024-09-23 11:40:15.734,162748.577,0.101,0.857,-0.506,-0.03,-0.036,-0.025,-0.262,0.029,0.254,0.196,-1.029,1.295
2024-09-23 11:40:15.744,162748.587,0.103,0.858,-0.503,-0.023,-0.048,-0.038,-0.306,0.062,0.274,0.202,-1.031,1.301
2024-09-23 11:40:15.754,162748.597,0.106,0.859,-0.501,-0.024,-0.03,-0.041,-0.291,0.036,0.271,0.208,-1.034,1.308
2024-09-23 11:40:15.764,162748.607,0.108,0.86,-0.499,-0.025,-0.026,-0.028,-0.168,-0.053,0.207,0.213,-1.036,1.313
2024-09-23 11:40:15.774,162748.617,0.109,0.86,-0.498,-0.005,0.009,-0.007,-0.01,-0.126,0.073,0.215,-1.036,1.317
2024-09-23 11:40:15.784,162748.627,0.108,0.86,-0.498,0.029,0.037,0.02,0.049,-0.152,-0.058,0.213,-1.036,1.317
2024-09-23 11:40:15.794,162748.637,0.106,0.86,-0.499,0.048,0.036,0.041,-0.043,-0.144,-0.149,0.21,-1.036,1.314
2024-09-23 11:40:15.804,162748.647,0.104,0.861,-0.498,0.037,-0.018,0.021,-0.158,-0.088,-0.17,0.207,-1.037,1.312
2024-09-23 11:40:15.814,162748.657,0.103,0.862,-0.496,0.011,-0.063,-0.028,-0.194,-0.01,-0.147,0.204,-1.039,1.309
2024-09-23 11:40:15.824,162748.667,0.102,0.863,-0.494,-0.015,-0.076,-0.048,-0.231,0.06,-0.146,0.203,-1.042,1.307
2024-09-23 11:40:15.835,162748.677,0.101,0.865,-0.492,-0.025,-0.042,-0.031,-0.237,0.132,-0.156,0.202,-1.044,1.305
2024-09-23 11:40:15.845,162748.687,0.1,0.866,-0.49,-0.022,0.016,-0.018,-0.202,0.164,-0.129,0.202,-1.047,1.303
2024-09-23 11:40:15.854,162748.697,0.1,0.867,-0.489,-0.023,0.005,-0.018,-0.079,0.157,-0.083,0.202,-1.048,1.302
2024-09-23 11:40:15.864,162748.707,0.1,0.867,-0.489,-0.022,-0.023,-0.013,0.116,0.124,-0.041,0.202,-1.048,1.301
2024-09-23 11:40:15.874,162748.717,0.101,0.866,-0.491,-0.015,0.023,0.004,0.346,0.062,-0.009,0.202,-1.046,1.299
2024-09-23 11:40:15.884,162748.727,0.101,0.863,-0.494,-0.005,0.094,0.032,0.54,-0.014,0.016,0.201,-1.042,1.298
2024-09-23 11:40:15.894,162748.737,0.101,0.86,-0.5,0.001,0.118,0.051,0.646,-0.042,0.087,0.199,-1.036,1.296
2024-09-23 11:40:15.904,162748.747,0.102,0.857,-0.505,0.007,0.096,0.06,0.487,0.024,0.09,0.199,-1.03,1.296
2024-09-23 11:40:15.913,162748.757,0.103,0.855,-0.508,0.009,0.075,0.028,0.286,0.102,0.111,0.2,-1.026,1.296
2024-09-23 11:40:15.924,162748.767,0.105,0.854,-0.509,-0.038,0.016,-0.034,-0.021,0.16,0.147,0.203,-1.024,1.298
2024-09-23 11:40:15.933,162748.777,0.107,0.855,-0.507,-0.053,-0.148,-0.05,-0.346,0.194,0.165,0.208,-1.026,1.302
2024-09-23 11:40:15.943,162748.787,0.109,0.857,-0.503,-0.039,-0.18,-0.088,-0.578,0.232,0.152,0.214,-1.03,1.307
2024-09-23 11:40:15.953,162748.797,0.112,0.86,-0.497,-0.035,-0.088,-0.083,-0.693,0.22,0.14,0.221,-1.036,1.312
2024-09-23 11:40:15.964,162748.807,0.114,0.864,-0.491,-0.025,-0.06,-0.07,-0.711,0.205,0.1,0.228,-1.043,1.318
2024-09-23 11:40:15.974,162748.817,0.115,0.867,-0.485,-0.011,-0.065,-0.048,-0.686,0.173,0.054,0.234,-1.049,1.322
2024-09-23 11:40:15.984,162748.827,0.116,0.87,-0.479,0.004,-0.073,-0.025,-0.561,0.155,0.022,0.239,-1.055,1.326
2024-09-23 11:40:15.994,162748.837,0.117,0.872,-0.474,0.009,-0.031,-0.015,-0.457,0.156,0.006,0.242,-1.06,1.329
2024-09-23 11:40:16.004,162748.847,0.118,0.874,-0.471,0.006,-0.001,0.005,-0.346,0.097,0.067,0.246,-1.064,1.331
2024-09-23 11:40:16.014,162748.857,0.119,0.875,-0.468,-0.006,0.018,0.004,-0.183,0.094,0.078,0.25,-1.066,1.334
2024-09-23 11:40:16.024,162748.867,0.12,0.876,-0.467,-0.012,0.021,0.017,-0.085,0.079,0.086,0.252,-1.067,1.337
2024-09-23 11:40:16.034,162748.877,0.122,0.876,-0.466,-0.003,-0.006,0.02,-0.121,0.038,0.116,0.255,-1.068,1.339
2024-09-23 11:40:16.044,162748.887,0.123,0.877,-0.465,-0.002,0.013,0.002,-0.222,0.065,0.134,0.259,-1.069,1.342
2024-09-23 11:40:16.054,162748.896,0.125,0.878,-0.462,-0.005,0.012,-0.015,-0.439,0.129,0.197,0.264,-1.072,1.347
2024-09-23 11:40:16.064,162748.906,0.128,0.881,-0.456,-0.016,-0.017,-0.039,-0.705,0.24,0.306,0.273,-1.077,1.356
2024-09-23 11:40:16.074,162748.916,0.132,0.884,-0.449,-0.047,-0.016,-0.07,-0.832,0.379,0.435,0.287,-1.083,1.368
2024-09-23 11:40:16.084,162748.926,0.139,0.887,-0.441,-0.074,0.023,-0.109,-0.784,0.495,0.549,0.305,-1.09,1.383
2024-09-23 11:40:16.094,162748.936,0.146,0.889,-0.434,-0.105,0.041,-0.095,-0.594,0.461,0.734,0.325,-1.094,1.4
2024-09-23 11:40:16.104,162748.946,0.154,0.89,-0.43,-0.115,0.055,-0.051,-0.319,0.08,0.558,0.345,-1.096,1.419
2024-09-23 11:40:16.113,162748.956,0.151,0.891,-0.428,-0.066,0.145,0.031,-0.177,-0.516,-0.841,0.339,-1.099,1.416
2024-09-23 11:40:16.123,162748.966,0.142,0.893,-0.427,-0.061,0.217,0.068,-0.313,-0.156,-0.684,0.322,-1.104,1.4
2024-09-23 11:40:16.133,162748.976,0.138,0.895,-0.423,-0.412,0.06,0.128,-0.455,-0.038,-0.23,0.315,-1.109,1.394
2024-09-23 11:40:16.144,162748.986,0.136,0.897,-0.42,-0.539,-0.023,0.136,-0.352,-0.153,-0.094,0.314,-1.114,1.394
2024-09-23 11:40:16.154,162748.996,0.135,0.898,-0.418,-0.184,-0.05,0.127,-0.015,-0.19,-0.051,0.312,-1.116,1.394
2024-09-23 11:40:16.164,162749.006,0.134,0.898,-0.42,0.118,-0.052,0.133,0.333,-0.25,-0.058,0.308,-1.114,1.391
2024-09-23 11:40:16.173,162749.016,0.132,0.896,-0.424,0.177,0.041,0.094,0.526,-0.249,-0.074,0.301,-1.11,1.387
2024-09-23 11:40:16.183,162749.026,0.13,0.894,-0.429,0.115,0.073,0.053,0.56,-0.171,-0.048,0.295,-1.105,1.382
2024-09-23 11:40:16.194,162749.036,0.13,0.891,-0.434,0.047,0.006,0.007,0.536,-0.088,0.009,0.29,-1.1,1.378
2024-09-23 11:40:16.203,162749.046,0.13,0.889,-0.439,0.048,-0.108,-0.032,0.59,-0.041,0.092,0.287,-1.095,1.376
2024-09-23 11:40:16.213,162749.056,0.131,0.886,-0.445,0.123,-0.179,-0.048,0.69,-0.055,0.177,0.286,-1.088,1.374
2024-09-23 11:40:16.224,162749.066,0.132,0.882,-0.452,0.193,-0.162,-0.061,0.739,-0.106,0.23,0.285,-1.081,1.374
2024-09-23 11:40:16.233,162749.076,0.133,0.879,-0.458,0.235,-0.086,-0.078,0.633,-0.213,0.093,0.283,-1.074,1.374
2024-09-23 11:40:16.243,162749.086,0.132,0.876,-0.463,0.244,-0.034,-0.077,0.476,-0.249,-0.16,0.277,-1.068,1.37
2024-09-23 11:40:16.253,162749.096,0.128,0.875,-0.467,0.205,-0.039,-0.061,0.285,-0.229,-0.359,0.268,-1.065,1.363
2024-09-23 11:40:16.263,162749.106,0.124,0.875,-0.469,0.113,-0.07,-0.059,0.105,-0.196,-0.467,0.258,-1.065,1.353
2024-09-23 11:40:16.273,162749.116,0.119,0.875,-0.469,0.044,-0.08,-0.054,-0.063,-0.156,-0.514,0.248,-1.066,1.343
2024-09-23 11:40:16.283,162749.126,0.113,0.876,-0.468,0.021,-0.085,-0.051,-0.17,-0.118,-0.5,0.238,-1.068,1.334
2024-09-23 11:40:16.293,162749.136,0.109,0.878,-0.467,0.009,-0.074,-0.053,-0.203,-0.067,-0.43,0.229,-1.071,1.325
2024-09-23 11:40:16.303,162749.146,0.105,0.879,-0.465,-0.01,-0.018,-0.042,-0.18,-0.025,-0.335,0.223,-1.074,1.318
2024-09-23 11:40:16.313,162749.156,0.103,0.88,-0.464,-0.027,0.038,-0.023,-0.084,-0.018,-0.198,0.218,-1.076,1.313
2024-09-23 11:40:16.323,162749.166,0.102,0.88,-0.464,-0.033,0.049,-0.008,0.05,-0.036,-0.088,0.216,-1.076,1.311
2024-09-23 11:40:16.334,162749.176,0.101,0.88,-0.465,-0.023,0.039,0.009,0.133,-0.039,0.0,0.214,-1.075,1.309
2024-09-23 11:40:16.344,162749.186,0.101,0.879,-0.466,-0.02,0.047,0.015,0.205,-0.04,0.09,0.214,-1.074,1.309
2024-09-23 11:40:16.354,162749.196,0.102,0.878,-0.468,-0.038,0.062,0.009,0.266,-0.038,0.146,0.215,-1.071,1.311
2024-09-23 11:40:16.362,162749.206,0.103,0.876,-0.471,-0.043,0.046,0.006,0.28,-0.019,0.164,0.216,-1.068,1.313
2024-09-23 11:40:16.373,162749.216,0.105,0.875,-0.473,-0.028,0.017,0.005,0.239,0.007,0.16,0.218,-1.065,1.315
2024-09-23 11:40:16.383,162749.226,0.106,0.874,-0.475,-0.017,0.01,-0.004,0.142,0.01,0.153,0.22,-1.063,1.317
2024-09-23 11:40:16.393,162749.236,0.107,0.873,-0.476,-0.017,0.004,-0.017,0.052,0.031,0.128,0.222,-1.062,1.32
2024-09-23 11:40:16.403,162749.246,0.109,0.873,-0.476,-0.015,-0.015,-0.027,-0.051,0.073,0.074,0.225,-1.061,1.322
2024-09-23 11:40:16.413,162749.256,0.109,0.873,-0.475,-0.009,-0.043,-0.028,-0.147,0.082,0.025,0.227,-1.062,1.323
2024-09-23 11:40:16.423,162749.266,0.11,0.874,-0.473,-0.008,-0.061,-0.033,-0.171,0.068,-0.016,0.228,-1.064,1.324
2024-09-23 11:40:16.433,162749.276,0.11,0.875,-0.472,-0.0,-0.056,-0.032,-0.131,0.043,-0.068,0.229,-1.065,1.324
2024-09-23 11:40:16.443,162749.286,0.109,0.875,-0.471,0.01,-0.03,-0.019,-0.042,-0.001,-0.104,0.228,-1.066,1.322
2024-09-23 11:40:16.453,162749.296,0.108,0.876,-0.471,0.014,0.005,-0.002,0.075,-0.039,-0.127,0.225,-1.067,1.32
2024-09-23 11:40:16.463,162749.306,0.106,0.875,-0.472,0.017,0.023,0.013,0.185,-0.041,-0.134,0.222,-1.066,1.317
2024-09-23 11:40:16.473,162749.316,0.105,0.874,-0.474,0.014,0.028,0.023,0.292,-0.047,-0.126,0.218,-1.063,1.313
2024-09-23 11:40:16.483,162749.326,0.104,0.873,-0.477,0.003,0.041,0.02,0.4,-0.046,-0.102,0.214,-1.06,1.309
2024-09-23 11:40:16.493,162749.336,0.103,0.87,-0.481,-0.006,0.045,0.019,0.51,-0.046,-0.088,0.21,-1.056,1.305
2024-09-23 11:40:16.503,162749.346,0.102,0.868,-0.486,-0.008,0.03,0.024,0.552,-0.029,-0.027,0.207,-1.051,1.302
2024-09-23 11:40:16.513,162749.356,0.102,0.865,-0.491,-0.009,0.024,0.028,0.411,-0.009,0.02,0.205,-1.046,1.3
2024-09-23 11:40:16.523,162749.366,0.102,0.864,-0.494,-0.015,0.039,0.01,0.312,-0.01,0.061,0.204,-1.042,1.299
2024-09-23 11:40:16.533,162749.376,0.103,0.862,-0.496,-0.039,0.013,-0.015,0.197,-0.016,0.095,0.205,-1.04,1.3
2024-09-23 11:40:16.543,162749.386,0.104,0.862,-0.497,-0.026,-0.091,-0.016,0.046,-0.004,0.142,0.206,-1.038,1.301
2024-09-23 11:40:16.553,162749.396,0.105,0.861,-0.497,-0.011,-0.085,-0.034,-0.082,0.009,0.216,0.209,-1.038,1.305
2024-09-23 11:40:16.563,162749.406,0.108,0.862,-0.496,-0.025,-0.02,-0.04,-0.193,0.064,0.271,0.214,-1.039,1.31
2024-09-23 11:40:16.573,162749.416,0.111,0.863,-0.494,-0.031,-0.027,-0.039,-0.252,0.087,0.313,0.22,-1.04,1.317
2024-09-23 11:40:16.583,162749.426,0.114,0.864,-0.491,-0.035,-0.052,-0.042,-0.276,0.066,0.315,0.228,-1.042,1.324
2024-09-23 11:40:16.593,162749.436,0.116,0.865,-0.489,-0.025,-0.052,-0.035,-0.212,-0.014,0.254,0.234,-1.044,1.331
2024-09-23 11:40:16.604,162749.446,0.118,0.865,-0.488,-0.005,-0.01,-0.015,-0.042,-0.117,0.14,0.237,-1.045,1.335
2024-09-23 11:40:16.612,162749.456,0.118,0.865,-0.488,0.018,0.016,0.009,0.113,-0.185,-0.02,0.236,-1.044,1.336
2024-09-23 11:40:16.622,162749.466,0.116,0.864,-0.49,0.051,0.022,0.037,0.126,-0.221,-0.14,0.232,-1.043,1.334
2024-09-23 11:40:16.632,162749.476,0.113,0.864,-0.491,0.054,0.01,0.044,0.035,-0.213,-0.201,0.227,-1.043,1.33
2024-09-23 11:40:16.643,162749.486,0.11,0.864,-0.491,0.036,-0.022,0.01,-0.057,-0.148,-0.218,0.221,-1.044,1.326
2024-09-23 11:40:16.653,162749.495,0.108,0.865,-0.49,0.017,-0.055,-0.029,-0.123,-0.068,-0.208,0.217,-1.045,1.322
2024-09-23 11:40:16.663,162749.505,0.106,0.866,-0.489,-0.008,-0.065,-0.039,-0.214,0.003,-0.197,0.214,-1.047,1.319
2024-09-23 11:40:16.673,162749.515,0.105,0.867,-0.487,-0.025,-0.028,-0.037,-0.261,0.081,-0.173,0.212,-1.05,1.316
2024-09-23 11:40:16.682,162749.525,0.104,0.869,-0.484,-0.031,0.011,-0.037,-0.272,0.142,-0.114,0.212,-1.053,1.315
2024-09-23 11:40:16.693,162749.535,0.104,0.87,-0.482,-0.036,-0.025,-0.037,-0.186,0.168,-0.048,0.213,-1.055,1.314
2024-09-23 11:40:16.702,162749.545,0.105,0.871,-0.481,-0.038,-0.038,-0.028,-0.042,0.157,0.008,0.214,-1.056,1.314
2024-09-23 11:40:16.713,162749.555,0.106,0.87,-0.481,-0.031,0.025,-0.005,0.165,0.131,0.054,0.216,-1.056,1.315
2024-09-23 11:40:16.722,162749.565,0.107,0.869,-0.483,-0.021,0.087,0.021,0.378,0.074,0.098,0.218,-1.053,1.315
2024-09-23 11:40:16.733,162749.575,0.108,0.866,-0.487,-0.015,0.102,0.04,0.541,0.014,0.126,0.218,-1.048,1.315
2024-09-23 11:40:16.743,162749.585,0.109,0.864,-0.492,-0.007,0.082,0.055,0.509,0.053,0.146,0.219,-1.042,1.316
2024-09-23 11:40:16.753,162749.595,0.111,0.861,-0.496,-0.001,0.076,0.042,0.359,0.097,0.153,0.22,-1.038,1.317
2024-09-23 11:40:16.762,162749.605,0.113,0.86,-0.498,-0.018,0.054,-0.006,0.088,0.143,0.162,0.223,-1.035,1.319
2024-09-23 11:40:16.773,162749.615,0.115,0.86,-0.497,-0.033,-0.046,-0.033,-0.217,0.175,0.147,0.228,-1.036,1.322
2024-09-23 11:40:16.782,162749.625,0.117,0.862,-0.494,-0.021,-0.139,-0.066,-0.466,0.168,0.121,0.233,-1.039,1.326
2024-09-23 11:40:16.792,162749.635,0.119,0.864,-0.489,-0.014,-0.123,-0.083,-0.572,0.139,0.074,0.238,-1.044,1.33
2024-09-23 11:40:16.803,162749.645,0.12,0.867,-0.484,-0.01,-0.084,-0.063,-0.522,0.144,0.003,0.243,-1.049,1.334
2024-09-23 11:40:16.812,162749.655,0.12,0.869,-0.479,0.007,-0.095,-0.029,-0.546,0.084,-0.028,0.246,-1.054,1.336
2024-09-23 11:40:16.822,162749.665,0.12,0.872,-0.475,0.016,-0.093,-0.013,-0.438,0.057,0.011,0.248,-1.059,1.338
2024-09-23 11:40:16.832,162749.675,0.121,0.874,-0.471,0.009,-0.025,-0.016,-0.297,0.085,0.034,0.251,-1.062,1.341
2024-09-23 11:40:16.843,162749.685,0.122,0.875,-0.469,-0.006,0.007,0.006,-0.259,0.065,0.067,0.254,-1.065,1.343
2024-09-23 11:40:16.852,162749.695,0.123,0.876,-0.467,-0.019,-0.018,0.006,-0.262,0.047,0.13,0.257,-1.067,1.346
2024-09-23 11:40:16.863,162749.705,0.124,0.877,-0.464,-0.022,0.002,-0.004,-0.385,0.111,0.163,0.262,-1.07,1.351
2024-09-23 11:40:16.872,162749.715,0.127,0.879,-0.459,-0.016,-0.022,-0.006,-0.676,0.213,0.249,0.27,-1.074,1.358
2024-09-23 11:40:16.882,162749.725,0.131,0.883,-0.451,-0.032,-0.052,-0.05,-0.939,0.38,0.353,0.282,-1.081,1.369
2024-09-23 11:40:16.892,162749.735,0.137,0.886,-0.442,-0.059,0.008,-0.103,-0.973,0.566,0.45,0.3,-1.09,1.383
2024-09-23 11:40:16.902,162749.745,0.144,0.89,-0.433,-0.093,0.05,-0.117,-0.875,0.676,0.508,0.32,-1.097,1.399
2024-09-23 11:40:16.912,162749.755,0.151,0.892,-0.425,-0.118,0.006,-0.083,-0.702,0.532,0.447,0.341,-1.103,1.415
2024-09-23 11:40:16.923,162749.765,0.152,0.895,-0.42,-0.105,0.066,-0.049,-0.466,-0.038,-0.422,0.348,-1.108,1.42
2024-09-23 11:40:16.932,162749.775,0.146,0.897,-0.417,-0.094,0.183,0.003,-0.188,-0.184,-0.668,0.337,-1.113,1.41
2024-09-23 11:40:16.942,162749.785,0.141,0.899,-0.416,-0.252,0.134,0.043,-0.17,-0.09,-0.406,0.327,-1.116,1.399
2024-09-23 11:40:16.952,162749.795,0.137,0.9,-0.414,-0.432,0.048,0.1,-0.139,-0.094,-0.248,0.32,-1.119,1.394
2024-09-23 11:40:16.962,162749.805,0.136,0.9,-0.413,-0.288,0.072,0.103,-0.108,-0.1,-0.028,0.318,-1.121,1.392
2024-09-23 11:40:16.972,162749.815,0.135,0.901,-0.413,-0.046,0.03,0.095,0.047,-0.206,-0.027,0.316,-1.121,1.392
2024-09-23 11:40:16.982,162749.825,0.134,0.9,-0.415,0.11,0.06,0.103,0.212,-0.23,-0.073,0.312,-1.12,1.389
2024-09-23 11:40:16.993,162749.835,0.132,0.899,-0.417,0.104,0.07,0.127,0.212,-0.174,-0.093,0.307,-1.118,1.386
2024-09-23 11:40:17.003,162749.845,0.131,0.899,-0.419,0.01,0.015,0.11,0.156,-0.118,-0.105,0.302,-1.117,1.383
2024-09-23 11:40:17.012,162749.855,0.129,0.898,-0.42,-0.032,-0.043,0.075,0.108,-0.073,-0.093,0.298,-1.116,1.379
2024-09-23 11:40:17.021,162749.865,0.128,0.898,-0.421,0.007,-0.108,0.034,0.124,-0.031,-0.047,0.296,-1.115,1.377
2024-09-23 11:40:17.031,162749.875,0.128,0.897,-0.423,0.081,-0.154,-0.007,0.156,0.004,-0.012,0.294,-1.114,1.376
2024-09-23 11:40:17.041,162749.885,0.128,0.896,-0.424,0.141,-0.15,-0.03,0.218,0.022,0.002,0.293,-1.112,1.374
2024-09-23 11:40:17.051,162749.895,0.128,0.895,-0.426,0.173,-0.112,-0.03,0.296,0.037,0.013,0.292,-1.109,1.373
2024-09-23 11:40:17.061,162749.905,0.129,0.894,-0.429,0.192,-0.077,-0.028,0.328,0.068,0.034,0.291,-1.106,1.371
2024-09-23 11:40:17.072,162749.915,0.129,0.893,-0.432,0.206,-0.091,-0.042,0.273,0.064,0.045,0.291,-1.103,1.37
2024-09-23 11:40:17.082,162749.925,0.13,0.892,-0.434,0.226,-0.106,-0.054,0.161,0.104,0.041,0.291,-1.101,1.37
2024-09-23 11:40:17.092,162749.935,0.131,0.891,-0.434,0.231,-0.092,-0.044,0.068,0.18,0.015,0.293,-1.1,1.369
2024-09-23 11:40:17.102,162749.945,0.132,0.891,-0.435,0.187,-0.077,-0.033,0.021,0.22,0.003,0.295,-1.099,1.369
2024-09-23 11:40:17.112,162749.955,0.132,0.891,-0.435,0.103,-0.06,-0.052,0.139,0.041,-0.236,0.294,-1.099,1.367
2024-09-23 11:40:17.123,162749.965,0.129,0.89,-0.437,0.037,-0.003,-0.072,0.159,0.007,-0.323,0.287,-1.098,1.359
2024-09-23 11:40:17.132,162749.975,0.127,0.89,-0.438,-0.049,0.067,-0.099,0.195,-0.011,-0.237,0.281,-1.097,1.352
2024-09-23 11:40:17.142,162749.985,0.125,0.889,-0.44,-0.112,0.123,-0.057,0.246,-0.057,-0.164,0.276,-1.096,1.347
2024-09-23 11:40:17.152,162749.995,0.123,0.888,-0.443,-0.056,0.085,-0.013,0.31,-0.097,-0.137,0.271,-1.093,1.342
2024-09-23 11:40:17.162,162750.005,0.122,0.887,-0.446,-0.003,0.017,0.006,0.338,-0.1,-0.099,0.266,-1.091,1.338
2024-09-23 11:40:17.172,162750.015,0.121,0.886,-0.449,-0.012,0.012,0.014,0.306,-0.089,-0.018,0.263,-1.088,1.335
2024-09-23 11:40:17.182,162750.025,0.12,0.884,-0.451,-0.05,0.043,0.004,0.265,-0.057,0.043,0.261,-1.085,1.334
2024-09-23 11:40:17.192,162750.035,0.121,0.883,-0.453,-0.067,0.041,-0.016,0.21,-0.012,0.108,0.261,-1.082,1.334
2024-09-23 11:40:17.202,162750.045,0.122,0.882,-0.455,-0.057,-0.002,-0.028,0.141,0.026,0.156,0.262,-1.08,1.336
2024-09-23 11:40:17.212,162750.055,0.124,0.881,-0.456,-0.043,-0.034,-0.033,0.068,0.037,0.196,0.265,-1.079,1.339
2024-09-23 11:40:17.222,162750.065,0.126,0.881,-0.456,-0.03,-0.028,-0.03,0.042,0.045,0.207,0.269,-1.078,1.343
2024-09-23 11:40:17.232,162750.075,0.128,0.881,-0.456,-0.021,-0.015,-0.027,0.013,0.052,0.166,0.273,-1.077,1.346
2024-09-23 11:40:17.242,162750.085,0.129,0.88,-0.456,-0.012,-0.014,-0.022,0.0,0.045,0.111,0.276,-1.077,1.349
2024-09-23 11:40:17.252,162750.094,0.13,0.88,-0.456,-0.004,-0.009,-0.018,-0.012,0.053,0.044,0.278,-1.076,1.351
2024-09-23 11:40:17.261,162750.104,0.13,0.88,-0.456,0.008,-0.006,-0.015,-0.012,0.061,-0.024,0.278,-1.077,1.351
2024-09-23 11:40:17.272,162750.114,0.13,0.88,-0.456,0.013,-0.014,-0.011,0.037,0.042,-0.078,0.278,-1.077,1.35
2024-09-23 11:40:17.281,162750.124,0.129,0.88,-0.457,0.007,-0.013,-0.008,0.129,0.016,-0.108,0.276,-1.076,1.347
2024-09-23 11:40:17.292,162750.134,0.128,0.879,-0.459,0.009,0.002,0.007,0.273,-0.011,-0.117,0.273,-1.074,1.344
2024-09-23 11:40:17.301,162750.144,0.127,0.878,-0.462,0.013,0.028,0.016,0.448,-0.068,-0.127,0.268,-1.071,1.339
2024-09-23 11:40:17.312,162750.154,0.126,0.875,-0.467,0.008,0.04,0.029,0.586,-0.047,-0.069,0.263,-1.066,1.334
2024-09-23 11:40:17.321,162750.164,0.125,0.873,-0.472,0.003,0.051,0.057,0.598,-0.059,-0.016,0.259,-1.061,1.33
2024-09-23 11:40:17.331,162750.174,0.125,0.87,-0.477,-0.012,0.079,0.039,0.55,-0.05,0.028,0.256,-1.055,1.327
2024-09-23 11:40:17.342,162750.184,0.125,0.868,-0.481,-0.03,0.046,0.022,0.428,-0.03,0.1,0.255,-1.05,1.326
2024-09-23 11:40:17.352,162750.194,0.126,0.866,-0.484,-0.031,-0.054,0.01,0.271,-0.024,0.198,0.255,-1.046,1.327
2024-09-23 11:40:17.362,162750.204,0.128,0.865,-0.486,-0.038,-0.073,-0.018,0.055,-0.026,0.28,0.258,-1.044,1.331
2024-09-23 11:40:17.372,162750.214,0.131,0.864,-0.486,-0.039,-0.047,-0.034,-0.139,0.022,0.325,0.264,-1.044,1.337
2024-09-23 11:40:17.382,162750.224,0.134,0.865,-0.483,-0.024,-0.045,-0.051,-0.351,0.043,0.348,0.271,-1.045,1.345
2024-09-23 11:40:17.392,162750.234,0.137,0.867,-0.479,-0.023,-0.059,-0.067,-0.542,0.001,0.251,0.278,-1.049,1.353
2024-09-23 11:40:17.401,162750.244,0.138,0.869,-0.474,-0.017,-0.074,-0.066,-0.595,-0.033,0.045,0.283,-1.054,1.359
2024-09-23 11:40:17.412,162750.254,0.138,0.872,-0.47,-0.01,-0.079,-0.052,-0.477,-0.033,-0.053,0.285,-1.059,1.362
2024-09-23 11:40:17.421,162750.264,0.137,0.874,-0.466,-0.004,-0.066,-0.003,-0.328,-0.02,-0.121,0.286,-1.063,1.363
2024-09-23 11:40:17.431,162750.274,0.135,0.875,-0.464,0.021,-0.023,0.026,-0.219,-0.065,-0.206,0.284,-1.066,1.361
2024-09-23 11:40:17.442,162750.284,0.133,0.877,-0.462,0.041,0.036,0.005,-0.182,-0.075,-0.248,0.28,-1.069,1.357
2024-09-23 11:40:17.451,162750.294,0.131,0.878,-0.461,0.046,0.031,-0.023,-0.22,0.009,-0.271,0.276,-1.071,1.353
2024-09-23 11:40:17.461,162750.304,0.129,0.879,-0.458,0.031,-0.011,-0.022,-0.298,0.084,-0.242,0.273,-1.075,1.35
2024-09-23 11:40:17.471,162750.314,0.127,0.881,-0.456,-0.007,-0.021,-0.027,-0.275,0.101,-0.193,0.272,-1.078,1.347
2024-09-23 11:40:17.481,162750.324,0.126,0.882,-0.453,-0.025,-0.01,-0.036,-0.208,0.118,-0.128,0.271,-1.081,1.345
2024-09-23 11:40:17.491,162750.334,0.126,0.883,-0.452,-0.014,-0.031,-0.029,-0.054,0.114,-0.048,0.272,-1.082,1.344
2024-09-23 11:40:17.502,162750.344,0.126,0.883,-0.452,-0.012,-0.002,-0.005,0.158,0.092,0.021,0.272,-1.082,1.343
2024-09-23 11:40:17.511,162750.354,0.127,0.882,-0.455,-0.018,0.065,0.022,0.387,0.045,0.081,0.273,-1.079,1.343
2024-09-23 11:40:17.521,162750.364,0.128,0.879,-0.459,-0.02,0.096,0.044,0.576,-0.027,0.121,0.272,-1.074,1.342
2024-09-23 11:40:17.531,162750.374,0.129,0.876,-0.465,-0.016,0.093,0.055,0.716,-0.024,0.149,0.271,-1.067,1.341
2024-09-23 11:40:17.541,162750.384,0.13,0.873,-0.47,-0.011,0.085,0.062,0.563,0.006,0.187,0.271,-1.061,1.341
2024-09-23 11:40:17.551,162750.394,0.132,0.87,-0.474,-0.009,0.076,0.038,0.338,0.039,0.21,0.272,-1.056,1.343
2024-09-23 11:40:17.561,162750.404,0.134,0.869,-0.476,-0.023,0.029,-0.031,-0.04,0.125,0.188,0.275,-1.054,1.346
2024-09-23 11:40:17.571,162750.414,0.137,0.87,-0.474,-0.017,-0.113,-0.064,-0.377,0.212,0.159,0.281,-1.055,1.35
2024-09-23 11:40:17.581,162750.424,0.139,0.872,-0.469,-0.03,-0.19,-0.098,-0.559,0.192,0.117,0.288,-1.06,1.356
2024-09-23 11:40:17.591,162750.434,0.141,0.875,-0.464,-0.034,-0.133,-0.101,-0.616,0.179,0.05,0.294,-1.065,1.361
2024-09-23 11:40:17.601,162750.444,0.142,0.878,-0.458,-0.01,-0.085,-0.078,-0.578,0.179,-0.004,0.3,-1.071,1.365
2024-09-23 11:40:17.611,162750.454,0.142,0.88,-0.453,0.006,-0.068,-0.044,-0.459,0.127,-0.012,0.304,-1.076,1.368
2024-09-23 11:40:17.621,162750.464,0.143,0.882,-0.45,0.004,-0.033,-0.013,-0.275,0.095,0.008,0.307,-1.079,1.37
2024-09-23 11:40:17.632,162750.474,0.143,0.883,-0.448,-0.0,0.007,0.006,-0.17,0.074,0.047,0.31,-1.081,1.372
2024-09-23 11:40:17.641,162750.484,0.144,0.883,-0.446,-0.004,0.017,0.035,-0.137,0.039,0.135,0.313,-1.082,1.375
2024-09-23 11:40:17.651,162750.494,0.146,0.883,-0.445,-0.021,0.03,0.038,-0.152,0.069,0.176,0.317,-1.083,1.379
2024-09-23 11:40:17.661,162750.504,0.148,0.884,-0.443,-0.034,0.006,0.01,-0.235,0.011,0.115,0.321,-1.084,1.383
2024-09-23 11:40:17.671,162750.514,0.148,0.885,-0.441,-0.043,-0.042,-0.038,-0.401,0.002,0.069,0.325,-1.087,1.387
2024-09-23 11:40:17.681,162750.524,0.149,0.887,-0.436,-0.061,-0.044,-0.059,-0.555,0.082,0.025,0.329,-1.092,1.392
2024-09-23 11:40:17.691,162750.534,0.149,0.89,-0.431,-0.071,-0.018,-0.065,-0.529,0.036,-0.125,0.332,-1.097,1.395
2024-09-23 11:40:17.701,162750.544,0.147,0.892,-0.427,-0.074,0.007,-0.091,-0.446,0.042,-0.184,0.333,-1.102,1.395
2024-09-23 11:40:17.711,162750.554,0.146,0.894,-0.424,-0.083,0.017,-0.104,-0.302,0.027,-0.189,0.332,-1.106,1.394
2024-09-23 11:40:17.721,162750.564,0.145,0.895,-0.421,-0.069,0.052,-0.073,-0.222,-0.001,-0.088,0.331,-1.109,1.392
2024-09-23 11:40:17.731,162750.574,0.144,0.896,-0.419,-0.059,0.122,-0.038,-0.257,-0.005,-0.001,0.332,-1.111,1.393
2024-09-23 11:40:17.741,162750.584,0.144,0.897,-0.418,-0.061,0.166,0.004,-0.03,-0.121,-0.069,0.332,-1.113,1.394
2024-09-23 11:40:17.751,162750.594,0.142,0.897,-0.418,-0.065,0.183,0.077,-0.101,-0.161,-0.129,0.329,-1.114,1.392
2024-09-23 11:40:17.761,162750.604,0.141,0.898,-0.418,-0.105,0.135,0.081,0.055,-0.201,-0.056,0.325,-1.115,1.39
2024-09-23 11:40:17.771,162750.614,0.139,0.897,-0.419,-0.116,0.094,0.147,0.12,-0.252,-0.028,0.321,-1.114,1.389
2024-09-23 11:40:17.781,162750.624,0.138,0.897,-0.42,-0.123,0.018,0.147,0.078,-0.242,-0.042,0.318,-1.113,1.387
2024-09-23 11:40:17.791,162750.634,0.136,0.897,-0.421,-0.08,-0.073,0.129,0.202,-0.229,-0.127,0.313,-1.112,1.384
2024-09-23 11:40:17.801,162750.644,0.134,0.896,-0.424,-0.056,-0.03,0.15,0.322,-0.212,-0.147,0.306,-1.11,1.379
2024-09-23 11:40:17.811,162750.654,0.132,0.894,-0.427,-0.052,-0.043,0.114,0.347,-0.185,-0.1,0.3,-1.107,1.375
2024-09-23 11:40:17.821,162750.664,0.131,0.893,-0.431,0.003,-0.069,0.058,0.305,-0.167,-0.079,0.294,-1.104,1.371
2024-09-23 11:40:17.831,162750.674,0.129,0.892,-0.433,0.068,-0.069,0.01,0.198,-0.095,-0.091,0.29,-1.102,1.367
2024-09-23 11:40:17.841,162750.684,0.128,0.892,-0.434,0.107,-0.114,-0.027,0.097,0.002,-0.087,0.287,-1.101,1.364
2024-09-23 11:40:17.851,162750.693,0.128,0.891,-0.435,0.126,-0.17,-0.038,0.07,0.06,-0.073,0.286,-1.1,1.362
2024-09-23 11:40:17.861,162750.703,0.128,0.891,-0.436,0.137,-0.17,-0.037,0.084,0.07,-0.033,0.285,-1.1,1.36
2024-09-23 11:40:17.871,162750.713,0.128,0.891,-0.436,0.157,-0.135,-0.043,0.067,0.077,0.003,0.285,-1.099,1.36
2024-09-23 11:40:17.881,162750.723,0.128,0.89,-0.437,0.185,-0.1,-0.06,0.037,0.122,0.007,0.286,-1.098,1.36
2024-09-23 11:40:17.891,162750.733,0.129,0.89,-0.437,0.195,-0.07,-0.055,0.034,0.149,-0.01,0.287,-1.098,1.359
2024-09-23 11:40:17.900,162750.743,0.129,0.89,-0.437,0.165,-0.04,-0.037,0.055,0.167,-0.007,0.288,-1.098,1.359
2024-09-23 11:40:17.910,162750.753,0.13,0.89,-0.437,0.117,-0.018,-0.034,0.052,0.162,0.023,0.289,-1.097,1.359
2024-09-23 11:40:17.920,162750.763,0.131,0.89,-0.438,0.077,-0.0,-0.05,0.059,0.118,0.022,0.291,-1.096,1.359
2024-09-23 11:40:17.931,162750.773,0.132,0.889,-0.438,0.034,0.041,-0.071,0.084,0.08,0.015,0.292,-1.096,1.359
2024-09-23 11:40:17.941,162750.783,0.132,0.889,-0.439,0.0,0.068,-0.064,0.071,0.052,0.02,0.293,-1.095,1.359
2024-09-23 11:40:17.951,162750.793,0.133,0.889,-0.439,-0.018,0.055,-0.037,0.027,0.032,0.03,0.293,-1.094,1.359
2024-09-23 11:40:17.961,162750.803,0.133,0.889,-0.439,-0.033,0.042,-0.025,-0.022,0.014,0.028,0.294,-1.094,1.36
2024-09-23 11:40:17.970,162750.813,0.133,0.889,-0.439,-0.046,0.03,-0.022,-0.041,0.015,0.023,0.295,-1.094,1.361
2024-09-23 11:40:17.981,162750.823,0.134,0.889,-0.438,-0.063,0.005,-0.028,-0.038,0.004,0.009,0.296,-1.095,1.361
2024-09-23 11:40:17.991,162750.833,0.134,0.889,-0.438,-0.081,-0.016,-0.033,-0.005,-0.016,0.002,0.296,-1.095,1.362
2024-09-23 11:40:18.000,162750.843,0.134,0.889,-0.438,-0.084,-0.013,-0.036,0.03,-0.021,0.007,0.296,-1.095,1.362
2024-09-23 11:40:18.011,162750.853,0.134,0.889,-0.439,-0.072,0.002,-0.031,0.07,-0.04,0.004,0.296,-1.094,1.362
2024-09-23 11:40:18.021,162750.863,0.134,0.888,-0.44,-0.058,0.013,-0.023,0.13,-0.037,-0.003,0.295,-1.093,1.361
2024-09-23 11:40:18.030,162750.873,0.133,0.887,-0.441,-0.041,0.016,-0.014,0.188,-0.06,-0.003,0.293,-1.092,1.36
2024-09-23 11:40:18.041,162750.883,0.133,0.886,-0.443,-0.018,0.01,-0.008,0.271,-0.078,-0.007,0.291,-1.09,1.358
2024-09-23 11:40:18.050,162750.893,0.133,0.885,-0.446,0.003,0.019,-0.006,0.385,-0.084,0.005,0.289,-1.086,1.356
2024-09-23 11:40:18.061,162750.903,0.132,0.883,-0.451,0.019,0.03,0.005,0.536,-0.093,0.032,0.285,-1.082,1.354
2024-09-23 11:40:18.071,162750.913,0.132,0.88,-0.456,0.023,0.043,0.019,0.671,-0.125,0.056,0.282,-1.076,1.351
2024-09-23 11:40:18.081,162750.923,0.132,0.877,-0.462,0.019,0.05,0.027,0.707,-0.086,0.108,0.278,-1.069,1.348
2024-09-23 11:40:18.091,162750.933,0.133,0.874,-0.468,0.016,0.052,0.052,0.587,-0.103,0.096,0.276,-1.063,1.346
2024-09-23 11:40:18.100,162750.943,0.132,0.871,-0.473,0.018,0.046,0.062,0.381,-0.131,0.062,0.273,-1.058,1.345
2024-09-23 11:40:18.110,162750.953,0.133,0.87,-0.475,-0.006,0.008,0.019,0.115,-0.07,0.105,0.272,-1.055,1.345
2024-09-23 11:40:18.120,162750.963,0.133,0.87,-0.475,-0.025,-0.074,-0.004,-0.179,-0.043,0.153,0.274,-1.055,1.348
2024-09-23 11:40:18.130,162750.973,0.135,0.871,-0.472,-0.036,-0.13,-0.029,-0.322,-0.023,0.14,0.278,-1.057,1.352
2024-09-23 11:40:18.141,162750.983,0.136,0.872,-0.47,-0.044,-0.096,-0.045,-0.366,-0.051,0.133,0.281,-1.06,1.357
2024-09-23 11:40:18.151,162750.993,0.136,0.874,-0.466,-0.04,-0.065,-0.06,-0.455,-0.099,0.139,0.285,-1.064,1.362
2024-09-23 11:40:18.160,162751.003,0.137,0.876,-0.462,-0.02,-0.051,-0.055,-0.507,-0.056,0.078,0.288,-1.068,1.367
2024-09-23 11:40:18.170,162751.013,0.137,0.879,-0.458,0.02,-0.019,-0.022,-0.498,-0.033,0.01,0.291,-1.073,1.371
2024-09-23 11:40:18.180,162751.023,0.137,0.881,-0.453,0.036,-0.033,-0.009,-0.443,0.03,-0.024,0.294,-1.077,1.373
2024-09-23 11:40:18.190,162751.033,0.137,0.883,-0.45,0.031,-0.051,-0.012,-0.348,0.063,-0.068,0.296,-1.081,1.375
2024-09-23 11:40:18.200,162751.043,0.137,0.884,-0.447,0.031,-0.036,-0.006,-0.285,0.068,-0.058,0.297,-1.084,1.376
2024-09-23 11:40:18.210,162751.053,0.137,0.885,-0.445,0.015,-0.014,-0.031,-0.22,0.087,-0.043,0.298,-1.087,1.376
2024-09-23 11:40:18.220,162751.063,0.137,0.886,-0.443,0.009,0.007,-0.046,-0.149,0.096,-0.075,0.299,-1.089,1.376
2024-09-23 11:40:18.230,162751.073,0.136,0.887,-0.442,0.004,0.013,-0.029,0.037,0.086,-0.105,0.299,-1.09,1.375
2024-09-23 11:40:18.240,162751.083,0.136,0.886,-0.444,-0.019,0.022,-0.031,0.282,0.033,-0.051,0.297,-1.089,1.372
2024-09-23 11:40:18.250,162751.093,0.136,0.884,-0.447,-0.042,0.017,-0.033,0.559,-0.012,0.013,0.294,-1.085,1.369
2024-09-23 11:40:18.260,162751.103,0.136,0.881,-0.453,-0.037,0.056,-0.002,0.8,-0.092,0.045,0.29,-1.078,1.365
2024-09-23 11:40:18.270,162751.113,0.135,0.877,-0.461,-0.025,0.112,0.057,0.874,-0.145,0.082,0.286,-1.07,1.362
2024-09-23 11:40:18.280,162751.123,0.136,0.873,-0.469,-0.014,0.133,0.099,0.875,-0.055,0.111,0.282,-1.061,1.358
2024-09-23 11:40:18.290,162751.133,0.136,0.869,-0.476,0.008,0.131,0.11,0.837,-0.094,-0.003,0.278,-1.052,1.355
2024-09-23 11:40:18.300,162751.143,0.136,0.865,-0.483,-0.006,0.077,0.03,0.547,-0.062,0.006,0.274,-1.046,1.351
2024-09-23 11:40:18.310,162751.153,0.136,0.864,-0.486,-0.048,-0.035,-0.051,0.135,0.058,0.061,0.273,-1.042,1.35
2024-09-23 11:40:18.320,162751.163,0.137,0.864,-0.485,-0.033,-0.125,-0.064,-0.182,0.126,0.018,0.275,-1.042,1.351
2024-09-23 11:40:18.330,162751.173,0.137,0.865,-0.482,-0.036,-0.138,-0.091,-0.43,0.118,-0.013,0.277,-1.045,1.352
2024-09-23 11:40:18.340,162751.183,0.138,0.868,-0.478,-0.052,-0.133,-0.098,-0.57,0.146,-0.033,0.281,-1.05,1.355
2024-09-23 11:40:18.350,162751.193,0.138,0.871,-0.472,-0.026,-0.106,-0.072,-0.655,0.158,-0.069,0.285,-1.056,1.357
2024-09-23 11:40:18.360,162751.203,0.138,0.874,-0.466,0.004,-0.086,-0.026,-0.626,0.159,-0.07,0.288,-1.063,1.36
2024-09-23 11:40:18.370,162751.213,0.139,0.877,-0.461,0.011,-0.065,-0.001,-0.553,0.188,-0.042,0.292,-1.069,1.362
2024-09-23 11:40:18.380,162751.223,0.139,0.879,-0.456,0.004,-0.045,0.015,-0.507,0.121,-0.063,0.295,-1.074,1.364
2024-09-23 11:40:18.390,162751.233,0.139,0.881,-0.452,-0.015,-0.014,0.014,-0.457,0.073,-0.079,0.298,-1.079,1.366
2024-09-23 11:40:18.400,162751.243,0.138,0.884,-0.447,-0.035,0.018,-0.004,-0.552,0.064,-0.054,0.3,-1.084,1.367
2024-09-23 11:40:18.410,162751.253,0.138,0.887,-0.441,-0.034,-0.006,-0.022,-0.808,0.101,-0.011,0.304,-1.09,1.371
2024-09-23 11:40:18.420,162751.263,0.139,0.891,-0.433,-0.006,-0.007,-0.018,-1.094,0.121,-0.062,0.31,-1.099,1.377
2024-09-23 11:40:18.430,162751.273,0.138,0.896,-0.421,0.015,0.009,-0.083,-1.379,0.136,-0.118,0.317,-1.111,1.383
2024-09-23 11:40:18.440,162751.283,0.138,0.903,-0.408,-0.003,-0.033,-0.164,-1.609,0.177,-0.09,0.326,-1.126,1.392
2024-09-23 11:40:18.450,162751.292,0.138,0.909,-0.392,-0.011,-0.075,-0.188,-1.723,0.212,-0.04,0.339,-1.142,1.403
2024-09-23 11:40:18.460,162751.302,0.139,0.916,-0.376,0.002,-0.049,-0.189,-1.676,0.205,-0.027,0.353,-1.158,1.416
2024-09-23 11:40:18.470,162751.312,0.139,0.922,-0.361,0.038,0.017,-0.166,-1.578,0.178,0.032,0.368,-1.173,1.431
2024-09-23 11:40:18.480,162751.322,0.141,0.927,-0.347,0.089,0.082,-0.145,-1.385,0.191,0.092,0.385,-1.187,1.447
2024-09-23 11:40:18.490,162751.332,0.142,0.931,-0.335,0.14,0.138,-0.107,-1.125,0.222,0.144,0.402,-1.198,1.463
2024-09-23 11:40:18.500,162751.342,0.145,0.934,-0.326,0.174,0.175,-0.065,-0.752,0.261,0.238,0.418,-1.206,1.478
2024-09-23 11:40:18.509,162751.352,0.149,0.935,-0.321,0.204,0.171,-0.054,-0.355,0.252,0.356,0.434,-1.21,1.488
2024-09-23 11:40:18.519,162751.362,0.153,0.936,-0.318,0.241,0.149,-0.074,-0.152,0.241,0.51,0.449,-1.21,1.502
2024-09-23 11:40:18.530,162751.372,0.159,0.935,-0.317,0.282,0.161,-0.069,0.001,0.243,0.616,0.466,-1.208,1.517
2024-09-23 11:40:18.540,162751.382,0.166,0.934,-0.317,0.319,0.219,-0.008,0.126,0.229,0.695,0.483,-1.205,1.532
2024-09-23 11:40:18.550,162751.392,0.174,0.932,-0.318,0.315,0.224,0.039,0.218,0.186,0.761,0.5,-1.2,1.548
2024-09-23 11:40:18.559,162751.402,0.181,0.93,-0.32,0.294,0.166,0.058,0.26,0.115,0.792,0.515,-1.194,1.563
2024-09-23 11:40:18.569,162751.412,0.189,0.927,-0.323,0.276,0.09,0.072,0.229,0.046,0.786,0.53,-1.188,1.578
2024-09-23 11:40:18.579,162751.422,0.196,0.925,-0.324,0.249,-0.005,0.083,0.126,-0.005,0.765,0.544,-1.182,1.594
2024-09-23 11:40:18.590,162751.432,0.203,0.924,-0.325,0.222,-0.109,0.105,-0.023,-0.045,0.684,0.559,-1.178,1.605
2024-09-23 11:40:18.600,162751.442,0.208,0.923,-0.325,0.193,-0.191,0.132,-0.064,-0.129,0.551,0.571,-1.175,1.619
2024-09-23 11:40:18.610,162751.452,0.213,0.922,-0.324,0.159,-0.25,0.139,-0.141,-0.195,0.509,0.581,-1.173,1.632
2024-09-23 11:40:18.620,162751.462,0.216,0.921,-0.323,0.133,-0.306,0.129,-0.165,-0.247,0.445,0.59,-1.172,1.644
2024-09-23 11:40:18.629,162751.472,0.219,0.921,-0.323,0.097,-0.291,0.127,-0.035,-0.29,0.307,0.596,-1.17,1.654
2024-09-23 11:40:18.640,162751.482,0.22,0.92,-0.324,0.043,-0.257,0.102,0.16,-0.327,0.198,0.597,-1.168,1.658
2024-09-23 11:40:18.650,162751.492,0.221,0.919,-0.327,0.006,-0.265,0.077,0.396,-0.372,0.115,0.593,-1.165,1.658
2024-09-23 11:40:18.660,162751.502,0.22,0.917,-0.333,-0.004,-0.225,0.074,0.594,-0.455,0.073,0.585,-1.161,1.652
2024-09-23 11:40:18.669,162751.512,0.219,0.915,-0.34,-0.022,-0.148,0.056,0.695,-0.557,0.014,0.572,-1.155,1.645
2024-09-23 11:40:18.679,162751.522,0.216,0.912,-0.347,-0.064,-0.086,0.045,0.647,-0.61,-0.073,0.558,-1.149,1.635
2024-09-23 11:40:18.689,162751.532,0.213,0.911,-0.354,-0.121,-0.058,0.063,0.526,-0.632,-0.18,0.542,-1.145,1.625
2024-09-23 11:40:18.699,162751.542,0.209,0.91,-0.359,-0.18,-0.066,0.085,0.393,-0.641,-0.288,0.526,-1.142,1.614
2024-09-23 11:40:18.709,162751.552,0.203,0.909,-0.364,-0.22,-0.094,0.09,0.265,-0.673,-0.398,0.51,-1.141,1.603
2024-09-23 11:40:18.719,162751.562,0.197,0.909,-0.367,-0.241,-0.128,0.086,0.159,-0.689,-0.533,0.492,-1.141,1.591
2024-09-23 11:40:18.729,162751.572,0.189,0.91,-0.369,-0.262,-0.161,0.082,0.143,-0.629,-0.669,0.472,-1.143,1.577
2024-09-23 11:40:18.739,162751.582,0.18,0.91,-0.372,-0.276,-0.207,0.096,0.297,-0.499,-0.807,0.45,-1.144,1.559
2024-09-23 11:40:18.749,162751.592,0.17,0.91,-0.377,-0.287,-0.259,0.102,0.68,-0.398,-0.934,0.424,-1.144,1.535
2024-09-23 11:40:18.759,162751.602,0.16,0.908,-0.386,-0.304,-0.288,0.062,1.155,-0.319,-1.043,0.393,-1.139,1.504
2024-09-23 11:40:18.769,162751.612,0.149,0.905,-0.4,-0.309,-0.276,0.004,1.631,-0.346,-1.149,0.357,-1.13,1.468
2024-09-23 11:40:18.780,162751.622,0.137,0.899,-0.415,-0.298,-0.222,-0.035,1.684,-0.45,-1.205,0.317,-1.118,1.429
2024-09-23 11:40:18.789,162751.632,0.123,0.895,-0.429,-0.293,-0.163,-0.074,0.995,-0.673,-1.243,0.28,-1.109,1.394
2024-09-23 11:40:18.799,162751.642,0.11,0.895,-0.433,-0.278,-0.084,-0.034,-0.156,0.024,-1.305,0.248,-1.108,1.363
2024-09-23 11:40:18.809,162751.652,0.104,0.895,-0.433,-0.269,0.004,0.047,-0.639,0.669,-0.89,0.236,-1.109,1.344
2024-09-23 11:40:18.819,162751.662,0.104,0.902,-0.418,-0.27,0.147,-0.047,-1.895,0.356,0.567,0.244,-1.125,1.347
2024-09-23 11:40:18.829,162751.672,0.113,0.906,-0.409,-0.182,1.034,-0.638,-0.079,-0.192,1.043,0.269,-1.133,1.374
2024-09-23 11:40:18.839,162751.682,0.118,0.903,-0.413,-0.178,1.937,0.092,0.661,-0.242,0.303,0.278,-1.127,1.386
2024-09-23 11:40:18.849,162751.692,0.118,0.901,-0.418,-0.18,0.908,0.181,0.433,0.015,-0.131,0.275,-1.121,1.384
2024-09-23 11:40:18.859,162751.702,0.116,0.899,-0.422,-0.001,-0.264,0.006,0.374,-0.016,-0.439,0.267,-1.118,1.375
2024-09-23 11:40:18.869,162751.712,0.112,0.897,-0.428,0.173,-0.677,0.156,1.419,-0.057,-0.157,0.256,-1.112,1.363
2024-09-23 11:40:18.879,162751.722,0.109,0.891,-0.441,0.133,-0.839,0.139,1.294,-0.188,-0.541,0.241,-1.099,1.348
2024-09-23 11:40:18.890,162751.732,0.104,0.886,-0.451,0.101,-0.511,-0.083,0.999,-0.255,-0.229,0.226,-1.089,1.334
2024-09-23 11:40:18.899,162751.742,0.103,0.882,-0.461,0.105,0.284,-0.247,1.092,-0.243,0.267,0.22,-1.079,1.33
2024-09-23 11:40:18.909,162751.752,0.105,0.876,-0.471,-0.121,0.8,-0.07,1.119,-0.235,0.273,0.219,-1.068,1.331
2024-09-23 11:40:18.919,162751.762,0.104,0.871,-0.48,-0.159,0.508,0.053,0.976,-0.219,-0.093,0.214,-1.057,1.328
2024-09-23 11:40:18.929,162751.772,0.101,0.867,-0.488,-0.0,-0.043,0.061,0.642,-0.18,-0.368,0.205,-1.05,1.32
2024-09-23 11:40:18.939,162751.782,0.097,0.865,-0.492,0.096,-0.32,-0.013,0.292,-0.083,-0.385,0.195,-1.046,1.31
2024-09-23 11:40:18.949,162751.792,0.094,0.865,-0.493,0.067,-0.36,-0.071,0.077,0.019,-0.255,0.189,-1.045,1.303
2024-09-23 11:40:18.959,162751.802,0.093,0.865,-0.494,-0.023,-0.205,-0.095,0.057,0.074,-0.149,0.186,-1.045,1.299
2024-09-23 11:40:18.969,162751.812,0.092,0.864,-0.494,-0.082,0.024,-0.073,0.067,0.06,-0.112,0.184,-1.044,1.297
2024-09-23 11:40:18.979,162751.822,0.091,0.864,-0.495,-0.062,0.127,-0.027,0.059,0.008,-0.113,0.183,-1.044,1.294
2024-09-23 11:40:18.989,162751.832,0.09,0.864,-0.495,-0.012,0.053,-0.009,0.052,-0.047,-0.106,0.18,-1.043,1.292
2024-09-23 11:40:18.999,162751.842,0.089,0.864,-0.496,0.017,-0.051,-0.001,0.069,-0.057,-0.088,0.178,-1.043,1.29
2024-09-23 11:40:19.009,162751.852,0.088,0.864,-0.496,0.017,-0.046,0.006,0.071,-0.058,-0.06,0.176,-1.042,1.288
2024-09-23 11:40:19.019,162751.862,0.088,0.863,-0.497,0.0,0.016,0.002,0.062,-0.072,-0.03,0.174,-1.042,1.287
2024-09-23 11:40:19.029,162751.872,0.087,0.863,-0.498,-0.015,0.033,0.002,0.057,-0.086,-0.025,0.173,-1.041,1.286
2024-09-23 11:40:19.039,162751.882,0.086,0.863,-0.498,-0.009,-0.013,-0.005,0.064,-0.092,-0.023,0.172,-1.041,1.286
2024-09-23 11:40:19.048,162751.891,0.086,0.862,-0.499,-0.003,-0.04,-0.008,0.059,-0.078,-0.04,0.17,-1.04,1.285
2024-09-23 11:40:19.057,162751.901,0.085,0.862,-0.499,-0.001,-0.024,-0.001,0.012,-0.054,-0.049,0.169,-1.04,1.284
2024-09-23 11:40:19.067,162751.911,0.084,0.862,-0.499,-0.005,-0.014,-0.001,-0.069,-0.031,-0.051,0.167,-1.04,1.283
2024-09-23 11:40:19.077,162751.921,0.084,0.863,-0.498,-0.013,-0.023,-0.012,-0.174,0.006,-0.052,0.167,-1.041,1.282
2024-09-23 11:40:19.088,162751.931,0.083,0.864,-0.496,-0.011,-0.044,-0.029,-0.211,0.032,-0.044,0.167,-1.043,1.282
2024-09-23 11:40:19.099,162751.941,0.083,0.865,-0.494,-0.015,-0.049,-0.041,-0.19,0.02,-0.047,0.167,-1.046,1.282
2024-09-23 11:40:19.109,162751.951,0.083,0.866,-0.493,-0.017,-0.03,-0.025,-0.064,-0.024,-0.069,0.166,-1.047,1.281
2024-09-23 11:40:19.119,162751.961,0.082,0.866,-0.493,-0.007,0.003,-0.0,0.092,-0.062,-0.092,0.164,-1.047,1.279
2024-09-23 11:40:19.129,162751.971,0.081,0.865,-0.495,0.01,0.028,0.022,0.184,-0.091,-0.107,0.161,-1.046,1.277
2024-09-23 11:40:19.139,162751.981,0.079,0.864,-0.497,0.016,0.062,0.034,0.219,-0.069,-0.119,0.158,-1.044,1.274
2024-09-23 11:40:19.148,162751.991,0.078,0.863,-0.499,0.011,0.073,0.018,0.213,-0.035,-0.122,0.155,-1.042,1.271
2024-09-23 11:40:19.158,162752.001,0.077,0.862,-0.501,-0.003,0.029,-0.004,0.221,-0.018,-0.112,0.152,-1.04,1.268
2024-09-23 11:40:19.169,162752.011,0.076,0.861,-0.503,-0.013,-0.012,-0.009,0.239,-0.001,-0.104,0.15,-1.038,1.265
2024-09-23 11:40:19.178,162752.021,0.075,0.86,-0.505,-0.012,-0.02,-0.002,0.264,0.003,-0.082,0.147,-1.035,1.263
2024-09-23 11:40:19.188,162752.031,0.074,0.858,-0.507,-0.01,0.002,0.001,0.319,-0.003,-0.053,0.145,-1.032,1.26
2024-09-23 11:40:19.198,162752.041,0.074,0.857,-0.51,-0.011,0.028,0.006,0.411,-0.003,-0.006,0.144,-1.029,1.259
2024-09-23 11:40:19.208,162752.051,0.074,0.855,-0.514,-0.012,0.023,0.016,0.311,0.031,0.053,0.144,-1.025,1.258
2024-09-23 11:40:19.218,162752.061,0.075,0.854,-0.515,-0.01,0.025,0.018,0.167,0.101,0.084,0.145,-1.023,1.259
2024-09-23 11:40:19.228,162752.071,0.077,0.853,-0.516,-0.029,0.044,-0.02,-0.027,0.153,0.111,0.148,-1.022,1.261
2024-09-23 11:40:19.238,162752.081,0.079,0.854,-0.515,-0.051,-0.025,-0.044,-0.223,0.141,0.144,0.152,-1.023,1.264
2024-09-23 11:40:19.248,162752.091,0.08,0.855,-0.512,-0.037,-0.108,-0.056,-0.345,0.111,0.116,0.156,-1.026,1.267
2024-09-23 11:40:19.258,162752.101,0.082,0.857,-0.509,-0.018,-0.085,-0.047,-0.422,0.08,0.063,0.159,-1.03,1.27
2024-09-23 11:40:19.268,162752.111,0.082,0.859,-0.505,-0.002,-0.064,-0.023,-0.484,0.057,0.039,0.162,-1.034,1.272
2024-09-23 11:40:19.278,162752.121,0.083,0.862,-0.5,0.008,-0.094,-0.017,-0.53,-0.002,0.052,0.164,-1.039,1.275
2024-09-23 11:40:19.288,162752.131,0.083,0.865,-0.496,0.006,-0.112,-0.021,-0.542,-0.045,0.055,0.166,-1.044,1.277
2024-09-23 11:40:19.299,162752.141,0.084,0.867,-0.491,0.006,-0.073,-0.017,-0.504,-0.022,0.052,0.168,-1.049,1.28
2024-09-23 11:40:19.308,162752.151,0.084,0.869,-0.487,0.001,-0.034,-0.013,-0.442,0.004,0.043,0.171,-1.054,1.283
2024-09-23 11:40:19.318,162752.161,0.084,0.871,-0.484,-0.005,-0.012,-0.017,-0.367,0.019,0.08,0.173,-1.058,1.285
2024-09-23 11:40:19.328,162752.171,0.085,0.873,-0.481,-0.015,0.031,-0.015,-0.295,0.034,0.094,0.176,-1.061,1.288
2024-09-23 11:40:19.338,162752.181,0.086,0.874,-0.478,-0.018,0.07,-0.007,-0.232,0.032,0.074,0.178,-1.063,1.291
2024-09-23 11:40:19.348,162752.191,0.087,0.875,-0.477,-0.016,0.057,-0.004,-0.141,0.01,0.05,0.18,-1.065,1.293
2024-09-23 11:40:19.358,162752.201,0.087,0.875,-0.476,-0.004,0.019,-0.002,0.007,0.0,0.036,0.181,-1.066,1.294
2024-09-23 11:40:19.368,162752.211,0.087,0.875,-0.477,0.004,-0.004,0.003,0.214,-0.035,0.024,0.181,-1.065,1.294
2024-09-23 11:40:19.378,162752.221,0.087,0.873,-0.48,0.004,0.012,0.017,0.443,-0.062,0.012,0.18,-1.061,1.293
2024-09-23 11:40:19.388,162752.231,0.087,0.87,-0.485,0.006,0.061,0.042,0.624,-0.047,-0.0,0.178,-1.056,1.292
2024-09-23 11:40:19.398,162752.241,0.087,0.867,-0.491,0.008,0.116,0.053,0.726,-0.043,0.04,0.176,-1.049,1.289
2024-09-23 11:40:19.408,162752.251,0.088,0.863,-0.497,-0.003,0.113,0.038,0.762,0.024,0.093,0.174,-1.042,1.288
2024-09-23 11:40:19.419,162752.261,0.089,0.86,-0.502,-0.02,0.054,0.03,0.448,0.096,0.114,0.175,-1.036,1.288
2024-09-23 11:40:19.428,162752.271,0.09,0.859,-0.505,-0.026,0.014,0.002,0.161,0.108,0.122,0.177,-1.032,1.289
2024-09-23 11:40:19.438,162752.281,0.092,0.858,-0.505,-0.053,-0.007,-0.049,-0.136,0.146,0.103,0.18,-1.032,1.291
2024-09-23 11:40:19.448,162752.291,0.094,0.86,-0.502,-0.039,-0.151,-0.044,-0.39,0.167,0.094,0.184,-1.035,1.294
2024-09-23 11:40:19.458,162752.301,0.095,0.862,-0.498,-0.008,-0.217,-0.072,-0.497,0.191,0.064,0.189,-1.039,1.297
2024-09-23 11:40:19.468,162752.311,0.096,0.864,-0.494,-0.02,-0.075,-0.065,-0.502,0.21,-0.004,0.193,-1.044,1.3
2024-09-23 11:40:19.478,162752.321,0.097,0.867,-0.489,-0.024,-0.02,-0.034,-0.491,0.174,-0.058,0.196,-1.049,1.301
2024-09-23 11:40:19.488,162752.331,0.097,0.869,-0.485,-0.01,-0.05,-0.015,-0.475,0.12,-0.097,0.198,-1.054,1.301
2024-09-23 11:40:19.498,162752.341,0.097,0.871,-0.481,0.015,-0.04,-0.009,-0.43,0.058,-0.09,0.198,-1.058,1.301
2024-09-23 11:40:19.508,162752.351,0.096,0.873,-0.478,0.019,-0.011,-0.007,-0.257,-0.012,-0.056,0.199,-1.062,1.301
2024-09-23 11:40:19.518,162752.361,0.096,0.874,-0.476,0.009,-0.002,0.008,-0.089,-0.053,-0.054,0.198,-1.063,1.301
2024-09-23 11:40:19.528,162752.371,0.095,0.874,-0.476,0.016,0.011,0.031,0.017,-0.073,-0.021,0.197,-1.064,1.3
2024-09-23 11:40:19.539,162752.381,0.095,0.874,-0.477,0.012,0.031,0.031,0.117,-0.066,0.014,0.196,-1.063,1.3
2024-09-23 11:40:19.549,162752.391,0.095,0.873,-0.478,-0.006,0.051,0.015,0.132,-0.043,0.025,0.195,-1.062,1.3
2024-09-23 11:40:19.558,162752.401,0.095,0.873,-0.479,-0.015,0.04,0.007,0.101,-0.046,0.039,0.195,-1.061,1.3
2024-09-23 11:40:19.568,162752.411,0.095,0.872,-0.48,-0.018,0.012,-0.004,0.042,-0.047,0.035,0.195,-1.06,1.3
2024-09-23 11:40:19.578,162752.421,0.095,0.872,-0.48,-0.011,-0.002,-0.011,-0.051,-0.06,0.032,0.195,-1.06,1.301
2024-09-23 11:40:19.588,162752.431,0.095,0.873,-0.479,-0.004,-0.007,-0.017,-0.156,-0.084,0.045,0.195,-1.061,1.302
2024-09-23 11:40:19.598,162752.441,0.095,0.873,-0.478,-0.007,-0.022,-0.024,-0.169,-0.072,0.065,0.196,-1.062,1.304
2024-09-23 11:40:19.608,162752.451,0.095,0.874,-0.476,-0.008,-0.045,-0.026,-0.143,-0.07,0.084,0.197,-1.064,1.306
2024-09-23 11:40:19.617,162752.461,0.096,0.875,-0.475,-0.007,-0.043,-0.019,-0.089,-0.086,0.108,0.199,-1.065,1.309
2024-09-23 11:40:19.628,162752.471,0.096,0.875,-0.475,-0.014,-0.023,-0.005,0.038,-0.123,0.107,0.199,-1.065,1.311
2024-09-23 11:40:19.638,162752.481,0.096,0.874,-0.476,-0.007,0.002,0.007,0.242,-0.167,0.079,0.199,-1.064,1.312
2024-09-23 11:40:19.648,162752.49,0.095,0.872,-0.479,0.009,0.031,0.022,0.475,-0.215,0.009,0.197,-1.06,1.312
2024-09-23 11:40:19.658,162752.5,0.094,0.87,-0.485,0.017,0.059,0.043,0.646,-0.258,-0.087,0.192,-1.054,1.309
2024-09-23 11:40:19.668,162752.51,0.092,0.867,-0.491,0.03,0.096,0.054,0.628,-0.275,-0.167,0.184,-1.048,1.304
2024-09-23 11:40:19.678,162752.52,0.089,0.864,-0.495,0.033,0.102,0.039,0.426,-0.207,-0.227,0.177,-1.043,1.298
2024-09-23 11:40:19.688,162752.53,0.086,0.863,-0.498,0.026,0.058,0.004,0.216,-0.113,-0.212,0.171,-1.041,1.292
2024-09-23 11:40:19.698,162752.54,0.084,0.862,-0.499,-0.008,-0.048,-0.043,-0.003,-0.023,-0.15,0.167,-1.04,1.288
2024-09-23 11:40:19.707,162752.55,0.083,0.863,-0.498,-0.033,-0.126,-0.06,-0.235,0.096,-0.079,0.165,-1.041,1.287
2024-09-23 11:40:19.717,162752.56,0.084,0.864,-0.496,-0.045,-0.098,-0.056,-0.313,0.2,0.036,0.167,-1.044,1.287
2024-09-23 11:40:19.727,162752.57,0.086,0.866,-0.493,-0.066,-0.044,-0.067,-0.356,0.283,0.135,0.172,-1.047,1.29
2024-09-23 11:40:19.738,162752.58,0.089,0.868,-0.489,-0.072,-0.062,-0.05,-0.392,0.282,0.204,0.179,-1.051,1.295
2024-09-23 11:40:19.747,162752.59,0.092,0.869,-0.486,-0.058,-0.04,-0.032,-0.359,0.284,0.261,0.187,-1.054,1.301
2024-09-23 11:40:19.757,162752.6,0.096,0.871,-0.482,-0.047,0.01,-0.015,-0.325,0.272,0.236,0.195,-1.057,1.307
2024-09-23 11:40:19.767,162752.61,0.099,0.872,-0.48,-0.027,0.017,-0.005,-0.282,0.283,0.203,0.203,-1.059,1.312
2024-09-23 11:40:19.777,162752.62,0.102,0.873,-0.477,-0.02,-0.003,-0.005,-0.321,0.243,0.171,0.21,-1.062,1.317
2024-09-23 11:40:19.787,162752.63,0.104,0.875,-0.474,-0.01,-0.023,-0.004,-0.352,0.248,0.141,0.216,-1.065,1.322
2024-09-23 11:40:19.797,162752.64,0.106,0.876,-0.47,0.001,-0.011,-0.016,-0.368,0.223,0.113,0.222,-1.068,1.326
2024-09-23 11:40:19.808,162752.65,0.108,0.878,-0.467,-0.006,-0.022,-0.019,-0.321,0.195,0.089,0.228,-1.071,1.33
2024-09-23 11:40:19.817,162752.66,0.11,0.879,-0.464,-0.006,-0.034,-0.019,-0.28,0.128,0.044,0.232,-1.074,1.333
2024-09-23 11:40:19.827,162752.67,0.11,0.88,-0.462,0.012,-0.011,-0.005,-0.171,0.107,-0.017,0.234,-1.076,1.334
2024-09-23 11:40:19.837,162752.68,0.11,0.881,-0.461,0.015,0.01,0.006,-0.051,0.058,-0.036,0.235,-1.077,1.334
2024-09-23 11:40:19.847,162752.69,0.11,0.881,-0.461,0.016,-0.011,0.01,0.049,0.068,-0.073,0.235,-1.077,1.333
2024-09-23 11:40:19.857,162752.7,0.11,0.881,-0.461,0.021,0.012,0.015,0.064,0.081,-0.08,0.234,-1.077,1.331
2024-09-23 11:40:19.867,162752.71,0.11,0.881,-0.461,0.008,0.038,0.009,-0.057,0.091,-0.041,0.233,-1.077,1.33
2024-09-23 11:40:19.877,162752.72,0.11,0.881,-0.46,-0.016,0.022,-0.014,-0.18,0.121,0.014,0.235,-1.078,1.33
2024-09-23 11:40:19.887,162752.73,0.111,0.882,-0.458,-0.026,-0.01,-0.043,-0.263,0.098,0.038,0.237,-1.08,1.332
2024-09-23 11:40:19.897,162752.74,0.112,0.884,-0.455,-0.03,-0.038,-0.046,-0.455,0.104,0.048,0.241,-1.084,1.334
2024-09-23 11:40:19.907,162752.75,0.113,0.886,-0.449,-0.028,-0.095,-0.051,-0.758,0.157,0.077,0.246,-1.089,1.338
2024-09-23 11:40:19.917,162752.76,0.114,0.89,-0.441,-0.022,-0.166,-0.072,-1.052,0.246,0.148,0.254,-1.098,1.346
2024-09-23 11:40:19.927,162752.77,0.117,0.895,-0.431,-0.03,-0.168,-0.077,-1.114,0.291,0.154,0.265,-1.108,1.355
2024-09-23 11:40:19.938,162752.78,0.12,0.899,-0.422,-0.044,-0.033,-0.071,-0.84,0.228,0.138,0.276,-1.117,1.364
2024-09-23 11:40:19.947,162752.79,0.122,0.902,-0.415,-0.082,0.076,-0.097,-0.557,0.158,0.12,0.285,-1.123,1.372
2024-09-23 11:40:19.957,162752.8,0.123,0.903,-0.411,-0.097,0.065,-0.111,-0.254,0.178,0.006,0.29,-1.127,1.376
2024-09-23 11:40:19.967,162752.81,0.124,0.904,-0.41,-0.095,0.115,-0.054,0.007,0.19,0.066,0.293,-1.128,1.377
2024-09-23 11:40:19.977,162752.82,0.125,0.903,-0.411,-0.157,0.214,0.026,0.203,0.035,0.203,0.296,-1.127,1.379
2024-09-23 11:40:19.987,162752.83,0.127,0.902,-0.412,-0.206,0.264,0.078,0.038,-0.141,0.217,0.299,-1.125,1.383
2024-09-23 11:40:19.997,162752.84,0.129,0.902,-0.412,-0.16,0.214,0.147,-0.185,-0.11,0.231,0.303,-1.125,1.389
2024-09-23 11:40:20.007,162752.85,0.13,0.903,-0.41,-0.171,0.133,0.183,-0.322,-0.148,0.12,0.307,-1.127,1.395
2024-09-23 11:40:20.017,162752.86,0.13,0.904,-0.407,-0.243,0.061,0.234,-0.345,-0.163,0.022,0.309,-1.13,1.398
2024-09-23 11:40:20.027,162752.87,0.129,0.905,-0.405,-0.257,-0.009,0.22,-0.179,-0.235,0.037,0.309,-1.132,1.401
2024-09-23 11:40:20.037,162752.88,0.128,0.906,-0.404,-0.214,-0.012,0.177,0.0,-0.357,0.024,0.307,-1.133,1.402
2024-09-23 11:40:20.047,162752.89,0.127,0.905,-0.405,-0.076,-0.013,0.141,0.147,-0.364,-0.038,0.303,-1.132,1.402
2024-09-23 11:40:20.057,162752.9,0.125,0.905,-0.408,0.078,-0.113,0.12,0.299,-0.271,-0.141,0.297,-1.13,1.398
2024-09-23 11:40:20.067,162752.91,0.122,0.903,-0.412,0.144,-0.251,0.108,0.571,-0.102,-0.176,0.289,-1.127,1.392
2024-09-23 11:40:20.077,162752.92,0.121,0.9,-0.418,0.134,-0.332,0.055,0.865,-0.014,-0.049,0.282,-1.12,1.384
2024-09-23 11:40:20.087,162752.93,0.121,0.896,-0.428,0.112,-0.271,-0.064,1.208,-0.048,0.115,0.276,-1.11,1.378
2024-09-23 11:40:20.097,162752.94,0.126,0.888,-0.441,0.146,-0.065,-0.171,1.819,0.082,0.973,0.278,-1.094,1.38
2024-09-23 11:40:20.107,162752.95,0.131,0.881,-0.455,0.248,0.089,-0.18,1.398,-0.253,0.12,0.28,-1.077,1.383
2024-09-23 11:40:20.117,162752.96,0.129,0.875,-0.467,0.478,0.147,-0.206,1.114,-0.11,-0.394,0.269,-1.066,1.373
2024-09-23 11:40:20.127,162752.97,0.124,0.871,-0.475,0.494,0.071,-0.08,0.71,-0.042,-0.435,0.256,-1.058,1.359
2024-09-23 11:40:20.137,162752.98,0.12,0.869,-0.479,0.042,-0.164,-0.042,0.316,-0.105,-0.404,0.246,-1.054,1.349
2024-09-23 11:40:20.147,162752.99,0.116,0.869,-0.481,-0.08,-0.167,-0.064,0.044,-0.062,-0.555,0.237,-1.053,1.339
2024-09-23 11:40:20.157,162753.0,0.111,0.87,-0.48,0.019,-0.073,-0.072,-0.203,0.038,-0.622,0.227,-1.056,1.327
2024-09-23 11:40:20.167,162753.01,0.106,0.872,-0.477,0.021,-0.053,-0.085,-0.472,0.125,-0.553,0.218,-1.06,1.317
2024-09-23 11:40:20.177,162753.02,0.102,0.876,-0.472,-0.018,-0.065,-0.088,-0.645,0.139,-0.434,0.213,-1.067,1.31
2024-09-23 11:40:20.187,162753.03,0.1,0.879,-0.466,-0.047,-0.049,-0.089,-0.63,0.119,-0.32,0.21,-1.074,1.305
2024-09-23 11:40:20.197,162753.04,0.098,0.882,-0.461,-0.048,-0.012,-0.063,-0.465,0.093,-0.223,0.209,-1.08,1.302
2024-09-23 11:40:20.207,162753.05,0.096,0.884,-0.458,-0.026,0.033,-0.02,-0.281,0.021,-0.146,0.208,-1.084,1.3
2024-09-23 11:40:20.217,162753.06,0.095,0.885,-0.456,-0.007,0.093,0.017,-0.137,-0.048,-0.084,0.206,-1.086,1.298
2024-09-23 11:40:20.227,162753.07,0.094,0.885,-0.455,-0.0,0.118,0.034,-0.033,-0.076,-0.068,0.204,-1.087,1.297
2024-09-23 11:40:20.237,162753.08,0.094,0.885,-0.456,0.008,0.074,0.032,0.057,-0.095,-0.047,0.202,-1.087,1.296
2024-09-23 11:40:20.247,162753.089,0.093,0.885,-0.456,0.005,0.025,0.015,0.102,-0.094,-0.028,0.2,-1.086,1.295
2024-09-23 11:40:20.257,162753.099,0.092,0.885,-0.457,-0.002,0.012,0.011,0.079,-0.067,-0.021,0.199,-1.085,1.294
2024-09-23 11:40:20.266,162753.109,0.092,0.884,-0.458,-0.007,0.011,0.008,0.026,-0.027,-0.015,0.198,-1.085,1.293
2024-09-23 11:40:20.277,162753.119,0.092,0.884,-0.458,-0.015,0.0,-0.013,-0.034,-0.004,-0.015,0.198,-1.085,1.293
2024-09-23 11:40:20.286,162753.129,0.091,0.885,-0.457,-0.018,-0.024,-0.025,-0.048,-0.003,-0.029,0.197,-1.085,1.293
2024-09-23 11:40:20.296,162753.139,0.091,0.885,-0.457,-0.014,-0.032,-0.022,-0.043,-0.023,-0.051,0.197,-1.086,1.292
2024-09-23 11:40:20.306,162753.149,0.09,0.885,-0.457,-0.004,-0.029,-0.012,-0.016,-0.077,-0.083,0.195,-1.086,1.291
2024-09-23 11:40:20.317,162753.159,0.089,0.885,-0.457,0.005,-0.017,-0.003,0.059,-0.106,-0.117,0.192,-1.086,1.288
2024-09-23 11:40:20.327,162753.169,0.087,0.885,-0.458,0.014,0.006,0.007,0.11,-0.121,-0.14,0.188,-1.086,1.285
2024-09-23 11:40:20.337,162753.179,0.085,0.884,-0.459,0.018,0.011,0.013,0.202,-0.14,-0.134,0.184,-1.085,1.282
2024-09-23 11:40:20.347,162753.189,0.084,0.883,-0.462,0.008,0.009,0.011,0.282,-0.12,-0.129,0.179,-1.083,1.278
2024-09-23 11:40:20.356,162753.199,0.082,0.882,-0.464,0.004,0.006,0.017,0.318,-0.11,-0.105,0.175,-1.08,1.274
2024-09-23 11:40:20.366,162753.209,0.081,0.88,-0.467,-0.002,0.013,0.021,0.342,-0.068,-0.064,0.171,-1.077,1.271
2024-09-23 11:40:20.376,162753.219,0.08,0.879,-0.47,-0.016,0.011,0.014,0.339,-0.028,-0.034,0.169,-1.073,1.269
2024-09-23 11:40:20.386,162753.229,0.08,0.877,-0.474,-0.02,0.002,0.001,0.355,0.002,0.004,0.167,-1.07,1.268
2024-09-23 11:40:20.397,162753.239,0.08,0.875,-0.477,-0.027,0.015,-0.007,0.379,0.006,0.036,0.167,-1.066,1.267
2024-09-23 11:40:20.407,162753.249,0.081,0.874,-0.48,-0.027,0.022,-0.006,0.416,0.006,0.032,0.167,-1.062,1.267
2024-09-23 11:40:20.416,162753.259,0.081,0.872,-0.484,-0.018,0.024,0.001,0.477,0.021,0.006,0.166,-1.058,1.266
2024-09-23 11:40:20.426,162753.269,0.081,0.869,-0.488,-0.01,0.016,0.009,0.51,0.033,-0.026,0.165,-1.054,1.264
2024-09-23 11:40:20.436,162753.279,0.082,0.867,-0.492,-0.004,0.019,0.009,0.41,0.071,0.022,0.164,-1.049,1.263
2024-09-23 11:40:20.447,162753.289,0.082,0.865,-0.494,-0.005,0.03,0.008,0.157,0.052,0.042,0.165,-1.046,1.262
2024-09-23 11:40:20.457,162753.299,0.083,0.865,-0.494,-0.019,0.019,-0.027,-0.073,0.05,0.017,0.165,-1.046,1.263
2024-09-23 11:40:20.466,162753.309,0.083,0.866,-0.493,-0.031,-0.037,-0.042,-0.276,0.055,0.01,0.167,-1.047,1.264
2024-09-23 11:40:20.476,162753.319,0.083,0.868,-0.49,-0.006,-0.13,-0.048,-0.425,0.042,0.013,0.168,-1.051,1.265
2024-09-23 11:40:20.486,162753.329,0.083,0.87,-0.486,-0.003,-0.106,-0.054,-0.445,-0.017,0.02,0.17,-1.055,1.267
2024-09-23 11:40:20.496,162753.339,0.083,0.872,-0.482,-0.019,-0.057,-0.033,-0.5,-0.053,0.02,0.172,-1.06,1.269
2024-09-23 11:40:20.506,162753.349,0.084,0.875,-0.477,0.0,-0.094,-0.009,-0.52,-0.05,0.056,0.173,-1.065,1.271
2024-09-23 11:40:20.516,162753.359,0.084,0.877,-0.473,0.007,-0.101,-0.017,-0.554,-0.044,0.095,0.176,-1.07,1.275
2024-09-23 11:40:20.526,162753.369,0.085,0.88,-0.468,-0.013,-0.067,-0.026,-0.505,-0.022,0.099,0.179,-1.075,1.279
2024-09-23 11:40:20.537,162753.379,0.085,0.882,-0.464,-0.02,-0.03,-0.029,-0.404,0.007,0.072,0.182,-1.079,1.282
2024-09-23 11:40:20.546,162753.389,0.086,0.883,-0.461,-0.013,0.022,-0.017,-0.291,0.005,0.031,0.184,-1.083,1.285
2024-09-23 11:40:20.556,162753.399,0.086,0.884,-0.459,-0.006,0.067,-0.008,-0.139,-0.016,-0.02,0.185,-1.085,1.286
2024-09-23 11:40:20.566,162753.409,0.085,0.884,-0.459,-0.004,0.075,0.006,0.056,-0.049,-0.047,0.184,-1.085,1.285
2024-09-23 11:40:20.577,162753.419,0.085,0.884,-0.46,0.012,0.044,0.02,0.27,-0.106,-0.036,0.182,-1.084,1.284
2024-09-23 11:40:20.586,162753.429,0.084,0.882,-0.464,0.014,0.033,0.029,0.482,-0.096,-0.032,0.179,-1.08,1.282
2024-09-23 11:40:20.596,162753.439,0.083,0.88,-0.469,0.007,0.076,0.046,0.589,-0.104,-0.035,0.176,-1.075,1.279
2024-09-23 11:40:20.606,162753.449,0.082,0.877,-0.474,-0.0,0.097,0.05,0.582,-0.077,-0.023,0.172,-1.069,1.276
2024-09-23 11:40:20.616,162753.459,0.082,0.874,-0.479,-0.008,0.054,0.031,0.495,-0.004,0.003,0.17,-1.064,1.274
2024-09-23 11:40:20.626,162753.469,0.083,0.873,-0.481,-0.011,0.008,0.005,0.158,0.059,0.044,0.17,-1.06,1.273
2024-09-23 11:40:20.637,162753.479,0.083,0.872,-0.482,-0.03,-0.013,-0.03,-0.091,0.076,0.03,0.171,-1.06,1.274
2024-09-23 11:40:20.646,162753.489,0.084,0.873,-0.48,-0.046,-0.039,-0.068,-0.321,0.127,0.012,0.173,-1.062,1.275
2024-09-23 11:40:20.656,162753.499,0.085,0.875,-0.476,-0.026,-0.143,-0.055,-0.41,0.2,0.016,0.176,-1.066,1.277
2024-09-23 11:40:20.666,162753.509,0.086,0.877,-0.472,-0.012,-0.167,-0.066,-0.444,0.208,0.025,0.18,-1.07,1.279
2024-09-23 11:40:20.676,162753.519,0.087,0.879,-0.469,-0.033,-0.047,-0.048,-0.404,0.204,0.001,0.184,-1.074,1.281
2024-09-23 11:40:20.686,162753.529,0.088,0.881,-0.465,-0.033,-0.003,-0.015,-0.366,0.148,-0.019,0.186,-1.078,1.282
2024-09-23 11:40:20.696,162753.539,0.088,0.883,-0.462,-0.006,-0.035,-0.004,-0.312,0.07,0.007,0.189,-1.081,1.283
2024-09-23 11:40:20.707,162753.549,0.089,0.884,-0.46,0.007,-0.035,-0.001,-0.204,0.013,0.032,0.19,-1.084,1.284
2024-09-23 11:40:20.716,162753.559,0.089,0.884,-0.459,0.009,0.002,0.01,-0.028,-0.055,0.042,0.191,-1.085,1.286
2024-09-23 11:40:20.726,162753.569,0.089,0.884,-0.459,0.005,0.025,0.018,0.14,-0.083,0.021,0.191,-1.084,1.286
2024-09-23 11:40:20.736,162753.579,0.088,0.883,-0.461,0.01,0.045,0.036,0.216,-0.129,0.028,0.19,-1.082,1.286
2024-09-23 11:40:20.746,162753.589,0.088,0.882,-0.463,0.009,0.045,0.036,0.212,-0.144,0.063,0.188,-1.08,1.286
2024-09-23 11:40:20.756,162753.599,0.088,0.881,-0.465,0.004,0.029,0.018,0.178,-0.171,0.098,0.188,-1.078,1.287
2024-09-23 11:40:20.766,162753.609,0.088,0.88,-0.466,-0.011,0.003,-0.003,0.114,-0.188,0.118,0.187,-1.076,1.289
2024-09-23 11:40:20.776,162753.619,0.088,0.88,-0.467,-0.016,-0.015,-0.01,0.092,-0.183,0.089,0.187,-1.075,1.29
2024-09-23 11:40:20.786,162753.629,0.088,0.879,-0.468,-0.004,-0.026,-0.017,0.103,-0.177,0.049,0.186,-1.074,1.291
2024-09-23 11:40:20.796,162753.639,0.088,0.878,-0.47,0.0,-0.024,-0.022,0.203,-0.184,-0.012,0.184,-1.073,1.291
2024-09-23 11:40:20.806,162753.649,0.086,0.877,-0.472,0.005,0.002,-0.01,0.313,-0.167,-0.087,0.181,-1.07,1.289
2024-09-23 11:40:20.816,162753.659,0.085,0.876,-0.475,0.013,0.041,0.012,0.275,-0.141,-0.131,0.176,-1.067,1.286
2024-09-23 11:40:20.826,162753.669,0.083,0.875,-0.477,0.018,0.074,0.021,0.184,-0.075,-0.133,0.172,-1.065,1.282
2024-09-23 11:40:20.836,162753.679,0.082,0.874,-0.478,0.001,0.035,-0.007,0.075,-0.017,-0.096,0.169,-1.064,1.279
2024-09-23 11:40:20.845,162753.688,0.081,0.874,-0.478,-0.02,-0.046,-0.037,-0.061,0.022,-0.039,0.168,-1.064,1.278
2024-09-23 11:40:20.856,162753.698,0.081,0.875,-0.477,-0.034,-0.066,-0.039,-0.11,0.048,-0.001,0.168,-1.065,1.278
2024-09-23 11:40:20.866,162753.708,0.082,0.875,-0.476,-0.039,-0.029,-0.029,-0.124,0.094,0.048,0.17,-1.066,1.279
2024-09-23 11:40:20.876,162753.718,0.083,0.876,-0.475,-0.032,-0.045,-0.019,-0.147,0.144,0.095,0.172,-1.068,1.281
2024-09-23 11:40:20.885,162753.728,0.084,0.877,-0.474,-0.03,-0.042,-0.02,-0.168,0.184,0.121,0.177,-1.069,1.284
2024-09-23 11:40:20.896,162753.738,0.086,0.877,-0.472,-0.039,0.008,-0.02,-0.188,0.202,0.115,0.181,-1.07,1.287
2024-09-23 11:40:20.906,162753.748,0.088,0.878,-0.47,-0.036,0.011,-0.014,-0.262,0.148,0.099,0.186,-1.073,1.29
2024-09-23 11:40:20.916,162753.758,0.09,0.88,-0.467,-0.019,-0.02,-0.015,-0.243,0.183,0.085,0.19,-1.075,1.293
2024-09-23 11:40:20.925,162753.768,0.091,0.881,-0.465,-0.006,-0.03,-0.014,-0.252,0.129,0.079,0.194,-1.077,1.295
2024-09-23 11:40:20.936,162753.778,0.092,0.882,-0.463,-0.005,-0.03,-0.015,-0.231,0.147,0.055,0.197,-1.079,1.298
2024-09-23 11:40:20.945,162753.788,0.093,0.883,-0.461,-0.011,-0.012,-0.006,-0.221,0.129,0.03,0.2,-1.081,1.299
2024-09-23 11:40:20.957,162753.798,0.094,0.883,-0.459,-0.001,-0.015,-0.006,-0.243,0.113,0.029,0.202,-1.083,1.301
2024-09-23 11:40:20.966,162753.808,0.095,0.885,-0.457,-0.004,-0.025,-0.017,-0.237,0.108,0.002,0.204,-1.086,1.302
2024-09-23 11:40:20.975,162753.818,0.095,0.886,-0.455,-0.002,-0.011,-0.014,-0.224,0.113,-0.043,0.206,-1.088,1.302
2024-09-23 11:40:20.986,162753.828,0.095,0.887,-0.453,-0.004,0.006,-0.013,-0.215,0.074,-0.046,0.206,-1.09,1.302
2024-09-23 11:40:20.996,162753.838,0.094,0.887,-0.451,-0.005,0.009,-0.016,-0.121,0.055,-0.089,0.206,-1.092,1.301
2024-09-23 11:40:21.005,162753.848,0.094,0.888,-0.451,0.001,0.006,-0.004,-0.021,0.052,-0.118,0.205,-1.092,1.299
2024-09-23 11:40:21.015,162753.858,0.093,0.888,-0.451,0.01,-0.001,0.009,0.038,0.017,-0.101,0.203,-1.092,1.296
2024-09-23 11:40:21.025,162753.868,0.092,0.887,-0.452,0.006,0.011,0.016,0.007,-0.003,-0.043,0.201,-1.092,1.294
2024-09-23 11:40:21.036,162753.878,0.092,0.888,-0.451,0.002,-0.002,0.01,-0.148,0.07,0.021,0.201,-1.092,1.294
2024-09-23 11:40:21.045,162753.888,0.093,0.889,-0.449,-0.007,-0.031,-0.015,-0.35,0.123,0.096,0.204,-1.094,1.296
2024-09-23 11:40:21.055,162753.898,0.095,0.891,-0.445,-0.039,-0.055,-0.054,-0.654,0.186,0.15,0.21,-1.099,1.301
2024-09-23 11:40:21.065,162753.908,0.097,0.894,-0.437,-0.045,-0.068,-0.069,-0.922,0.221,0.209,0.219,-1.106,1.309
2024-09-23 11:40:21.075,162753.918,0.1,0.898,-0.428,-0.042,-0.094,-0.093,-1.104,0.256,0.254,0.23,-1.115,1.319
2024-09-23 11:40:21.086,162753.928,0.104,0.903,-0.417,-0.053,-0.117,-0.087,-1.2,0.327,0.217,0.243,-1.126,1.331
2024-09-23 11:40:21.096,162753.938,0.107,0.907,-0.406,-0.037,-0.036,-0.074,-1.172,0.388,0.221,0.258,-1.137,1.342
2024-09-23 11:40:21.105,162753.948,0.111,0.912,-0.396,-0.05,0.036,-0.072,-0.947,0.416,0.287,0.273,-1.147,1.355
2024-09-23 11:40:21.115,162753.958,0.115,0.914,-0.389,-0.056,0.002,-0.056,-0.381,0.354,0.371,0.288,-1.153,1.367
2024-09-23 11:40:21.125,162753.968,0.12,0.914,-0.388,-0.048,0.023,-0.031,0.241,0.189,0.456,0.3,-1.152,1.378
2024-09-23 11:40:21.136,162753.978,0.125,0.911,-0.393,-0.036,0.171,0.01,0.884,-0.01,0.487,0.308,-1.145,1.384
2024-09-23 11:40:21.145,162753.988,0.128,0.906,-0.404,-0.026,0.333,0.078,1.24,-0.329,0.286,0.307,-1.133,1.386
2024-09-23 11:40:21.155,162753.998,0.127,0.901,-0.414,-0.05,0.341,0.129,0.897,-0.45,0.016,0.298,-1.123,1.381
2024-09-23 11:40:21.165,162754.008,0.126,0.899,-0.42,-0.126,0.259,0.14,0.29,-0.201,0.063,0.292,-1.117,1.378
2024-09-23 11:40:21.174,162754.018,0.126,0.899,-0.42,-0.253,0.124,0.193,-0.267,-0.094,0.088,0.293,-1.117,1.379
2024-09-23 11:40:21.185,162754.028,0.127,0.9,-0.416,-0.269,-0.115,0.217,-0.481,-0.032,0.028,0.296,-1.12,1.383
2024-09-23 11:40:21.195,162754.038,0.127,0.902,-0.413,-0.195,-0.213,0.209,-0.173,-0.118,-0.015,0.297,-1.124,1.386
2024-09-23 11:40:21.205,162754.048,0.126,0.901,-0.414,-0.12,-0.122,0.178,0.315,-0.242,-0.016,0.294,-1.123,1.385
2024-09-23 11:40:21.216,162754.058,0.125,0.899,-0.419,-0.028,-0.064,0.111,0.719,-0.261,0.008,0.289,-1.118,1.381
2024-09-23 11:40:21.225,162754.068,0.124,0.896,-0.427,0.081,-0.091,0.051,0.994,-0.21,-0.009,0.281,-1.11,1.376
2024-09-23 11:40:21.235,162754.078,0.124,0.89,-0.438,0.139,-0.142,-0.01,1.652,-0.013,0.506,0.276,-1.098,1.371
2024-09-23 11:40:21.245,162754.088,0.132,0.882,-0.453,0.13,-0.173,-0.053,1.338,-0.111,0.792,0.284,-1.08,1.38
2024-09-23 11:40:21.255,162754.098,0.134,0.876,-0.463,0.202,-0.159,-0.155,0.95,-0.324,0.028,0.281,-1.068,1.38
2024-09-23 11:40:21.265,162754.108,0.131,0.873,-0.47,0.531,-0.004,-0.241,0.515,-0.145,-0.264,0.273,-1.061,1.373
2024-09-23 11:40:21.275,162754.118,0.129,0.872,-0.473,0.283,0.009,-0.095,0.16,-0.133,-0.201,0.266,-1.059,1.367
2024-09-23 11:40:21.285,162754.128,0.126,0.872,-0.473,-0.082,0.007,-0.11,-0.053,-0.163,-0.332,0.26,-1.059,1.361
2024-09-23 11:40:21.295,162754.138,0.121,0.873,-0.472,-0.055,-0.027,-0.076,-0.147,-0.143,-0.544,0.251,-1.061,1.353
2024-09-23 11:40:21.305,162754.148,0.115,0.874,-0.471,0.057,-0.139,-0.06,-0.197,-0.097,-0.608,0.24,-1.064,1.342
2024-09-23 11:40:21.315,162754.158,0.11,0.876,-0.469,0.059,-0.161,-0.048,-0.206,-0.058,-0.495,0.231,-1.068,1.332
2024-09-23 11:40:21.325,162754.168,0.106,0.877,-0.468,0.006,-0.075,-0.034,-0.175,-0.09,-0.314,0.224,-1.07,1.325
2024-09-23 11:40:21.335,162754.178,0.104,0.878,-0.467,-0.041,0.025,-0.019,-0.069,-0.11,-0.192,0.219,-1.072,1.32
2024-09-23 11:40:21.346,162754.188,0.102,0.878,-0.467,-0.042,0.098,0.001,0.03,-0.108,-0.117,0.215,-1.073,1.317
2024-09-23 11:40:21.355,162754.198,0.101,0.878,-0.467,-0.025,0.116,0.016,0.097,-0.096,-0.048,0.212,-1.072,1.315
2024-09-23 11:40:21.365,162754.208,0.1,0.878,-0.469,-0.022,0.079,0.016,0.138,-0.078,0.024,0.211,-1.071,1.314
2024-09-23 11:40:21.375,162754.218,0.1,0.877,-0.47,-0.025,0.022,0.01,0.153,-0.053,0.067,0.21,-1.07,1.315
2024-09-23 11:40:21.393,162754.228,0.101,0.876,-0.471,-0.027,0.005,0.004,0.151,-0.062,0.086,0.21,-1.068,1.316
2024-09-23 11:40:21.397,162754.238,0.101,0.875,-0.473,-0.028,0.012,0.003,0.126,-0.064,0.055,0.211,-1.066,1.316
2024-09-23 11:40:21.405,162754.248,0.101,0.875,-0.474,-0.015,-0.001,0.003,0.078,-0.052,0.012,0.21,-1.065,1.317
2024-09-23 11:40:21.415,162754.258,0.101,0.875,-0.474,0.001,-0.01,-0.006,0.044,-0.036,-0.03,0.209,-1.065,1.316
2024-09-23 11:40:21.425,162754.268,0.1,0.875,-0.475,-0.0,-0.011,-0.018,0.046,-0.028,-0.062,0.208,-1.064,1.315
2024-09-23 11:40:21.435,162754.278,0.099,0.874,-0.475,-0.002,-0.025,-0.015,0.091,-0.009,-0.088,0.206,-1.064,1.313
2024-09-23 11:40:21.445,162754.287,0.099,0.874,-0.476,0.001,-0.022,-0.008,0.159,0.001,-0.082,0.204,-1.063,1.311
2024-09-23 11:40:21.455,162754.297,0.098,0.873,-0.478,-0.002,0.002,-0.003,0.245,0.013,-0.059,0.202,-1.061,1.309
2024-09-23 11:40:21.465,162754.307,0.098,0.872,-0.48,-0.009,0.034,0.003,0.303,0.027,-0.033,0.201,-1.058,1.307
2024-09-23 11:40:21.475,162754.317,0.098,0.87,-0.483,-0.013,0.063,0.011,0.35,0.009,-0.008,0.199,-1.055,1.305
2024-09-23 11:40:21.483,162754.327,0.098,0.868,-0.487,-0.011,0.059,0.01,0.468,0.01,-0.012,0.198,-1.052,1.303
2024-09-23 11:40:21.495,162754.337,0.098,0.866,-0.49,-0.009,0.04,0.015,0.342,0.145,0.008,0.197,-1.047,1.302
2024-09-23 11:40:21.504,162754.347,0.099,0.865,-0.492,-0.003,0.035,0.019,-0.02,0.13,0.023,0.198,-1.046,1.301
2024-09-23 11:40:21.514,162754.357,0.1,0.866,-0.49,-0.031,0.04,-0.04,-0.282,0.139,0.029,0.201,-1.047,1.302
2024-09-23 11:40:21.524,162754.367,0.101,0.868,-0.487,-0.058,-0.073,-0.061,-0.491,0.14,0.033,0.204,-1.051,1.304
2024-09-23 11:40:21.535,162754.377,0.102,0.87,-0.482,-0.008,-0.251,-0.059,-0.566,0.105,0.048,0.208,-1.056,1.307
2024-09-23 11:40:21.545,162754.387,0.102,0.873,-0.477,-0.007,-0.162,-0.053,-0.459,0.038,0.07,0.212,-1.061,1.311
2024-09-23 11:40:21.555,162754.397,0.103,0.875,-0.474,-0.024,-0.028,-0.007,-0.381,0.015,0.067,0.215,-1.065,1.314
2024-09-23 11:40:21.564,162754.407,0.104,0.876,-0.47,0.002,-0.044,0.027,-0.327,-0.002,0.11,0.218,-1.068,1.317
2024-09-23 11:40:21.574,162754.417,0.105,0.878,-0.468,0.007,-0.05,0.01,-0.257,-0.018,0.144,0.221,-1.071,1.321
2024-09-23 11:40:21.585,162754.427,0.106,0.878,-0.466,-0.014,-0.01,-0.002,-0.138,-0.031,0.154,0.224,-1.072,1.325
2024-09-23 11:40:21.595,162754.437,0.107,0.878,-0.466,-0.013,0.014,0.003,-0.005,-0.021,0.126,0.227,-1.073,1.329
2024-09-23 11:40:21.604,162754.447,0.108,0.878,-0.466,-0.003,0.063,0.009,0.092,-0.051,0.087,0.228,-1.072,1.331
2024-09-23 11:40:21.613,162754.457,0.108,0.877,-0.467,-0.002,0.095,0.015,0.196,-0.085,0.034,0.228,-1.07,1.331
2024-09-23 11:40:21.624,162754.467,0.108,0.876,-0.47,0.004,0.079,0.015,0.321,-0.124,-0.015,0.226,-1.068,1.33
2024-09-23 11:40:21.633,162754.477,0.107,0.874,-0.473,0.018,0.022,0.014,0.416,-0.14,-0.056,0.222,-1.064,1.328
2024-09-23 11:40:21.644,162754.487,0.106,0.872,-0.477,0.024,0.013,0.023,0.445,-0.081,-0.08,0.218,-1.06,1.324
2024-09-23 11:40:21.654,162754.497,0.105,0.871,-0.481,0.016,0.065,0.023,0.398,-0.024,-0.051,0.215,-1.056,1.321
2024-09-23 11:40:21.664,162754.507,0.105,0.869,-0.483,-0.012,0.06,0.001,0.091,0.108,-0.026,0.214,-1.054,1.319
2024-09-23 11:40:21.674,162754.517,0.105,0.87,-0.482,-0.031,0.02,-0.025,-0.254,0.146,-0.009,0.215,-1.055,1.319
2024-09-23 11:40:21.685,162754.527,0.106,0.871,-0.479,-0.047,-0.016,-0.077,-0.425,0.203,-0.005,0.218,-1.058,1.321
2024-09-23 11:40:21.694,162754.537,0.107,0.874,-0.474,-0.049,-0.125,-0.078,-0.518,0.269,0.005,0.222,-1.063,1.323
2024-09-23 11:40:21.704,162754.547,0.109,0.876,-0.47,-0.014,-0.201,-0.064,-0.507,0.253,0.027,0.227,-1.068,1.325
2024-09-23 11:40:21.715,162754.557,0.11,0.878,-0.465,-0.026,-0.049,-0.042,-0.412,0.204,0.018,0.232,-1.072,1.328
2024-09-23 11:40:21.725,162754.567,0.111,0.88,-0.462,-0.036,0.05,-0.001,-0.304,0.172,-0.031,0.235,-1.076,1.33
2024-09-23 11:40:21.734,162754.577,0.111,0.881,-0.46,-0.005,-0.006,0.02,-0.221,0.082,0.009,0.237,-1.078,1.331
2024-09-23 11:40:21.745,162754.587,0.111,0.882,-0.458,0.01,-0.039,0.016,-0.117,0.028,0.023,0.239,-1.08,1.332
2024-09-23 11:40:21.754,162754.597,0.112,0.882,-0.458,0.013,-0.003,0.03,0.009,-0.01,0.046,0.24,-1.08,1.333
2024-09-23 11:40:21.764,162754.607,0.112,0.882,-0.458,0.01,0.007,0.027,0.125,-0.087,0.081,0.24,-1.08,1.334
2024-09-23 11:40:21.774,162754.617,0.112,0.881,-0.46,-0.005,0.003,0.029,0.206,-0.079,0.066,0.24,-1.078,1.334
2024-09-23 11:40:21.784,162754.627,0.113,0.88,-0.462,0.001,0.012,0.039,0.202,-0.081,0.104,0.24,-1.076,1.335
2024-09-23 11:40:21.794,162754.637,0.113,0.879,-0.463,-0.0,0.009,0.009,0.147,-0.099,0.145,0.24,-1.074,1.337
2024-09-23 11:40:21.804,162754.647,0.114,0.878,-0.464,-0.015,0.036,-0.013,0.093,-0.107,0.129,0.241,-1.072,1.339
2024-09-23 11:40:21.814,162754.657,0.115,0.878,-0.465,-0.019,0.03,-0.009,0.031,-0.095,0.107,0.242,-1.071,1.341
2024-09-23 11:40:21.824,162754.667,0.115,0.878,-0.465,-0.003,-0.023,-0.016,-0.05,-0.087,0.097,0.243,-1.071,1.343
2024-09-23 11:40:21.834,162754.677,0.116,0.878,-0.465,-0.001,-0.047,-0.029,-0.057,-0.106,0.083,0.244,-1.071,1.345
2024-09-23 11:40:21.844,162754.687,0.116,0.878,-0.465,-0.007,-0.04,-0.028,0.109,-0.163,0.058,0.244,-1.071,1.346
2024-09-23 11:40:21.855,162754.697,0.115,0.877,-0.467,-0.001,-0.01,-0.011,0.287,-0.175,-0.036,0.241,-1.069,1.346
2024-09-23 11:40:21.864,162754.707,0.113,0.876,-0.47,0.019,0.032,0.027,0.27,-0.112,-0.154,0.237,-1.067,1.342
2024-09-23 11:40:21.874,162754.717,0.111,0.875,-0.471,0.031,0.095,0.038,0.147,-0.087,-0.158,0.232,-1.065,1.338
2024-09-23 11:40:21.884,162754.727,0.11,0.875,-0.472,0.002,0.073,-0.011,0.038,-0.019,-0.153,0.228,-1.065,1.335
2024-09-23 11:40:21.894,162754.737,0.109,0.875,-0.472,-0.011,-0.024,-0.042,-0.062,0.037,-0.107,0.226,-1.065,1.332
2024-09-23 11:40:21.904,162754.747,0.108,0.875,-0.471,-0.018,-0.086,-0.039,-0.151,0.056,-0.025,0.226,-1.066,1.331
2024-09-23 11:40:21.914,162754.757,0.109,0.876,-0.47,-0.033,-0.06,-0.028,-0.117,0.072,0.058,0.227,-1.068,1.332
2024-09-23 11:40:21.924,162754.767,0.11,0.876,-0.469,-0.04,-0.005,-0.019,-0.035,0.087,0.094,0.23,-1.068,1.334
2024-09-23 11:40:21.934,162754.777,0.111,0.876,-0.469,-0.035,0.008,-0.001,0.014,0.114,0.118,0.233,-1.068,1.336
2024-09-23 11:40:21.944,162754.787,0.113,0.876,-0.469,-0.027,0.016,0.012,-0.039,0.125,0.127,0.236,-1.068,1.339
2024-09-23 11:40:21.954,162754.797,0.115,0.876,-0.468,-0.022,0.023,0.006,-0.134,0.151,0.127,0.24,-1.068,1.342
2024-09-23 11:40:21.964,162754.807,0.116,0.877,-0.466,-0.023,0.005,-0.015,-0.18,0.188,0.116,0.245,-1.07,1.345
2024-09-23 11:40:21.974,162754.817,0.118,0.878,-0.464,-0.022,-0.031,-0.027,-0.213,0.187,0.085,0.249,-1.071,1.348
2024-09-23 11:40:21.984,162754.827,0.12,0.879,-0.462,-0.02,-0.064,-0.023,-0.211,0.167,0.074,0.253,-1.073,1.351
2024-09-23 11:40:21.994,162754.837,0.121,0.879,-0.461,-0.013,-0.049,-0.016,-0.153,0.149,0.061,0.257,-1.074,1.353
2024-09-23 11:40:22.004,162754.847,0.122,0.88,-0.459,-0.006,-0.003,-0.003,-0.098,0.109,0.042,0.26,-1.076,1.355
2024-09-23 11:40:22.014,162754.857,0.123,0.88,-0.459,-0.001,0.009,0.007,-0.067,0.078,0.013,0.261,-1.076,1.355
2024-09-23 11:40:22.024,162754.867,0.123,0.88,-0.458,0.007,-0.006,0.005,-0.047,0.044,-0.001,0.262,-1.077,1.356
2024-09-23 11:40:22.034,162754.877,0.123,0.881,-0.458,0.01,0.007,0.003,-0.036,0.021,-0.033,0.262,-1.077,1.355
2024-09-23 11:40:22.044,162754.886,0.122,0.881,-0.457,0.003,0.006,0.003,-0.024,0.031,-0.049,0.262,-1.078,1.355
2024-09-23 11:40:22.054,162754.896,0.122,0.881,-0.457,0.006,-0.021,-0.004,-0.054,0.052,-0.044,0.261,-1.078,1.354
2024-09-23 11:40:22.064,162754.906,0.122,0.881,-0.457,0.002,-0.016,-0.009,-0.087,0.084,-0.021,0.261,-1.079,1.353
2024-09-23 11:40:22.074,162754.916,0.122,0.882,-0.456,-0.017,-0.006,-0.02,-0.13,0.083,0.013,0.262,-1.079,1.353
2024-09-23 11:40:22.083,162754.926,0.123,0.882,-0.454,-0.026,-0.009,-0.024,-0.126,0.064,0.06,0.264,-1.081,1.355
2024-09-23 11:40:22.093,162754.936,0.124,0.883,-0.454,-0.02,-0.003,-0.021,-0.076,0.079,0.04,0.266,-1.081,1.356
2024-09-23 11:40:22.104,162754.946,0.124,0.883,-0.453,-0.009,-0.003,-0.01,-0.093,0.075,0.034,0.268,-1.082,1.358
2024-09-23 11:40:22.114,162754.956,0.125,0.883,-0.452,-0.006,0.003,-0.007,-0.16,0.1,0.023,0.27,-1.083,1.359
2024-09-23 11:40:22.123,162754.966,0.126,0.884,-0.45,-0.01,0.019,-0.01,-0.282,0.09,0.058,0.273,-1.085,1.361
2024-09-23 11:40:22.133,162754.976,0.127,0.886,-0.446,-0.017,-0.053,-0.027,-0.464,0.107,0.068,0.277,-1.088,1.365
2024-09-23 11:40:22.143,162754.986,0.128,0.888,-0.441,-0.013,-0.107,-0.036,-0.579,0.154,0.115,0.283,-1.093,1.37
2024-09-23 11:40:22.152,162754.996,0.13,0.891,-0.436,-0.017,-0.085,-0.052,-0.714,0.223,0.149,0.291,-1.099,1.376
2024-09-23 11:40:22.163,162755.006,0.133,0.894,-0.428,-0.036,-0.054,-0.053,-0.961,0.305,0.167,0.301,-1.106,1.385
2024-09-23 11:40:22.173,162755.016,0.135,0.898,-0.418,-0.045,-0.008,-0.058,-1.204,0.368,0.146,0.314,-1.116,1.395
2024-09-23 11:40:22.183,162755.026,0.138,0.903,-0.407,-0.057,0.003,-0.1,-0.952,0.334,0.13,0.327,-1.126,1.407
2024-09-23 11:40:22.193,162755.036,0.14,0.905,-0.401,-0.07,-0.013,-0.118,-0.388,0.107,0.105,0.336,-1.132,1.414
2024-09-23 11:40:22.204,162755.046,0.141,0.906,-0.399,-0.057,-0.015,-0.094,0.051,-0.1,0.106,0.34,-1.133,1.418
2024-09-23 11:40:22.213,162755.056,0.141,0.904,-0.403,-0.01,0.141,-0.057,0.649,-0.367,-0.009,0.336,-1.13,1.416
2024-09-23 11:40:22.224,162755.066,0.138,0.901,-0.41,-0.033,0.34,0.022,0.738,-0.598,-0.246,0.323,-1.123,1.408
2024-09-23 11:40:22.235,162755.076,0.134,0.9,-0.416,-0.107,0.289,0.062,0.269,-0.316,-0.019,0.312,-1.119,1.4
2024-09-23 11:40:22.245,162755.086,0.134,0.899,-0.417,-0.157,0.165,0.14,-0.11,-0.079,0.114,0.311,-1.118,1.402
2024-09-23 11:40:22.254,162755.096,0.134,0.9,-0.415,-0.174,0.033,0.21,-0.323,-0.123,0.029,0.313,-1.12,1.405
2024-09-23 11:40:22.264,162755.106,0.134,0.901,-0.412,-0.118,-0.131,0.164,-0.188,-0.149,-0.022,0.314,-1.122,1.407
2024-09-23 11:40:22.273,162755.116,0.133,0.902,-0.412,-0.1,-0.107,0.124,0.045,-0.163,-0.073,0.312,-1.123,1.406
2024-09-23 11:40:22.284,162755.126,0.131,0.901,-0.414,-0.103,-0.013,0.11,0.319,-0.187,-0.109,0.307,-1.122,1.403
2024-09-23 11:40:22.293,162755.136,0.129,0.899,-0.418,-0.036,-0.014,0.117,0.537,-0.193,-0.093,0.3,-1.118,1.398
2024-09-23 11:40:22.304,162755.146,0.128,0.897,-0.423,0.052,-0.093,0.087,0.621,-0.172,-0.047,0.293,-1.113,1.392
2024-09-23 11:40:22.314,162755.156,0.127,0.894,-0.429,0.089,-0.162,0.036,0.603,-0.142,-0.052,0.287,-1.107,1.387
2024-09-23 11:40:22.323,162755.166,0.126,0.892,-0.435,0.081,-0.16,0.004,0.594,-0.119,-0.092,0.281,-1.101,1.382
2024-09-23 11:40:22.334,162755.176,0.125,0.889,-0.441,0.06,-0.115,0.013,0.855,-0.108,0.139,0.276,-1.095,1.378
2024-09-23 11:40:22.343,162755.186,0.127,0.884,-0.449,0.064,-0.095,0.014,0.975,-0.147,0.362,0.276,-1.085,1.378
2024-09-23 11:40:22.353,162755.196,0.128,0.88,-0.458,0.152,-0.053,-0.058,0.823,-0.265,0.152,0.274,-1.075,1.378
2024-09-23 11:40:22.364,162755.206,0.128,0.876,-0.464,0.321,0.089,-0.148,0.581,-0.213,-0.05,0.268,-1.068,1.375
2024-09-23 11:40:22.374,162755.216,0.126,0.874,-0.469,0.242,0.15,-0.1,0.36,-0.156,-0.12,0.263,-1.064,1.371
2024-09-23 11:40:22.383,162755.226,0.124,0.873,-0.471,0.023,0.036,-0.074,0.209,-0.154,-0.207,0.257,-1.062,1.366
2024-09-23 11:40:22.394,162755.236,0.121,0.873,-0.473,-0.023,-0.09,-0.047,0.11,-0.158,-0.297,0.251,-1.061,1.36
2024-09-23 11:40:22.403,162755.246,0.118,0.873,-0.474,0.03,-0.133,-0.04,0.06,-0.155,-0.309,0.243,-1.061,1.354
2024-09-23 11:40:22.413,162755.256,0.114,0.873,-0.474,0.036,-0.113,-0.028,0.031,-0.146,-0.257,0.237,-1.061,1.348
2024-09-23 11:40:22.423,162755.266,0.112,0.873,-0.474,0.004,-0.049,-0.014,-0.008,-0.134,-0.184,0.231,-1.062,1.343
2024-09-23 11:40:22.433,162755.276,0.11,0.873,-0.474,-0.021,0.01,-0.009,-0.053,-0.105,-0.127,0.228,-1.062,1.34
2024-09-23 11:40:22.443,162755.286,0.109,0.874,-0.474,-0.029,0.033,-0.016,-0.091,-0.073,-0.082,0.225,-1.063,1.339
2024-09-23 11:40:22.453,162755.296,0.108,0.875,-0.473,-0.03,0.018,-0.021,-0.133,-0.041,-0.058,0.224,-1.064,1.338
2024-09-23 11:40:22.463,162755.306,0.107,0.875,-0.472,-0.029,0.0,-0.019,-0.181,0.0,-0.047,0.223,-1.066,1.338
2024-09-23 11:40:22.473,162755.316,0.107,0.876,-0.47,-0.024,0.006,-0.02,-0.171,0.036,-0.027,0.224,-1.068,1.338
2024-09-23 11:40:22.483,162755.326,0.107,0.877,-0.469,-0.027,0.008,-0.023,-0.136,0.062,-0.009,0.224,-1.069,1.338
2024-09-23 11:40:22.493,162755.336,0.107,0.877,-0.468,-0.024,-0.004,-0.013,-0.061,0.042,0.025,0.226,-1.07,1.339
2024-09-23 11:40:22.503,162755.346,0.108,0.877,-0.467,-0.02,-0.004,-0.004,0.05,0.017,0.048,0.227,-1.07,1.339
2024-09-23 11:40:22.513,162755.356,0.108,0.877,-0.468,-0.015,0.018,0.01,0.129,-0.003,0.055,0.227,-1.069,1.34
2024-09-23 11:40:22.523,162755.366,0.109,0.876,-0.47,-0.008,0.043,0.023,0.199,-0.033,0.048,0.227,-1.068,1.34
2024-09-23 11:40:22.533,162755.376,0.109,0.875,-0.472,-0.004,0.041,0.019,0.237,-0.051,0.022,0.227,-1.065,1.34
2024-09-23 11:40:22.543,162755.386,0.108,0.874,-0.474,0.001,0.016,0.016,0.221,-0.063,-0.014,0.225,-1.063,1.339
2024-09-23 11:40:22.553,162755.396,0.108,0.873,-0.476,0.006,0.003,0.012,0.194,-0.072,-0.051,0.223,-1.061,1.337
2024-09-23 11:40:22.563,162755.406,0.107,0.872,-0.477,0.005,-0.002,0.002,0.189,-0.057,-0.099,0.22,-1.06,1.335
2024-09-23 11:40:22.573,162755.416,0.105,0.871,-0.479,0.008,-0.018,-0.005,0.165,-0.042,-0.132,0.217,-1.058,1.332
2024-09-23 11:40:22.583,162755.426,0.104,0.871,-0.481,0.008,-0.024,-0.003,0.185,-0.016,-0.138,0.213,-1.057,1.328
2024-09-23 11:40:22.593,162755.436,0.103,0.87,-0.482,-0.001,-0.012,-0.007,0.225,0.001,-0.127,0.21,-1.055,1.324
2024-09-23 11:40:22.602,162755.446,0.102,0.869,-0.484,-0.008,0.004,-0.005,0.32,0.014,-0.094,0.207,-1.053,1.321
2024-09-23 11:40:22.612,162755.456,0.101,0.867,-0.487,-0.012,0.025,0.0,0.467,-0.005,-0.044,0.205,-1.05,1.318
2024-09-23 11:40:22.623,162755.466,0.101,0.865,-0.492,-0.016,0.043,0.016,0.644,0.016,0.005,0.203,-1.045,1.316
2024-09-23 11:40:22.633,162755.476,0.102,0.862,-0.497,-0.014,0.062,0.04,0.581,0.104,0.057,0.202,-1.039,1.314
2024-09-23 11:40:22.643,162755.485,0.103,0.859,-0.502,-0.014,0.085,0.033,0.483,0.158,0.113,0.203,-1.033,1.313
2024-09-23 11:40:22.653,162755.495,0.105,0.857,-0.505,-0.048,0.069,-0.012,0.271,0.157,0.139,0.205,-1.029,1.314
2024-09-23 11:40:22.663,162755.505,0.107,0.856,-0.506,-0.05,-0.058,-0.016,0.008,0.144,0.136,0.208,-1.028,1.316
2024-09-23 11:40:22.673,162755.515,0.109,0.857,-0.505,-0.019,-0.112,-0.034,-0.223,0.148,0.105,0.212,-1.028,1.319
2024-09-23 11:40:22.683,162755.525,0.11,0.858,-0.502,-0.009,-0.047,-0.052,-0.412,0.12,0.074,0.216,-1.031,1.322
2024-09-23 11:40:22.693,162755.535,0.111,0.86,-0.497,-0.012,-0.057,-0.053,-0.531,0.076,0.034,0.22,-1.036,1.325
2024-09-23 11:40:22.703,162755.545,0.112,0.863,-0.493,-0.004,-0.114,-0.038,-0.549,0.055,0.002,0.223,-1.041,1.328
2024-09-23 11:40:22.713,162755.555,0.112,0.866,-0.488,0.011,-0.134,-0.025,-0.573,0.035,0.006,0.225,-1.047,1.33
2024-09-23 11:40:22.723,162755.565,0.112,0.869,-0.483,0.012,-0.11,-0.017,-0.588,0.036,0.026,0.228,-1.052,1.333
2024-09-23 11:40:22.733,162755.575,0.113,0.871,-0.478,-0.004,-0.064,-0.018,-0.563,0.041,0.045,0.231,-1.058,1.337
2024-09-23 11:40:22.743,162755.585,0.113,0.874,-0.473,-0.015,-0.028,-0.016,-0.458,0.038,0.055,0.235,-1.063,1.34
2024-09-23 11:40:22.753,162755.595,0.114,0.875,-0.47,-0.013,-0.002,-0.017,-0.321,0.032,0.04,0.238,-1.066,1.343
2024-09-23 11:40:22.763,162755.605,0.114,0.877,-0.467,-0.005,0.045,-0.008,-0.179,-0.001,0.021,0.239,-1.069,1.345
2024-09-23 11:40:22.773,162755.615,0.114,0.877,-0.467,-0.002,0.103,0.009,0.012,-0.047,-0.007,0.24,-1.07,1.345
2024-09-23 11:40:22.783,162755.625,0.114,0.876,-0.468,0.002,0.096,0.026,0.24,-0.121,-0.033,0.238,-1.068,1.344
2024-09-23 11:40:22.793,162755.635,0.112,0.875,-0.471,0.019,0.031,0.033,0.483,-0.19,-0.046,0.234,-1.065,1.342
2024-09-23 11:40:22.803,162755.645,0.111,0.872,-0.476,0.022,0.042,0.045,0.646,-0.157,-0.059,0.229,-1.06,1.338
2024-09-23 11:40:22.813,162755.655,0.11,0.869,-0.483,0.022,0.108,0.062,0.695,-0.135,-0.018,0.224,-1.053,1.334
2024-09-23 11:40:22.823,162755.665,0.109,0.865,-0.489,0.003,0.106,0.039,0.723,-0.087,0.03,0.22,-1.046,1.331
2024-09-23 11:40:22.833,162755.675,0.11,0.863,-0.494,-0.023,0.044,0.016,0.408,0.079,0.034,0.219,-1.04,1.329
2024-09-23 11:40:22.842,162755.685,0.111,0.862,-0.496,-0.02,0.009,0.002,0.035,0.147,0.048,0.22,-1.038,1.329
2024-09-23 11:40:22.853,162755.695,0.112,0.862,-0.495,-0.054,0.003,-0.071,-0.22,0.184,0.076,0.223,-1.039,1.331
2024-09-23 11:40:22.863,162755.705,0.114,0.863,-0.492,-0.064,-0.143,-0.075,-0.421,0.178,0.079,0.227,-1.042,1.334
2024-09-23 11:40:22.873,162755.715,0.115,0.866,-0.487,-0.013,-0.256,-0.071,-0.479,0.179,0.053,0.232,-1.046,1.337
2024-09-23 11:40:22.883,162755.725,0.116,0.868,-0.483,-0.011,-0.08,-0.054,-0.49,0.158,-0.0,0.236,-1.051,1.34
2024-09-23 11:40:22.891,162755.735,0.117,0.87,-0.479,-0.014,0.05,-0.017,-0.463,0.148,-0.059,0.239,-1.056,1.341
2024-09-23 11:40:22.901,162755.745,0.117,0.872,-0.475,-0.006,-0.01,-0.008,-0.456,0.109,-0.088,0.241,-1.06,1.342
2024-09-23 11:40:22.911,162755.755,0.116,0.875,-0.471,0.006,-0.069,-0.008,-0.395,0.089,-0.071,0.242,-1.065,1.343
2024-09-23 11:40:22.921,162755.765,0.116,0.876,-0.468,0.006,-0.041,-0.005,-0.288,0.018,-0.029,0.244,-1.068,1.343
2024-09-23 11:40:22.932,162755.775,0.116,0.877,-0.466,-0.002,-0.0,0.007,-0.123,-0.008,-0.018,0.244,-1.07,1.344
2024-09-23 11:40:22.942,162755.785,0.116,0.877,-0.465,-0.002,0.01,0.026,0.02,-0.049,0.002,0.244,-1.071,1.344
2024-09-23 11:40:22.952,162755.795,0.116,0.877,-0.466,0.005,0.025,0.033,0.125,-0.042,0.012,0.243,-1.07,1.344
2024-09-23 11:40:22.963,162755.805,0.116,0.876,-0.468,-0.001,0.039,0.027,0.207,-0.072,0.043,0.242,-1.068,1.344
2024-09-23 11:40:22.972,162755.815,0.116,0.875,-0.47,-0.008,0.037,0.014,0.223,-0.07,0.037,0.241,-1.066,1.343
2024-09-23 11:40:22.983,162755.825,0.116,0.874,-0.472,-0.009,0.034,0.015,0.169,-0.054,0.03,0.241,-1.064,1.343
2024-09-23 11:40:22.992,162755.835,0.116,0.874,-0.473,-0.004,0.021,0.004,0.053,-0.04,0.033,0.24,-1.063,1.343
2024-09-23 11:40:23.003,162755.845,0.116,0.874,-0.472,-0.008,-0.004,-0.018,-0.088,-0.009,0.033,0.24,-1.063,1.344
2024-09-23 11:40:23.012,162755.855,0.116,0.874,-0.471,-0.013,-0.029,-0.035,-0.231,-0.026,0.065,0.242,-1.064,1.345
2024-09-23 11:40:23.021,162755.865,0.117,0.876,-0.469,-0.017,-0.051,-0.041,-0.279,0.02,0.085,0.244,-1.067,1.348
2024-09-23 11:40:23.032,162755.875,0.118,0.877,-0.466,-0.013,-0.053,-0.039,-0.243,0.013,0.128,0.247,-1.069,1.352
2024-09-23 11:40:23.042,162755.885,0.119,0.878,-0.465,-0.02,-0.039,-0.035,-0.154,-0.033,0.144,0.251,-1.071,1.356
2024-09-23 11:40:23.052,162755.895,0.12,0.878,-0.464,-0.022,-0.027,-0.003,-0.023,-0.06,0.118,0.253,-1.071,1.359
2024-09-23 11:40:23.062,162755.905,0.12,0.877,-0.464,-0.002,0.016,0.017,0.165,-0.088,0.09,0.254,-1.07,1.36
2024-09-23 11:40:23.072,162755.915,0.121,0.876,-0.467,0.006,0.043,0.026,0.284,-0.111,0.051,0.253,-1.068,1.361
2024-09-23 11:40:23.082,162755.925,0.12,0.875,-0.469,0.009,0.042,0.031,0.329,-0.113,0.004,0.251,-1.065,1.359
2024-09-23 11:40:23.092,162755.935,0.119,0.873,-0.472,0.013,0.066,0.029,0.283,-0.107,-0.055,0.248,-1.062,1.357
2024-09-23 11:40:23.102,162755.945,0.118,0.872,-0.474,0.007,0.066,0.008,0.122,-0.075,-0.101,0.244,-1.06,1.355
2024-09-23 11:40:23.112,162755.955,0.117,0.872,-0.475,0.007,-0.003,-0.012,-0.079,-0.018,-0.119,0.242,-1.06,1.352
2024-09-23 11:40:23.122,162755.965,0.116,0.873,-0.474,0.001,-0.073,-0.037,-0.218,-0.002,-0.089,0.24,-1.062,1.351
2024-09-23 11:40:23.133,162755.975,0.116,0.874,-0.471,-0.012,-0.105,-0.053,-0.232,0.012,-0.056,0.24,-1.064,1.35
2024-09-23 11:40:23.142,162755.985,0.115,0.875,-0.47,-0.018,-0.079,-0.04,-0.085,0.007,-0.016,0.24,-1.066,1.35
2024-09-23 11:40:23.152,162755.995,0.115,0.875,-0.47,-0.019,-0.017,-0.012,0.082,0.008,0.012,0.241,-1.066,1.35
2024-09-23 11:40:23.162,162756.005,0.116,0.874,-0.471,-0.017,0.037,0.022,0.21,0.003,0.037,0.24,-1.064,1.35
2024-09-23 11:40:23.172,162756.015,0.116,0.873,-0.473,-0.013,0.085,0.037,0.257,0.01,0.064,0.24,-1.062,1.35
2024-09-23 11:40:23.182,162756.025,0.117,0.872,-0.475,-0.016,0.081,0.032,0.178,0.021,0.079,0.241,-1.06,1.35
2024-09-23 11:40:23.192,162756.035,0.118,0.871,-0.476,-0.016,0.025,0.01,0.053,0.046,0.102,0.242,-1.058,1.352
2024-09-23 11:40:23.202,162756.045,0.119,0.871,-0.476,-0.021,-0.011,-0.012,-0.094,0.107,0.073,0.245,-1.058,1.353
2024-09-23 11:40:23.212,162756.055,0.12,0.872,-0.474,-0.018,-0.036,-0.028,-0.242,0.184,0.066,0.248,-1.059,1.356
2024-09-23 11:40:23.222,162756.065,0.121,0.874,-0.471,-0.024,-0.071,-0.048,-0.4,0.192,0.06,0.252,-1.063,1.359
2024-09-23 11:40:23.232,162756.075,0.123,0.876,-0.467,-0.024,-0.081,-0.053,-0.458,0.178,0.034,0.257,-1.067,1.362
2024-09-23 11:40:23.242,162756.084,0.124,0.878,-0.463,-0.019,-0.068,-0.046,-0.402,0.133,0.012,0.261,-1.071,1.364
2024-09-23 11:40:23.252,162756.094,0.124,0.879,-0.46,-0.004,-0.053,-0.028,-0.261,0.052,-0.013,0.263,-1.074,1.366
2024-09-23 11:40:23.262,162756.104,0.124,0.88,-0.458,0.01,0.003,-0.002,-0.135,0.022,-0.057,0.264,-1.076,1.367
2024-09-23 11:40:23.272,162756.114,0.123,0.881,-0.458,0.017,0.035,0.03,-0.056,-0.024,-0.054,0.263,-1.077,1.366
2024-09-23 11:40:23.282,162756.124,0.123,0.881,-0.457,0.015,0.017,0.025,-0.036,0.013,-0.056,0.262,-1.078,1.365
2024-09-23 11:40:23.292,162756.134,0.123,0.881,-0.457,0.002,0.005,0.015,-0.102,0.067,-0.025,0.262,-1.078,1.364
2024-09-23 11:40:23.302,162756.144,0.123,0.882,-0.455,-0.006,-0.0,-0.012,-0.207,0.1,0.022,0.264,-1.08,1.365
2024-09-23 11:40:23.312,162756.154,0.124,0.883,-0.453,-0.031,-0.012,-0.037,-0.291,0.113,0.019,0.266,-1.082,1.367
2024-09-23 11:40:23.322,162756.164,0.124,0.884,-0.45,-0.03,-0.043,-0.037,-0.319,0.127,0.016,0.269,-1.085,1.369
2024-09-23 11:40:23.332,162756.174,0.125,0.886,-0.447,-0.017,-0.038,-0.037,-0.325,0.127,0.021,0.273,-1.088,1.371
2024-09-23 11:40:23.342,162756.184,0.126,0.887,-0.444,-0.013,-0.023,-0.023,-0.314,0.116,0.029,0.276,-1.091,1.373
2024-09-23 11:40:23.352,162756.194,0.127,0.888,-0.441,-0.015,-0.025,-0.013,-0.362,0.136,0.017,0.279,-1.094,1.376
2024-09-23 11:40:23.362,162756.204,0.127,0.89,-0.437,-0.009,-0.025,-0.013,-0.472,0.143,0.044,0.284,-1.098,1.379
2024-09-23 11:40:23.372,162756.214,0.129,0.892,-0.432,-0.013,-0.024,-0.025,-0.618,0.15,0.087,0.289,-1.103,1.384
2024-09-23 11:40:23.382,162756.224,0.13,0.895,-0.426,-0.02,-0.028,-0.036,-0.769,0.18,0.109,0.297,-1.109,1.39
2024-09-23 11:40:23.392,162756.234,0.132,0.899,-0.418,-0.021,-0.012,-0.048,-0.964,0.256,0.115,0.306,-1.117,1.399
2024-09-23 11:40:23.402,162756.244,0.134,0.903,-0.408,-0.026,-0.0,-0.065,-1.12,0.31,0.13,0.318,-1.127,1.409
2024-09-23 11:40:23.412,162756.254,0.137,0.907,-0.397,-0.048,-0.027,-0.084,-1.1,0.387,0.137,0.332,-1.137,1.42
2024-09-23 11:40:23.422,162756.264,0.14,0.911,-0.387,-0.052,-0.051,-0.09,-0.963,0.402,0.128,0.346,-1.146,1.432
2024-09-23 11:40:23.432,162756.274,0.141,0.913,-0.382,-0.033,0.002,-0.062,-0.095,-0.063,-0.115,0.353,-1.151,1.436
2024-09-23 11:40:23.442,162756.284,0.139,0.913,-0.384,-0.044,0.131,-0.037,0.441,-0.26,-0.064,0.347,-1.15,1.432
2024-09-23 11:40:23.452,162756.294,0.138,0.91,-0.39,-0.085,0.222,-0.006,0.713,-0.282,0.003,0.34,-1.144,1.427
2024-09-23 11:40:23.462,162756.304,0.137,0.908,-0.397,-0.116,0.279,0.088,0.593,-0.266,-0.0,0.332,-1.138,1.422
2024-09-23 11:40:23.472,162756.314,0.136,0.906,-0.402,-0.144,0.282,0.167,0.407,-0.219,0.027,0.326,-1.133,1.418
2024-09-23 11:40:23.481,162756.324,0.135,0.905,-0.404,-0.186,0.128,0.189,0.057,-0.157,0.049,0.323,-1.131,1.417
2024-09-23 11:40:23.492,162756.334,0.135,0.905,-0.404,-0.176,-0.079,0.199,-0.011,-0.131,-0.017,0.322,-1.131,1.418
2024-09-23 11:40:23.501,162756.344,0.134,0.905,-0.405,-0.18,-0.097,0.193,0.151,-0.158,-0.11,0.319,-1.13,1.416
2024-09-23 11:40:23.512,162756.354,0.132,0.904,-0.408,-0.173,-0.045,0.166,0.399,-0.221,-0.12,0.313,-1.128,1.411
2024-09-23 11:40:23.522,162756.364,0.13,0.902,-0.413,-0.097,-0.048,0.119,0.605,-0.244,-0.069,0.306,-1.123,1.405
2024-09-23 11:40:23.532,162756.374,0.129,0.899,-0.419,0.007,-0.066,0.074,0.674,-0.212,-0.026,0.298,-1.117,1.4
2024-09-23 11:40:23.542,162756.384,0.128,0.896,-0.425,0.071,-0.111,0.029,0.625,-0.14,-0.032,0.292,-1.111,1.395
2024-09-23 11:40:23.552,162756.394,0.127,0.894,-0.43,0.085,-0.142,-0.009,0.573,-0.046,-0.093,0.287,-1.106,1.39
2024-09-23 11:40:23.561,162756.404,0.126,0.892,-0.435,0.07,-0.144,-0.046,0.534,0.023,-0.104,0.282,-1.101,1.384
2024-09-23 11:40:23.571,162756.414,0.125,0.889,-0.439,0.065,-0.144,-0.079,0.433,0.081,-0.04,0.278,-1.096,1.38
2024-09-23 11:40:23.581,162756.424,0.126,0.888,-0.442,0.098,-0.125,-0.104,0.275,0.108,-0.006,0.277,-1.093,1.377
2024-09-23 11:40:23.591,162756.434,0.126,0.887,-0.444,0.16,-0.067,-0.113,0.131,0.125,-0.0,0.277,-1.091,1.376
2024-09-23 11:40:23.601,162756.444,0.127,0.887,-0.445,0.201,-0.022,-0.111,0.011,0.121,-0.013,0.278,-1.09,1.375
2024-09-23 11:40:23.611,162756.454,0.127,0.887,-0.444,0.202,-0.011,-0.097,-0.112,0.118,-0.032,0.279,-1.091,1.375
2024-09-23 11:40:23.621,162756.464,0.127,0.888,-0.443,0.188,-0.018,-0.061,-0.13,0.126,-0.071,0.28,-1.092,1.375
2024-09-23 11:40:23.631,162756.474,0.127,0.888,-0.442,0.174,-0.031,-0.023,-0.049,0.071,-0.155,0.279,-1.093,1.373
2024-09-23 11:40:23.641,162756.484,0.125,0.888,-0.442,0.132,-0.035,-0.021,0.088,-0.04,-0.217,0.276,-1.094,1.369
2024-09-23 11:40:23.652,162756.494,0.123,0.888,-0.443,0.06,0.002,-0.038,0.132,-0.109,-0.193,0.27,-1.093,1.364
2024-09-23 11:40:23.661,162756.504,0.121,0.888,-0.444,0.002,0.048,-0.037,0.117,-0.118,-0.124,0.266,-1.092,1.36
2024-09-23 11:40:23.670,162756.514,0.119,0.887,-0.445,-0.012,0.063,-0.026,0.109,-0.119,-0.155,0.262,-1.092,1.357
2024-09-23 11:40:23.681,162756.524,0.117,0.887,-0.446,-0.004,0.027,-0.011,0.059,-0.092,-0.156,0.257,-1.091,1.353
2024-09-23 11:40:23.691,162756.534,0.116,0.887,-0.446,-0.014,-0.009,-0.01,-0.016,-0.046,-0.122,0.254,-1.091,1.35
2024-09-23 11:40:23.701,162756.544,0.115,0.888,-0.446,-0.039,-0.015,-0.019,-0.1,0.008,-0.11,0.252,-1.092,1.348
2024-09-23 11:40:23.711,162756.554,0.114,0.888,-0.445,-0.062,-0.028,-0.029,-0.153,0.028,-0.058,0.251,-1.094,1.346
2024-09-23 11:40:23.721,162756.564,0.114,0.889,-0.443,-0.075,-0.034,-0.032,-0.14,0.045,0.023,0.251,-1.095,1.347
2024-09-23 11:40:23.731,162756.574,0.115,0.889,-0.442,-0.067,-0.019,-0.024,-0.081,0.053,0.086,0.254,-1.096,1.349
2024-09-23 11:40:23.741,162756.584,0.116,0.89,-0.442,-0.042,0.01,-0.013,0.003,0.038,0.124,0.256,-1.096,1.351
2024-09-23 11:40:23.751,162756.594,0.117,0.889,-0.442,-0.027,0.033,0.001,0.087,0.003,0.143,0.259,-1.096,1.354
2024-09-23 11:40:23.761,162756.604,0.118,0.888,-0.443,-0.019,0.045,0.016,0.16,-0.045,0.137,0.261,-1.094,1.356
2024-09-23 11:40:23.772,162756.614,0.119,0.887,-0.445,-0.008,0.047,0.025,0.245,-0.092,0.094,0.261,-1.092,1.357
2024-09-23 11:40:23.781,162756.624,0.119,0.886,-0.448,0.001,0.035,0.022,0.327,-0.111,0.024,0.26,-1.089,1.357
2024-09-23 11:40:23.791,162756.634,0.118,0.885,-0.451,0.005,0.008,0.029,0.366,-0.131,-0.038,0.256,-1.085,1.355
2024-09-23 11:40:23.801,162756.644,0.117,0.883,-0.455,0.009,0.01,0.031,0.382,-0.138,-0.105,0.252,-1.082,1.351
2024-09-23 11:40:23.811,162756.654,0.115,0.881,-0.459,0.012,0.023,0.021,0.412,-0.136,-0.165,0.246,-1.078,1.346
2024-09-23 11:40:23.821,162756.664,0.113,0.879,-0.462,0.016,0.01,0.008,0.449,-0.145,-0.182,0.239,-1.075,1.34
2024-09-23 11:40:23.831,162756.674,0.11,0.877,-0.467,0.019,-0.008,0.001,0.526,-0.117,-0.168,0.232,-1.071,1.334
2024-09-23 11:40:23.841,162756.683,0.109,0.875,-0.472,0.017,-0.003,-0.001,0.624,-0.104,-0.114,0.226,-1.065,1.328
2024-09-23 11:40:23.851,162756.693,0.107,0.872,-0.478,0.007,0.029,0.008,0.765,-0.087,-0.032,0.221,-1.059,1.323
2024-09-23 11:40:23.863,162756.703,0.107,0.868,-0.485,-0.011,0.059,0.027,0.912,-0.056,0.043,0.217,-1.051,1.32
2024-09-23 11:40:23.873,162756.713,0.108,0.863,-0.493,-0.018,0.058,0.039,0.794,-0.03,0.178,0.216,-1.042,1.318
2024-09-23 11:40:23.880,162756.723,0.109,0.86,-0.499,-0.025,0.062,0.037,0.511,-0.024,0.202,0.216,-1.035,1.319
2024-09-23 11:40:23.889,162756.733,0.111,0.858,-0.501,-0.034,0.061,-0.018,0.114,0.069,0.17,0.218,-1.031,1.321
2024-09-23 11:40:23.900,162756.743,0.113,0.858,-0.5,-0.033,-0.047,-0.047,-0.335,0.144,0.135,0.222,-1.032,1.325
2024-09-23 11:40:23.911,162756.753,0.115,0.861,-0.496,-0.028,-0.186,-0.089,-0.665,0.161,0.1,0.228,-1.037,1.329
2024-09-23 11:40:23.920,162756.763,0.116,0.864,-0.489,-0.043,-0.189,-0.099,-0.787,0.142,0.029,0.233,-1.044,1.334
2024-09-23 11:40:23.931,162756.773,0.117,0.868,-0.482,-0.029,-0.152,-0.068,-0.786,0.121,-0.024,0.238,-1.052,1.337
2024-09-23 11:40:23.940,162756.783,0.117,0.872,-0.476,-0.008,-0.135,-0.025,-0.676,0.104,-0.004,0.242,-1.059,1.341
2024-09-23 11:40:23.950,162756.793,0.118,0.875,-0.47,-0.005,-0.077,-0.005,-0.593,0.097,0.032,0.245,-1.065,1.344
2024-09-23 11:40:23.961,162756.803,0.119,0.877,-0.465,-0.007,-0.011,0.002,-0.487,0.056,0.059,0.25,-1.07,1.348
2024-09-23 11:40:23.970,162756.813,0.119,0.879,-0.462,-0.016,0.024,0.003,-0.33,0.052,0.054,0.253,-1.074,1.351
2024-09-23 11:40:23.980,162756.823,0.12,0.88,-0.459,-0.008,0.043,0.012,-0.185,0.022,0.035,0.255,-1.076,1.353
2024-09-23 11:40:23.991,162756.833,0.12,0.881,-0.458,0.008,0.073,0.01,-0.037,-0.021,0.027,0.256,-1.077,1.354
2024-09-23 11:40:24.001,162756.843,0.12,0.88,-0.459,0.016,0.088,0.01,0.092,-0.049,0.017,0.256,-1.077,1.355
2024-09-23 11:40:24.011,162756.853,0.12,0.88,-0.46,0.019,0.05,0.019,0.264,-0.118,0.012,0.255,-1.075,1.354
2024-09-23 11:40:24.021,162756.863,0.119,0.878,-0.464,0.008,0.026,0.019,0.472,-0.17,-0.011,0.252,-1.072,1.352
2024-09-23 11:40:24.031,162756.873,0.118,0.875,-0.469,0.008,0.047,0.038,0.652,-0.2,-0.031,0.247,-1.066,1.349
2024-09-23 11:40:24.041,162756.883,0.117,0.872,-0.475,0.018,0.082,0.057,0.702,-0.186,-0.022,0.242,-1.06,1.345
2024-09-23 11:40:24.051,162756.893,0.116,0.869,-0.481,0.013,0.076,0.046,0.649,-0.135,0.01,0.237,-1.053,1.341
2024-09-23 11:40:24.061,162756.903,0.116,0.866,-0.487,0.002,0.044,0.014,0.552,-0.03,0.035,0.234,-1.047,1.339
2024-09-23 11:40:24.071,162756.913,0.117,0.864,-0.49,-0.011,0.014,-0.014,0.226,0.103,0.062,0.234,-1.043,1.338
2024-09-23 11:40:24.081,162756.923,0.118,0.864,-0.49,-0.026,-0.017,-0.034,-0.086,0.131,0.088,0.236,-1.042,1.339
2024-09-23 11:40:24.091,162756.933,0.119,0.865,-0.488,-0.043,-0.052,-0.08,-0.336,0.228,0.083,0.24,-1.044,1.342
2024-09-23 11:40:24.101,162756.943,0.121,0.866,-0.484,-0.033,-0.151,-0.069,-0.484,0.261,0.091,0.246,-1.048,1.346
2024-09-23 11:40:24.111,162756.953,0.123,0.869,-0.48,-0.034,-0.165,-0.074,-0.505,0.256,0.052,0.252,-1.053,1.35
2024-09-23 11:40:24.120,162756.963,0.125,0.871,-0.475,-0.041,-0.044,-0.047,-0.473,0.235,-0.038,0.256,-1.057,1.352
2024-09-23 11:40:24.130,162756.973,0.125,0.873,-0.471,-0.018,0.0,-0.023,-0.427,0.212,-0.091,0.259,-1.062,1.353
2024-09-23 11:40:24.140,162756.983,0.125,0.875,-0.467,-0.005,-0.03,-0.005,-0.374,0.153,-0.074,0.262,-1.066,1.354
2024-09-23 11:40:24.149,162756.993,0.125,0.877,-0.464,0.002,-0.034,0.008,-0.275,0.097,-0.035,0.264,-1.069,1.354
2024-09-23 11:40:24.159,162757.003,0.125,0.878,-0.462,0.006,-0.008,0.019,-0.111,-0.001,-0.022,0.265,-1.071,1.355
2024-09-23 11:40:24.169,162757.013,0.125,0.878,-0.462,0.001,0.003,0.038,0.11,-0.041,-0.019,0.264,-1.071,1.355
2024-09-23 11:40:24.179,162757.023,0.125,0.877,-0.464,-0.003,0.022,0.061,0.25,-0.067,0.005,0.262,-1.07,1.353
2024-09-23 11:40:24.189,162757.033,0.124,0.876,-0.467,0.001,0.069,0.053,0.284,-0.063,0.025,0.261,-1.067,1.352
2024-09-23 11:40:24.199,162757.043,0.124,0.874,-0.469,-0.001,0.071,0.024,0.245,-0.038,0.02,0.259,-1.064,1.351
2024-09-23 11:40:24.209,162757.053,0.125,0.873,-0.471,-0.007,0.023,0.009,0.127,-0.031,0.034,0.259,-1.062,1.351
2024-09-23 11:40:24.219,162757.063,0.125,0.873,-0.471,-0.011,-0.013,-0.014,0.009,-0.019,0.044,0.259,-1.062,1.351
2024-09-23 11:40:24.229,162757.073,0.125,0.873,-0.471,-0.008,-0.028,-0.032,-0.107,-0.008,0.053,0.26,-1.062,1.352
2024-09-23 11:40:24.239,162757.083,0.126,0.874,-0.47,-0.006,-0.047,-0.039,-0.174,0.003,0.092,0.261,-1.063,1.355
2024-09-23 11:40:24.250,162757.093,0.127,0.875,-0.468,-0.011,-0.054,-0.037,-0.22,0.002,0.129,0.264,-1.065,1.358
2024-09-23 11:40:24.260,162757.103,0.128,0.876,-0.466,-0.013,-0.037,-0.028,-0.206,0.011,0.16,0.268,-1.067,1.362
2024-09-23 11:40:24.270,162757.113,0.129,0.876,-0.464,-0.016,-0.029,-0.026,-0.128,-0.028,0.174,0.272,-1.068,1.366
2024-09-23 11:40:24.280,162757.123,0.131,0.876,-0.464,-0.018,-0.021,-0.011,0.027,-0.1,0.15,0.274,-1.068,1.37
2024-09-23 11:40:24.290,162757.133,0.131,0.875,-0.466,-0.01,0.012,0.016,0.348,-0.168,0.082,0.274,-1.066,1.371
2024-09-23 11:40:24.300,162757.143,0.13,0.873,-0.47,0.008,0.062,0.043,0.556,-0.185,-0.013,0.271,-1.061,1.369
2024-09-23 11:40:24.310,162757.153,0.129,0.87,-0.475,0.018,0.099,0.074,0.484,-0.172,-0.021,0.266,-1.056,1.366
2024-09-23 11:40:24.320,162757.163,0.128,0.868,-0.479,0.017,0.128,0.063,0.34,-0.125,-0.023,0.262,-1.052,1.363
2024-09-23 11:40:24.330,162757.173,0.128,0.867,-0.481,0.012,0.068,-0.014,0.132,-0.027,-0.067,0.259,-1.05,1.361
2024-09-23 11:40:24.340,162757.183,0.127,0.867,-0.481,0.008,-0.074,-0.056,-0.133,0.052,-0.054,0.258,-1.05,1.36
2024-09-23 11:40:24.350,162757.193,0.127,0.868,-0.479,-0.014,-0.14,-0.056,-0.243,0.072,-0.005,0.259,-1.052,1.36
2024-09-23 11:40:24.360,162757.203,0.128,0.87,-0.477,-0.035,-0.084,-0.058,-0.204,0.079,0.014,0.261,-1.054,1.362
2024-09-23 11:40:24.370,162757.213,0.128,0.87,-0.476,-0.028,-0.053,-0.04,-0.08,0.101,0.02,0.263,-1.056,1.363
2024-09-23 11:40:24.380,162757.223,0.129,0.87,-0.475,-0.016,-0.028,-0.001,0.019,0.09,0.07,0.265,-1.056,1.364
2024-09-23 11:40:24.390,162757.233,0.13,0.87,-0.476,-0.019,0.032,0.023,0.046,0.046,0.11,0.267,-1.055,1.365
2024-09-23 11:40:24.400,162757.243,0.131,0.87,-0.476,-0.015,0.066,0.019,0.029,0.068,0.117,0.27,-1.055,1.367
2024-09-23 11:40:24.411,162757.253,0.133,0.87,-0.476,-0.007,0.052,0.006,-0.039,0.096,0.11,0.272,-1.054,1.37
2024-09-23 11:40:24.420,162757.263,0.134,0.87,-0.475,-0.008,0.015,-0.016,-0.18,0.119,0.071,0.275,-1.055,1.372
2024-09-23 11:40:24.430,162757.273,0.135,0.871,-0.472,-0.018,-0.025,-0.032,-0.27,0.098,-0.061,0.278,-1.057,1.373
2024-09-23 11:40:24.440,162757.282,0.135,0.873,-0.47,-0.028,-0.059,-0.041,-0.352,0.125,-0.072,0.279,-1.06,1.374
2024-09-23 11:40:24.450,162757.292,0.135,0.874,-0.466,-0.041,-0.077,-0.053,-0.423,0.127,-0.034,0.281,-1.064,1.375
2024-09-23 11:40:24.460,162757.302,0.135,0.876,-0.462,-0.03,-0.061,-0.042,-0.403,0.143,-0.052,0.284,-1.068,1.376
2024-09-23 11:40:24.470,162757.312,0.135,0.878,-0.459,0.016,-0.041,-0.015,-0.338,0.125,-0.062,0.286,-1.072,1.377
2024-09-23 11:40:24.480,162757.322,0.135,0.879,-0.456,0.021,-0.032,0.002,-0.173,0.113,-0.072,0.288,-1.075,1.377
2024-09-23 11:40:24.490,162757.332,0.135,0.88,-0.455,0.01,0.02,0.025,-0.089,0.061,-0.065,0.288,-1.076,1.377
2024-09-23 11:40:24.500,162757.342,0.135,0.88,-0.455,0.004,0.043,0.022,-0.014,0.072,-0.038,0.288,-1.077,1.376
2024-09-23 11:40:24.509,162757.352,0.135,0.88,-0.454,-0.001,0.034,0.027,-0.033,0.098,0.018,0.288,-1.077,1.376
2024-09-23 11:40:24.519,162757.362,0.136,0.881,-0.454,-0.008,-0.016,0.006,-0.156,0.117,0.09,0.291,-1.077,1.377
2024-09-23 11:40:24.529,162757.372,0.138,0.882,-0.451,-0.032,-0.054,-0.016,-0.335,0.155,0.178,0.296,-1.079,1.381
2024-09-23 11:40:24.541,162757.382,0.14,0.883,-0.448,-0.042,-0.05,-0.031,-0.471,0.136,0.184,0.303,-1.083,1.388
2024-09-23 11:40:24.550,162757.392,0.141,0.885,-0.443,-0.035,-0.062,-0.061,-0.585,0.077,0.045,0.309,-1.087,1.393
2024-09-23 11:40:24.560,162757.402,0.142,0.888,-0.437,-0.033,-0.066,-0.074,-0.692,0.051,-0.036,0.313,-1.093,1.398
2024-09-23 11:40:24.570,162757.412,0.141,0.891,-0.431,-0.041,-0.004,-0.069,-0.679,0.041,-0.119,0.317,-1.1,1.401
2024-09-23 11:40:24.580,162757.422,0.14,0.894,-0.425,-0.036,0.051,-0.06,-0.622,0.028,-0.148,0.318,-1.107,1.402
2024-09-23 11:40:24.590,162757.432,0.139,0.897,-0.42,-0.026,0.024,-0.073,-0.515,0.067,-0.113,0.32,-1.112,1.403
2024-09-23 11:40:24.600,162757.442,0.139,0.899,-0.416,-0.033,0.005,-0.065,-0.345,0.084,-0.022,0.322,-1.117,1.405
2024-09-23 11:40:24.610,162757.452,0.139,0.9,-0.414,-0.059,0.068,-0.029,-0.101,-0.025,0.052,0.324,-1.119,1.407
2024-09-23 11:40:24.619,162757.462,0.139,0.899,-0.415,-0.08,0.174,0.028,0.254,-0.183,-0.095,0.323,-1.118,1.406
2024-09-23 11:40:24.630,162757.472,0.137,0.898,-0.418,-0.075,0.228,0.106,0.406,-0.229,-0.15,0.316,-1.115,1.401
2024-09-23 11:40:24.639,162757.482,0.135,0.896,-0.422,-0.136,0.195,0.147,0.36,-0.272,-0.003,0.309,-1.112,1.397
2024-09-23 11:40:24.649,162757.492,0.134,0.895,-0.425,-0.185,0.101,0.161,0.111,-0.219,0.012,0.306,-1.109,1.395
2024-09-23 11:40:24.659,162757.502,0.133,0.895,-0.425,-0.133,-0.011,0.162,-0.014,-0.188,-0.076,0.303,-1.109,1.394
2024-09-23 11:40:24.670,162757.512,0.131,0.896,-0.425,-0.097,-0.032,0.152,-0.018,-0.164,-0.11,0.299,-1.11,1.392
2024-09-23 11:40:24.679,162757.522,0.13,0.896,-0.425,-0.098,-0.01,0.129,0.032,-0.163,-0.077,0.296,-1.11,1.39
2024-09-23 11:40:24.689,162757.532,0.128,0.896,-0.426,-0.047,-0.038,0.08,0.068,-0.164,-0.029,0.293,-1.11,1.389
2024-09-23 11:40:24.699,162757.542,0.128,0.895,-0.427,0.028,-0.064,0.019,0.048,-0.145,0.006,0.291,-1.109,1.388
2024-09-23 11:40:24.709,162757.552,0.127,0.895,-0.427,0.073,-0.09,-0.022,0.026,-0.114,-0.021,0.289,-1.109,1.388
2024-09-23 11:40:24.719,162757.562,0.126,0.895,-0.428,0.074,-0.09,-0.021,0.013,-0.07,-0.06,0.287,-1.109,1.387
2024-09-23 11:40:24.730,162757.572,0.126,0.895,-0.428,0.06,-0.108,-0.003,0.013,-0.016,-0.068,0.286,-1.109,1.385
2024-09-23 11:40:24.739,162757.582,0.125,0.895,-0.428,0.068,-0.142,0.001,0.104,0.03,-0.042,0.284,-1.108,1.384
2024-09-23 11:40:24.749,162757.592,0.125,0.894,-0.429,0.097,-0.152,-0.014,0.191,0.05,0.003,0.283,-1.107,1.382
2024-09-23 11:40:24.759,162757.602,0.125,0.893,-0.431,0.128,-0.134,-0.047,0.261,0.042,0.016,0.283,-1.105,1.381
2024-09-23 11:40:24.769,162757.612,0.126,0.892,-0.434,0.156,-0.075,-0.075,0.315,0.043,0.016,0.282,-1.102,1.38
2024-09-23 11:40:24.779,162757.622,0.126,0.891,-0.437,0.166,-0.018,-0.087,0.287,0.058,0.012,0.281,-1.099,1.378
2024-09-23 11:40:24.789,162757.632,0.126,0.89,-0.439,0.161,-0.007,-0.086,0.207,0.063,0.011,0.28,-1.097,1.377
2024-09-23 11:40:24.800,162757.642,0.127,0.889,-0.44,0.144,-0.004,-0.081,0.111,0.081,0.027,0.281,-1.095,1.376
2024-09-23 11:40:24.809,162757.652,0.128,0.889,-0.441,0.106,-0.0,-0.08,0.051,0.076,0.019,0.282,-1.094,1.377
2024-09-23 11:40:24.819,162757.662,0.128,0.888,-0.441,0.065,0.019,-0.068,-0.017,0.031,-0.003,0.282,-1.094,1.377
2024-09-23 11:40:24.829,162757.672,0.128,0.889,-0.44,0.026,0.024,-0.056,-0.064,0.048,-0.006,0.283,-1.094,1.377
2024-09-23 11:40:24.839,162757.682,0.128,0.889,-0.44,-0.005,0.002,-0.043,-0.109,0.074,-0.019,0.284,-1.095,1.377
2024-09-23 11:40:24.849,162757.692,0.129,0.889,-0.439,-0.027,-0.029,-0.024,-0.112,0.085,-0.034,0.285,-1.096,1.378
2024-09-23 11:40:24.859,162757.702,0.129,0.89,-0.438,-0.059,-0.029,-0.014,-0.051,0.061,-0.038,0.286,-1.097,1.378
2024-09-23 11:40:24.869,162757.712,0.129,0.89,-0.438,-0.08,-0.001,-0.013,0.031,0.035,-0.035,0.286,-1.097,1.377
2024-09-23 11:40:24.879,162757.722,0.129,0.89,-0.438,-0.085,0.02,-0.02,0.119,0.025,-0.025,0.285,-1.096,1.376
2024-09-23 11:40:24.889,162757.732,0.128,0.889,-0.44,-0.077,0.039,-0.008,0.246,-0.022,-0.025,0.284,-1.095,1.375
2024-09-23 11:40:24.899,162757.742,0.128,0.887,-0.443,-0.062,0.054,0.007,0.396,-0.051,-0.018,0.282,-1.092,1.372
2024-09-23 11:40:24.909,162757.752,0.128,0.885,-0.447,-0.04,0.065,0.018,0.61,-0.086,-0.01,0.278,-1.087,1.369
2024-09-23 11:40:24.919,162757.762,0.127,0.882,-0.454,-0.009,0.069,0.034,0.833,-0.104,0.004,0.273,-1.08,1.365
2024-09-23 11:40:24.929,162757.772,0.127,0.878,-0.462,0.006,0.081,0.034,1.09,-0.139,0.037,0.268,-1.071,1.36
2024-09-23 11:40:24.940,162757.782,0.127,0.872,-0.473,0.003,0.094,0.038,1.244,-0.182,0.078,0.261,-1.059,1.354
2024-09-23 11:40:24.949,162757.792,0.127,0.866,-0.484,-0.0,0.085,0.037,1.127,-0.073,0.22,0.257,-1.047,1.351
2024-09-23 11:40:24.959,162757.802,0.128,0.861,-0.492,0.011,0.072,0.044,0.68,-0.128,0.076,0.255,-1.038,1.35
2024-09-23 11:40:24.969,162757.812,0.127,0.859,-0.496,0.035,0.063,0.008,0.209,-0.12,-0.085,0.251,-1.034,1.347
2024-09-23 11:40:24.979,162757.822,0.127,0.86,-0.495,-0.004,-0.03,-0.074,-0.434,0.052,-0.011,0.251,-1.035,1.347
2024-09-23 11:40:24.989,162757.832,0.127,0.863,-0.489,-0.017,-0.249,-0.069,-0.914,0.136,-0.038,0.254,-1.041,1.35
2024-09-23 11:40:25.000,162757.842,0.127,0.868,-0.48,-0.023,-0.297,-0.064,-1.023,0.187,-0.065,0.26,-1.051,1.354
2024-09-23 11:40:25.009,162757.852,0.128,0.873,-0.471,-0.052,-0.218,-0.002,-0.859,0.197,-0.018,0.265,-1.06,1.358
2024-09-23 11:40:25.019,162757.862,0.129,0.876,-0.465,-0.056,-0.125,0.026,-0.627,0.122,0.017,0.27,-1.068,1.362
2024-09-23 11:40:25.029,162757.872,0.129,0.878,-0.46,-0.043,-0.012,0.02,-0.387,0.061,0.051,0.274,-1.072,1.365
2024-09-23 11:40:25.039,162757.882,0.13,0.88,-0.458,-0.028,0.069,0.016,-0.16,0.026,0.049,0.277,-1.075,1.368
2024-09-23 11:40:25.049,162757.891,0.13,0.88,-0.457,-0.02,0.105,0.023,0.111,-0.045,0.009,0.278,-1.075,1.369
2024-09-23 11:40:25.059,162757.901,0.13,0.879,-0.46,-0.013,0.119,0.023,0.35,-0.102,0.028,0.276,-1.073,1.368
2024-09-23 11:40:25.068,162757.911,0.13,0.876,-0.464,0.002,0.106,0.022,0.566,-0.161,0.061,0.273,-1.068,1.366
2024-09-23 11:40:25.078,162757.921,0.13,0.873,-0.47,0.029,0.086,0.018,0.738,-0.179,0.069,0.269,-1.062,1.364
2024-09-23 11:40:25.088,162757.931,0.129,0.869,-0.477,0.047,0.075,0.027,0.86,-0.177,0.077,0.265,-1.054,1.361
2024-09-23 11:40:25.098,162757.941,0.129,0.865,-0.485,0.042,0.069,0.039,0.894,-0.105,0.09,0.261,-1.045,1.358
2024-09-23 11:40:25.108,162757.951,0.13,0.861,-0.492,0.027,0.075,0.015,0.714,-0.063,0.06,0.258,-1.037,1.355
2024-09-23 11:40:25.119,162757.961,0.129,0.858,-0.497,0.026,0.05,-0.026,0.389,-0.092,-0.06,0.255,-1.032,1.352
2024-09-23 11:40:25.129,162757.971,0.129,0.857,-0.498,0.003,-0.02,-0.106,-0.046,0.075,-0.022,0.253,-1.03,1.351
2024-09-23 11:40:25.138,162757.981,0.129,0.858,-0.497,-0.022,-0.142,-0.1,-0.302,0.167,-0.01,0.255,-1.032,1.351
2024-09-23 11:40:25.148,162757.991,0.13,0.86,-0.494,-0.032,-0.188,-0.071,-0.323,0.116,-0.066,0.257,-1.035,1.352
2024-09-23 11:40:25.158,162758.001,0.13,0.862,-0.491,-0.05,-0.096,-0.042,-0.298,0.13,-0.07,0.258,-1.038,1.353
2024-09-23 11:40:25.168,162758.011,0.13,0.863,-0.488,-0.029,-0.018,-0.002,-0.267,0.117,-0.06,0.26,-1.041,1.353
2024-09-23 11:40:25.179,162758.021,0.13,0.864,-0.486,0.001,-0.003,0.037,-0.283,0.071,-0.019,0.261,-1.044,1.353
