Date,TimeStamp,GravityX,GravityY,GravityZ,UserAccelerationX,UserAccelerationY,UserAccelerationZ,RotationRateX,RotationRateY,RotationRateZ,AttitudeRoll,AttitudePitch,AttitudeYaw
2024-09-23 11:47:26.958,163179.801,0.195,0.834,-0.517,-0.173,0.013,0.064,-0.13,-0.148,-0.445,0.36,-0.986,1.589
2024-09-23 11:47:26.968,163179.811,0.19,0.835,-0.516,-0.193,-0.019,0.076,-0.2,-0.09,-0.483,0.353,-0.989,1.582
2024-09-23 11:47:26.978,163179.821,0.187,0.837,-0.514,-0.153,-0.024,0.078,-0.142,0.119,-0.286,0.349,-0.992,1.577
2024-09-23 11:47:26.988,163179.831,0.187,0.838,-0.513,-0.096,-0.026,0.08,-0.09,0.159,-0.03,0.349,-0.993,1.575
2024-09-23 11:47:26.998,163179.841,0.186,0.839,-0.512,-0.005,-0.021,0.051,-0.143,-0.139,-0.121,0.349,-0.995,1.574
2024-09-23 11:47:27.008,163179.851,0.183,0.84,-0.511,0.096,0.008,0.028,-0.152,-0.379,-0.415,0.343,-0.997,1.571
2024-09-23 11:47:27.018,163179.861,0.177,0.841,-0.511,0.125,0.009,0.062,0.033,-0.243,-0.426,0.333,-0.999,1.563
2024-09-23 11:47:27.028,163179.871,0.174,0.841,-0.512,0.077,-0.053,0.06,0.087,0.1,-0.086,0.328,-0.999,1.558
2024-09-23 11:47:27.038,163179.881,0.175,0.841,-0.512,0.04,-0.092,0.006,0.094,0.144,0.117,0.33,-0.998,1.558
2024-09-23 11:47:27.048,163179.891,0.176,0.84,-0.513,0.087,-0.074,-0.023,0.119,-0.061,0.04,0.331,-0.997,1.559
2024-09-23 11:47:27.058,163179.901,0.176,0.839,-0.515,0.127,-0.068,-0.002,0.361,-0.113,0.018,0.329,-0.995,1.558
2024-09-23 11:47:27.068,163179.911,0.177,0.837,-0.518,0.12,-0.096,0.004,0.461,0.042,0.219,0.329,-0.991,1.558
2024-09-23 11:47:27.079,163179.921,0.179,0.834,-0.523,0.102,-0.104,-0.019,0.533,-0.014,0.216,0.33,-0.986,1.559
2024-09-23 11:47:27.087,163179.931,0.18,0.83,-0.527,0.132,-0.047,-0.06,0.575,-0.114,0.115,0.329,-0.98,1.558
2024-09-23 11:47:27.098,163179.941,0.18,0.827,-0.532,0.126,0.003,-0.039,0.563,-0.098,0.033,0.326,-0.974,1.556
2024-09-23 11:47:27.108,163179.951,0.179,0.824,-0.537,0.087,0.007,-0.02,0.54,-0.03,-0.05,0.322,-0.969,1.553
2024-09-23 11:47:27.118,163179.961,0.179,0.821,-0.541,0.049,-0.002,-0.006,0.577,0.049,-0.095,0.319,-0.964,1.549
2024-09-23 11:47:27.128,163179.97,0.178,0.818,-0.546,0.013,-0.016,0.002,0.628,0.092,-0.123,0.316,-0.959,1.544
2024-09-23 11:47:27.138,163179.98,0.178,0.815,-0.551,-0.001,-0.028,0.01,0.647,0.077,-0.14,0.312,-0.953,1.538
2024-09-23 11:47:27.148,163179.99,0.177,0.812,-0.557,0.006,-0.023,0.01,0.681,0.046,-0.129,0.308,-0.947,1.532
2024-09-23 11:47:27.157,163180.0,0.176,0.808,-0.562,0.016,0.005,0.002,0.711,-0.002,-0.095,0.304,-0.941,1.527
2024-09-23 11:47:27.167,163180.01,0.176,0.804,-0.568,0.022,0.028,0.004,0.72,-0.015,-0.048,0.3,-0.934,1.522
2024-09-23 11:47:27.177,163180.02,0.175,0.8,-0.574,0.019,0.04,0.009,0.721,0.005,-0.023,0.296,-0.927,1.518
2024-09-23 11:47:27.187,163180.03,0.175,0.796,-0.579,0.007,0.048,0.01,0.709,0.036,-0.001,0.294,-0.921,1.515
2024-09-23 11:47:27.197,163180.04,0.176,0.792,-0.585,-0.005,0.041,0.007,0.627,0.051,0.019,0.292,-0.914,1.512
2024-09-23 11:47:27.208,163180.05,0.176,0.789,-0.589,-0.009,0.014,0.004,0.512,0.051,0.027,0.29,-0.909,1.509
2024-09-23 11:47:27.218,163180.06,0.177,0.786,-0.592,-0.007,-0.018,-0.005,0.375,0.056,0.031,0.29,-0.904,1.508
2024-09-23 11:47:27.227,163180.07,0.177,0.784,-0.595,-0.004,-0.037,-0.013,0.262,0.06,0.021,0.29,-0.901,1.507
2024-09-23 11:47:27.237,163180.08,0.178,0.783,-0.596,-0.001,-0.043,-0.022,0.16,0.061,0.011,0.29,-0.899,1.506
2024-09-23 11:47:27.247,163180.09,0.178,0.782,-0.597,0.003,-0.04,-0.026,0.079,0.051,-0.006,0.29,-0.898,1.505
2024-09-23 11:47:27.257,163180.1,0.178,0.782,-0.597,0.005,-0.035,-0.024,0.026,0.04,-0.02,0.29,-0.898,1.505
2024-09-23 11:47:27.267,163180.11,0.178,0.782,-0.598,0.008,-0.034,-0.02,0.002,0.019,-0.029,0.29,-0.898,1.505
2024-09-23 11:47:27.277,163180.12,0.178,0.782,-0.598,0.01,-0.033,-0.015,0.008,-0.001,-0.033,0.29,-0.898,1.504
2024-09-23 11:47:27.287,163180.13,0.178,0.782,-0.598,0.011,-0.027,-0.007,0.023,-0.008,-0.036,0.289,-0.898,1.503
2024-09-23 11:47:27.297,163180.14,0.177,0.782,-0.598,0.01,-0.014,-0.002,0.037,-0.016,-0.038,0.288,-0.897,1.503
2024-09-23 11:47:27.307,163180.15,0.177,0.781,-0.598,0.008,0.003,-0.004,0.055,-0.027,-0.034,0.288,-0.897,1.502
2024-09-23 11:47:27.317,163180.16,0.177,0.781,-0.599,0.007,0.016,-0.007,0.078,-0.029,-0.023,0.287,-0.896,1.501
2024-09-23 11:47:27.327,163180.17,0.176,0.781,-0.6,0.006,0.018,-0.002,0.094,-0.03,-0.021,0.286,-0.896,1.501
2024-09-23 11:47:27.337,163180.18,0.176,0.78,-0.6,0.004,0.007,0.004,0.106,-0.023,-0.022,0.285,-0.895,1.5
2024-09-23 11:47:27.347,163180.19,0.176,0.779,-0.601,0.002,-0.007,0.003,0.103,-0.021,-0.025,0.284,-0.894,1.499
2024-09-23 11:47:27.357,163180.2,0.175,0.779,-0.602,0.002,-0.013,0.002,0.117,-0.019,-0.018,0.283,-0.893,1.498
2024-09-23 11:47:27.367,163180.21,0.175,0.778,-0.603,0.001,-0.003,-0.001,0.131,-0.01,-0.004,0.283,-0.891,1.498
2024-09-23 11:47:27.377,163180.22,0.175,0.777,-0.604,-0.0,0.01,-0.0,0.132,0.006,0.013,0.282,-0.89,1.497
2024-09-23 11:47:27.387,163180.23,0.176,0.776,-0.605,-0.004,0.005,0.002,0.123,0.021,0.03,0.282,-0.889,1.497
2024-09-23 11:47:27.397,163180.24,0.176,0.776,-0.606,-0.006,-0.005,0.002,0.125,0.025,0.043,0.283,-0.888,1.497
2024-09-23 11:47:27.407,163180.25,0.177,0.775,-0.607,-0.007,-0.007,-0.002,0.114,0.029,0.04,0.283,-0.886,1.497
2024-09-23 11:47:27.417,163180.26,0.177,0.774,-0.608,-0.006,-0.005,-0.003,0.112,0.035,0.039,0.283,-0.885,1.497
2024-09-23 11:47:27.427,163180.27,0.178,0.773,-0.609,-0.004,0.002,-0.003,0.117,0.024,0.033,0.284,-0.884,1.497
2024-09-23 11:47:27.437,163180.28,0.178,0.773,-0.61,0.001,0.003,-0.001,0.118,0.018,0.017,0.284,-0.883,1.497
2024-09-23 11:47:27.447,163180.29,0.178,0.772,-0.61,0.003,-0.012,0.005,0.111,0.023,-0.0,0.284,-0.882,1.497
2024-09-23 11:47:27.457,163180.3,0.178,0.771,-0.611,0.003,-0.02,0.005,0.083,0.022,-0.012,0.284,-0.881,1.496
2024-09-23 11:47:27.467,163180.31,0.178,0.771,-0.611,0.003,-0.009,-0.003,0.055,0.024,-0.017,0.283,-0.88,1.496
2024-09-23 11:47:27.477,163180.32,0.178,0.771,-0.612,0.004,-0.003,-0.007,0.03,0.031,-0.016,0.283,-0.88,1.495
2024-09-23 11:47:27.487,163180.33,0.178,0.771,-0.612,0.001,-0.01,-0.006,0.019,0.031,-0.017,0.283,-0.88,1.495
2024-09-23 11:47:27.497,163180.34,0.178,0.771,-0.612,0.0,-0.02,-0.004,0.003,0.028,-0.022,0.283,-0.88,1.494
2024-09-23 11:47:27.507,163180.35,0.178,0.771,-0.612,0.002,-0.024,-0.003,-0.012,0.021,-0.027,0.283,-0.88,1.494
2024-09-23 11:47:27.517,163180.36,0.178,0.771,-0.612,0.005,-0.02,-0.005,-0.013,0.026,-0.027,0.283,-0.88,1.494
2024-09-23 11:47:27.527,163180.37,0.178,0.771,-0.612,0.007,-0.007,-0.007,-0.014,0.03,-0.025,0.283,-0.88,1.493
2024-09-23 11:47:27.537,163180.38,0.178,0.771,-0.611,0.003,-0.001,-0.006,0.007,0.028,-0.017,0.283,-0.88,1.493
2024-09-23 11:47:27.547,163180.39,0.178,0.771,-0.612,-0.0,-0.002,-0.005,0.03,0.018,-0.023,0.283,-0.88,1.493
2024-09-23 11:47:27.557,163180.4,0.178,0.771,-0.612,0.001,-0.003,-0.001,0.045,0.012,-0.031,0.283,-0.88,1.492
2024-09-23 11:47:27.567,163180.41,0.178,0.77,-0.612,0.003,0.004,0.001,0.052,0.012,-0.033,0.283,-0.88,1.491
2024-09-23 11:47:27.577,163180.42,0.178,0.77,-0.613,0.003,0.011,-0.001,0.07,0.005,-0.042,0.282,-0.879,1.49
2024-09-23 11:47:27.587,163180.43,0.177,0.77,-0.613,0.004,0.003,-0.002,0.108,-0.004,-0.046,0.281,-0.878,1.489
2024-09-23 11:47:27.597,163180.44,0.177,0.769,-0.614,0.005,-0.005,-0.0,0.149,-0.017,-0.052,0.28,-0.877,1.488
2024-09-23 11:47:27.607,163180.45,0.176,0.768,-0.616,0.006,0.001,0.004,0.191,-0.021,-0.054,0.279,-0.876,1.487
2024-09-23 11:47:27.617,163180.46,0.176,0.767,-0.617,0.007,0.014,0.007,0.232,-0.023,-0.054,0.277,-0.874,1.485
2024-09-23 11:47:27.627,163180.47,0.175,0.765,-0.619,0.005,0.019,0.007,0.273,-0.026,-0.044,0.276,-0.872,1.483
2024-09-23 11:47:27.637,163180.48,0.175,0.764,-0.622,0.002,0.016,0.008,0.309,-0.027,-0.049,0.274,-0.869,1.481
2024-09-23 11:47:27.647,163180.49,0.174,0.762,-0.624,0.001,0.012,0.009,0.33,-0.034,-0.054,0.272,-0.866,1.479
2024-09-23 11:47:27.657,163180.5,0.174,0.76,-0.627,0.003,0.012,0.009,0.35,-0.036,-0.068,0.27,-0.863,1.477
2024-09-23 11:47:27.667,163180.51,0.173,0.758,-0.629,0.002,0.013,0.008,0.364,-0.038,-0.071,0.268,-0.86,1.475
2024-09-23 11:47:27.677,163180.52,0.172,0.755,-0.632,0.002,0.012,0.007,0.391,-0.046,-0.066,0.266,-0.856,1.472
2024-09-23 11:47:27.686,163180.53,0.171,0.753,-0.635,0.003,0.013,0.006,0.397,-0.051,-0.058,0.263,-0.853,1.47
2024-09-23 11:47:27.697,163180.54,0.171,0.751,-0.638,0.005,0.013,0.008,0.24,-0.061,-0.041,0.261,-0.85,1.468
2024-09-23 11:47:27.706,163180.549,0.17,0.75,-0.639,0.007,0.005,0.014,0.078,0.029,-0.041,0.26,-0.848,1.467
2024-09-23 11:47:27.716,163180.559,0.17,0.75,-0.639,0.003,-0.01,-0.014,-0.078,0.071,-0.036,0.261,-0.848,1.466
2024-09-23 11:47:27.727,163180.569,0.171,0.751,-0.638,-0.017,-0.032,-0.041,-0.158,0.088,-0.008,0.262,-0.85,1.466
2024-09-23 11:47:27.737,163180.579,0.171,0.752,-0.636,-0.019,-0.11,-0.01,-0.167,0.073,-0.001,0.263,-0.851,1.467
2024-09-23 11:47:27.747,163180.589,0.172,0.753,-0.635,-0.01,-0.121,-0.008,-0.101,0.056,-0.002,0.264,-0.853,1.467
2024-09-23 11:47:27.756,163180.599,0.172,0.754,-0.634,0.001,-0.03,-0.003,-0.055,0.049,0.005,0.265,-0.853,1.468
2024-09-23 11:47:27.766,163180.609,0.172,0.754,-0.634,0.007,0.049,-0.006,-0.068,0.053,0.012,0.266,-0.854,1.468
2024-09-23 11:47:27.776,163180.619,0.173,0.754,-0.633,0.006,0.046,-0.007,-0.116,0.079,0.017,0.267,-0.855,1.469
2024-09-23 11:47:27.786,163180.629,0.174,0.756,-0.632,0.002,-0.014,-0.011,-0.29,0.104,0.034,0.268,-0.857,1.47
2024-09-23 11:47:27.797,163180.639,0.175,0.758,-0.628,-0.004,-0.062,-0.012,-0.54,0.093,0.071,0.271,-0.861,1.472
2024-09-23 11:47:27.806,163180.649,0.176,0.762,-0.624,-0.006,-0.087,-0.024,-0.652,0.106,0.086,0.275,-0.866,1.476
2024-09-23 11:47:27.816,163180.659,0.177,0.766,-0.618,-0.005,-0.111,-0.04,-0.699,0.117,0.108,0.279,-0.872,1.48
2024-09-23 11:47:27.826,163180.669,0.179,0.77,-0.613,-0.007,-0.112,-0.027,-0.69,0.12,0.118,0.284,-0.879,1.485
2024-09-23 11:47:27.836,163180.679,0.18,0.774,-0.607,-0.008,-0.048,-0.02,-0.628,0.108,0.101,0.289,-0.885,1.489
2024-09-23 11:47:27.848,163180.689,0.182,0.777,-0.603,-0.005,0.018,-0.019,-0.48,0.084,0.086,0.293,-0.89,1.493
2024-09-23 11:47:27.857,163180.699,0.183,0.779,-0.599,-0.001,0.025,-0.009,-0.363,0.063,0.073,0.296,-0.894,1.497
2024-09-23 11:47:27.866,163180.709,0.184,0.781,-0.597,0.005,0.004,0.004,-0.221,0.037,0.042,0.298,-0.896,1.499
2024-09-23 11:47:27.875,163180.719,0.184,0.782,-0.596,0.006,-0.001,0.018,-0.021,0.002,0.023,0.299,-0.897,1.5
2024-09-23 11:47:27.885,163180.729,0.184,0.781,-0.597,0.007,0.016,0.023,0.149,-0.031,0.005,0.299,-0.896,1.5
2024-09-23 11:47:27.896,163180.739,0.184,0.78,-0.598,0.009,0.046,0.03,0.207,-0.027,-0.002,0.298,-0.895,1.499
2024-09-23 11:47:27.906,163180.749,0.184,0.779,-0.6,0.009,0.057,0.032,0.137,0.003,-0.007,0.297,-0.893,1.498
2024-09-23 11:47:27.916,163180.759,0.184,0.778,-0.6,0.002,0.051,0.007,0.023,0.024,-0.009,0.297,-0.892,1.498
2024-09-23 11:47:27.926,163180.769,0.184,0.779,-0.6,-0.003,0.008,-0.017,-0.083,0.02,-0.014,0.297,-0.893,1.497
2024-09-23 11:47:27.936,163180.779,0.184,0.779,-0.599,-0.003,-0.056,-0.024,-0.108,0.005,-0.016,0.298,-0.894,1.498
2024-09-23 11:47:27.946,163180.789,0.184,0.78,-0.598,0.001,-0.065,-0.022,-0.037,-0.005,-0.015,0.298,-0.894,1.498
2024-09-23 11:47:27.956,163180.799,0.183,0.78,-0.599,0.004,-0.021,-0.011,0.058,-0.006,-0.01,0.297,-0.894,1.498
2024-09-23 11:47:27.966,163180.809,0.183,0.779,-0.599,0.003,0.022,0.004,0.122,-0.007,-0.01,0.297,-0.893,1.497
2024-09-23 11:47:27.976,163180.819,0.183,0.778,-0.6,0.002,0.037,0.009,0.149,-0.01,-0.018,0.296,-0.892,1.496
2024-09-23 11:47:27.986,163180.829,0.183,0.778,-0.602,0.002,0.033,0.005,0.14,-0.024,-0.028,0.295,-0.891,1.495
2024-09-23 11:47:27.996,163180.839,0.183,0.777,-0.603,0.003,0.011,0.002,0.111,-0.021,-0.022,0.294,-0.89,1.494
2024-09-23 11:47:28.006,163180.849,0.182,0.776,-0.603,0.004,-0.006,-0.003,0.094,-0.029,-0.005,0.293,-0.889,1.494
2024-09-23 11:47:28.016,163180.859,0.182,0.776,-0.604,0.001,-0.014,-0.006,0.113,-0.021,0.005,0.293,-0.888,1.493
2024-09-23 11:47:28.026,163180.869,0.182,0.775,-0.605,-0.001,-0.02,-0.005,0.136,-0.01,0.004,0.292,-0.887,1.493
2024-09-23 11:47:28.036,163180.879,0.182,0.774,-0.606,-0.002,-0.004,-0.001,0.165,-0.014,-0.011,0.292,-0.885,1.492
2024-09-23 11:47:28.046,163180.889,0.182,0.773,-0.608,-0.0,0.017,0.001,0.178,-0.026,-0.026,0.291,-0.884,1.491
2024-09-23 11:47:28.056,163180.899,0.181,0.772,-0.609,0.004,0.015,0.001,0.188,-0.034,-0.041,0.289,-0.882,1.489
2024-09-23 11:47:28.066,163180.909,0.181,0.771,-0.611,0.008,0.004,0.004,0.205,-0.042,-0.043,0.288,-0.88,1.488
2024-09-23 11:47:28.076,163180.919,0.18,0.77,-0.612,0.007,-0.003,0.003,0.227,-0.045,-0.052,0.286,-0.878,1.486
2024-09-23 11:47:28.086,163180.929,0.18,0.768,-0.614,0.004,-0.003,0.003,0.276,-0.043,-0.052,0.284,-0.876,1.484
2024-09-23 11:47:28.096,163180.939,0.179,0.766,-0.617,0.003,0.007,0.005,0.355,-0.051,-0.061,0.282,-0.873,1.482
2024-09-23 11:47:28.106,163180.949,0.178,0.764,-0.62,0.003,0.018,0.006,0.434,-0.069,-0.066,0.28,-0.87,1.48
2024-09-23 11:47:28.116,163180.959,0.177,0.761,-0.624,0.004,0.03,0.011,0.431,-0.085,-0.053,0.277,-0.865,1.477
2024-09-23 11:47:28.126,163180.969,0.176,0.759,-0.626,0.007,0.038,0.017,0.273,0.005,-0.051,0.275,-0.862,1.475
2024-09-23 11:47:28.136,163180.979,0.176,0.758,-0.628,0.006,0.041,0.001,0.17,0.006,-0.026,0.274,-0.86,1.473
2024-09-23 11:47:28.146,163180.989,0.176,0.757,-0.629,-0.012,0.022,-0.04,0.082,0.003,-0.005,0.273,-0.859,1.473
2024-09-23 11:47:28.156,163180.999,0.176,0.757,-0.629,-0.009,-0.1,0.005,0.053,0.004,-0.007,0.273,-0.859,1.472
2024-09-23 11:47:28.167,163181.009,0.176,0.757,-0.63,-0.002,-0.139,0.006,0.091,0.008,-0.002,0.273,-0.858,1.472
2024-09-23 11:47:28.176,163181.019,0.176,0.756,-0.63,-0.002,-0.029,-0.003,0.082,0.004,0.02,0.273,-0.857,1.472
2024-09-23 11:47:28.186,163181.029,0.177,0.756,-0.631,-0.002,0.049,-0.003,0.02,0.029,0.051,0.273,-0.857,1.472
2024-09-23 11:47:28.196,163181.039,0.178,0.756,-0.63,-0.0,0.036,-0.008,-0.119,0.087,0.085,0.275,-0.857,1.473
2024-09-23 11:47:28.206,163181.049,0.179,0.757,-0.629,-0.01,-0.018,-0.018,-0.198,0.141,0.138,0.278,-0.858,1.476
2024-09-23 11:47:28.216,163181.059,0.181,0.758,-0.627,-0.022,-0.065,-0.023,-0.298,0.191,0.181,0.282,-0.86,1.479
2024-09-23 11:47:28.226,163181.069,0.184,0.759,-0.624,-0.028,-0.097,-0.008,-0.312,0.237,0.209,0.287,-0.862,1.483
2024-09-23 11:47:28.236,163181.079,0.187,0.761,-0.621,-0.029,-0.089,-0.006,-0.323,0.247,0.219,0.293,-0.865,1.488
2024-09-23 11:47:28.246,163181.089,0.191,0.763,-0.618,-0.026,-0.056,-0.006,-0.429,0.269,0.212,0.299,-0.868,1.493
2024-09-23 11:47:28.255,163181.099,0.194,0.765,-0.614,-0.016,-0.051,-0.006,-0.495,0.298,0.209,0.306,-0.872,1.498
2024-09-23 11:47:28.265,163181.109,0.198,0.768,-0.609,-0.015,-0.017,-0.033,-0.553,0.344,0.234,0.314,-0.876,1.503
2024-09-23 11:47:28.275,163181.119,0.202,0.771,-0.604,-0.023,-0.003,-0.03,-0.657,0.388,0.28,0.323,-0.881,1.51
2024-09-23 11:47:28.285,163181.129,0.206,0.775,-0.597,-0.032,-0.006,-0.037,-0.744,0.358,0.336,0.333,-0.886,1.518
2024-09-23 11:47:28.295,163181.138,0.211,0.779,-0.591,-0.035,0.029,-0.052,-0.76,0.248,0.39,0.343,-0.892,1.528
2024-09-23 11:47:28.305,163181.148,0.215,0.782,-0.585,-0.036,0.027,-0.044,-0.714,0.162,0.44,0.353,-0.898,1.538
2024-09-23 11:47:28.315,163181.158,0.22,0.785,-0.579,-0.043,-0.026,-0.017,-0.603,0.201,0.431,0.363,-0.903,1.548
2024-09-23 11:47:28.325,163181.168,0.224,0.787,-0.575,-0.069,-0.013,-0.011,-0.422,0.22,0.376,0.372,-0.906,1.558
2024-09-23 11:47:28.335,163181.178,0.228,0.788,-0.572,-0.102,0.057,-0.01,-0.242,0.194,0.243,0.38,-0.908,1.564
2024-09-23 11:47:28.345,163181.188,0.23,0.789,-0.57,-0.122,0.087,0.013,-0.102,0.123,0.08,0.384,-0.909,1.568
2024-09-23 11:47:28.355,163181.198,0.231,0.789,-0.569,-0.131,0.09,0.036,-0.047,0.018,-0.076,0.385,-0.909,1.568
2024-09-23 11:47:28.366,163181.208,0.229,0.79,-0.569,-0.129,0.05,0.055,-0.118,-0.155,-0.259,0.383,-0.911,1.566
2024-09-23 11:47:28.375,163181.218,0.224,0.792,-0.568,-0.115,0.01,0.075,-0.241,-0.356,-0.515,0.376,-0.914,1.561
2024-09-23 11:47:28.385,163181.228,0.218,0.795,-0.566,-0.096,0.001,0.094,-0.415,-0.384,-0.658,0.367,-0.919,1.554
2024-09-23 11:47:28.395,163181.238,0.21,0.799,-0.563,-0.094,-0.011,0.097,-0.606,-0.292,-0.724,0.357,-0.926,1.546
2024-09-23 11:47:28.405,163181.248,0.204,0.804,-0.558,-0.08,-0.034,0.078,-0.652,-0.08,-0.589,0.35,-0.934,1.54
2024-09-23 11:47:28.415,163181.258,0.2,0.809,-0.553,-0.052,-0.067,0.05,-0.605,0.146,-0.303,0.347,-0.942,1.536
2024-09-23 11:47:28.425,163181.268,0.199,0.812,-0.548,0.013,-0.097,0.016,-0.589,0.133,-0.221,0.349,-0.948,1.536
2024-09-23 11:47:28.436,163181.278,0.197,0.816,-0.543,0.109,-0.084,-0.009,-0.512,-0.075,-0.394,0.348,-0.955,1.534
2024-09-23 11:47:28.445,163181.288,0.193,0.819,-0.541,0.174,-0.027,-0.011,-0.163,-0.02,-0.349,0.343,-0.959,1.53
2024-09-23 11:47:28.455,163181.298,0.192,0.82,-0.54,0.172,-0.003,0.003,0.019,0.07,-0.033,0.341,-0.961,1.527
2024-09-23 11:47:28.465,163181.308,0.193,0.819,-0.541,0.166,0.01,-0.044,0.192,0.096,0.106,0.342,-0.96,1.527
2024-09-23 11:47:28.475,163181.318,0.194,0.817,-0.543,0.17,0.063,-0.067,0.333,0.034,0.01,0.343,-0.957,1.527
2024-09-23 11:47:28.486,163181.328,0.193,0.815,-0.546,0.15,0.049,-0.036,0.374,0.046,-0.092,0.341,-0.954,1.524
2024-09-23 11:47:28.496,163181.338,0.193,0.814,-0.548,0.113,-0.018,-0.038,0.366,0.1,-0.069,0.338,-0.95,1.52
2024-09-23 11:47:28.505,163181.348,0.193,0.812,-0.551,0.083,-0.046,-0.041,0.266,0.139,-0.02,0.338,-0.947,1.518
2024-09-23 11:47:28.515,163181.358,0.194,0.811,-0.552,0.078,-0.047,-0.041,0.175,0.118,-0.013,0.338,-0.945,1.516
2024-09-23 11:47:28.525,163181.368,0.194,0.81,-0.553,0.077,-0.03,-0.032,0.13,0.085,-0.04,0.338,-0.944,1.515
2024-09-23 11:47:28.535,163181.378,0.194,0.809,-0.554,0.067,-0.017,-0.03,0.123,0.053,-0.037,0.337,-0.943,1.514
2024-09-23 11:47:28.545,163181.388,0.194,0.809,-0.555,0.05,-0.017,-0.037,0.131,0.035,-0.018,0.337,-0.942,1.512
2024-09-23 11:47:28.555,163181.398,0.194,0.808,-0.556,0.028,-0.018,-0.038,0.112,0.023,-0.005,0.336,-0.941,1.512
2024-09-23 11:47:28.565,163181.408,0.194,0.808,-0.557,0.007,-0.019,-0.033,0.125,-0.01,-0.195,0.335,-0.94,1.509
2024-09-23 11:47:28.575,163181.418,0.192,0.807,-0.558,-0.01,-0.018,-0.025,0.102,0.075,-0.17,0.332,-0.94,1.505
2024-09-23 11:47:28.585,163181.428,0.192,0.807,-0.558,-0.055,-0.012,-0.028,0.02,0.115,-0.078,0.331,-0.939,1.503
2024-09-23 11:47:28.595,163181.438,0.192,0.807,-0.558,-0.073,-0.002,-0.022,-0.041,0.111,-0.041,0.332,-0.94,1.502
2024-09-23 11:47:28.605,163181.448,0.192,0.808,-0.557,-0.024,-0.028,-0.018,-0.1,0.095,-0.02,0.332,-0.94,1.502
2024-09-23 11:47:28.616,163181.458,0.193,0.808,-0.556,-0.009,-0.048,-0.019,-0.127,0.075,-0.014,0.334,-0.942,1.503
2024-09-23 11:47:28.625,163181.468,0.193,0.809,-0.555,-0.0,-0.027,-0.02,-0.129,0.062,0.003,0.335,-0.943,1.503
2024-09-23 11:47:28.635,163181.478,0.194,0.81,-0.554,0.003,-0.008,-0.016,-0.119,0.065,0.017,0.336,-0.944,1.504
2024-09-23 11:47:28.645,163181.488,0.194,0.81,-0.553,0.001,-0.011,-0.009,-0.113,0.077,0.034,0.338,-0.945,1.505
2024-09-23 11:47:28.655,163181.498,0.195,0.811,-0.552,-0.005,-0.01,-0.006,-0.095,0.076,0.036,0.34,-0.946,1.506
2024-09-23 11:47:28.665,163181.508,0.195,0.811,-0.551,-0.007,-0.001,-0.005,-0.057,0.065,0.03,0.341,-0.946,1.507
2024-09-23 11:47:28.675,163181.518,0.196,0.812,-0.55,-0.003,0.005,-0.0,-0.043,0.049,0.011,0.342,-0.947,1.508
2024-09-23 11:47:28.685,163181.528,0.196,0.812,-0.55,0.004,0.003,0.003,-0.041,0.034,-0.004,0.342,-0.947,1.508
2024-09-23 11:47:28.695,163181.538,0.196,0.812,-0.55,0.007,0.004,0.0,-0.022,0.025,-0.018,0.343,-0.947,1.508
2024-09-23 11:47:28.705,163181.548,0.196,0.812,-0.55,0.005,0.003,0.001,-0.021,0.025,-0.016,0.343,-0.948,1.508
2024-09-23 11:47:28.715,163181.558,0.196,0.812,-0.549,0.001,-0.0,0.002,-0.027,0.032,-0.011,0.343,-0.948,1.508
2024-09-23 11:47:28.725,163181.568,0.196,0.812,-0.549,-0.001,-0.004,-0.001,-0.029,0.035,-0.002,0.343,-0.948,1.508
2024-09-23 11:47:28.735,163181.578,0.196,0.812,-0.549,-0.003,-0.006,-0.002,-0.031,0.04,0.008,0.344,-0.948,1.508
2024-09-23 11:47:28.745,163181.588,0.197,0.813,-0.549,-0.003,-0.01,-0.003,-0.032,0.039,0.01,0.344,-0.949,1.508
2024-09-23 11:47:28.755,163181.598,0.197,0.813,-0.548,-0.003,-0.005,-0.004,-0.018,0.023,0.006,0.345,-0.949,1.508
2024-09-23 11:47:28.764,163181.608,0.197,0.813,-0.548,-0.001,0.0,-0.006,-0.007,0.01,0.005,0.345,-0.949,1.508
2024-09-23 11:47:28.774,163181.618,0.197,0.813,-0.548,0.005,-0.007,-0.005,-0.001,0.005,0.005,0.345,-0.949,1.509
2024-09-23 11:47:28.784,163181.628,0.197,0.813,-0.548,0.007,-0.008,-0.006,-0.003,0.009,0.002,0.345,-0.949,1.509
2024-09-23 11:47:28.795,163181.638,0.197,0.813,-0.548,0.005,-0.005,-0.009,0.011,-0.001,-0.001,0.345,-0.949,1.509
2024-09-23 11:47:28.805,163181.648,0.197,0.813,-0.548,0.004,-0.005,-0.01,0.029,-0.01,-0.004,0.345,-0.949,1.509
2024-09-23 11:47:28.815,163181.658,0.197,0.813,-0.549,0.004,-0.005,-0.005,0.038,-0.012,-0.017,0.345,-0.948,1.508
2024-09-23 11:47:28.824,163181.668,0.197,0.812,-0.549,0.006,-0.003,-0.001,0.043,-0.033,-0.027,0.344,-0.948,1.508
2024-09-23 11:47:28.834,163181.678,0.196,0.812,-0.549,0.007,-0.002,-0.005,0.044,-0.043,-0.033,0.343,-0.948,1.507
2024-09-23 11:47:28.845,163181.688,0.196,0.812,-0.55,0.01,-0.008,-0.006,0.036,-0.041,-0.039,0.342,-0.948,1.506
2024-09-23 11:47:28.854,163181.698,0.195,0.812,-0.55,0.008,-0.009,-0.005,0.038,-0.05,-0.042,0.341,-0.947,1.505
2024-09-23 11:47:28.864,163181.708,0.195,0.812,-0.551,0.004,-0.001,-0.006,0.027,-0.05,-0.042,0.34,-0.947,1.504
2024-09-23 11:47:28.875,163181.717,0.194,0.812,-0.551,0.003,-0.01,-0.004,-0.008,-0.035,-0.039,0.339,-0.947,1.504
2024-09-23 11:47:28.885,163181.727,0.194,0.812,-0.551,0.003,-0.021,-0.004,-0.027,-0.02,-0.015,0.338,-0.947,1.503
2024-09-23 11:47:28.895,163181.737,0.194,0.812,-0.551,-0.003,-0.021,-0.009,-0.039,-0.007,0.002,0.338,-0.948,1.503
2024-09-23 11:47:28.905,163181.747,0.194,0.812,-0.55,-0.005,-0.019,-0.011,-0.055,0.008,0.01,0.339,-0.948,1.504
2024-09-23 11:47:28.914,163181.757,0.194,0.813,-0.55,-0.005,-0.014,-0.009,-0.062,0.016,-0.007,0.339,-0.949,1.504
2024-09-23 11:47:28.925,163181.767,0.194,0.813,-0.549,-0.005,-0.012,-0.008,-0.063,0.024,-0.024,0.339,-0.949,1.504
2024-09-23 11:47:28.935,163181.777,0.194,0.813,-0.549,-0.0,-0.016,-0.006,-0.047,0.031,-0.034,0.34,-0.95,1.504
2024-09-23 11:47:28.945,163181.787,0.194,0.814,-0.548,0.002,-0.017,-0.003,-0.031,0.036,-0.034,0.34,-0.95,1.504
2024-09-23 11:47:28.954,163181.797,0.194,0.814,-0.548,0.003,-0.008,-0.001,-0.018,0.037,-0.041,0.34,-0.951,1.503
2024-09-23 11:47:28.965,163181.807,0.193,0.814,-0.548,0.001,0.005,-0.0,-0.009,0.029,-0.061,0.339,-0.951,1.503
2024-09-23 11:47:28.974,163181.817,0.193,0.814,-0.548,0.002,0.002,-0.001,0.011,0.023,-0.06,0.339,-0.951,1.502
2024-09-23 11:47:28.984,163181.827,0.193,0.814,-0.548,0.004,-0.007,-0.0,0.022,0.022,-0.048,0.338,-0.951,1.501
2024-09-23 11:47:28.994,163181.837,0.192,0.814,-0.548,0.003,-0.011,0.001,0.041,0.024,-0.037,0.338,-0.951,1.5
2024-09-23 11:47:29.005,163181.847,0.192,0.814,-0.549,-0.001,-0.001,-0.001,0.058,0.012,-0.02,0.337,-0.95,1.499
2024-09-23 11:47:29.014,163181.857,0.192,0.813,-0.549,-0.002,0.009,-0.0,0.066,-0.005,-0.013,0.337,-0.95,1.498
2024-09-23 11:47:29.024,163181.867,0.192,0.813,-0.55,0.001,0.004,-0.002,0.07,-0.002,-0.011,0.336,-0.949,1.498
2024-09-23 11:47:29.034,163181.877,0.192,0.813,-0.55,0.003,-0.003,-0.002,0.071,0.007,-0.009,0.336,-0.949,1.497
2024-09-23 11:47:29.044,163181.887,0.192,0.812,-0.551,0.0,-0.007,-0.002,0.062,0.007,-0.008,0.335,-0.948,1.497
2024-09-23 11:47:29.054,163181.897,0.192,0.812,-0.551,-0.0,-0.005,-0.003,0.062,-0.01,-0.016,0.335,-0.947,1.496
2024-09-23 11:47:29.064,163181.907,0.192,0.812,-0.552,0.001,-0.005,-0.004,0.072,-0.012,-0.024,0.334,-0.947,1.496
2024-09-23 11:47:29.074,163181.917,0.191,0.811,-0.553,0.004,-0.007,-0.002,0.077,-0.013,-0.029,0.334,-0.946,1.495
2024-09-23 11:47:29.084,163181.927,0.191,0.811,-0.553,0.003,-0.007,-0.001,0.107,-0.014,-0.036,0.333,-0.946,1.494
2024-09-23 11:47:29.094,163181.937,0.191,0.81,-0.554,0.003,-0.002,-0.001,0.112,-0.027,-0.043,0.331,-0.945,1.493
2024-09-23 11:47:29.104,163181.947,0.19,0.81,-0.555,0.004,0.001,0.002,0.11,-0.039,-0.052,0.33,-0.944,1.491
2024-09-23 11:47:29.114,163181.957,0.19,0.809,-0.556,0.006,0.003,-0.0,0.109,-0.051,-0.042,0.329,-0.943,1.49
2024-09-23 11:47:29.124,163181.967,0.189,0.809,-0.557,0.01,0.002,-0.001,0.102,-0.047,-0.019,0.327,-0.942,1.489
2024-09-23 11:47:29.134,163181.977,0.189,0.808,-0.558,0.011,-0.006,0.001,0.109,-0.042,-0.005,0.326,-0.941,1.488
2024-09-23 11:47:29.144,163181.987,0.189,0.808,-0.559,0.006,-0.005,0.004,0.116,-0.036,0.003,0.325,-0.94,1.487
2024-09-23 11:47:29.154,163181.997,0.188,0.807,-0.56,0.004,-0.006,0.001,0.127,-0.04,0.009,0.325,-0.939,1.487
2024-09-23 11:47:29.164,163182.007,0.188,0.806,-0.561,0.006,-0.005,-0.002,0.127,-0.049,0.006,0.324,-0.938,1.486
2024-09-23 11:47:29.174,163182.017,0.188,0.805,-0.562,0.005,0.0,-0.004,0.132,-0.059,0.017,0.323,-0.936,1.486
2024-09-23 11:47:29.184,163182.027,0.188,0.805,-0.563,0.005,0.001,-0.005,0.145,-0.074,0.009,0.322,-0.935,1.485
2024-09-23 11:47:29.194,163182.037,0.188,0.804,-0.564,0.009,-0.002,-0.0,0.037,-0.061,0.037,0.321,-0.934,1.485
2024-09-23 11:47:29.204,163182.047,0.188,0.804,-0.564,0.005,-0.007,0.005,-0.008,-0.039,0.019,0.321,-0.934,1.486
2024-09-23 11:47:29.214,163182.057,0.187,0.804,-0.564,-0.001,-0.008,-0.011,-0.046,-0.038,-0.009,0.321,-0.934,1.486
2024-09-23 11:47:29.224,163182.067,0.187,0.804,-0.564,-0.008,-0.043,-0.018,-0.07,-0.004,0.04,0.321,-0.935,1.487
2024-09-23 11:47:29.234,163182.077,0.188,0.805,-0.563,-0.023,-0.065,-0.018,-0.051,0.019,0.065,0.322,-0.935,1.488
2024-09-23 11:47:29.244,163182.087,0.189,0.805,-0.563,-0.026,-0.021,-0.007,-0.044,0.005,0.059,0.323,-0.935,1.489
2024-09-23 11:47:29.255,163182.097,0.189,0.805,-0.562,-0.016,0.008,0.001,-0.066,-0.02,0.047,0.324,-0.936,1.49
2024-09-23 11:47:29.264,163182.107,0.189,0.806,-0.562,-0.001,0.001,-0.01,-0.16,-0.022,0.053,0.325,-0.937,1.492
2024-09-23 11:47:29.274,163182.117,0.19,0.806,-0.56,0.005,-0.017,-0.019,-0.182,0.028,0.082,0.327,-0.938,1.494
2024-09-23 11:47:29.284,163182.127,0.191,0.807,-0.558,-0.004,-0.038,-0.028,-0.269,0.033,0.14,0.329,-0.94,1.497
2024-09-23 11:47:29.294,163182.137,0.192,0.809,-0.556,-0.015,-0.054,-0.025,-0.333,0.074,0.172,0.333,-0.942,1.501
2024-09-23 11:47:29.303,163182.147,0.194,0.81,-0.553,-0.02,-0.046,-0.019,-0.371,0.094,0.183,0.338,-0.945,1.506
2024-09-23 11:47:29.314,163182.157,0.196,0.812,-0.55,-0.02,-0.044,-0.025,-0.385,0.092,0.167,0.343,-0.947,1.51
2024-09-23 11:47:29.323,163182.167,0.198,0.814,-0.547,-0.015,-0.043,-0.029,-0.343,0.071,0.144,0.347,-0.95,1.515
2024-09-23 11:47:29.333,163182.177,0.199,0.815,-0.544,-0.013,-0.021,-0.036,-0.288,0.058,0.155,0.351,-0.953,1.519
2024-09-23 11:47:29.344,163182.187,0.201,0.816,-0.542,-0.015,-0.007,-0.03,-0.209,0.086,0.138,0.355,-0.955,1.523
2024-09-23 11:47:29.353,163182.197,0.202,0.817,-0.541,-0.007,0.01,0.008,-0.096,0.082,0.035,0.358,-0.956,1.525
2024-09-23 11:47:29.363,163182.207,0.202,0.817,-0.54,0.0,0.04,0.024,-0.053,0.058,-0.02,0.359,-0.956,1.525
2024-09-23 11:47:29.373,163182.217,0.203,0.817,-0.54,0.002,0.02,0.004,-0.057,0.051,-0.021,0.359,-0.957,1.525
2024-09-23 11:47:29.384,163182.227,0.203,0.817,-0.539,0.014,-0.004,0.002,-0.001,0.061,-0.02,0.359,-0.957,1.525
2024-09-23 11:47:29.394,163182.237,0.203,0.817,-0.539,0.022,-0.005,0.017,0.095,0.068,-0.032,0.359,-0.957,1.524
2024-09-23 11:47:29.403,163182.247,0.203,0.816,-0.541,0.014,-0.004,0.025,0.201,0.073,-0.051,0.359,-0.955,1.523
2024-09-23 11:47:29.413,163182.257,0.203,0.815,-0.542,0.006,0.017,0.032,0.198,0.06,-0.08,0.357,-0.954,1.52
2024-09-23 11:47:29.423,163182.267,0.202,0.815,-0.543,0.003,0.051,0.029,0.119,0.034,-0.108,0.356,-0.952,1.518
2024-09-23 11:47:29.433,163182.277,0.201,0.815,-0.544,0.01,0.033,0.002,0.022,0.035,-0.107,0.354,-0.952,1.516
2024-09-23 11:47:29.444,163182.287,0.201,0.815,-0.544,0.015,-0.03,-0.021,-0.046,0.058,-0.076,0.354,-0.953,1.514
2024-09-23 11:47:29.453,163182.296,0.201,0.815,-0.543,0.002,-0.061,-0.02,-0.057,0.081,-0.041,0.354,-0.953,1.514
2024-09-23 11:47:29.463,163182.306,0.201,0.816,-0.543,-0.013,-0.039,-0.01,-0.047,0.075,-0.025,0.355,-0.954,1.513
2024-09-23 11:47:29.473,163182.316,0.201,0.816,-0.542,-0.014,-0.007,-0.0,0.007,0.025,-0.035,0.355,-0.954,1.513
2024-09-23 11:47:29.483,163182.326,0.201,0.816,-0.542,0.0,0.013,-0.007,0.067,-0.015,-0.058,0.354,-0.954,1.512
2024-09-23 11:47:29.493,163182.336,0.2,0.815,-0.543,0.019,0.014,-0.006,0.116,-0.047,-0.066,0.353,-0.953,1.511
2024-09-23 11:47:29.503,163182.346,0.199,0.815,-0.544,0.022,0.02,0.002,0.167,-0.067,-0.06,0.351,-0.952,1.509
2024-09-23 11:47:29.514,163182.356,0.198,0.814,-0.546,0.014,0.029,0.001,0.209,-0.079,-0.059,0.348,-0.951,1.507
2024-09-23 11:47:29.523,163182.366,0.197,0.813,-0.548,0.009,0.016,0.005,0.247,-0.079,-0.063,0.346,-0.949,1.505
2024-09-23 11:47:29.533,163182.376,0.196,0.811,-0.551,0.007,0.004,0.008,0.288,-0.081,-0.069,0.343,-0.947,1.502
2024-09-23 11:47:29.543,163182.386,0.195,0.81,-0.553,0.005,0.005,0.011,0.317,-0.094,-0.076,0.339,-0.944,1.499
2024-09-23 11:47:29.553,163182.396,0.194,0.808,-0.556,0.005,0.015,0.007,0.348,-0.144,-0.1,0.336,-0.941,1.496
2024-09-23 11:47:29.563,163182.406,0.193,0.807,-0.559,0.01,0.022,0.008,0.24,-0.094,-0.079,0.332,-0.938,1.492
2024-09-23 11:47:29.573,163182.416,0.192,0.806,-0.56,0.015,0.013,0.014,0.074,-0.028,-0.029,0.33,-0.937,1.491
2024-09-23 11:47:29.583,163182.426,0.191,0.806,-0.561,0.013,-0.003,0.001,0.003,-0.059,-0.04,0.329,-0.937,1.49
2024-09-23 11:47:29.593,163182.436,0.191,0.806,-0.56,0.008,-0.051,-0.028,-0.041,0.009,0.037,0.329,-0.937,1.49
2024-09-23 11:47:29.603,163182.446,0.192,0.806,-0.56,-0.012,-0.125,-0.03,-0.004,0.066,0.082,0.33,-0.937,1.492
2024-09-23 11:47:29.613,163182.456,0.193,0.806,-0.56,-0.04,-0.045,-0.017,0.042,0.03,0.08,0.332,-0.937,1.493
2024-09-23 11:47:29.623,163182.466,0.194,0.805,-0.56,-0.031,0.035,0.003,0.012,-0.039,0.071,0.333,-0.936,1.494
2024-09-23 11:47:29.633,163182.476,0.194,0.805,-0.56,-0.001,0.03,-0.004,0.016,-0.035,0.077,0.333,-0.936,1.495
2024-09-23 11:47:29.644,163182.486,0.195,0.805,-0.56,0.016,0.0,-0.012,-0.028,0.016,0.15,0.334,-0.936,1.497
2024-09-23 11:47:29.653,163182.496,0.197,0.805,-0.56,-0.002,-0.035,-0.012,-0.088,0.084,0.24,0.338,-0.936,1.5
2024-09-23 11:47:29.663,163182.506,0.199,0.805,-0.559,-0.031,-0.032,-0.012,-0.094,0.141,0.271,0.343,-0.936,1.505
2024-09-23 11:47:29.673,163182.516,0.202,0.805,-0.558,-0.042,-0.018,-0.007,-0.057,0.101,0.123,0.347,-0.936,1.509
2024-09-23 11:47:29.684,163182.526,0.203,0.805,-0.558,-0.037,-0.032,-0.014,-0.026,0.101,-0.028,0.349,-0.936,1.509
2024-09-23 11:47:29.693,163182.536,0.203,0.805,-0.557,-0.05,-0.031,-0.024,-0.039,0.15,-0.024,0.349,-0.936,1.509
2024-09-23 11:47:29.703,163182.546,0.204,0.805,-0.557,-0.058,-0.032,-0.012,0.012,0.174,0.022,0.351,-0.936,1.509
2024-09-23 11:47:29.713,163182.556,0.205,0.805,-0.557,-0.034,-0.011,-0.009,0.141,0.138,0.03,0.352,-0.936,1.509
2024-09-23 11:47:29.723,163182.566,0.206,0.804,-0.558,-0.002,0.012,-0.007,0.125,0.075,0.047,0.353,-0.934,1.509
2024-09-23 11:47:29.733,163182.576,0.206,0.803,-0.559,0.017,0.005,-0.005,0.127,0.05,0.042,0.354,-0.933,1.509
2024-09-23 11:47:29.743,163182.586,0.207,0.803,-0.56,0.029,0.024,-0.003,0.053,0.01,0.051,0.354,-0.932,1.509
2024-09-23 11:47:29.753,163182.596,0.207,0.803,-0.559,0.029,0.013,0.007,-0.255,0.01,0.065,0.355,-0.932,1.51
2024-09-23 11:47:29.763,163182.606,0.208,0.805,-0.556,0.021,-0.027,-0.01,-0.443,0.045,0.036,0.358,-0.936,1.513
2024-09-23 11:47:29.774,163182.616,0.208,0.808,-0.552,0.005,-0.05,-0.012,-0.526,0.069,0.051,0.361,-0.94,1.516
2024-09-23 11:47:29.783,163182.626,0.209,0.81,-0.547,-0.028,-0.105,-0.054,-0.543,0.071,0.133,0.366,-0.945,1.521
2024-09-23 11:47:29.793,163182.636,0.211,0.813,-0.543,-0.05,-0.118,-0.074,-0.441,0.045,0.151,0.37,-0.949,1.526
2024-09-23 11:47:29.803,163182.646,0.212,0.815,-0.54,-0.047,-0.045,-0.045,-0.399,-0.059,0.113,0.374,-0.952,1.531
2024-09-23 11:47:29.813,163182.656,0.212,0.817,-0.537,-0.042,0.027,-0.02,-0.402,-0.072,0.008,0.377,-0.956,1.535
2024-09-23 11:47:29.823,163182.666,0.212,0.818,-0.534,-0.039,0.065,0.035,-0.201,-0.044,0.003,0.378,-0.959,1.537
2024-09-23 11:47:29.833,163182.676,0.212,0.819,-0.533,-0.085,0.106,0.08,-0.161,0.02,-0.015,0.378,-0.96,1.538
2024-09-23 11:47:29.843,163182.686,0.212,0.82,-0.531,-0.129,0.1,0.028,-0.172,0.081,-0.068,0.379,-0.962,1.538
2024-09-23 11:47:29.852,163182.696,0.212,0.821,-0.53,-0.126,0.07,0.027,-0.136,0.097,-0.088,0.38,-0.964,1.538
2024-09-23 11:47:29.863,163182.706,0.211,0.822,-0.529,-0.113,0.057,0.053,-0.147,0.073,-0.081,0.38,-0.965,1.537
2024-09-23 11:47:29.873,163182.716,0.211,0.823,-0.527,-0.064,0.027,0.049,-0.134,0.019,-0.071,0.38,-0.967,1.537
2024-09-23 11:47:29.882,163182.726,0.21,0.824,-0.526,-0.019,0.029,0.053,-0.108,-0.029,-0.055,0.38,-0.968,1.537
2024-09-23 11:47:29.893,163182.736,0.21,0.825,-0.525,0.014,0.021,0.049,-0.123,-0.05,-0.052,0.38,-0.969,1.537
2024-09-23 11:47:29.903,163182.746,0.209,0.825,-0.525,0.025,0.002,0.033,-0.115,-0.023,-0.041,0.379,-0.971,1.537
2024-09-23 11:47:29.912,163182.756,0.209,0.826,-0.524,0.02,-0.004,0.027,-0.079,0.022,-0.029,0.379,-0.972,1.537
2024-09-23 11:47:29.922,163182.766,0.209,0.826,-0.523,0.018,-0.011,0.019,-0.075,0.053,-0.02,0.38,-0.973,1.537
2024-09-23 11:47:29.932,163182.776,0.209,0.827,-0.522,0.026,-0.018,0.006,-0.066,0.058,-0.013,0.381,-0.973,1.537
2024-09-23 11:47:29.943,163182.786,0.209,0.827,-0.522,0.044,-0.03,-0.006,-0.029,0.052,-0.007,0.381,-0.974,1.537
2024-09-23 11:47:29.953,163182.796,0.209,0.827,-0.522,0.064,-0.047,-0.025,-0.014,0.059,-0.013,0.382,-0.974,1.537
2024-09-23 11:47:29.963,163182.806,0.21,0.827,-0.522,0.078,-0.055,-0.031,0.045,0.061,-0.001,0.382,-0.974,1.537
2024-09-23 11:47:29.973,163182.816,0.21,0.827,-0.522,0.082,-0.047,-0.028,0.051,0.071,-0.0,0.382,-0.973,1.537
2024-09-23 11:47:29.983,163182.826,0.21,0.827,-0.522,0.084,-0.044,-0.036,0.068,0.071,-0.006,0.383,-0.973,1.536
2024-09-23 11:47:29.992,163182.836,0.211,0.826,-0.523,0.091,-0.054,-0.034,0.103,0.073,-0.012,0.383,-0.972,1.535
2024-09-23 11:47:30.003,163182.846,0.211,0.826,-0.524,0.095,-0.065,-0.035,0.114,0.056,-0.018,0.383,-0.971,1.534
2024-09-23 11:47:30.013,163182.856,0.211,0.825,-0.524,0.096,-0.06,-0.044,0.023,0.021,-0.052,0.382,-0.971,1.534
2024-09-23 11:47:30.024,163182.866,0.21,0.825,-0.524,0.093,-0.037,-0.044,-0.051,-0.01,-0.089,0.381,-0.971,1.532
2024-09-23 11:47:30.032,163182.876,0.209,0.826,-0.523,0.078,-0.021,-0.026,-0.053,-0.017,-0.077,0.381,-0.972,1.531
2024-09-23 11:47:30.042,163182.885,0.209,0.826,-0.523,0.047,-0.022,-0.022,-0.022,-0.022,-0.044,0.38,-0.972,1.531
2024-09-23 11:47:30.052,163182.895,0.209,0.826,-0.523,0.016,-0.019,-0.019,0.011,-0.028,-0.022,0.379,-0.972,1.531
2024-09-23 11:47:30.062,163182.905,0.208,0.826,-0.524,-0.005,0.0,-0.01,0.043,-0.039,-0.017,0.379,-0.972,1.53
2024-09-23 11:47:30.072,163182.915,0.208,0.826,-0.524,-0.016,0.017,-0.009,0.083,-0.058,-0.012,0.378,-0.972,1.53
2024-09-23 11:47:30.082,163182.925,0.208,0.825,-0.525,-0.017,0.018,-0.009,0.107,-0.074,-0.006,0.377,-0.971,1.529
2024-09-23 11:47:30.092,163182.935,0.207,0.825,-0.526,-0.008,0.013,-0.006,0.103,-0.075,-0.006,0.376,-0.97,1.528
2024-09-23 11:47:30.103,163182.945,0.207,0.824,-0.527,-0.003,0.004,-0.004,0.096,-0.064,-0.008,0.374,-0.969,1.528
2024-09-23 11:47:30.112,163182.955,0.207,0.824,-0.528,-0.004,-0.005,-0.011,0.076,-0.056,-0.002,0.373,-0.968,1.527
2024-09-23 11:47:30.123,163182.965,0.207,0.823,-0.529,-0.007,-0.007,-0.019,0.059,-0.05,0.001,0.372,-0.967,1.527
2024-09-23 11:47:30.132,163182.975,0.206,0.823,-0.529,-0.004,-0.008,-0.015,0.047,-0.045,-0.003,0.372,-0.967,1.526
2024-09-23 11:47:30.142,163182.985,0.206,0.823,-0.53,-0.001,-0.009,-0.011,0.043,-0.032,-0.01,0.371,-0.966,1.526
2024-09-23 11:47:30.153,163182.995,0.206,0.823,-0.53,0.002,-0.013,0.0,0.044,-0.022,-0.013,0.37,-0.966,1.525
2024-09-23 11:47:30.163,163183.005,0.206,0.822,-0.53,0.002,-0.014,0.001,0.048,-0.018,-0.005,0.37,-0.966,1.525
2024-09-23 11:47:30.173,163183.015,0.205,0.822,-0.531,0.004,-0.009,-0.004,0.053,-0.009,0.0,0.369,-0.965,1.525
2024-09-23 11:47:30.182,163183.025,0.205,0.822,-0.531,0.007,-0.002,0.001,0.073,-0.004,-0.01,0.369,-0.965,1.524
2024-09-23 11:47:30.192,163183.035,0.205,0.822,-0.532,0.009,0.003,0.007,0.073,-0.011,-0.016,0.368,-0.964,1.523
2024-09-23 11:47:30.202,163183.045,0.205,0.821,-0.533,0.009,0.001,0.003,0.063,-0.002,-0.007,0.368,-0.963,1.523
2024-09-23 11:47:30.212,163183.055,0.205,0.821,-0.533,0.007,-0.01,0.004,0.044,0.013,0.003,0.367,-0.963,1.522
2024-09-23 11:47:30.222,163183.065,0.205,0.821,-0.533,0.002,-0.014,0.0,0.036,0.02,-0.002,0.367,-0.962,1.522
2024-09-23 11:47:30.232,163183.075,0.205,0.82,-0.534,-0.005,-0.008,-0.002,0.039,0.025,-0.002,0.367,-0.962,1.522
2024-09-23 11:47:30.242,163183.085,0.205,0.82,-0.534,-0.014,-0.003,-0.003,0.048,0.03,-0.004,0.367,-0.962,1.522
2024-09-23 11:47:30.252,163183.095,0.206,0.82,-0.534,-0.018,-0.001,-0.005,0.054,0.035,-0.006,0.367,-0.961,1.521
2024-09-23 11:47:30.262,163183.105,0.206,0.82,-0.535,-0.017,-0.005,-0.003,0.08,0.037,0.001,0.367,-0.961,1.521
2024-09-23 11:47:30.272,163183.115,0.206,0.819,-0.535,-0.013,-0.004,-0.003,0.101,0.031,0.004,0.367,-0.96,1.52
2024-09-23 11:47:30.282,163183.125,0.206,0.818,-0.536,-0.008,0.001,-0.006,0.125,0.016,0.004,0.367,-0.959,1.52
2024-09-23 11:47:30.292,163183.135,0.206,0.818,-0.537,0.001,0.005,0.002,0.139,0.013,-0.012,0.367,-0.958,1.519
2024-09-23 11:47:30.302,163183.145,0.206,0.817,-0.539,0.008,0.009,0.008,0.156,-0.001,-0.024,0.366,-0.956,1.518
2024-09-23 11:47:30.312,163183.155,0.206,0.816,-0.54,0.009,0.009,0.002,0.17,-0.008,-0.017,0.365,-0.955,1.516
2024-09-23 11:47:30.322,163183.165,0.206,0.815,-0.541,0.01,0.002,-0.004,0.173,-0.017,-0.009,0.363,-0.953,1.515
2024-09-23 11:47:30.332,163183.175,0.206,0.814,-0.543,0.014,-0.002,-0.005,0.19,-0.024,-0.008,0.362,-0.951,1.514
2024-09-23 11:47:30.342,163183.185,0.205,0.813,-0.545,0.017,0.001,0.003,0.203,-0.036,-0.011,0.361,-0.95,1.512
2024-09-23 11:47:30.352,163183.195,0.205,0.812,-0.546,0.016,0.003,0.006,0.214,-0.046,-0.016,0.359,-0.948,1.511
2024-09-23 11:47:30.362,163183.205,0.205,0.811,-0.548,0.013,0.004,0.005,0.213,-0.046,-0.01,0.357,-0.946,1.509
2024-09-23 11:47:30.371,163183.215,0.204,0.81,-0.55,0.007,-0.005,-0.002,0.188,-0.04,-0.002,0.356,-0.944,1.508
2024-09-23 11:47:30.382,163183.225,0.204,0.809,-0.551,0.002,-0.012,-0.005,0.182,-0.033,-0.005,0.355,-0.942,1.507
2024-09-23 11:47:30.392,163183.235,0.204,0.808,-0.553,-0.002,-0.007,-0.008,0.168,-0.039,0.0,0.353,-0.941,1.506
2024-09-23 11:47:30.402,163183.245,0.204,0.807,-0.554,-0.002,-0.009,-0.003,0.151,-0.036,-0.005,0.352,-0.939,1.505
2024-09-23 11:47:30.412,163183.255,0.204,0.806,-0.555,-0.003,-0.01,0.001,0.148,-0.036,-0.006,0.351,-0.938,1.504
2024-09-23 11:47:30.422,163183.265,0.203,0.806,-0.556,-0.006,-0.01,-0.005,0.139,-0.027,-0.008,0.35,-0.937,1.503
2024-09-23 11:47:30.432,163183.275,0.203,0.805,-0.558,-0.006,-0.013,-0.004,0.14,-0.02,0.001,0.35,-0.935,1.502
2024-09-23 11:47:30.442,163183.285,0.203,0.804,-0.559,-0.005,-0.008,-0.002,0.155,-0.029,-0.002,0.349,-0.934,1.502
2024-09-23 11:47:30.452,163183.295,0.203,0.803,-0.56,-0.004,-0.001,-0.004,0.175,-0.034,-0.013,0.348,-0.933,1.501
2024-09-23 11:47:30.462,163183.305,0.203,0.802,-0.562,0.0,0.002,-0.004,0.159,-0.042,-0.015,0.346,-0.931,1.5
2024-09-23 11:47:30.472,163183.315,0.203,0.802,-0.562,0.003,0.0,-0.001,0.027,-0.028,0.009,0.346,-0.93,1.499
2024-09-23 11:47:30.482,163183.325,0.202,0.802,-0.562,0.003,-0.003,0.009,-0.008,-0.014,-0.021,0.345,-0.93,1.499
2024-09-23 11:47:30.491,163183.335,0.202,0.802,-0.562,-0.001,-0.013,-0.019,-0.029,-0.001,-0.017,0.345,-0.93,1.499
2024-09-23 11:47:30.502,163183.345,0.202,0.802,-0.562,-0.015,-0.049,-0.022,-0.079,0.03,0.021,0.346,-0.931,1.499
2024-09-23 11:47:30.511,163183.355,0.203,0.802,-0.561,-0.021,-0.056,-0.011,-0.066,0.051,0.033,0.347,-0.931,1.5
2024-09-23 11:47:30.521,163183.365,0.203,0.803,-0.561,-0.019,-0.013,0.001,-0.009,0.036,0.014,0.347,-0.932,1.5
2024-09-23 11:47:30.531,163183.375,0.203,0.803,-0.561,-0.009,0.013,-0.003,0.002,0.008,0.013,0.348,-0.932,1.501
2024-09-23 11:47:30.542,163183.385,0.204,0.803,-0.561,0.001,0.008,-0.016,-0.059,0.002,0.036,0.348,-0.932,1.501
2024-09-23 11:47:30.551,163183.395,0.204,0.803,-0.56,0.01,-0.007,-0.017,-0.1,0.016,0.055,0.349,-0.932,1.502
2024-09-23 11:47:30.561,163183.405,0.205,0.804,-0.559,0.009,-0.016,-0.017,-0.126,0.023,0.054,0.351,-0.933,1.504
2024-09-23 11:47:30.571,163183.415,0.205,0.804,-0.558,-0.004,-0.035,-0.023,-0.17,0.025,0.075,0.352,-0.934,1.506
2024-09-23 11:47:30.581,163183.425,0.206,0.805,-0.556,-0.019,-0.051,-0.02,-0.168,0.046,0.091,0.354,-0.936,1.508
2024-09-23 11:47:30.591,163183.435,0.207,0.806,-0.555,-0.025,-0.042,-0.018,-0.188,0.058,0.099,0.357,-0.937,1.51
2024-09-23 11:47:30.601,163183.445,0.208,0.807,-0.553,-0.026,-0.024,-0.013,-0.215,0.074,0.088,0.36,-0.938,1.513
2024-09-23 11:47:30.611,163183.455,0.209,0.808,-0.551,-0.026,-0.013,-0.038,-0.215,0.066,0.09,0.362,-0.94,1.515
2024-09-23 11:47:30.621,163183.464,0.21,0.809,-0.549,-0.015,-0.025,-0.041,-0.266,0.027,0.103,0.365,-0.942,1.518
2024-09-23 11:47:30.632,163183.474,0.211,0.81,-0.547,-0.001,-0.046,-0.03,-0.294,0.032,0.096,0.368,-0.944,1.522
2024-09-23 11:47:30.641,163183.484,0.212,0.811,-0.545,0.009,-0.035,0.004,-0.168,0.082,0.032,0.371,-0.946,1.524
2024-09-23 11:47:30.652,163183.494,0.212,0.812,-0.544,0.01,-0.004,0.051,0.02,0.069,-0.045,0.372,-0.947,1.524
2024-09-23 11:47:30.661,163183.504,0.212,0.811,-0.545,0.002,0.028,0.037,0.057,0.021,-0.06,0.371,-0.946,1.523
2024-09-23 11:47:30.671,163183.514,0.211,0.811,-0.545,0.009,0.024,-0.001,0.019,-0.026,-0.037,0.37,-0.946,1.522
2024-09-23 11:47:30.681,163183.524,0.211,0.811,-0.545,0.029,0.003,0.007,-0.066,-0.032,0.005,0.369,-0.946,1.522
2024-09-23 11:47:30.691,163183.534,0.211,0.812,-0.545,0.035,-0.033,0.033,-0.05,-0.023,0.016,0.37,-0.947,1.522
2024-09-23 11:47:30.701,163183.544,0.211,0.812,-0.545,0.019,-0.026,0.04,0.062,-0.005,-0.026,0.369,-0.947,1.522
2024-09-23 11:47:30.710,163183.554,0.211,0.811,-0.545,-0.003,0.02,0.041,0.06,0.016,-0.067,0.368,-0.946,1.521
2024-09-23 11:47:30.721,163183.564,0.21,0.811,-0.545,-0.017,0.043,0.023,-0.073,0.017,-0.079,0.368,-0.947,1.52
2024-09-23 11:47:30.731,163183.574,0.21,0.812,-0.544,-0.015,0.019,-0.022,-0.22,0.022,-0.046,0.368,-0.948,1.52
2024-09-23 11:47:30.741,163183.584,0.21,0.814,-0.542,-0.003,-0.044,-0.05,-0.297,0.069,0.002,0.369,-0.951,1.521
2024-09-23 11:47:30.751,163183.594,0.21,0.815,-0.539,0.003,-0.086,-0.036,-0.246,0.089,-0.004,0.371,-0.953,1.523
2024-09-23 11:47:30.761,163183.604,0.211,0.816,-0.538,-0.006,-0.052,-0.026,-0.139,0.074,-0.024,0.373,-0.955,1.524
2024-09-23 11:47:30.771,163183.614,0.211,0.817,-0.537,-0.015,0.004,-0.025,-0.019,0.037,-0.019,0.374,-0.956,1.524
2024-09-23 11:47:30.782,163183.624,0.211,0.817,-0.537,-0.009,0.038,-0.014,0.069,-0.01,-0.008,0.374,-0.956,1.524
2024-09-23 11:47:30.793,163183.634,0.21,0.816,-0.538,0.01,0.055,0.003,0.12,-0.039,-0.014,0.373,-0.955,1.523
2024-09-23 11:47:30.802,163183.644,0.21,0.816,-0.539,0.025,0.049,0.016,0.17,-0.046,-0.032,0.371,-0.954,1.522
2024-09-23 11:47:30.811,163183.654,0.209,0.815,-0.541,0.025,0.034,0.022,0.23,-0.053,-0.033,0.369,-0.952,1.52
2024-09-23 11:47:30.821,163183.664,0.209,0.813,-0.543,0.019,0.023,0.011,0.284,-0.056,-0.023,0.367,-0.95,1.518
2024-09-23 11:47:30.832,163183.674,0.208,0.812,-0.546,0.014,0.018,0.003,0.32,-0.065,-0.021,0.365,-0.947,1.515
2024-09-23 11:47:30.841,163183.684,0.208,0.81,-0.549,0.014,0.021,0.006,0.342,-0.066,-0.028,0.362,-0.944,1.513
2024-09-23 11:47:30.851,163183.694,0.207,0.808,-0.552,0.013,0.019,0.005,0.361,-0.072,-0.028,0.359,-0.941,1.51
2024-09-23 11:47:30.861,163183.704,0.207,0.806,-0.555,0.013,0.007,0.008,0.378,-0.088,-0.024,0.357,-0.937,1.508
2024-09-23 11:47:30.871,163183.714,0.206,0.804,-0.558,0.012,0.004,0.005,0.291,-0.065,-0.005,0.354,-0.934,1.505
2024-09-23 11:47:30.881,163183.724,0.206,0.803,-0.559,0.006,0.005,0.003,0.097,-0.047,-0.002,0.352,-0.932,1.505
2024-09-23 11:47:30.891,163183.734,0.205,0.803,-0.56,0.004,-0.01,0.012,0.088,-0.056,-0.082,0.351,-0.932,1.503
2024-09-23 11:47:30.901,163183.744,0.204,0.803,-0.56,-0.02,-0.044,-0.05,-0.064,-0.007,0.001,0.35,-0.932,1.503
2024-09-23 11:47:30.911,163183.754,0.205,0.803,-0.56,-0.044,-0.133,-0.039,-0.05,0.037,0.07,0.351,-0.932,1.504
2024-09-23 11:47:30.921,163183.764,0.206,0.803,-0.56,-0.041,-0.077,-0.017,0.055,0.018,0.037,0.352,-0.932,1.505
2024-09-23 11:47:30.931,163183.774,0.206,0.802,-0.56,-0.031,0.01,0.007,0.122,-0.025,-0.013,0.352,-0.931,1.504
2024-09-23 11:47:30.941,163183.784,0.205,0.802,-0.561,-0.02,0.035,-0.0,0.09,-0.051,-0.006,0.351,-0.93,1.503
2024-09-23 11:47:30.951,163183.794,0.205,0.801,-0.562,-0.0,0.033,0.006,0.092,-0.036,-0.021,0.35,-0.93,1.503
2024-09-23 11:47:30.961,163183.804,0.205,0.801,-0.563,0.005,0.022,-0.006,0.041,-0.017,-0.037,0.349,-0.929,1.502
2024-09-23 11:47:30.971,163183.814,0.204,0.801,-0.563,-0.009,-0.026,-0.003,-0.069,0.031,-0.008,0.349,-0.929,1.502
2024-09-23 11:47:30.981,163183.824,0.205,0.802,-0.561,-0.028,-0.056,-0.003,-0.161,0.074,0.018,0.35,-0.93,1.502
2024-09-23 11:47:30.991,163183.834,0.205,0.803,-0.56,-0.03,-0.056,-0.002,-0.143,0.101,0.005,0.351,-0.932,1.503
2024-09-23 11:47:31.001,163183.844,0.206,0.803,-0.559,-0.022,-0.041,-0.004,-0.116,0.106,-0.007,0.353,-0.933,1.504
2024-09-23 11:47:31.011,163183.854,0.206,0.804,-0.558,-0.012,-0.031,-0.012,0.015,0.115,-0.017,0.354,-0.933,1.504
2024-09-23 11:47:31.021,163183.864,0.207,0.803,-0.558,-0.0,0.001,-0.023,0.073,0.076,0.022,0.355,-0.933,1.504
2024-09-23 11:47:31.031,163183.874,0.207,0.803,-0.559,0.016,0.011,-0.011,0.123,0.037,0.018,0.355,-0.932,1.504
2024-09-23 11:47:31.041,163183.884,0.208,0.802,-0.56,0.031,0.046,-0.014,0.153,0.026,-0.002,0.355,-0.931,1.503
2024-09-23 11:47:31.051,163183.894,0.208,0.801,-0.561,0.046,0.03,0.029,0.164,0.036,-0.029,0.354,-0.929,1.502
2024-09-23 11:47:31.061,163183.904,0.208,0.8,-0.563,0.045,0.006,0.012,0.192,0.033,-0.035,0.353,-0.928,1.5
2024-09-23 11:47:31.071,163183.914,0.207,0.799,-0.564,0.035,0.012,0.016,0.19,0.028,-0.032,0.352,-0.926,1.499
2024-09-23 11:47:31.081,163183.924,0.207,0.798,-0.566,0.024,0.009,0.005,0.193,0.0,-0.039,0.351,-0.924,1.497
2024-09-23 11:47:31.091,163183.934,0.207,0.797,-0.567,0.01,0.008,-0.012,0.132,0.006,-0.029,0.35,-0.923,1.495
2024-09-23 11:47:31.101,163183.944,0.207,0.797,-0.568,-0.006,-0.032,-0.022,0.081,0.033,-0.016,0.349,-0.922,1.494
2024-09-23 11:47:31.111,163183.954,0.207,0.796,-0.568,-0.023,-0.056,-0.016,0.066,0.041,0.0,0.349,-0.921,1.494
2024-09-23 11:47:31.121,163183.964,0.207,0.796,-0.569,-0.037,-0.052,-0.0,0.057,0.037,0.02,0.35,-0.921,1.494
2024-09-23 11:47:31.131,163183.974,0.208,0.795,-0.569,-0.037,-0.046,0.012,0.12,0.027,0.031,0.35,-0.92,1.494
2024-09-23 11:47:31.141,163183.984,0.208,0.795,-0.57,-0.033,-0.027,0.001,0.105,-0.007,0.048,0.35,-0.918,1.494
2024-09-23 11:47:31.151,163183.994,0.209,0.795,-0.57,-0.03,-0.009,-0.016,-0.175,0.006,0.083,0.351,-0.918,1.495
2024-09-23 11:47:31.161,163184.004,0.21,0.796,-0.568,-0.028,0.01,-0.013,-0.354,0.046,0.085,0.354,-0.921,1.498
2024-09-23 11:47:31.171,163184.014,0.211,0.798,-0.565,-0.029,0.002,-0.031,-0.397,0.05,0.122,0.357,-0.924,1.501
2024-09-23 11:47:31.181,163184.024,0.212,0.8,-0.561,-0.054,-0.064,-0.088,-0.511,0.065,0.254,0.362,-0.927,1.507
2024-09-23 11:47:31.189,163184.034,0.215,0.803,-0.556,-0.072,-0.109,-0.075,-0.566,0.146,0.277,0.369,-0.932,1.514
2024-09-23 11:47:31.199,163184.043,0.218,0.805,-0.552,-0.068,-0.047,-0.013,-0.35,0.237,0.177,0.376,-0.935,1.521
2024-09-23 11:47:31.210,163184.053,0.218,0.807,-0.549,-0.063,0.027,0.023,-0.607,-0.113,-0.368,0.379,-0.939,1.523
2024-09-23 11:47:31.220,163184.063,0.214,0.812,-0.542,-0.03,0.034,0.001,-0.672,-0.015,-0.45,0.376,-0.948,1.52
2024-09-23 11:47:31.230,163184.073,0.214,0.815,-0.539,-0.091,0.108,0.049,-0.34,0.224,0.112,0.378,-0.953,1.52
2024-09-23 11:47:31.241,163184.083,0.217,0.816,-0.535,-0.207,0.084,0.183,-0.343,0.231,0.26,0.385,-0.955,1.526
2024-09-23 11:47:31.250,163184.093,0.219,0.817,-0.533,-0.058,-0.062,-0.006,-0.101,0.076,-0.029,0.389,-0.957,1.529
2024-09-23 11:47:31.260,163184.103,0.218,0.818,-0.533,-0.023,0.082,0.027,0.086,-0.03,-0.14,0.388,-0.957,1.527
2024-09-23 11:47:31.270,163184.113,0.217,0.817,-0.534,-0.017,0.147,0.052,0.091,-0.074,-0.002,0.386,-0.957,1.526
2024-09-23 11:47:31.281,163184.123,0.217,0.817,-0.535,0.048,0.081,0.046,0.036,-0.077,0.065,0.385,-0.956,1.526
2024-09-23 11:47:31.290,163184.133,0.217,0.817,-0.535,0.104,-0.003,0.025,0.053,-0.049,-0.028,0.385,-0.956,1.526
2024-09-23 11:47:31.300,163184.143,0.216,0.816,-0.536,0.083,-0.04,0.003,0.127,0.014,-0.097,0.383,-0.955,1.524
2024-09-23 11:47:31.311,163184.153,0.216,0.816,-0.537,0.033,-0.023,-0.007,0.181,0.054,-0.044,0.382,-0.954,1.522
2024-09-23 11:47:31.319,163184.163,0.216,0.815,-0.539,0.027,-0.022,-0.023,0.229,0.034,0.01,0.381,-0.952,1.521
2024-09-23 11:47:31.330,163184.173,0.216,0.813,-0.54,0.067,-0.041,-0.049,0.234,0.032,0.006,0.38,-0.95,1.519
2024-09-23 11:47:31.341,163184.183,0.216,0.812,-0.542,0.1,-0.057,-0.058,0.257,0.033,-0.014,0.379,-0.947,1.518
2024-09-23 11:47:31.350,163184.193,0.216,0.811,-0.544,0.108,-0.058,-0.044,0.232,0.024,-0.04,0.378,-0.945,1.516
2024-09-23 11:47:31.360,163184.203,0.216,0.81,-0.546,0.11,-0.06,-0.036,0.163,0.008,-0.059,0.376,-0.944,1.513
2024-09-23 11:47:31.370,163184.213,0.215,0.809,-0.547,0.107,-0.065,-0.028,0.057,0.009,-0.105,0.375,-0.943,1.511
2024-09-23 11:47:31.380,163184.223,0.214,0.809,-0.547,0.097,-0.06,-0.008,0.018,0.024,-0.118,0.373,-0.943,1.509
2024-09-23 11:47:31.390,163184.233,0.214,0.809,-0.547,0.057,-0.037,-0.0,0.033,0.031,-0.091,0.372,-0.943,1.508
2024-09-23 11:47:31.400,163184.243,0.213,0.809,-0.547,0.016,-0.019,-0.006,0.049,0.019,-0.054,0.371,-0.943,1.506
2024-09-23 11:47:31.410,163184.253,0.213,0.809,-0.548,-0.0,-0.02,-0.01,0.068,0.002,-0.03,0.371,-0.943,1.505
2024-09-23 11:47:31.420,163184.263,0.213,0.809,-0.548,-0.006,-0.013,-0.016,0.092,-0.024,-0.02,0.37,-0.942,1.504
2024-09-23 11:47:31.431,163184.273,0.213,0.808,-0.549,-0.012,-0.0,-0.021,0.103,-0.036,-0.011,0.369,-0.941,1.504
2024-09-23 11:47:31.440,163184.283,0.212,0.808,-0.55,-0.017,0.008,-0.018,0.103,-0.038,-0.012,0.368,-0.94,1.503
2024-09-23 11:47:31.450,163184.293,0.212,0.807,-0.551,-0.016,0.011,-0.01,0.088,-0.048,-0.013,0.367,-0.939,1.502
2024-09-23 11:47:31.460,163184.303,0.212,0.807,-0.552,-0.016,0.004,-0.01,0.065,-0.057,-0.008,0.366,-0.938,1.502
2024-09-23 11:47:31.470,163184.313,0.211,0.806,-0.552,-0.017,-0.001,-0.01,0.047,-0.053,-0.0,0.365,-0.938,1.501
2024-09-23 11:47:31.480,163184.323,0.211,0.806,-0.553,-0.015,-0.003,0.002,0.005,-0.037,0.004,0.365,-0.938,1.501
2024-09-23 11:47:31.490,163184.333,0.211,0.806,-0.553,-0.011,-0.01,-0.001,-0.007,-0.023,0.002,0.365,-0.938,1.501
2024-09-23 11:47:31.500,163184.343,0.211,0.806,-0.553,-0.011,-0.015,-0.007,-0.019,-0.009,0.007,0.365,-0.938,1.501
2024-09-23 11:47:31.510,163184.353,0.211,0.806,-0.553,-0.008,-0.023,-0.01,-0.022,-0.005,0.003,0.365,-0.938,1.502
2024-09-23 11:47:31.520,163184.363,0.211,0.806,-0.552,-0.0,-0.021,-0.01,-0.016,-0.016,-0.003,0.365,-0.938,1.502
2024-09-23 11:47:31.530,163184.373,0.211,0.807,-0.552,0.008,-0.013,-0.013,-0.002,-0.023,-0.008,0.364,-0.938,1.502
2024-09-23 11:47:31.540,163184.383,0.21,0.807,-0.553,0.013,-0.007,-0.007,0.018,-0.027,-0.014,0.364,-0.938,1.501
2024-09-23 11:47:31.550,163184.393,0.21,0.806,-0.553,0.014,0.003,-0.001,0.034,-0.031,-0.013,0.363,-0.938,1.501
2024-09-23 11:47:31.560,163184.403,0.21,0.806,-0.553,0.009,0.006,0.002,0.031,-0.038,-0.011,0.362,-0.938,1.5
2024-09-23 11:47:31.569,163184.413,0.209,0.806,-0.554,0.004,0.002,0.009,0.042,-0.032,-0.008,0.362,-0.937,1.5
2024-09-23 11:47:31.580,163184.423,0.209,0.806,-0.554,-0.001,-0.003,0.005,0.045,-0.021,-0.003,0.361,-0.937,1.5
2024-09-23 11:47:31.590,163184.433,0.209,0.806,-0.554,-0.006,-0.009,0.003,0.038,-0.022,0.004,0.361,-0.937,1.499
2024-09-23 11:47:31.600,163184.443,0.209,0.805,-0.555,-0.005,-0.008,-0.002,0.029,-0.026,-0.002,0.36,-0.936,1.499
2024-09-23 11:47:31.610,163184.453,0.209,0.805,-0.555,-0.003,-0.003,-0.008,0.02,-0.022,-0.002,0.36,-0.936,1.499
2024-09-23 11:47:31.620,163184.463,0.209,0.805,-0.555,-0.0,-0.013,-0.009,0.01,-0.011,-0.001,0.36,-0.936,1.499
2024-09-23 11:47:31.630,163184.473,0.209,0.805,-0.555,-0.0,-0.017,-0.008,0.011,-0.013,0.008,0.36,-0.936,1.499
2024-09-23 11:47:31.640,163184.483,0.209,0.805,-0.555,-0.002,-0.01,-0.013,0.005,-0.016,0.006,0.36,-0.936,1.499
2024-09-23 11:47:31.649,163184.493,0.209,0.805,-0.555,-0.001,-0.007,-0.013,0.012,-0.019,0.002,0.359,-0.936,1.499
2024-09-23 11:47:31.659,163184.503,0.209,0.805,-0.556,0.002,-0.004,-0.007,0.031,-0.028,0.001,0.359,-0.935,1.499
2024-09-23 11:47:31.670,163184.513,0.208,0.805,-0.556,0.004,-0.005,-0.0,0.053,-0.037,0.002,0.359,-0.935,1.499
2024-09-23 11:47:31.680,163184.523,0.208,0.804,-0.557,0.005,-0.004,0.002,0.077,-0.044,-0.001,0.358,-0.934,1.498
2024-09-23 11:47:31.690,163184.533,0.208,0.804,-0.557,0.004,0.0,0.003,0.102,-0.043,0.002,0.357,-0.934,1.498
2024-09-23 11:47:31.699,163184.543,0.208,0.803,-0.558,0.002,0.001,0.001,0.109,-0.04,-0.005,0.356,-0.933,1.497
2024-09-23 11:47:31.709,163184.553,0.207,0.802,-0.56,0.0,0.005,-0.001,0.136,-0.045,-0.01,0.355,-0.931,1.496
2024-09-23 11:47:31.720,163184.563,0.207,0.802,-0.561,0.002,0.006,0.0,0.141,-0.052,-0.01,0.354,-0.93,1.495
2024-09-23 11:47:31.730,163184.573,0.207,0.801,-0.562,0.002,0.003,-0.005,0.146,-0.057,-0.012,0.352,-0.929,1.494
2024-09-23 11:47:31.740,163184.583,0.206,0.8,-0.563,0.004,0.003,-0.001,0.142,-0.052,-0.009,0.351,-0.927,1.493
2024-09-23 11:47:31.750,163184.593,0.206,0.799,-0.565,0.005,-0.004,0.004,0.155,-0.052,-0.016,0.35,-0.926,1.492
2024-09-23 11:47:31.762,163184.603,0.206,0.798,-0.566,0.002,-0.005,0.002,0.168,-0.057,-0.014,0.348,-0.925,1.491
2024-09-23 11:47:31.770,163184.613,0.205,0.798,-0.567,-0.0,-0.003,-0.004,0.16,-0.063,-0.013,0.347,-0.923,1.49
2024-09-23 11:47:31.780,163184.623,0.205,0.797,-0.569,-0.0,-0.004,-0.001,0.166,-0.055,-0.018,0.345,-0.922,1.489
2024-09-23 11:47:31.790,163184.632,0.204,0.796,-0.57,0.001,-0.001,-0.001,0.174,-0.055,-0.018,0.344,-0.92,1.488
2024-09-23 11:47:31.800,163184.642,0.204,0.795,-0.572,-0.001,-0.008,-0.004,0.185,-0.056,-0.011,0.342,-0.919,1.487
2024-09-23 11:47:31.810,163184.652,0.203,0.794,-0.573,-0.0,-0.002,-0.002,0.204,-0.088,-0.013,0.341,-0.917,1.485
2024-09-23 11:47:31.820,163184.662,0.203,0.793,-0.575,0.0,0.008,-0.002,0.073,-0.052,-0.003,0.339,-0.916,1.485
2024-09-23 11:47:31.829,163184.672,0.203,0.793,-0.575,-0.001,0.004,0.004,0.024,-0.014,-0.041,0.339,-0.915,1.484
2024-09-23 11:47:31.840,163184.682,0.202,0.793,-0.575,-0.004,-0.005,-0.005,-0.028,-0.018,-0.039,0.338,-0.915,1.483
2024-09-23 11:47:31.849,163184.692,0.202,0.793,-0.574,-0.015,-0.044,-0.033,-0.081,0.005,0.02,0.338,-0.916,1.484
2024-09-23 11:47:31.859,163184.702,0.202,0.794,-0.574,-0.015,-0.074,-0.014,-0.085,0.016,0.037,0.339,-0.917,1.485
2024-09-23 11:47:31.869,163184.712,0.203,0.794,-0.573,-0.008,-0.033,-0.001,-0.045,0.007,0.008,0.34,-0.917,1.485
2024-09-23 11:47:31.880,163184.722,0.203,0.794,-0.573,-0.006,0.005,-0.001,-0.036,-0.016,0.006,0.34,-0.918,1.486
2024-09-23 11:47:31.890,163184.732,0.203,0.794,-0.573,-0.005,0.01,-0.007,-0.043,-0.023,0.029,0.34,-0.918,1.486
2024-09-23 11:47:31.899,163184.742,0.203,0.795,-0.572,0.002,-0.002,-0.012,-0.124,-0.02,0.052,0.341,-0.918,1.487
2024-09-23 11:47:31.909,163184.752,0.203,0.795,-0.571,0.003,-0.012,-0.008,-0.109,-0.014,0.065,0.342,-0.92,1.489
2024-09-23 11:47:31.919,163184.762,0.204,0.796,-0.571,-0.007,-0.024,-0.014,-0.086,-0.015,0.075,0.343,-0.92,1.49
2024-09-23 11:47:31.929,163184.772,0.204,0.796,-0.57,-0.018,-0.036,-0.012,-0.137,0.02,0.094,0.344,-0.921,1.492
2024-09-23 11:47:31.939,163184.782,0.205,0.796,-0.569,-0.019,-0.033,-0.006,-0.065,0.001,0.074,0.346,-0.921,1.494
2024-09-23 11:47:31.950,163184.792,0.205,0.797,-0.569,-0.01,-0.019,-0.02,-0.052,-0.04,0.08,0.347,-0.922,1.495
2024-09-23 11:47:31.959,163184.802,0.206,0.797,-0.568,0.002,-0.029,-0.021,-0.054,-0.056,0.083,0.347,-0.922,1.497
2024-09-23 11:47:31.969,163184.812,0.206,0.797,-0.568,0.013,-0.007,-0.005,0.001,0.0,0.034,0.348,-0.922,1.498
2024-09-23 11:47:31.979,163184.822,0.206,0.797,-0.568,0.015,0.023,0.027,0.092,0.01,-0.034,0.348,-0.922,1.498
2024-09-23 11:47:31.989,163184.832,0.206,0.796,-0.569,0.005,0.033,0.015,0.036,-0.027,-0.035,0.347,-0.921,1.497
2024-09-23 11:47:31.999,163184.842,0.205,0.796,-0.569,0.011,-0.009,-0.016,-0.016,-0.014,-0.019,0.346,-0.921,1.496
2024-09-23 11:47:32.009,163184.852,0.205,0.796,-0.569,0.033,-0.045,-0.003,0.022,0.018,-0.041,0.346,-0.921,1.496
2024-09-23 11:47:32.019,163184.862,0.205,0.796,-0.569,0.025,-0.034,0.005,-0.036,0.017,-0.029,0.346,-0.921,1.495
2024-09-23 11:47:32.029,163184.872,0.205,0.797,-0.569,-0.005,-0.028,-0.003,-0.131,-0.003,-0.001,0.346,-0.922,1.495
2024-09-23 11:47:32.039,163184.882,0.205,0.798,-0.567,-0.014,-0.023,-0.002,-0.169,-0.0,0.006,0.346,-0.923,1.496
2024-09-23 11:47:32.049,163184.892,0.205,0.798,-0.566,-0.005,-0.025,0.018,-0.106,0.006,-0.01,0.347,-0.925,1.497
2024-09-23 11:47:32.059,163184.902,0.205,0.799,-0.566,-0.013,-0.007,0.029,0.018,-0.009,-0.023,0.347,-0.925,1.497
2024-09-23 11:47:32.070,163184.912,0.205,0.799,-0.566,-0.019,0.019,0.031,0.059,-0.022,-0.015,0.347,-0.925,1.496
2024-09-23 11:47:32.079,163184.922,0.204,0.798,-0.566,-0.006,0.028,0.029,-0.042,-0.024,-0.013,0.346,-0.925,1.496
2024-09-23 11:47:32.089,163184.932,0.204,0.799,-0.566,0.005,0.025,0.006,-0.126,0.004,-0.027,0.346,-0.926,1.496
2024-09-23 11:47:32.099,163184.942,0.204,0.8,-0.564,0.004,-0.002,-0.014,-0.164,0.067,-0.034,0.347,-0.927,1.497
2024-09-23 11:47:32.109,163184.952,0.204,0.801,-0.563,-0.011,-0.055,-0.028,-0.126,0.09,-0.043,0.348,-0.928,1.497
2024-09-23 11:47:32.119,163184.962,0.204,0.801,-0.562,-0.025,-0.046,-0.048,-0.061,0.056,-0.011,0.349,-0.929,1.497
2024-09-23 11:47:32.129,163184.972,0.205,0.801,-0.562,-0.019,-0.009,-0.055,-0.011,0.018,0.025,0.349,-0.93,1.497
2024-09-23 11:47:32.139,163184.982,0.205,0.801,-0.562,0.005,0.012,-0.027,0.045,0.001,0.01,0.35,-0.93,1.498
2024-09-23 11:47:32.149,163184.992,0.205,0.801,-0.563,0.022,0.025,0.001,0.092,-0.011,-0.024,0.349,-0.929,1.497
2024-09-23 11:47:32.159,163185.002,0.205,0.8,-0.563,0.016,0.024,0.004,0.147,-0.023,-0.03,0.348,-0.928,1.496
2024-09-23 11:47:32.169,163185.012,0.204,0.799,-0.565,0.009,0.022,0.003,0.25,-0.032,-0.026,0.347,-0.926,1.495
2024-09-23 11:47:32.179,163185.022,0.204,0.798,-0.568,0.015,0.026,0.011,0.363,-0.063,-0.028,0.345,-0.923,1.492
2024-09-23 11:47:32.189,163185.032,0.203,0.795,-0.571,0.017,0.04,0.009,0.438,-0.091,-0.026,0.342,-0.92,1.49
2024-09-23 11:47:32.200,163185.042,0.202,0.793,-0.575,0.018,0.044,0.01,0.458,-0.148,-0.025,0.338,-0.915,1.487
2024-09-23 11:47:32.209,163185.052,0.201,0.791,-0.578,0.02,0.034,0.014,0.172,-0.068,0.003,0.336,-0.912,1.485
2024-09-23 11:47:32.218,163185.062,0.201,0.79,-0.579,0.014,0.02,0.031,0.169,-0.023,-0.097,0.334,-0.911,1.483
2024-09-23 11:47:32.229,163185.072,0.2,0.79,-0.58,-0.002,0.002,-0.004,0.048,-0.025,-0.056,0.332,-0.91,1.481
2024-09-23 11:47:32.239,163185.082,0.2,0.79,-0.58,-0.032,-0.097,-0.052,-0.055,0.01,0.043,0.332,-0.91,1.481
2024-09-23 11:47:32.249,163185.092,0.201,0.79,-0.58,-0.029,-0.123,-0.021,-0.003,0.03,0.028,0.333,-0.911,1.482
2024-09-23 11:47:32.259,163185.102,0.201,0.79,-0.58,-0.023,-0.016,0.001,0.087,0.0,-0.019,0.333,-0.91,1.482
2024-09-23 11:47:32.269,163185.112,0.2,0.789,-0.581,-0.024,0.021,-0.003,0.097,-0.054,-0.026,0.332,-0.909,1.481
2024-09-23 11:47:32.279,163185.122,0.2,0.789,-0.581,-0.015,0.027,-0.019,0.019,-0.079,-0.02,0.331,-0.909,1.48
2024-09-23 11:47:32.289,163185.132,0.199,0.789,-0.581,-0.002,0.005,-0.028,-0.058,-0.017,-0.0,0.33,-0.909,1.48
2024-09-23 11:47:32.299,163185.142,0.2,0.79,-0.58,-0.013,-0.052,-0.02,-0.153,0.048,0.034,0.331,-0.91,1.481
2024-09-23 11:47:32.309,163185.152,0.2,0.79,-0.579,-0.038,-0.09,-0.014,-0.201,0.091,0.066,0.333,-0.912,1.483
2024-09-23 11:47:32.319,163185.162,0.201,0.791,-0.577,-0.046,-0.058,-0.02,-0.118,0.099,0.043,0.336,-0.913,1.485
2024-09-23 11:47:32.329,163185.172,0.202,0.792,-0.577,-0.031,-0.027,-0.024,-0.05,0.099,0.034,0.337,-0.914,1.486
2024-09-23 11:47:32.339,163185.182,0.203,0.792,-0.576,-0.012,-0.016,-0.014,0.015,0.091,0.037,0.339,-0.914,1.486
2024-09-23 11:47:32.349,163185.192,0.204,0.791,-0.576,0.01,0.002,-0.01,0.06,0.041,0.047,0.34,-0.913,1.487
2024-09-23 11:47:32.358,163185.202,0.204,0.791,-0.577,0.026,0.037,-0.006,0.094,0.005,0.03,0.34,-0.912,1.487
2024-09-23 11:47:32.369,163185.211,0.204,0.79,-0.578,0.039,0.028,0.026,0.168,0.045,-0.01,0.34,-0.911,1.486
2024-09-23 11:47:32.379,163185.221,0.205,0.789,-0.579,0.041,0.012,0.054,0.251,0.063,-0.043,0.339,-0.909,1.485
2024-09-23 11:47:32.389,163185.231,0.204,0.787,-0.582,0.031,0.03,0.07,0.317,-0.029,-0.051,0.338,-0.907,1.482
2024-09-23 11:47:32.399,163185.241,0.203,0.786,-0.584,0.029,0.049,0.019,0.22,-0.1,-0.04,0.335,-0.904,1.48
2024-09-23 11:47:32.408,163185.251,0.203,0.785,-0.585,0.037,-0.0,-0.014,0.024,-0.075,-0.016,0.333,-0.903,1.479
2024-09-23 11:47:32.418,163185.261,0.202,0.785,-0.585,0.024,-0.076,-0.021,-0.089,0.01,0.02,0.333,-0.903,1.479
2024-09-23 11:47:32.428,163185.271,0.203,0.786,-0.583,-0.02,-0.116,-0.036,-0.362,0.096,0.078,0.335,-0.905,1.481
2024-09-23 11:47:32.438,163185.281,0.205,0.79,-0.579,-0.056,-0.107,-0.038,-0.724,0.168,0.098,0.34,-0.91,1.485
2024-09-23 11:47:32.448,163185.291,0.206,0.794,-0.572,-0.057,-0.042,-0.031,-0.813,0.192,0.068,0.346,-0.917,1.491
2024-09-23 11:47:32.459,163185.301,0.208,0.798,-0.565,-0.055,-0.031,-0.066,-0.862,0.172,0.122,0.353,-0.925,1.497
2024-09-23 11:47:32.468,163185.311,0.21,0.803,-0.558,-0.055,-0.099,-0.089,-0.827,0.161,0.183,0.361,-0.932,1.505
2024-09-23 11:47:32.478,163185.321,0.213,0.807,-0.551,-0.052,-0.041,-0.06,-0.66,0.198,0.19,0.369,-0.938,1.512
2024-09-23 11:47:32.488,163185.331,0.215,0.809,-0.547,-0.051,0.039,0.009,-0.414,0.187,0.08,0.375,-0.943,1.518
2024-09-23 11:47:32.498,163185.341,0.216,0.811,-0.544,-0.048,0.069,0.019,-0.264,0.024,-0.018,0.378,-0.946,1.52
2024-09-23 11:47:32.508,163185.351,0.214,0.813,-0.541,-0.045,0.1,-0.013,-0.433,-0.135,-0.449,0.376,-0.95,1.519
2024-09-23 11:47:32.518,163185.361,0.211,0.816,-0.538,-0.023,0.086,0.032,-0.3,0.136,-0.218,0.374,-0.955,1.515
2024-09-23 11:47:32.528,163185.371,0.212,0.818,-0.535,-0.147,0.1,0.128,-0.378,0.276,0.162,0.378,-0.958,1.517
2024-09-23 11:47:32.538,163185.381,0.214,0.82,-0.531,-0.216,0.001,0.103,-0.291,0.112,0.085,0.383,-0.961,1.522
2024-09-23 11:47:32.548,163185.391,0.214,0.821,-0.53,-0.042,-0.044,0.024,-0.103,-0.015,-0.102,0.385,-0.963,1.523
2024-09-23 11:47:32.558,163185.401,0.213,0.821,-0.529,-0.004,0.07,0.057,0.007,-0.033,-0.062,0.383,-0.963,1.521
2024-09-23 11:47:32.568,163185.411,0.213,0.821,-0.53,0.014,0.081,0.037,-0.002,-0.069,-0.011,0.382,-0.963,1.521
2024-09-23 11:47:32.578,163185.421,0.212,0.821,-0.53,0.057,0.026,0.009,0.007,-0.068,-0.067,0.381,-0.964,1.52
2024-09-23 11:47:32.589,163185.431,0.211,0.821,-0.53,0.061,-0.025,0.004,0.07,-0.003,-0.087,0.38,-0.963,1.519
2024-09-23 11:47:32.598,163185.441,0.211,0.821,-0.531,0.02,-0.037,-0.0,0.133,0.035,-0.049,0.378,-0.963,1.517
2024-09-23 11:47:32.608,163185.451,0.211,0.82,-0.532,0.01,-0.033,-0.019,0.151,0.022,-0.016,0.377,-0.962,1.515
2024-09-23 11:47:32.618,163185.461,0.211,0.819,-0.533,0.042,-0.031,-0.033,0.148,0.011,-0.032,0.377,-0.96,1.514
2024-09-23 11:47:32.628,163185.471,0.211,0.819,-0.534,0.074,-0.04,-0.038,0.144,0.029,-0.058,0.376,-0.959,1.513
2024-09-23 11:47:32.638,163185.481,0.21,0.818,-0.535,0.085,-0.043,-0.04,0.139,0.052,-0.048,0.374,-0.958,1.511
2024-09-23 11:47:32.648,163185.491,0.21,0.817,-0.536,0.082,-0.048,-0.03,0.149,0.049,-0.028,0.374,-0.957,1.509
2024-09-23 11:47:32.658,163185.501,0.21,0.817,-0.538,0.091,-0.057,-0.02,0.15,0.042,-0.026,0.373,-0.955,1.508
2024-09-23 11:47:32.668,163185.511,0.21,0.816,-0.539,0.099,-0.057,-0.015,0.125,0.029,-0.068,0.372,-0.954,1.506
2024-09-23 11:47:32.678,163185.521,0.21,0.816,-0.539,0.095,-0.042,-0.016,0.111,0.018,-0.103,0.371,-0.954,1.504
2024-09-23 11:47:32.688,163185.531,0.209,0.815,-0.54,0.075,-0.02,-0.014,0.116,0.022,-0.09,0.369,-0.953,1.502
2024-09-23 11:47:32.698,163185.541,0.208,0.815,-0.541,0.047,-0.017,-0.001,0.131,0.015,-0.069,0.368,-0.952,1.5
2024-09-23 11:47:32.708,163185.551,0.208,0.814,-0.542,0.023,-0.014,-0.0,0.133,-0.002,-0.051,0.366,-0.951,1.498
2024-09-23 11:47:32.718,163185.561,0.208,0.813,-0.543,0.002,-0.004,-0.01,0.125,-0.008,-0.032,0.365,-0.95,1.497
2024-09-23 11:47:32.727,163185.571,0.208,0.813,-0.544,-0.014,0.008,-0.007,0.11,-0.003,-0.017,0.364,-0.949,1.496
2024-09-23 11:47:32.738,163185.581,0.208,0.812,-0.545,-0.02,0.009,0.001,0.109,-0.011,-0.008,0.364,-0.948,1.495
2024-09-23 11:47:32.748,163185.591,0.207,0.812,-0.546,-0.023,0.001,-0.008,0.111,-0.025,-0.002,0.363,-0.947,1.494
2024-09-23 11:47:32.758,163185.601,0.207,0.811,-0.547,-0.021,-0.009,-0.019,0.1,-0.029,0.006,0.362,-0.946,1.494
2024-09-23 11:47:32.768,163185.611,0.207,0.81,-0.548,-0.016,-0.011,-0.021,0.083,-0.022,0.01,0.362,-0.945,1.493
2024-09-23 11:47:32.778,163185.621,0.207,0.81,-0.549,-0.013,-0.012,-0.019,0.068,-0.011,0.008,0.361,-0.944,1.493
2024-09-23 11:47:32.788,163185.631,0.207,0.81,-0.549,-0.013,-0.011,-0.022,0.046,-0.015,0.003,0.361,-0.944,1.493
2024-09-23 11:47:32.798,163185.641,0.207,0.809,-0.549,-0.008,-0.011,-0.025,0.021,-0.008,0.007,0.361,-0.943,1.493
2024-09-23 11:47:32.807,163185.651,0.207,0.809,-0.549,-0.0,-0.015,-0.017,0.006,-0.003,0.007,0.361,-0.943,1.493
2024-09-23 11:47:32.818,163185.661,0.207,0.809,-0.549,0.006,-0.017,-0.004,0.001,0.001,0.003,0.361,-0.943,1.493
2024-09-23 11:47:32.827,163185.671,0.207,0.809,-0.55,0.008,-0.015,-0.004,0.005,-0.006,0.001,0.361,-0.943,1.493
2024-09-23 11:47:32.839,163185.681,0.207,0.809,-0.55,0.008,-0.013,-0.005,0.023,-0.012,0.005,0.361,-0.943,1.493
2024-09-23 11:47:32.848,163185.691,0.207,0.809,-0.55,0.008,-0.009,-0.006,0.055,-0.017,-0.003,0.36,-0.942,1.492
2024-09-23 11:47:32.857,163185.701,0.207,0.809,-0.551,0.008,0.001,-0.003,0.08,-0.018,-0.006,0.359,-0.942,1.492
2024-09-23 11:47:32.867,163185.711,0.207,0.808,-0.552,0.006,0.007,0.001,0.11,-0.026,-0.006,0.359,-0.941,1.491
2024-09-23 11:47:32.878,163185.721,0.206,0.807,-0.553,0.003,0.009,0.002,0.139,-0.03,0.001,0.358,-0.94,1.49
2024-09-23 11:47:32.888,163185.731,0.206,0.807,-0.554,0.0,0.006,0.002,0.168,-0.039,0.012,0.356,-0.938,1.489
2024-09-23 11:47:32.898,163185.741,0.206,0.805,-0.556,-0.003,0.005,0.002,0.183,-0.039,0.013,0.355,-0.936,1.488
2024-09-23 11:47:32.908,163185.751,0.206,0.804,-0.557,-0.005,0.008,0.007,0.186,-0.035,0.012,0.354,-0.935,1.488
2024-09-23 11:47:32.918,163185.761,0.206,0.803,-0.559,-0.006,0.003,0.012,0.179,-0.03,0.012,0.353,-0.933,1.487
2024-09-23 11:47:32.928,163185.771,0.206,0.802,-0.56,-0.009,-0.004,0.006,0.183,-0.024,0.013,0.353,-0.931,1.486
2024-09-23 11:47:32.938,163185.781,0.206,0.801,-0.562,-0.006,-0.006,0.001,0.179,-0.025,0.006,0.352,-0.929,1.485
2024-09-23 11:47:32.947,163185.79,0.206,0.8,-0.563,-0.001,-0.002,-0.003,0.178,-0.032,-0.003,0.351,-0.928,1.484
2024-09-23 11:47:32.957,163185.8,0.206,0.799,-0.565,0.001,0.001,-0.007,0.168,-0.036,-0.005,0.349,-0.926,1.483
2024-09-23 11:47:32.968,163185.81,0.206,0.798,-0.566,0.001,-0.006,-0.007,0.166,-0.032,-0.004,0.348,-0.925,1.482
2024-09-23 11:47:32.978,163185.82,0.205,0.798,-0.567,-0.001,-0.007,-0.004,0.172,-0.026,0.0,0.347,-0.923,1.481
2024-09-23 11:47:32.987,163185.83,0.205,0.797,-0.569,-0.003,-0.005,-0.002,0.186,-0.031,0.0,0.346,-0.922,1.48
2024-09-23 11:47:32.997,163185.84,0.205,0.796,-0.57,-0.0,0.0,-0.003,0.178,-0.049,-0.002,0.345,-0.92,1.479
2024-09-23 11:47:33.007,163185.85,0.205,0.795,-0.572,0.005,-0.0,-0.001,0.169,-0.057,-0.005,0.344,-0.918,1.478
2024-09-23 11:47:33.017,163185.86,0.204,0.794,-0.573,0.007,-0.01,-0.003,0.187,-0.061,-0.006,0.342,-0.917,1.477
2024-09-23 11:47:33.027,163185.87,0.204,0.793,-0.575,0.003,-0.012,-0.004,0.181,-0.052,0.002,0.341,-0.915,1.476
2024-09-23 11:47:33.038,163185.88,0.204,0.792,-0.576,-0.003,-0.006,-0.003,0.158,-0.047,0.007,0.34,-0.913,1.475
2024-09-23 11:47:33.047,163185.89,0.203,0.791,-0.577,-0.003,-0.003,-0.001,0.14,-0.055,0.003,0.339,-0.912,1.475
2024-09-23 11:47:33.057,163185.9,0.203,0.79,-0.578,-0.002,-0.005,-0.003,0.008,-0.027,0.004,0.338,-0.911,1.474
2024-09-23 11:47:33.067,163185.91,0.203,0.79,-0.578,-0.001,-0.009,0.004,-0.011,-0.016,-0.037,0.338,-0.911,1.474
2024-09-23 11:47:33.077,163185.92,0.203,0.791,-0.578,-0.004,-0.019,-0.015,-0.073,-0.012,-0.005,0.337,-0.912,1.474
2024-09-23 11:47:33.087,163185.93,0.203,0.791,-0.577,-0.015,-0.059,-0.035,-0.067,0.008,0.035,0.338,-0.913,1.475
2024-09-23 11:47:33.097,163185.94,0.203,0.791,-0.577,-0.012,-0.049,-0.011,-0.017,0.012,0.02,0.339,-0.913,1.475
2024-09-23 11:47:33.107,163185.95,0.203,0.791,-0.577,-0.007,0.0,0.0,0.035,-0.015,-0.003,0.339,-0.913,1.475
2024-09-23 11:47:33.117,163185.96,0.203,0.791,-0.577,-0.001,0.019,-0.007,0.042,-0.035,-0.006,0.338,-0.912,1.475
2024-09-23 11:47:33.127,163185.97,0.203,0.791,-0.578,0.011,0.011,-0.004,0.051,-0.031,-0.007,0.338,-0.912,1.475
2024-09-23 11:47:33.137,163185.98,0.203,0.79,-0.578,0.014,-0.001,-0.001,0.05,-0.015,-0.007,0.337,-0.911,1.474
2024-09-23 11:47:33.147,163185.99,0.203,0.79,-0.578,0.001,-0.001,-0.005,0.039,-0.002,0.0,0.337,-0.911,1.474
2024-09-23 11:47:33.157,163186.0,0.203,0.79,-0.579,-0.009,-0.003,-0.003,0.018,-0.002,0.005,0.337,-0.911,1.474
2024-09-23 11:47:33.166,163186.01,0.203,0.79,-0.579,-0.009,-0.015,-0.002,-0.008,0.001,0.004,0.337,-0.91,1.474
2024-09-23 11:47:33.177,163186.02,0.203,0.79,-0.579,-0.002,-0.024,-0.001,-0.025,0.006,0.001,0.337,-0.911,1.474
2024-09-23 11:47:33.187,163186.03,0.203,0.79,-0.579,-0.001,-0.025,0.003,-0.026,0.014,0.008,0.337,-0.911,1.474
2024-09-23 11:47:33.196,163186.04,0.203,0.79,-0.578,-0.005,-0.019,-0.002,-0.024,0.018,0.013,0.337,-0.911,1.474
2024-09-23 11:47:33.206,163186.05,0.203,0.79,-0.578,-0.007,-0.014,-0.012,-0.01,0.019,0.007,0.338,-0.911,1.475
2024-09-23 11:47:33.217,163186.06,0.203,0.79,-0.578,-0.002,-0.005,-0.012,-0.003,0.021,0.007,0.338,-0.911,1.475
2024-09-23 11:47:33.228,163186.07,0.203,0.79,-0.578,0.003,0.001,-0.011,-0.018,0.016,0.003,0.338,-0.911,1.475
2024-09-23 11:47:33.237,163186.08,0.203,0.791,-0.577,0.003,-0.004,-0.014,-0.127,0.012,0.022,0.339,-0.912,1.475
2024-09-23 11:47:33.247,163186.09,0.204,0.791,-0.577,0.002,-0.019,-0.018,-0.104,0.01,0.04,0.34,-0.913,1.476
2024-09-23 11:47:33.257,163186.1,0.204,0.792,-0.576,0.001,-0.034,-0.019,-0.1,0.036,0.049,0.341,-0.914,1.478
2024-09-23 11:47:33.267,163186.11,0.205,0.792,-0.575,-0.008,-0.04,-0.015,-0.137,0.032,0.045,0.342,-0.915,1.479
2024-09-23 11:47:33.277,163186.12,0.205,0.793,-0.574,-0.018,-0.012,-0.014,-0.125,0.019,0.051,0.344,-0.916,1.48
2024-09-23 11:47:33.287,163186.13,0.206,0.794,-0.573,-0.009,-0.018,-0.017,-0.129,0.02,0.06,0.345,-0.917,1.482
2024-09-23 11:47:33.297,163186.14,0.206,0.794,-0.571,-0.001,-0.03,-0.017,-0.151,0.023,0.066,0.347,-0.918,1.484
2024-09-23 11:47:33.307,163186.15,0.207,0.795,-0.571,0.002,-0.007,-0.012,-0.013,0.012,0.032,0.348,-0.918,1.485
2024-09-23 11:47:33.317,163186.16,0.207,0.794,-0.571,-0.001,-0.001,-0.015,0.02,0.018,0.05,0.348,-0.918,1.485
2024-09-23 11:47:33.327,163186.17,0.208,0.794,-0.571,-0.007,-0.005,-0.003,0.008,0.009,0.024,0.349,-0.918,1.486
2024-09-23 11:47:33.337,163186.18,0.208,0.794,-0.571,0.006,0.014,0.016,0.025,-0.005,-0.009,0.349,-0.917,1.486
2024-09-23 11:47:33.347,163186.19,0.208,0.794,-0.571,0.009,0.035,0.005,-0.034,-0.015,0.018,0.348,-0.917,1.486
2024-09-23 11:47:33.357,163186.2,0.208,0.794,-0.571,0.009,-0.008,0.002,0.034,-0.012,0.023,0.348,-0.917,1.486
2024-09-23 11:47:33.367,163186.21,0.208,0.794,-0.572,0.009,-0.013,0.009,0.048,0.014,-0.013,0.348,-0.917,1.486
2024-09-23 11:47:33.377,163186.22,0.208,0.793,-0.572,-0.003,-0.01,0.035,0.027,0.012,-0.021,0.348,-0.916,1.485
2024-09-23 11:47:33.387,163186.23,0.207,0.793,-0.573,-0.014,0.011,0.013,0.077,0.007,-0.003,0.348,-0.916,1.485
2024-09-23 11:47:33.397,163186.24,0.207,0.793,-0.573,0.005,-0.017,-0.011,0.103,0.021,-0.032,0.347,-0.915,1.484
2024-09-23 11:47:33.407,163186.25,0.207,0.792,-0.574,0.011,-0.02,-0.006,0.005,0.003,-0.037,0.347,-0.915,1.483
2024-09-23 11:47:33.417,163186.26,0.207,0.793,-0.573,-0.005,0.008,-0.018,-0.076,-0.004,0.008,0.347,-0.915,1.483
2024-09-23 11:47:33.427,163186.27,0.207,0.793,-0.573,0.0,-0.037,-0.013,-0.048,0.024,0.004,0.347,-0.916,1.484
2024-09-23 11:47:33.437,163186.28,0.207,0.793,-0.572,0.003,-0.025,0.019,-0.012,0.03,-0.018,0.348,-0.916,1.484
2024-09-23 11:47:33.447,163186.29,0.207,0.793,-0.572,-0.011,0.021,0.025,-0.01,0.005,-0.01,0.348,-0.916,1.484
2024-09-23 11:47:33.457,163186.3,0.207,0.793,-0.572,-0.007,0.016,0.007,-0.0,-0.01,0.012,0.348,-0.916,1.484
2024-09-23 11:47:33.467,163186.31,0.207,0.793,-0.572,0.007,-0.009,0.002,-0.018,-0.014,0.02,0.348,-0.916,1.484
2024-09-23 11:47:33.477,163186.32,0.207,0.794,-0.572,0.003,-0.023,0.01,-0.064,-0.012,0.019,0.348,-0.917,1.484
2024-09-23 11:47:33.486,163186.33,0.208,0.794,-0.571,-0.014,-0.036,0.019,-0.111,-0.012,0.03,0.349,-0.917,1.485
2024-09-23 11:47:33.496,163186.34,0.208,0.795,-0.57,-0.019,-0.056,0.007,-0.102,0.003,0.043,0.35,-0.918,1.487
2024-09-23 11:47:33.507,163186.35,0.208,0.795,-0.57,-0.016,-0.054,-0.008,-0.101,-0.005,0.041,0.35,-0.919,1.488
2024-09-23 11:47:33.516,163186.36,0.209,0.796,-0.568,-0.012,-0.026,-0.019,-0.285,0.011,0.041,0.352,-0.921,1.489
2024-09-23 11:47:33.526,163186.37,0.209,0.798,-0.565,-0.004,-0.009,-0.032,-0.549,0.082,0.021,0.355,-0.924,1.492
2024-09-23 11:47:33.537,163186.379,0.21,0.802,-0.56,0.006,-0.027,-0.016,-0.68,0.15,-0.042,0.359,-0.93,1.496
2024-09-23 11:47:33.546,163186.389,0.21,0.806,-0.554,-0.005,-0.067,-0.037,-0.628,0.178,-0.041,0.363,-0.937,1.499
2024-09-23 11:47:33.556,163186.399,0.211,0.809,-0.549,-0.025,-0.087,-0.063,-0.505,0.172,-0.013,0.367,-0.942,1.502
2024-09-23 11:47:33.566,163186.409,0.212,0.811,-0.545,-0.02,-0.041,-0.047,-0.3,0.112,-0.004,0.37,-0.946,1.504
2024-09-23 11:47:33.576,163186.419,0.212,0.812,-0.544,-0.001,0.045,-0.029,-0.096,0.039,-0.006,0.372,-0.948,1.505
2024-09-23 11:47:33.586,163186.429,0.212,0.812,-0.544,0.02,0.079,-0.003,0.061,-0.02,-0.02,0.372,-0.948,1.505
2024-09-23 11:47:33.596,163186.439,0.212,0.812,-0.544,0.036,0.067,0.024,0.117,-0.047,-0.022,0.371,-0.947,1.504
2024-09-23 11:47:33.607,163186.449,0.211,0.811,-0.546,0.034,0.049,0.037,0.138,-0.041,-0.013,0.369,-0.946,1.503
2024-09-23 11:47:33.616,163186.459,0.211,0.81,-0.547,0.019,0.044,0.043,0.229,-0.034,-0.013,0.368,-0.944,1.502
2024-09-23 11:47:33.626,163186.469,0.211,0.809,-0.549,0.002,0.046,0.033,0.31,-0.047,-0.011,0.366,-0.942,1.5
2024-09-23 11:47:33.637,163186.479,0.21,0.807,-0.552,-0.004,0.03,0.007,0.308,-0.059,-0.02,0.364,-0.939,1.498
2024-09-23 11:47:33.646,163186.489,0.21,0.805,-0.554,0.002,0.011,-0.001,0.256,-0.043,-0.022,0.362,-0.936,1.496
2024-09-23 11:47:33.656,163186.499,0.209,0.804,-0.556,0.003,-0.01,-0.0,0.18,-0.002,-0.016,0.36,-0.934,1.494
2024-09-23 11:47:33.666,163186.509,0.209,0.803,-0.557,-0.002,-0.029,-0.005,0.119,0.022,-0.014,0.359,-0.933,1.493
2024-09-23 11:47:33.676,163186.519,0.209,0.803,-0.558,-0.011,-0.025,-0.016,0.077,0.025,-0.021,0.359,-0.932,1.492
2024-09-23 11:47:33.686,163186.529,0.209,0.803,-0.559,-0.012,-0.021,-0.022,0.053,0.019,-0.022,0.359,-0.932,1.492
2024-09-23 11:47:33.696,163186.539,0.209,0.802,-0.559,-0.007,-0.025,-0.023,0.043,0.005,-0.014,0.358,-0.931,1.491
2024-09-23 11:47:33.706,163186.549,0.209,0.802,-0.559,-0.003,-0.029,-0.018,0.044,0.004,0.003,0.358,-0.931,1.491
2024-09-23 11:47:33.716,163186.559,0.209,0.802,-0.56,-0.003,-0.023,-0.009,0.058,0.005,0.004,0.358,-0.93,1.491
2024-09-23 11:47:33.726,163186.569,0.209,0.801,-0.56,-0.004,-0.011,-0.005,0.089,-0.01,0.005,0.358,-0.93,1.49
2024-09-23 11:47:33.745,163186.579,0.209,0.801,-0.561,-0.002,-0.001,-0.005,0.119,-0.021,-0.002,0.357,-0.929,1.49
2024-09-23 11:47:33.749,163186.589,0.209,0.8,-0.562,0.001,0.005,-0.005,0.142,-0.031,-0.008,0.356,-0.927,1.489
2024-09-23 11:47:33.756,163186.599,0.209,0.799,-0.564,0.003,0.004,-0.001,0.163,-0.038,-0.009,0.355,-0.926,1.488
2024-09-23 11:47:33.766,163186.609,0.209,0.798,-0.565,0.006,0.001,-0.0,0.158,-0.038,-0.001,0.354,-0.925,1.487
2024-09-23 11:47:33.776,163186.619,0.208,0.797,-0.566,0.004,-0.001,0.001,0.181,-0.038,0.002,0.352,-0.923,1.486
2024-09-23 11:47:33.786,163186.629,0.208,0.796,-0.568,0.006,0.005,0.003,0.21,-0.047,-0.007,0.351,-0.921,1.485
2024-09-23 11:47:33.796,163186.639,0.208,0.795,-0.57,0.006,0.006,0.0,0.219,-0.061,-0.014,0.349,-0.919,1.483
2024-09-23 11:47:33.806,163186.649,0.207,0.794,-0.572,0.006,0.001,0.002,0.23,-0.061,-0.013,0.348,-0.917,1.482
2024-09-23 11:47:33.816,163186.659,0.207,0.792,-0.574,0.007,-0.001,0.004,0.238,-0.074,-0.005,0.346,-0.915,1.48
2024-09-23 11:47:33.826,163186.669,0.207,0.792,-0.575,0.003,-0.004,0.002,0.076,-0.028,0.015,0.345,-0.913,1.48
2024-09-23 11:47:33.836,163186.679,0.206,0.791,-0.576,-0.002,-0.001,0.005,0.085,-0.02,-0.05,0.344,-0.913,1.479
2024-09-23 11:47:33.846,163186.689,0.206,0.791,-0.576,-0.008,-0.003,-0.019,0.026,-0.017,-0.013,0.343,-0.912,1.478
2024-09-23 11:47:33.856,163186.699,0.206,0.791,-0.576,-0.019,-0.062,-0.038,0.049,-0.003,0.032,0.343,-0.912,1.478
2024-09-23 11:47:33.866,163186.709,0.206,0.79,-0.577,-0.013,-0.054,-0.002,0.117,-0.006,0.021,0.343,-0.911,1.478
2024-09-23 11:47:33.876,163186.719,0.206,0.789,-0.578,-0.006,0.007,0.011,0.175,-0.041,0.001,0.343,-0.91,1.478
2024-09-23 11:47:33.886,163186.729,0.206,0.788,-0.58,-0.006,0.029,0.004,0.179,-0.059,0.005,0.341,-0.908,1.477
2024-09-23 11:47:33.896,163186.739,0.206,0.787,-0.581,0.004,0.023,0.003,0.173,-0.061,0.004,0.34,-0.906,1.476
2024-09-23 11:47:33.906,163186.749,0.205,0.786,-0.583,0.012,0.009,0.002,0.144,-0.046,0.003,0.339,-0.905,1.475
2024-09-23 11:47:33.916,163186.759,0.205,0.786,-0.584,0.005,-0.009,0.001,0.088,-0.03,0.013,0.338,-0.904,1.474
2024-09-23 11:47:33.926,163186.769,0.205,0.785,-0.584,-0.002,-0.027,-0.002,0.037,-0.001,0.029,0.338,-0.903,1.474
2024-09-23 11:47:33.936,163186.779,0.205,0.785,-0.584,-0.003,-0.034,-0.004,-0.001,0.013,0.026,0.338,-0.903,1.475
2024-09-23 11:47:33.946,163186.789,0.206,0.785,-0.584,-0.0,-0.033,-0.015,-0.052,0.026,0.013,0.339,-0.903,1.475
2024-09-23 11:47:33.956,163186.799,0.206,0.786,-0.584,-0.001,-0.029,-0.022,-0.056,0.002,-0.009,0.339,-0.904,1.475
2024-09-23 11:47:33.966,163186.809,0.206,0.786,-0.583,-0.007,-0.034,-0.034,-0.124,0.023,0.019,0.34,-0.904,1.476
2024-09-23 11:47:33.976,163186.819,0.206,0.787,-0.582,-0.018,-0.049,-0.026,-0.125,0.072,0.037,0.341,-0.906,1.477
2024-09-23 11:47:33.986,163186.829,0.207,0.787,-0.581,-0.022,-0.04,-0.003,-0.018,0.085,-0.001,0.342,-0.906,1.478
2024-09-23 11:47:33.996,163186.839,0.207,0.787,-0.581,-0.032,0.008,-0.013,-0.018,0.072,-0.006,0.343,-0.906,1.478
2024-09-23 11:47:34.006,163186.849,0.208,0.787,-0.58,-0.026,0.002,-0.012,-0.061,0.034,0.018,0.344,-0.907,1.478
2024-09-23 11:47:34.015,163186.859,0.208,0.788,-0.58,-0.006,0.009,-0.023,-0.054,0.043,0.041,0.345,-0.907,1.479
2024-09-23 11:47:34.025,163186.869,0.209,0.788,-0.579,0.013,-0.007,-0.003,-0.037,0.059,0.022,0.346,-0.907,1.48
2024-09-23 11:47:34.036,163186.879,0.209,0.788,-0.579,0.011,0.0,-0.004,0.007,0.068,0.006,0.347,-0.907,1.48
2024-09-23 11:47:34.045,163186.889,0.209,0.788,-0.579,0.007,0.007,0.006,0.002,0.05,0.001,0.347,-0.907,1.48
2024-09-23 11:47:34.055,163186.899,0.21,0.788,-0.579,0.013,-0.009,-0.005,-0.008,0.043,0.007,0.347,-0.907,1.48
2024-09-23 11:47:34.065,163186.909,0.21,0.788,-0.579,0.023,-0.003,0.014,0.033,0.053,-0.026,0.348,-0.907,1.48
2024-09-23 11:47:34.076,163186.919,0.21,0.787,-0.58,0.03,-0.001,0.016,0.065,0.029,-0.033,0.347,-0.907,1.479
2024-09-23 11:47:34.085,163186.929,0.209,0.787,-0.58,0.02,0.02,-0.005,-0.026,0.013,-0.025,0.347,-0.906,1.478
2024-09-23 11:47:34.095,163186.939,0.209,0.788,-0.579,0.02,-0.017,-0.003,-0.146,0.008,-0.026,0.347,-0.907,1.478
2024-09-23 11:47:34.105,163186.949,0.209,0.789,-0.577,0.015,-0.024,-0.006,-0.314,0.026,-0.025,0.348,-0.909,1.479
2024-09-23 11:47:34.115,163186.958,0.209,0.791,-0.575,0.004,-0.05,-0.012,-0.379,0.034,-0.032,0.349,-0.913,1.48
2024-09-23 11:47:34.126,163186.968,0.209,0.794,-0.571,-0.007,-0.074,-0.031,-0.533,0.062,-0.027,0.351,-0.917,1.482
2024-09-23 11:47:34.136,163186.978,0.21,0.798,-0.565,-0.008,-0.082,-0.034,-0.957,0.133,-0.005,0.355,-0.924,1.486
2024-09-23 11:47:34.145,163186.988,0.21,0.804,-0.556,0.005,-0.066,-0.013,-1.25,0.186,-0.085,0.362,-0.935,1.492
2024-09-23 11:47:34.155,163186.998,0.211,0.812,-0.545,0.017,-0.065,-0.045,-1.388,0.227,-0.1,0.369,-0.947,1.499
2024-09-23 11:47:34.166,163187.008,0.211,0.82,-0.532,0.0,-0.115,-0.091,-1.49,0.278,-0.033,0.378,-0.961,1.507
2024-09-23 11:47:34.176,163187.018,0.213,0.827,-0.52,-0.007,-0.121,-0.089,-1.359,0.273,-0.005,0.388,-0.974,1.516
2024-09-23 11:47:34.186,163187.028,0.214,0.834,-0.509,0.006,-0.036,-0.091,-1.068,0.188,-0.016,0.398,-0.986,1.524
2024-09-23 11:47:34.196,163187.038,0.214,0.838,-0.501,0.02,0.02,-0.096,-0.791,0.1,-0.024,0.404,-0.994,1.53
2024-09-23 11:47:34.205,163187.048,0.215,0.842,-0.495,0.035,0.06,-0.062,-0.687,0.054,0.005,0.409,-1.001,1.536
2024-09-23 11:47:34.216,163187.058,0.215,0.845,-0.489,0.041,0.091,-0.021,-0.725,0.063,0.044,0.415,-1.007,1.541
2024-09-23 11:47:34.225,163187.068,0.216,0.849,-0.482,0.038,0.086,0.01,-0.811,0.112,0.085,0.421,-1.014,1.548
2024-09-23 11:47:34.236,163187.078,0.218,0.853,-0.475,0.026,0.064,0.022,-0.923,0.2,0.107,0.43,-1.021,1.557
2024-09-23 11:47:34.246,163187.088,0.22,0.857,-0.466,0.009,0.048,0.005,-0.977,0.263,0.105,0.441,-1.03,1.566
2024-09-23 11:47:34.256,163187.098,0.222,0.861,-0.457,0.004,0.059,-0.026,-0.926,0.288,0.059,0.452,-1.038,1.576
2024-09-23 11:47:34.265,163187.108,0.223,0.865,-0.449,0.014,0.085,-0.067,-0.758,0.25,-0.014,0.461,-1.045,1.584
2024-09-23 11:47:34.275,163187.118,0.224,0.868,-0.443,0.038,0.104,-0.095,-0.548,0.165,-0.041,0.468,-1.051,1.589
2024-09-23 11:47:34.285,163187.128,0.224,0.87,-0.438,0.059,0.083,-0.111,-0.481,0.11,0.028,0.473,-1.056,1.593
2024-09-23 11:47:34.295,163187.138,0.225,0.872,-0.434,0.071,0.036,-0.087,-0.405,0.113,0.121,0.479,-1.06,1.599
2024-09-23 11:47:34.305,163187.148,0.227,0.873,-0.431,0.072,0.011,-0.005,-0.335,0.167,0.189,0.486,-1.062,1.605
2024-09-23 11:47:34.315,163187.158,0.23,0.874,-0.427,0.05,-0.011,0.06,-0.382,0.208,0.252,0.494,-1.064,1.613
2024-09-23 11:47:34.325,163187.168,0.234,0.875,-0.423,0.011,-0.027,0.04,-0.441,0.205,0.316,0.504,-1.066,1.622
2024-09-23 11:47:34.335,163187.178,0.238,0.877,-0.419,-0.012,0.01,0.01,-0.473,0.318,0.366,0.516,-1.069,1.633
2024-09-23 11:47:34.345,163187.188,0.242,0.877,-0.414,-0.012,0.07,0.011,-0.236,0.38,0.374,0.529,-1.07,1.643
2024-09-23 11:47:34.355,163187.198,0.247,0.877,-0.412,-0.012,0.132,0.013,-0.091,0.332,0.301,0.539,-1.07,1.651
2024-09-23 11:47:34.365,163187.208,0.251,0.877,-0.411,-0.009,0.162,-0.055,-0.059,0.302,0.292,0.548,-1.069,1.657
2024-09-23 11:47:34.376,163187.218,0.255,0.876,-0.409,0.027,0.099,-0.063,-0.081,0.316,0.352,0.556,-1.068,1.663
2024-09-23 11:47:34.386,163187.228,0.259,0.875,-0.408,0.04,0.032,-0.06,-0.114,0.352,0.421,0.566,-1.066,1.671
2024-09-23 11:47:34.394,163187.238,0.265,0.875,-0.406,0.027,-0.019,-0.067,-0.104,0.371,0.483,0.578,-1.065,1.68
2024-09-23 11:47:34.404,163187.248,0.271,0.874,-0.404,0.004,-0.03,-0.047,0.014,0.365,0.474,0.59,-1.063,1.689
2024-09-23 11:47:34.415,163187.258,0.276,0.872,-0.405,-0.017,0.007,-0.037,0.269,0.316,0.366,0.598,-1.059,1.695
2024-09-23 11:47:34.425,163187.268,0.28,0.87,-0.407,-0.028,0.031,-0.039,0.442,0.26,0.287,0.602,-1.054,1.696
2024-09-23 11:47:34.435,163187.278,0.283,0.867,-0.41,-0.027,-0.006,-0.026,0.498,0.257,0.326,0.604,-1.049,1.695
2024-09-23 11:47:34.445,163187.288,0.288,0.864,-0.414,-0.012,-0.05,-0.004,0.4,0.278,0.411,0.607,-1.043,1.696
2024-09-23 11:47:34.455,163187.298,0.292,0.861,-0.416,0.001,-0.053,-0.003,0.353,0.295,0.417,0.613,-1.037,1.699
2024-09-23 11:47:34.465,163187.308,0.297,0.858,-0.419,0.005,0.001,0.004,0.535,0.212,0.342,0.616,-1.032,1.7
2024-09-23 11:47:34.475,163187.318,0.3,0.855,-0.424,0.008,0.05,0.006,0.625,0.111,0.228,0.616,-1.025,1.698
2024-09-23 11:47:34.485,163187.328,0.302,0.852,-0.428,0.008,0.055,-0.016,0.46,0.059,0.153,0.614,-1.02,1.695
2024-09-23 11:47:34.495,163187.338,0.303,0.85,-0.431,0.024,0.054,0.052,0.287,0.112,0.052,0.613,-1.016,1.692
2024-09-23 11:47:34.505,163187.348,0.304,0.849,-0.433,0.042,0.013,0.1,0.236,0.126,0.057,0.612,-1.014,1.69
2024-09-23 11:47:34.515,163187.358,0.305,0.847,-0.435,0.033,-0.114,0.032,0.396,0.07,0.215,0.612,-1.011,1.689
2024-09-23 11:47:34.525,163187.368,0.308,0.844,-0.44,0.015,-0.211,-0.019,0.848,0.051,0.34,0.611,-1.004,1.687
2024-09-23 11:47:34.535,163187.378,0.311,0.838,-0.448,0.0,-0.17,-0.005,1.117,0.092,0.372,0.607,-0.994,1.682
2024-09-23 11:47:34.545,163187.388,0.314,0.831,-0.458,-0.026,-0.062,0.033,1.363,0.058,0.256,0.602,-0.982,1.674
2024-09-23 11:47:34.555,163187.398,0.316,0.824,-0.47,-0.027,0.092,0.067,1.569,-0.032,0.165,0.592,-0.968,1.662
2024-09-23 11:47:34.565,163187.408,0.317,0.816,-0.483,-0.003,0.131,0.064,1.543,-0.081,0.212,0.581,-0.954,1.65
2024-09-23 11:47:34.575,163187.418,0.319,0.808,-0.495,0.029,0.026,0.041,1.263,-0.091,0.296,0.572,-0.941,1.64
2024-09-23 11:47:34.584,163187.428,0.321,0.802,-0.503,0.051,-0.051,0.048,0.722,-0.092,0.296,0.568,-0.931,1.635
2024-09-23 11:47:34.594,163187.438,0.323,0.799,-0.507,0.043,-0.079,0.07,0.174,-0.039,0.269,0.567,-0.926,1.635
2024-09-23 11:47:34.604,163187.448,0.325,0.798,-0.507,0.029,-0.094,0.106,-0.23,0.013,0.314,0.57,-0.924,1.639
2024-09-23 11:47:34.615,163187.458,0.328,0.799,-0.504,0.016,-0.117,0.121,-0.348,0.003,0.321,0.576,-0.925,1.647
2024-09-23 11:47:34.624,163187.468,0.33,0.799,-0.502,0.008,-0.102,0.071,-0.213,-0.029,0.323,0.582,-0.926,1.654
2024-09-23 11:47:34.635,163187.478,0.333,0.799,-0.502,0.002,-0.05,0.033,0.061,-0.054,0.316,0.585,-0.925,1.659
2024-09-23 11:47:34.644,163187.488,0.334,0.797,-0.504,-0.001,0.017,0.048,0.35,-0.141,0.258,0.586,-0.922,1.661
2024-09-23 11:47:34.654,163187.498,0.335,0.794,-0.508,0.004,0.083,0.032,0.413,-0.246,0.132,0.583,-0.917,1.66
2024-09-23 11:47:34.664,163187.508,0.335,0.792,-0.511,0.008,0.062,0.013,0.211,-0.279,0.189,0.58,-0.914,1.659
2024-09-23 11:47:34.674,163187.518,0.335,0.791,-0.512,0.013,-0.061,0.028,-0.152,-0.263,0.333,0.58,-0.912,1.662
2024-09-23 11:47:34.684,163187.528,0.337,0.791,-0.511,0.012,-0.174,0.024,-0.34,-0.219,0.305,0.583,-0.912,1.669
2024-09-23 11:47:34.694,163187.537,0.338,0.792,-0.509,-0.007,-0.162,0.047,-0.26,-0.206,0.151,0.585,-0.914,1.675
2024-09-23 11:47:34.704,163187.547,0.337,0.792,-0.509,-0.037,-0.079,0.093,0.025,-0.293,0.101,0.585,-0.914,1.678
2024-09-23 11:47:34.714,163187.557,0.336,0.791,-0.511,-0.049,-0.009,0.058,0.119,-0.377,0.142,0.582,-0.913,1.679
2024-09-23 11:47:34.724,163187.567,0.336,0.79,-0.513,-0.015,0.0,-0.016,0.108,-0.393,0.158,0.579,-0.911,1.68
2024-09-23 11:47:34.734,163187.577,0.335,0.789,-0.515,0.027,0.006,-0.014,0.095,-0.389,0.093,0.576,-0.909,1.681
2024-09-23 11:47:34.744,163187.587,0.333,0.788,-0.517,0.018,-0.005,-0.012,0.115,-0.355,0.026,0.572,-0.908,1.681
2024-09-23 11:47:34.754,163187.597,0.332,0.788,-0.519,-0.02,-0.053,-0.007,0.024,-0.349,0.026,0.568,-0.907,1.68
2024-09-23 11:47:34.765,163187.607,0.33,0.788,-0.52,-0.038,-0.107,0.013,-0.197,-0.42,0.024,0.565,-0.908,1.681
2024-09-23 11:47:34.773,163187.617,0.328,0.79,-0.518,-0.023,-0.12,0.004,-0.437,-0.401,0.029,0.564,-0.91,1.684
2024-09-23 11:47:34.783,163187.627,0.326,0.792,-0.516,0.004,-0.127,0.032,-0.418,-0.339,-0.001,0.563,-0.914,1.688
2024-09-23 11:47:34.794,163187.637,0.324,0.794,-0.515,0.009,-0.11,0.083,-0.227,-0.33,-0.036,0.562,-0.917,1.691
2024-09-23 11:47:34.804,163187.647,0.322,0.795,-0.515,-0.015,-0.069,0.037,0.025,-0.4,-0.105,0.558,-0.918,1.691
2024-09-23 11:47:34.814,163187.657,0.319,0.794,-0.517,-0.028,0.002,-0.038,0.089,-0.424,-0.127,0.552,-0.918,1.689
2024-09-23 11:47:34.824,163187.667,0.316,0.795,-0.518,-0.028,0.034,-0.077,-0.078,-0.399,-0.119,0.547,-0.919,1.687
2024-09-23 11:47:34.834,163187.677,0.313,0.796,-0.518,-0.023,0.02,-0.082,-0.222,-0.385,-0.132,0.543,-0.921,1.686
2024-09-23 11:47:34.844,163187.687,0.31,0.798,-0.517,-0.026,0.002,-0.065,-0.379,-0.387,-0.128,0.539,-0.924,1.687
2024-09-23 11:47:34.854,163187.697,0.306,0.801,-0.515,-0.031,-0.053,-0.045,-0.605,-0.399,-0.125,0.537,-0.929,1.689
2024-09-23 11:47:34.864,163187.707,0.303,0.805,-0.51,-0.029,-0.083,-0.015,-0.823,-0.392,-0.126,0.537,-0.936,1.694
2024-09-23 11:47:34.874,163187.717,0.3,0.81,-0.504,-0.022,-0.09,0.009,-0.95,-0.388,-0.131,0.538,-0.944,1.7
2024-09-23 11:47:34.884,163187.727,0.297,0.815,-0.497,-0.017,-0.108,0.026,-0.961,-0.399,-0.126,0.539,-0.953,1.706
2024-09-23 11:47:34.894,163187.737,0.294,0.82,-0.491,-0.015,-0.106,0.04,-0.898,-0.403,-0.112,0.54,-0.961,1.713
2024-09-23 11:47:34.904,163187.747,0.292,0.824,-0.485,-0.016,-0.066,0.047,-0.722,-0.419,-0.124,0.541,-0.969,1.718
2024-09-23 11:47:34.914,163187.757,0.288,0.828,-0.482,-0.014,-0.011,0.044,-0.515,-0.461,-0.159,0.539,-0.975,1.722
2024-09-23 11:47:34.924,163187.767,0.284,0.83,-0.479,-0.017,0.024,0.001,-0.401,-0.505,-0.221,0.536,-0.98,1.723
2024-09-23 11:47:34.934,163187.777,0.28,0.833,-0.478,-0.023,0.039,-0.043,-0.363,-0.514,-0.248,0.53,-0.984,1.723
2024-09-23 11:47:34.944,163187.787,0.276,0.835,-0.476,-0.015,0.016,-0.03,-0.465,-0.509,-0.204,0.525,-0.989,1.723
2024-09-23 11:47:34.954,163187.797,0.271,0.839,-0.472,0.004,-0.038,-0.009,-0.619,-0.512,-0.231,0.521,-0.995,1.725
2024-09-23 11:47:34.964,163187.807,0.267,0.842,-0.468,0.031,-0.053,0.006,-0.712,-0.583,-0.253,0.518,-1.002,1.727
2024-09-23 11:47:34.974,163187.817,0.262,0.847,-0.463,0.046,-0.049,0.016,-0.856,-0.542,-0.249,0.515,-1.01,1.73
2024-09-23 11:47:34.984,163187.827,0.257,0.851,-0.458,0.049,-0.051,0.039,-0.621,-0.577,-0.269,0.512,-1.018,1.733
2024-09-23 11:47:34.994,163187.837,0.252,0.853,-0.456,0.05,-0.033,0.094,-0.187,-0.683,-0.293,0.505,-1.022,1.732
2024-09-23 11:47:35.004,163187.847,0.246,0.854,-0.458,0.027,-0.008,0.042,0.076,-0.724,-0.367,0.493,-1.024,1.727
2024-09-23 11:47:35.015,163187.857,0.24,0.855,-0.46,0.012,0.046,0.028,0.055,-0.7,-0.4,0.48,-1.025,1.719
2024-09-23 11:47:35.024,163187.867,0.233,0.856,-0.462,-0.008,0.074,0.019,0.093,-0.694,-0.367,0.467,-1.027,1.712
2024-09-23 11:47:35.034,163187.877,0.227,0.856,-0.464,-0.011,0.032,-0.023,-0.026,-0.703,-0.284,0.455,-1.028,1.706
2024-09-23 11:47:35.044,163187.887,0.222,0.857,-0.465,0.018,-0.044,-0.048,-0.1,-0.699,-0.266,0.445,-1.03,1.702
2024-09-23 11:47:35.054,163187.897,0.216,0.858,-0.466,0.036,-0.015,-0.04,0.015,-0.708,-0.288,0.434,-1.031,1.698
2024-09-23 11:47:35.064,163187.907,0.21,0.858,-0.468,0.034,0.025,-0.0,0.095,-0.705,-0.276,0.422,-1.032,1.692
2024-09-23 11:47:35.074,163187.917,0.205,0.858,-0.471,0.019,-0.006,0.008,0.146,-0.697,-0.231,0.41,-1.032,1.687
2024-09-23 11:47:35.084,163187.927,0.2,0.858,-0.474,0.011,0.026,0.002,0.269,-0.692,-0.199,0.399,-1.031,1.682
2024-09-23 11:47:35.094,163187.937,0.195,0.856,-0.478,0.002,0.074,-0.007,0.428,-0.695,-0.187,0.387,-1.028,1.676
2024-09-23 11:47:35.104,163187.947,0.19,0.854,-0.484,-0.013,0.089,-0.03,0.557,-0.698,-0.18,0.374,-1.024,1.669
2024-09-23 11:47:35.113,163187.957,0.185,0.852,-0.49,-0.022,0.091,-0.028,0.603,-0.683,-0.167,0.361,-1.02,1.662
2024-09-23 11:47:35.123,163187.967,0.18,0.849,-0.496,-0.01,0.095,0.008,0.635,-0.636,-0.142,0.348,-1.014,1.655
2024-09-23 11:47:35.134,163187.977,0.176,0.846,-0.503,0.006,0.086,0.025,0.751,-0.632,-0.119,0.336,-1.008,1.648
2024-09-23 11:47:35.144,163187.987,0.172,0.842,-0.511,0.016,0.065,-0.014,0.794,-0.663,-0.127,0.324,-1.001,1.641
2024-09-23 11:47:35.154,163187.997,0.167,0.838,-0.519,0.019,0.04,-0.067,0.798,-0.662,-0.129,0.312,-0.994,1.634
2024-09-23 11:47:35.164,163188.007,0.163,0.834,-0.527,0.02,0.014,-0.059,0.761,-0.622,-0.108,0.3,-0.987,1.628
2024-09-23 11:47:35.174,163188.017,0.159,0.831,-0.533,0.019,-0.03,-0.023,0.667,-0.599,-0.115,0.289,-0.981,1.622
2024-09-23 11:47:35.184,163188.027,0.154,0.828,-0.539,0.012,-0.064,-0.026,0.578,-0.576,-0.149,0.279,-0.975,1.617
2024-09-23 11:47:35.194,163188.037,0.15,0.825,-0.545,0.004,-0.066,-0.019,0.507,-0.56,-0.152,0.269,-0.97,1.612
2024-09-23 11:47:35.204,163188.047,0.146,0.823,-0.549,0.001,-0.058,0.006,0.396,-0.56,-0.176,0.259,-0.966,1.607
2024-09-23 11:47:35.214,163188.057,0.141,0.821,-0.553,-0.002,-0.038,-0.003,0.33,-0.543,-0.206,0.25,-0.963,1.602
2024-09-23 11:47:35.224,163188.067,0.137,0.82,-0.556,0.001,-0.035,0.024,0.315,-0.503,-0.178,0.241,-0.961,1.597
2024-09-23 11:47:35.234,163188.077,0.133,0.818,-0.56,0.001,-0.068,0.051,0.336,-0.452,-0.124,0.233,-0.958,1.594
2024-09-23 11:47:35.244,163188.087,0.13,0.816,-0.563,-0.006,-0.074,0.017,0.367,-0.383,0.028,0.227,-0.955,1.591
2024-09-23 11:47:35.254,163188.097,0.129,0.814,-0.567,-0.018,-0.014,-0.009,0.418,-0.351,0.115,0.223,-0.951,1.591
2024-09-23 11:47:35.264,163188.107,0.127,0.811,-0.571,-0.037,0.12,-0.064,0.625,-0.335,-0.011,0.219,-0.946,1.59
2024-09-23 11:47:35.274,163188.117,0.125,0.807,-0.577,-0.052,0.211,-0.061,0.666,-0.325,-0.146,0.213,-0.939,1.586
2024-09-23 11:47:35.284,163188.126,0.122,0.804,-0.582,-0.061,0.107,-0.016,0.458,-0.309,-0.105,0.206,-0.934,1.582
2024-09-23 11:47:35.293,163188.136,0.12,0.802,-0.585,-0.048,-0.033,0.041,0.16,-0.268,0.002,0.202,-0.931,1.58
2024-09-23 11:47:35.304,163188.146,0.118,0.802,-0.586,-0.019,-0.103,0.101,-0.031,-0.232,0.038,0.199,-0.93,1.581
2024-09-23 11:47:35.314,163188.156,0.117,0.802,-0.585,-0.02,-0.099,0.096,-0.105,-0.202,0.001,0.198,-0.931,1.581
2024-09-23 11:47:35.324,163188.166,0.116,0.803,-0.585,-0.044,-0.06,0.084,-0.07,-0.149,-0.012,0.196,-0.932,1.581
2024-09-23 11:47:35.335,163188.176,0.115,0.803,-0.585,-0.056,-0.032,0.1,0.029,-0.101,0.007,0.195,-0.932,1.581
2024-09-23 11:47:35.343,163188.186,0.115,0.802,-0.586,-0.054,-0.037,0.087,0.149,-0.09,0.003,0.194,-0.931,1.581
2024-09-23 11:47:35.353,163188.196,0.114,0.801,-0.587,-0.043,-0.045,0.031,0.266,-0.101,-0.025,0.192,-0.929,1.58
2024-09-23 11:47:35.363,163188.206,0.113,0.799,-0.59,-0.034,-0.025,0.001,0.363,-0.102,-0.033,0.19,-0.926,1.579
2024-09-23 11:47:35.373,163188.216,0.113,0.797,-0.593,-0.037,0.004,0.001,0.365,-0.105,-0.009,0.188,-0.923,1.577
2024-09-23 11:47:35.383,163188.226,0.112,0.795,-0.596,-0.041,-0.001,0.003,0.251,-0.072,0.036,0.186,-0.92,1.577
2024-09-23 11:47:35.393,163188.236,0.112,0.794,-0.597,-0.04,-0.024,0.022,0.132,0.002,0.039,0.186,-0.918,1.577
2024-09-23 11:47:35.404,163188.246,0.113,0.794,-0.598,-0.04,-0.027,0.057,0.076,0.06,0.006,0.186,-0.917,1.577
2024-09-23 11:47:35.413,163188.256,0.113,0.793,-0.598,-0.05,-0.017,0.072,-0.036,0.065,-0.025,0.187,-0.916,1.577
2024-09-23 11:47:35.423,163188.266,0.113,0.794,-0.597,-0.05,-0.049,0.05,-0.089,0.044,-0.012,0.187,-0.917,1.576
2024-09-23 11:47:35.434,163188.276,0.113,0.794,-0.597,-0.03,-0.088,0.039,0.005,0.065,0.002,0.188,-0.918,1.577
2024-09-23 11:47:35.443,163188.286,0.114,0.794,-0.598,-0.01,-0.069,0.031,0.227,0.044,-0.042,0.188,-0.917,1.576
2024-09-23 11:47:35.453,163188.296,0.113,0.792,-0.601,-0.012,0.039,-0.018,0.484,0.017,-0.077,0.186,-0.913,1.574
2024-09-23 11:47:35.463,163188.306,0.113,0.789,-0.605,-0.029,0.156,-0.06,0.508,0.013,-0.074,0.184,-0.908,1.571
2024-09-23 11:47:35.473,163188.316,0.112,0.786,-0.608,-0.029,0.139,-0.036,0.358,0.042,-0.094,0.183,-0.904,1.568
2024-09-23 11:47:35.483,163188.326,0.112,0.784,-0.61,-0.012,0.029,0.007,0.258,0.073,-0.142,0.181,-0.902,1.566
2024-09-23 11:47:35.493,163188.336,0.111,0.783,-0.612,-0.007,-0.067,0.016,0.225,0.091,-0.157,0.179,-0.899,1.563
2024-09-23 11:47:35.503,163188.346,0.111,0.779,-0.617,-0.016,-0.087,-0.006,0.774,-0.012,-0.397,0.177,-0.893,1.559
2024-09-23 11:47:35.513,163188.356,0.106,0.776,-0.622,-0.009,-0.033,-0.055,0.445,-0.17,-0.522,0.169,-0.889,1.549
2024-09-23 11:47:35.523,163188.366,0.101,0.774,-0.625,0.062,-0.008,-0.219,0.327,-0.399,-0.269,0.16,-0.886,1.542
2024-09-23 11:47:35.533,163188.376,0.097,0.773,-0.627,0.096,0.038,-0.106,0.284,-0.232,-0.206,0.154,-0.883,1.538
2024-09-23 11:47:35.542,163188.386,0.094,0.771,-0.629,0.054,0.188,-0.042,0.146,0.012,-0.334,0.149,-0.881,1.533
2024-09-23 11:47:35.552,163188.396,0.092,0.772,-0.629,-0.049,0.082,-0.034,-0.046,0.141,-0.392,0.145,-0.881,1.527
2024-09-23 11:47:35.562,163188.406,0.09,0.773,-0.628,-0.115,-0.097,-0.05,-0.208,0.092,-0.354,0.142,-0.883,1.522
2024-09-23 11:47:35.573,163188.416,0.088,0.775,-0.626,-0.075,-0.16,-0.043,-0.308,-0.019,-0.324,0.139,-0.886,1.517
2024-09-23 11:47:35.583,163188.426,0.085,0.777,-0.624,0.001,-0.111,-0.032,-0.31,-0.074,-0.305,0.135,-0.89,1.513
2024-09-23 11:47:35.593,163188.436,0.082,0.779,-0.622,0.036,-0.014,-0.033,-0.259,-0.043,-0.275,0.131,-0.893,1.509
2024-09-23 11:47:35.603,163188.446,0.08,0.781,-0.62,0.02,0.061,-0.029,-0.261,-0.009,-0.241,0.128,-0.896,1.505
2024-09-23 11:47:35.613,163188.456,0.078,0.783,-0.618,-0.007,0.074,-0.023,-0.277,-0.016,-0.198,0.126,-0.899,1.502
2024-09-23 11:47:35.623,163188.466,0.077,0.784,-0.616,-0.016,0.03,-0.021,-0.241,-0.055,-0.157,0.124,-0.902,1.5
2024-09-23 11:47:35.633,163188.476,0.075,0.786,-0.614,-0.004,-0.01,-0.012,-0.171,-0.086,-0.138,0.122,-0.904,1.498
2024-09-23 11:47:35.643,163188.486,0.074,0.787,-0.613,0.012,0.0,0.0,-0.094,-0.083,-0.107,0.119,-0.905,1.496
2024-09-23 11:47:35.653,163188.496,0.072,0.787,-0.613,0.011,0.044,-0.001,0.011,-0.058,-0.055,0.118,-0.906,1.495
2024-09-23 11:47:35.663,163188.506,0.072,0.787,-0.613,-0.0,0.079,-0.007,0.083,-0.021,-0.023,0.117,-0.905,1.494
2024-09-23 11:47:35.672,163188.516,0.072,0.786,-0.614,-0.011,0.061,0.0,0.12,-0.012,0.006,0.116,-0.904,1.494
2024-09-23 11:47:35.682,163188.526,0.072,0.785,-0.615,-0.015,0.005,0.008,0.192,-0.017,0.012,0.116,-0.903,1.494
2024-09-23 11:47:35.693,163188.536,0.072,0.784,-0.617,-0.011,-0.024,0.009,0.227,-0.021,0.003,0.116,-0.901,1.494
2024-09-23 11:47:35.702,163188.546,0.072,0.782,-0.619,-0.0,-0.017,0.016,0.215,-0.028,0.01,0.115,-0.898,1.493
2024-09-23 11:47:35.712,163188.556,0.072,0.781,-0.62,0.0,0.004,0.009,0.181,-0.013,0.009,0.115,-0.896,1.493
2024-09-23 11:47:35.722,163188.566,0.072,0.78,-0.621,-0.0,0.007,-0.006,0.125,0.002,0.004,0.115,-0.895,1.493
2024-09-23 11:47:35.733,163188.576,0.072,0.78,-0.622,-0.005,-0.016,-0.008,0.056,0.002,-0.001,0.115,-0.894,1.493
2024-09-23 11:47:35.743,163188.586,0.071,0.779,-0.622,-0.007,-0.035,-0.012,0.004,0.005,-0.027,0.114,-0.894,1.493
2024-09-23 11:47:35.753,163188.596,0.071,0.78,-0.622,-0.003,-0.038,-0.014,-0.006,-0.006,-0.036,0.114,-0.894,1.492
2024-09-23 11:47:35.763,163188.606,0.071,0.78,-0.622,-0.001,-0.037,-0.014,0.022,-0.018,-0.055,0.113,-0.894,1.491
2024-09-23 11:47:35.773,163188.616,0.07,0.779,-0.623,0.003,-0.007,-0.013,0.08,-0.03,-0.068,0.112,-0.894,1.49
2024-09-23 11:47:35.784,163188.626,0.069,0.779,-0.624,0.009,0.029,-0.005,0.145,-0.04,-0.082,0.111,-0.892,1.489
2024-09-23 11:47:35.793,163188.636,0.068,0.778,-0.625,0.008,0.023,0.004,0.169,-0.045,-0.099,0.109,-0.891,1.487
2024-09-23 11:47:35.803,163188.646,0.067,0.777,-0.626,0.009,-0.005,0.015,0.143,-0.067,-0.104,0.107,-0.89,1.485
2024-09-23 11:47:35.813,163188.656,0.066,0.776,-0.627,0.007,-0.018,0.008,0.131,-0.068,-0.1,0.105,-0.888,1.483
2024-09-23 11:47:35.823,163188.666,0.065,0.775,-0.628,0.003,-0.019,-0.007,0.152,-0.069,-0.094,0.103,-0.887,1.482
2024-09-23 11:47:35.833,163188.676,0.064,0.774,-0.63,0.0,-0.005,-0.01,0.187,-0.062,-0.105,0.101,-0.885,1.48
2024-09-23 11:47:35.843,163188.686,0.062,0.773,-0.631,0.0,0.007,-0.003,0.174,-0.066,-0.109,0.099,-0.884,1.478
2024-09-23 11:47:35.853,163188.696,0.061,0.772,-0.633,0.003,-0.003,0.004,0.128,-0.061,-0.095,0.097,-0.882,1.476
2024-09-23 11:47:35.862,163188.705,0.06,0.772,-0.633,-0.001,-0.015,-0.002,0.088,-0.044,-0.068,0.095,-0.881,1.475
2024-09-23 11:47:35.873,163188.715,0.06,0.771,-0.634,-0.007,-0.024,-0.006,0.071,-0.017,-0.046,0.094,-0.881,1.474
2024-09-23 11:47:35.882,163188.725,0.06,0.771,-0.634,-0.014,-0.037,-0.005,0.063,-0.005,-0.035,0.094,-0.88,1.473
2024-09-23 11:47:35.893,163188.735,0.059,0.77,-0.635,-0.015,-0.032,-0.003,0.095,-0.013,-0.037,0.093,-0.879,1.473
2024-09-23 11:47:35.902,163188.745,0.059,0.77,-0.636,-0.008,-0.01,-0.008,0.129,-0.014,-0.056,0.092,-0.878,1.472
2024-09-23 11:47:35.913,163188.755,0.058,0.769,-0.637,0.0,0.012,-0.004,0.066,-0.035,-0.067,0.091,-0.877,1.471
2024-09-23 11:47:35.922,163188.765,0.058,0.769,-0.637,0.006,0.022,-0.002,0.036,-0.052,-0.066,0.09,-0.877,1.47
2024-09-23 11:47:35.933,163188.775,0.057,0.768,-0.637,0.003,0.004,-0.015,0.062,-0.051,-0.075,0.089,-0.876,1.469
2024-09-23 11:47:35.942,163188.785,0.056,0.768,-0.638,0.001,-0.026,-0.012,0.108,-0.057,-0.073,0.087,-0.876,1.467
2024-09-23 11:47:35.952,163188.795,0.055,0.767,-0.639,0.002,-0.019,-0.003,0.174,-0.066,-0.061,0.086,-0.874,1.466
2024-09-23 11:47:35.962,163188.805,0.054,0.766,-0.641,0.003,0.024,-0.001,0.21,-0.066,-0.048,0.084,-0.872,1.465
2024-09-23 11:47:35.972,163188.815,0.053,0.764,-0.643,0.002,0.049,0.003,0.248,-0.062,-0.037,0.083,-0.87,1.464
2024-09-23 11:47:35.982,163188.825,0.053,0.763,-0.645,-0.003,0.032,0.004,0.293,-0.055,-0.034,0.081,-0.867,1.463
2024-09-23 11:47:35.993,163188.835,0.052,0.761,-0.647,-0.005,0.004,0.004,0.307,-0.055,-0.034,0.08,-0.864,1.462
2024-09-23 11:47:36.003,163188.845,0.051,0.759,-0.649,-0.002,-0.001,0.009,0.303,-0.063,-0.037,0.079,-0.861,1.461
2024-09-23 11:47:36.012,163188.855,0.051,0.757,-0.652,-0.001,0.004,0.004,0.276,-0.064,-0.038,0.078,-0.859,1.461
2024-09-23 11:47:36.022,163188.865,0.05,0.755,-0.654,0.001,0.004,-0.002,0.282,-0.069,-0.036,0.077,-0.856,1.46
2024-09-23 11:47:36.032,163188.875,0.049,0.753,-0.656,-0.0,-0.005,-0.004,0.26,-0.066,-0.044,0.075,-0.853,1.459
2024-09-23 11:47:36.043,163188.885,0.049,0.752,-0.658,-0.0,-0.015,0.002,0.207,-0.067,-0.037,0.074,-0.851,1.458
2024-09-23 11:47:36.052,163188.895,0.048,0.751,-0.659,-0.001,-0.015,0.001,0.14,-0.054,-0.028,0.073,-0.849,1.457
2024-09-23 11:47:36.062,163188.905,0.048,0.75,-0.66,-0.004,-0.011,-0.01,0.099,-0.049,-0.023,0.072,-0.848,1.457
2024-09-23 11:47:36.072,163188.915,0.047,0.75,-0.66,-0.005,-0.02,-0.014,0.066,-0.044,-0.03,0.071,-0.847,1.456
2024-09-23 11:47:36.082,163188.925,0.047,0.749,-0.661,-0.004,-0.029,-0.01,0.041,-0.048,-0.034,0.07,-0.847,1.456
2024-09-23 11:47:36.092,163188.935,0.046,0.749,-0.661,-0.001,-0.026,-0.006,0.028,-0.044,-0.038,0.069,-0.847,1.455
2024-09-23 11:47:36.102,163188.945,0.045,0.749,-0.661,-0.001,-0.019,-0.006,0.022,-0.046,-0.028,0.069,-0.846,1.455
2024-09-23 11:47:36.112,163188.955,0.045,0.749,-0.661,-0.001,-0.013,-0.006,0.044,-0.039,-0.03,0.068,-0.846,1.454
2024-09-23 11:47:36.122,163188.965,0.044,0.748,-0.662,-0.002,-0.012,-0.006,0.065,-0.043,-0.034,0.067,-0.846,1.454
2024-09-23 11:47:36.132,163188.975,0.044,0.748,-0.662,-0.002,-0.01,-0.003,0.111,-0.048,-0.037,0.066,-0.845,1.453
2024-09-23 11:47:36.142,163188.985,0.043,0.747,-0.664,-0.001,0.002,-0.002,0.177,-0.048,-0.04,0.065,-0.843,1.453
2024-09-23 11:47:36.152,163188.995,0.043,0.746,-0.665,-0.0,0.011,0.002,0.233,-0.052,-0.04,0.064,-0.841,1.452
2024-09-23 11:47:36.162,163189.005,0.042,0.744,-0.667,-0.0,0.016,0.007,0.281,-0.051,-0.037,0.063,-0.839,1.451
2024-09-23 11:47:36.172,163189.015,0.041,0.742,-0.669,-0.001,0.022,0.004,0.332,-0.057,-0.038,0.062,-0.836,1.45
2024-09-23 11:47:36.182,163189.025,0.041,0.739,-0.672,0.0,0.023,0.001,0.391,-0.052,-0.033,0.061,-0.832,1.449
2024-09-23 11:47:36.192,163189.035,0.04,0.737,-0.675,-0.001,0.018,0.003,0.307,-0.046,-0.016,0.06,-0.829,1.448
2024-09-23 11:47:36.202,163189.045,0.04,0.735,-0.677,-0.001,0.02,0.007,0.226,-0.013,0.008,0.059,-0.826,1.448
2024-09-23 11:47:36.212,163189.055,0.04,0.734,-0.678,-0.007,0.023,-0.013,0.114,0.009,0.019,0.059,-0.824,1.448
2024-09-23 11:47:36.222,163189.065,0.04,0.733,-0.679,-0.016,-0.032,-0.012,0.115,0.014,0.018,0.06,-0.823,1.449
2024-09-23 11:47:36.232,163189.075,0.041,0.732,-0.68,-0.017,-0.096,-0.006,0.178,-0.002,0.002,0.06,-0.822,1.449
2024-09-23 11:47:36.242,163189.085,0.04,0.731,-0.681,-0.007,-0.06,0.004,0.251,-0.023,-0.004,0.059,-0.82,1.448
2024-09-23 11:47:36.252,163189.095,0.04,0.729,-0.683,0.004,0.025,0.006,0.277,-0.032,0.004,0.059,-0.817,1.448
2024-09-23 11:47:36.262,163189.105,0.04,0.727,-0.685,0.006,0.063,0.001,0.238,-0.02,0.012,0.059,-0.814,1.448
2024-09-23 11:47:36.272,163189.115,0.04,0.726,-0.686,0.001,0.031,-0.003,0.126,-0.013,0.015,0.058,-0.813,1.448
2024-09-23 11:47:36.282,163189.125,0.04,0.726,-0.687,-0.005,-0.03,-0.003,-0.03,0.004,0.02,0.059,-0.812,1.448
2024-09-23 11:47:36.292,163189.135,0.041,0.727,-0.686,-0.007,-0.074,-0.007,-0.194,0.013,0.026,0.059,-0.813,1.449
2024-09-23 11:47:36.302,163189.145,0.041,0.728,-0.684,-0.011,-0.096,-0.013,-0.256,0.063,0.046,0.06,-0.815,1.449
2024-09-23 11:47:36.311,163189.155,0.042,0.73,-0.682,-0.012,-0.101,-0.014,-0.391,0.062,0.051,0.061,-0.819,1.45
2024-09-23 11:47:36.321,163189.165,0.043,0.733,-0.679,-0.016,-0.088,-0.011,-0.314,0.089,0.068,0.063,-0.822,1.452
2024-09-23 11:47:36.331,163189.175,0.044,0.735,-0.677,-0.015,-0.054,-0.015,-0.29,0.111,0.048,0.065,-0.825,1.453
2024-09-23 11:47:36.340,163189.185,0.045,0.736,-0.675,-0.008,-0.02,-0.008,-0.212,0.057,0.053,0.066,-0.828,1.454
2024-09-23 11:47:36.351,163189.195,0.045,0.737,-0.674,-0.006,0.007,0.004,-0.155,0.061,-0.011,0.067,-0.829,1.454
2024-09-23 11:47:36.361,163189.205,0.045,0.738,-0.673,0.003,0.003,0.004,-0.101,0.016,-0.013,0.067,-0.831,1.454
2024-09-23 11:47:36.371,163189.215,0.045,0.739,-0.672,0.008,-0.014,0.012,-0.143,0.02,-0.035,0.067,-0.832,1.454
2024-09-23 11:47:36.382,163189.225,0.045,0.741,-0.671,0.007,-0.005,0.002,-0.281,0.022,-0.011,0.067,-0.834,1.454
2024-09-23 11:47:36.392,163189.235,0.046,0.743,-0.668,0.003,0.001,-0.017,-0.409,0.054,0.011,0.068,-0.837,1.454
2024-09-23 11:47:36.402,163189.245,0.046,0.746,-0.665,-0.01,-0.01,-0.045,-0.46,0.069,0.027,0.069,-0.842,1.455
2024-09-23 11:47:36.411,163189.255,0.047,0.749,-0.661,-0.017,-0.067,-0.036,-0.41,0.061,0.024,0.07,-0.846,1.456
2024-09-23 11:47:36.422,163189.265,0.047,0.751,-0.659,-0.015,-0.075,-0.018,-0.284,0.039,0.024,0.071,-0.849,1.456
2024-09-23 11:47:36.431,163189.275,0.047,0.752,-0.657,-0.004,-0.007,-0.007,-0.13,0.016,0.012,0.072,-0.851,1.457
2024-09-23 11:47:36.441,163189.284,0.048,0.753,-0.657,0.003,0.054,-0.003,0.01,-0.012,0.0,0.072,-0.852,1.457
2024-09-23 11:47:36.451,163189.294,0.047,0.752,-0.657,0.005,0.068,0.002,0.109,-0.042,-0.02,0.072,-0.851,1.457
2024-09-23 11:47:36.461,163189.304,0.047,0.751,-0.658,0.007,0.053,0.006,0.196,-0.06,-0.034,0.071,-0.85,1.456
2024-09-23 11:47:36.471,163189.314,0.046,0.75,-0.66,0.008,0.036,0.007,0.225,-0.066,-0.037,0.07,-0.848,1.455
2024-09-23 11:47:36.482,163189.324,0.045,0.748,-0.662,0.006,0.022,0.009,0.223,-0.062,-0.029,0.069,-0.845,1.455
2024-09-23 11:47:36.491,163189.334,0.045,0.747,-0.663,0.001,0.008,0.004,0.196,-0.057,-0.022,0.067,-0.843,1.454
2024-09-23 11:47:36.501,163189.344,0.044,0.746,-0.665,-0.004,-0.008,-0.005,0.167,-0.049,-0.013,0.067,-0.842,1.454
2024-09-23 11:47:36.512,163189.354,0.044,0.745,-0.666,-0.006,-0.018,-0.007,0.134,-0.042,-0.008,0.066,-0.84,1.453
2024-09-23 11:47:36.521,163189.364,0.044,0.744,-0.667,-0.006,-0.018,-0.006,0.115,-0.04,-0.006,0.065,-0.839,1.453
2024-09-23 11:47:36.532,163189.374,0.043,0.743,-0.668,-0.004,-0.017,-0.007,0.08,-0.037,-0.009,0.065,-0.838,1.453
2024-09-23 11:47:36.541,163189.384,0.043,0.743,-0.668,-0.003,-0.02,-0.006,0.064,-0.04,-0.012,0.064,-0.837,1.453
2024-09-23 11:47:36.552,163189.394,0.043,0.742,-0.669,-0.002,-0.018,-0.007,0.084,-0.038,-0.024,0.064,-0.836,1.452
2024-09-23 11:47:36.561,163189.404,0.042,0.742,-0.669,-0.001,-0.019,-0.007,0.079,-0.042,-0.022,0.063,-0.836,1.452
2024-09-23 11:47:36.571,163189.414,0.042,0.741,-0.67,-0.001,-0.014,-0.002,0.081,-0.042,-0.017,0.062,-0.835,1.452
2024-09-23 11:47:36.581,163189.424,0.041,0.741,-0.671,-0.0,0.005,-0.006,0.081,-0.042,-0.023,0.062,-0.834,1.451
2024-09-23 11:47:36.591,163189.434,0.041,0.74,-0.671,-0.003,-0.002,-0.005,0.096,-0.053,-0.026,0.061,-0.833,1.451
2024-09-23 11:47:36.601,163189.444,0.04,0.739,-0.672,-0.003,-0.016,-0.005,0.141,-0.057,-0.031,0.06,-0.832,1.45
2024-09-23 11:47:36.611,163189.454,0.04,0.738,-0.673,-0.0,-0.003,-0.003,0.196,-0.058,-0.031,0.059,-0.83,1.45
2024-09-23 11:47:36.621,163189.464,0.039,0.737,-0.675,0.001,0.012,0.001,0.265,-0.068,-0.032,0.058,-0.828,1.449
2024-09-23 11:47:36.631,163189.474,0.038,0.735,-0.677,-0.0,0.021,0.003,0.336,-0.072,-0.038,0.057,-0.825,1.448
2024-09-23 11:47:36.641,163189.484,0.038,0.732,-0.68,0.002,0.021,0.005,0.41,-0.082,-0.039,0.055,-0.821,1.447
2024-09-23 11:47:36.651,163189.494,0.037,0.729,-0.683,0.003,0.019,0.009,0.481,-0.087,-0.044,0.054,-0.817,1.446
2024-09-23 11:47:36.661,163189.504,0.036,0.726,-0.687,0.003,0.026,0.012,0.41,-0.072,-0.027,0.052,-0.812,1.445
2024-09-23 11:47:36.671,163189.514,0.035,0.724,-0.689,0.003,0.021,0.012,0.326,-0.041,-0.003,0.051,-0.809,1.445
2024-09-23 11:47:36.681,163189.524,0.035,0.722,-0.691,-0.004,0.021,-0.008,0.218,-0.005,-0.005,0.051,-0.806,1.445
2024-09-23 11:47:36.691,163189.534,0.035,0.72,-0.693,-0.014,-0.024,-0.014,0.2,-0.005,0.009,0.051,-0.804,1.445
2024-09-23 11:47:36.701,163189.544,0.035,0.719,-0.694,-0.015,-0.102,0.006,0.261,-0.001,-0.005,0.051,-0.802,1.445
2024-09-23 11:47:36.711,163189.554,0.035,0.717,-0.697,-0.009,-0.062,-0.0,0.337,-0.011,0.005,0.05,-0.799,1.444
2024-09-23 11:47:36.721,163189.564,0.035,0.714,-0.699,-0.0,0.032,0.003,0.394,-0.003,0.005,0.05,-0.795,1.444
2024-09-23 11:47:36.731,163189.574,0.035,0.711,-0.702,0.001,0.073,-0.0,0.365,0.005,0.009,0.05,-0.791,1.444
2024-09-23 11:47:36.741,163189.584,0.035,0.709,-0.704,-0.001,0.035,0.004,0.34,0.014,0.002,0.05,-0.788,1.444
2024-09-23 11:47:36.751,163189.594,0.035,0.707,-0.706,-0.004,-0.02,0.004,0.241,0.026,0.001,0.05,-0.785,1.444
2024-09-23 11:47:36.762,163189.604,0.036,0.705,-0.708,-0.003,-0.05,0.009,0.15,0.074,0.003,0.05,-0.783,1.444
2024-09-23 11:47:36.771,163189.614,0.036,0.705,-0.708,-0.01,-0.046,-0.002,0.027,0.099,0.032,0.051,-0.782,1.444
2024-09-23 11:47:36.781,163189.624,0.038,0.705,-0.708,-0.015,-0.043,-0.007,-0.192,0.141,0.045,0.053,-0.783,1.444
2024-09-23 11:47:36.791,163189.634,0.039,0.707,-0.706,-0.023,-0.071,-0.018,-0.375,0.139,0.062,0.055,-0.786,1.445
2024-09-23 11:47:36.801,163189.644,0.04,0.711,-0.703,-0.021,-0.098,-0.033,-0.501,0.136,0.063,0.058,-0.79,1.446
2024-09-23 11:47:36.811,163189.654,0.042,0.714,-0.699,-0.014,-0.104,-0.038,-0.523,0.111,0.06,0.06,-0.795,1.448
2024-09-23 11:47:36.821,163189.664,0.043,0.717,-0.696,-0.008,-0.087,-0.028,-0.327,0.083,0.045,0.062,-0.8,1.449
2024-09-23 11:47:36.831,163189.674,0.044,0.719,-0.694,-0.003,-0.033,-0.008,-0.159,0.037,0.026,0.063,-0.802,1.45
2024-09-23 11:47:36.841,163189.684,0.044,0.719,-0.693,0.009,0.042,0.007,0.018,-0.006,0.018,0.063,-0.803,1.45
2024-09-23 11:47:36.851,163189.694,0.044,0.719,-0.694,0.012,0.1,-0.001,0.15,-0.021,-0.011,0.063,-0.802,1.45
2024-09-23 11:47:36.861,163189.704,0.043,0.717,-0.695,0.014,0.085,0.008,0.175,-0.033,-0.028,0.062,-0.8,1.45
2024-09-23 11:47:36.871,163189.714,0.043,0.716,-0.696,0.007,0.038,0.013,0.113,-0.043,-0.028,0.062,-0.799,1.449
2024-09-23 11:47:36.881,163189.724,0.043,0.716,-0.697,0.005,0.009,0.002,0.014,-0.015,-0.013,0.061,-0.798,1.449
2024-09-23 11:47:36.891,163189.734,0.043,0.716,-0.697,-0.004,-0.024,-0.011,-0.09,0.014,0.006,0.061,-0.798,1.449
2024-09-23 11:47:36.901,163189.744,0.043,0.717,-0.696,-0.013,-0.065,-0.013,-0.173,0.019,0.021,0.061,-0.8,1.449
2024-09-23 11:47:36.911,163189.754,0.043,0.718,-0.694,-0.016,-0.076,-0.016,-0.208,0.023,0.023,0.062,-0.802,1.449
2024-09-23 11:47:36.921,163189.764,0.043,0.72,-0.693,-0.01,-0.056,-0.016,-0.198,0.016,0.019,0.062,-0.804,1.45
2024-09-23 11:47:36.931,163189.774,0.044,0.721,-0.691,-0.005,-0.032,-0.011,-0.158,-0.013,0.021,0.063,-0.805,1.45
2024-09-23 11:47:36.941,163189.784,0.044,0.722,-0.691,-0.002,-0.014,-0.004,-0.049,0.014,0.003,0.063,-0.806,1.451
2024-09-23 11:47:36.951,163189.794,0.044,0.722,-0.69,0.001,-0.003,0.003,-0.139,-0.004,0.024,0.063,-0.807,1.451
2024-09-23 11:47:36.961,163189.804,0.044,0.723,-0.689,0.0,0.006,-0.001,-0.071,-0.027,0.038,0.064,-0.808,1.452
2024-09-23 11:47:36.971,163189.814,0.044,0.724,-0.689,-0.008,0.032,-0.027,-0.054,0.026,-0.004,0.064,-0.809,1.452
2024-09-23 11:47:36.981,163189.824,0.044,0.724,-0.689,-0.002,-0.022,0.01,-0.01,-0.046,0.034,0.064,-0.809,1.452
2024-09-23 11:47:36.991,163189.834,0.044,0.723,-0.69,-0.005,-0.056,0.005,0.257,-0.017,0.005,0.064,-0.808,1.452
2024-09-23 11:47:37.001,163189.844,0.044,0.721,-0.691,-0.002,0.018,0.002,0.272,-0.036,0.008,0.063,-0.805,1.452
2024-09-23 11:47:37.011,163189.854,0.044,0.719,-0.693,0.005,0.063,0.027,0.187,-0.036,0.019,0.063,-0.803,1.452
2024-09-23 11:47:37.021,163189.864,0.044,0.718,-0.695,-0.0,0.098,-0.014,0.209,-0.02,0.02,0.063,-0.801,1.452
2024-09-23 11:47:37.031,163189.873,0.044,0.717,-0.696,-0.002,0.013,-0.02,0.107,0.007,-0.011,0.063,-0.799,1.452
2024-09-23 11:47:37.041,163189.883,0.043,0.716,-0.696,-0.008,-0.098,0.01,0.046,-0.039,0.013,0.062,-0.799,1.452
2024-09-23 11:47:37.051,163189.893,0.043,0.716,-0.697,-0.007,-0.066,-0.002,0.033,-0.004,-0.016,0.062,-0.798,1.452
2024-09-23 11:47:37.061,163189.903,0.043,0.716,-0.697,-0.002,-0.0,-0.017,-0.012,-0.013,0.002,0.062,-0.798,1.452
2024-09-23 11:47:37.071,163189.913,0.043,0.716,-0.696,-0.0,-0.021,-0.006,-0.058,-0.014,0.001,0.062,-0.798,1.452
2024-09-23 11:47:37.079,163189.923,0.043,0.717,-0.696,-0.006,-0.032,-0.019,-0.032,-0.007,0.001,0.062,-0.799,1.452
2024-09-23 11:47:37.089,163189.933,0.043,0.717,-0.696,-0.005,-0.021,-0.011,-0.025,-0.037,-0.003,0.062,-0.799,1.452
2024-09-23 11:47:37.100,163189.943,0.043,0.717,-0.696,-0.003,-0.011,0.002,0.047,-0.019,-0.019,0.061,-0.799,1.452
2024-09-23 11:47:37.110,163189.953,0.042,0.716,-0.696,-0.0,-0.008,0.0,0.042,-0.022,-0.007,0.061,-0.799,1.452
2024-09-23 11:47:37.120,163189.963,0.042,0.716,-0.697,-0.0,0.006,-0.0,0.045,-0.034,-0.005,0.06,-0.798,1.452
2024-09-23 11:47:37.131,163189.973,0.042,0.716,-0.697,-0.003,0.026,-0.015,0.104,-0.032,-0.02,0.06,-0.798,1.451
2024-09-23 11:47:37.140,163189.983,0.041,0.715,-0.698,-0.001,-0.005,-0.003,0.111,-0.014,-0.024,0.059,-0.796,1.451
2024-09-23 11:47:37.150,163189.993,0.041,0.714,-0.699,-0.001,-0.026,0.011,0.116,-0.024,0.002,0.059,-0.795,1.451
2024-09-23 11:47:37.160,163190.003,0.041,0.713,-0.7,-0.004,0.008,-0.001,0.124,-0.004,-0.013,0.059,-0.794,1.451
2024-09-23 11:47:37.170,163190.013,0.041,0.712,-0.701,-0.007,0.013,-0.005,0.094,-0.014,-0.013,0.058,-0.793,1.45
2024-09-23 11:47:37.180,163190.023,0.041,0.712,-0.701,-0.005,-0.029,0.001,0.101,-0.018,-0.016,0.058,-0.792,1.45
2024-09-23 11:47:37.191,163190.033,0.041,0.711,-0.702,-0.002,-0.023,-0.008,0.104,-0.017,-0.02,0.058,-0.791,1.45
2024-09-23 11:47:37.200,163190.043,0.04,0.711,-0.703,0.001,-0.004,-0.002,0.07,-0.019,-0.018,0.057,-0.79,1.449
2024-09-23 11:47:37.210,163190.053,0.04,0.71,-0.703,-0.002,-0.006,0.002,0.066,-0.019,-0.016,0.057,-0.79,1.449
2024-09-23 11:47:37.220,163190.063,0.04,0.71,-0.703,-0.004,-0.026,-0.006,0.07,-0.018,-0.021,0.056,-0.789,1.449
2024-09-23 11:47:37.230,163190.073,0.039,0.709,-0.704,-0.004,-0.029,-0.007,0.089,-0.019,-0.014,0.056,-0.788,1.448
2024-09-23 11:47:37.240,163190.083,0.039,0.708,-0.705,-0.004,-0.0,-0.006,0.101,-0.021,-0.016,0.056,-0.787,1.448
2024-09-23 11:47:37.250,163190.093,0.039,0.708,-0.705,-0.002,0.009,-0.003,0.103,-0.018,-0.018,0.055,-0.786,1.448
2024-09-23 11:47:37.260,163190.103,0.039,0.707,-0.706,-0.003,-0.002,0.002,0.098,-0.018,-0.015,0.055,-0.785,1.447
2024-09-23 11:47:37.270,163190.113,0.039,0.706,-0.707,-0.004,-0.019,0.003,0.085,-0.013,-0.008,0.054,-0.784,1.447
2024-09-23 11:47:37.280,163190.123,0.038,0.706,-0.707,-0.005,-0.018,-0.004,0.088,-0.012,-0.003,0.054,-0.783,1.447
2024-09-23 11:47:37.290,163190.133,0.038,0.705,-0.708,-0.006,-0.005,-0.011,0.104,-0.012,-0.007,0.054,-0.783,1.447
2024-09-23 11:47:37.300,163190.143,0.038,0.704,-0.709,-0.004,-0.003,-0.005,0.112,-0.022,-0.011,0.054,-0.781,1.447
2024-09-23 11:47:37.310,163190.153,0.038,0.703,-0.71,-0.001,-0.005,0.002,0.135,-0.015,-0.014,0.053,-0.78,1.446
2024-09-23 11:47:37.320,163190.163,0.038,0.702,-0.711,-0.001,-0.007,0.0,0.136,-0.005,-0.01,0.053,-0.779,1.446
2024-09-23 11:47:37.330,163190.173,0.038,0.702,-0.712,-0.002,-0.01,0.0,0.067,0.026,-0.004,0.053,-0.778,1.446
2024-09-23 11:47:37.340,163190.183,0.038,0.701,-0.712,-0.006,-0.005,-0.008,0.034,0.029,0.026,0.053,-0.777,1.446
2024-09-23 11:47:37.350,163190.193,0.038,0.701,-0.712,-0.011,-0.006,-0.018,-0.002,0.05,0.008,0.054,-0.777,1.446
2024-09-23 11:47:37.360,163190.203,0.039,0.701,-0.712,-0.012,-0.038,-0.001,-0.06,0.07,0.009,0.054,-0.777,1.446
2024-09-23 11:47:37.370,163190.213,0.039,0.702,-0.711,-0.008,-0.061,0.004,-0.245,0.089,0.036,0.055,-0.779,1.447
2024-09-23 11:47:37.380,163190.223,0.041,0.705,-0.708,-0.007,-0.028,-0.02,-0.386,0.135,0.063,0.057,-0.782,1.448
2024-09-23 11:47:37.390,163190.233,0.042,0.708,-0.705,-0.016,-0.031,-0.042,-0.56,0.134,0.07,0.059,-0.787,1.449
2024-09-23 11:47:37.400,163190.243,0.043,0.712,-0.701,-0.021,-0.104,-0.025,-0.587,0.124,0.052,0.062,-0.792,1.45
2024-09-23 11:47:37.410,163190.253,0.045,0.716,-0.697,-0.016,-0.131,-0.024,-0.465,0.115,0.053,0.064,-0.798,1.452
2024-09-23 11:47:37.420,163190.263,0.046,0.718,-0.694,-0.003,-0.053,-0.021,-0.291,0.066,0.065,0.066,-0.801,1.453
2024-09-23 11:47:37.430,163190.273,0.046,0.72,-0.693,0.001,0.061,-0.011,-0.101,0.061,0.019,0.067,-0.803,1.454
2024-09-23 11:47:37.440,163190.283,0.046,0.72,-0.693,0.005,0.091,0.007,0.044,-0.022,-0.0,0.067,-0.804,1.454
2024-09-23 11:47:37.450,163190.293,0.046,0.719,-0.694,0.012,0.063,0.01,0.247,-0.048,-0.046,0.066,-0.802,1.453
2024-09-23 11:47:37.460,163190.303,0.045,0.717,-0.696,0.015,0.053,0.015,0.34,-0.055,-0.068,0.065,-0.799,1.452
2024-09-23 11:47:37.470,163190.313,0.044,0.714,-0.698,0.018,0.03,0.032,0.333,-0.059,-0.042,0.064,-0.796,1.451
2024-09-23 11:47:37.480,163190.323,0.044,0.712,-0.7,0.006,0.045,0.007,0.229,0.015,-0.011,0.063,-0.793,1.45
2024-09-23 11:47:37.490,163190.333,0.044,0.711,-0.701,-0.004,0.033,-0.009,0.064,0.073,0.037,0.063,-0.791,1.45
2024-09-23 11:47:37.500,163190.343,0.045,0.711,-0.701,-0.024,-0.05,-0.015,-0.094,0.11,0.054,0.065,-0.792,1.451
2024-09-23 11:47:37.510,163190.353,0.047,0.713,-0.7,-0.031,-0.106,-0.014,-0.252,0.113,0.055,0.067,-0.793,1.452
2024-09-23 11:47:37.520,163190.363,0.048,0.715,-0.698,-0.022,-0.124,-0.005,-0.407,0.118,0.062,0.068,-0.796,1.453
2024-09-23 11:47:37.530,163190.373,0.049,0.718,-0.694,-0.013,-0.105,-0.012,-0.556,0.12,0.069,0.071,-0.801,1.454
2024-09-23 11:47:37.540,163190.383,0.051,0.722,-0.69,-0.01,-0.07,-0.026,-0.669,0.135,0.074,0.073,-0.807,1.456
2024-09-23 11:47:37.550,163190.393,0.052,0.727,-0.684,-0.011,-0.056,-0.035,-0.811,0.147,0.111,0.076,-0.815,1.458
2024-09-23 11:47:37.560,163190.403,0.054,0.733,-0.678,-0.013,-0.058,-0.037,-1.002,0.199,0.194,0.08,-0.823,1.461
2024-09-23 11:47:37.570,163190.413,0.058,0.741,-0.669,-0.018,-0.022,-0.053,-1.19,0.307,0.3,0.086,-0.834,1.466
2024-09-23 11:47:37.580,163190.423,0.063,0.749,-0.66,-0.036,0.014,-0.079,-1.273,0.416,0.423,0.095,-0.846,1.473
2024-09-23 11:47:37.590,163190.433,0.07,0.757,-0.65,-0.057,-0.022,-0.086,-1.252,0.554,0.55,0.107,-0.858,1.483
2024-09-23 11:47:37.600,163190.443,0.079,0.764,-0.64,-0.071,-0.039,-0.075,-1.149,0.676,0.704,0.122,-0.869,1.494
2024-09-23 11:47:37.609,163190.452,0.089,0.77,-0.632,-0.084,0.037,-0.076,-0.864,0.776,0.809,0.14,-0.879,1.508
2024-09-23 11:47:37.619,163190.462,0.1,0.773,-0.626,-0.102,0.141,-0.073,-0.513,0.792,0.696,0.158,-0.884,1.522
2024-09-23 11:47:37.630,163190.472,0.108,0.776,-0.622,-0.116,0.188,-0.042,-0.456,0.32,0.624,0.173,-0.888,1.533
2024-09-23 11:47:37.639,163190.482,0.114,0.778,-0.618,-0.158,0.192,0.003,-0.444,0.078,0.509,0.183,-0.891,1.543
2024-09-23 11:47:37.649,163190.492,0.115,0.78,-0.614,-0.244,0.218,0.071,-0.52,-0.143,-0.198,0.186,-0.895,1.548
2024-09-23 11:47:37.659,163190.502,0.109,0.785,-0.61,-0.331,0.175,0.111,-0.653,-0.424,-1.031,0.177,-0.902,1.54
2024-09-23 11:47:37.669,163190.512,0.097,0.79,-0.606,-0.409,0.01,0.131,-0.465,-0.442,-1.281,0.158,-0.91,1.522
2024-09-23 11:47:37.679,163190.522,0.088,0.792,-0.604,-0.383,-0.135,0.166,-0.116,0.312,-0.573,0.146,-0.914,1.507
2024-09-23 11:47:37.689,163190.532,0.09,0.793,-0.603,-0.231,-0.173,0.118,-0.121,0.541,0.106,0.148,-0.916,1.504
2024-09-23 11:47:37.699,163190.542,0.093,0.793,-0.602,0.071,-0.124,0.009,-0.005,-0.069,0.226,0.153,-0.916,1.507
2024-09-23 11:47:37.710,163190.552,0.094,0.79,-0.606,0.374,-0.039,0.078,0.8,-0.345,0.431,0.154,-0.911,1.512
2024-09-23 11:47:37.719,163190.562,0.096,0.783,-0.614,0.493,-0.03,0.122,1.207,-0.253,0.54,0.156,-0.9,1.517
2024-09-23 11:47:37.729,163190.572,0.098,0.775,-0.624,0.466,-0.08,0.018,1.263,-0.324,0.425,0.156,-0.887,1.522
2024-09-23 11:47:37.739,163190.582,0.099,0.767,-0.634,0.373,-0.086,-0.0,1.051,-0.302,0.262,0.155,-0.875,1.524
