Date,TimeStamp,GravityX,GravityY,GravityZ,UserAccelerationX,UserAccelerationY,UserAccelerationZ,RotationRateX,RotationRateY,RotationRateZ,AttitudeRoll,AttitudePitch,AttitudeYaw
2024-09-23 11:26:49.884,161942.721,-0.028,0.642,-0.766,-0.002,0.0,0.008,-0.032,-0.015,0.007,-0.037,-0.697,1.964
2024-09-23 11:26:49.894,161942.731,-0.028,0.642,-0.766,0.004,-0.012,0.005,-0.019,-0.005,-0.001,-0.037,-0.697,1.964
2024-09-23 11:26:49.904,161942.741,-0.028,0.642,-0.766,0.004,-0.021,-0.004,-0.025,-0.012,0.003,-0.037,-0.698,1.964
2024-09-23 11:26:49.914,161942.751,-0.028,0.643,-0.766,-0.001,-0.019,-0.005,-0.014,-0.01,0.029,-0.037,-0.698,1.965
2024-09-23 11:26:49.924,161942.761,-0.028,0.643,-0.766,-0.005,-0.013,-0.01,-0.017,-0.007,0.018,-0.037,-0.698,1.965
2024-09-23 11:26:49.934,161942.771,-0.028,0.643,-0.766,-0.001,0.001,-0.004,-0.023,-0.041,0.062,-0.037,-0.698,1.965
2024-09-23 11:26:49.944,161942.781,-0.028,0.643,-0.765,-0.013,0.026,-0.005,-0.003,-0.001,0.016,-0.037,-0.698,1.966
2024-09-23 11:26:49.954,161942.791,-0.028,0.643,-0.765,0.003,0.011,0.001,0.022,-0.067,0.048,-0.037,-0.698,1.966
2024-09-23 11:26:49.965,161942.801,-0.028,0.643,-0.766,-0.001,0.003,0.029,0.049,-0.018,0.011,-0.037,-0.698,1.967
2024-09-23 11:26:49.975,161942.811,-0.028,0.642,-0.766,0.01,-0.002,0.02,0.019,-0.078,0.032,-0.037,-0.697,1.967
2024-09-23 11:26:49.984,161942.821,-0.029,0.642,-0.766,0.002,-0.012,0.022,0.056,-0.031,0.047,-0.037,-0.697,1.968
2024-09-23 11:26:49.994,161942.831,-0.029,0.641,-0.767,-0.002,-0.015,0.007,0.097,-0.059,0.021,-0.037,-0.696,1.968
2024-09-23 11:26:50.004,161942.841,-0.029,0.64,-0.768,0.006,0.004,0.037,0.132,-0.084,0.063,-0.038,-0.695,1.969
2024-09-23 11:26:50.014,161942.851,-0.029,0.639,-0.768,-0.013,0.063,0.013,0.148,-0.055,0.037,-0.038,-0.694,1.969
2024-09-23 11:26:50.024,161942.861,-0.03,0.638,-0.769,0.004,0.028,0.005,0.142,-0.098,0.046,-0.038,-0.692,1.97
2024-09-23 11:26:50.034,161942.871,-0.03,0.638,-0.77,0.002,-0.008,0.014,0.053,-0.103,0.064,-0.039,-0.691,1.971
2024-09-23 11:26:50.044,161942.881,-0.03,0.637,-0.77,0.005,-0.009,0.0,0.13,-0.064,0.023,-0.039,-0.691,1.971
2024-09-23 11:26:50.054,161942.891,-0.031,0.636,-0.771,0.019,-0.009,0.011,0.154,-0.098,0.033,-0.04,-0.689,1.972
2024-09-23 11:26:50.064,161942.901,-0.031,0.635,-0.772,0.011,0.011,0.017,0.077,-0.128,0.077,-0.04,-0.688,1.973
2024-09-23 11:26:50.074,161942.911,-0.032,0.635,-0.772,-0.0,0.012,-0.018,0.092,-0.038,0.007,-0.041,-0.687,1.973
2024-09-23 11:26:50.084,161942.921,-0.032,0.634,-0.772,0.008,-0.045,-0.005,0.068,-0.127,0.054,-0.041,-0.687,1.974
2024-09-23 11:26:50.095,161942.931,-0.032,0.634,-0.773,-0.017,-0.03,0.031,0.141,-0.034,0.04,-0.042,-0.686,1.974
2024-09-23 11:26:50.104,161942.941,-0.033,0.632,-0.774,-0.006,0.02,0.008,0.244,-0.084,0.011,-0.042,-0.684,1.975
2024-09-23 11:26:50.114,161942.951,-0.033,0.631,-0.775,0.026,0.021,0.021,0.162,-0.111,0.018,-0.043,-0.683,1.975
2024-09-23 11:26:50.124,161942.961,-0.034,0.63,-0.776,0.015,0.043,-0.026,0.056,-0.091,0.022,-0.044,-0.681,1.975
2024-09-23 11:26:50.134,161942.971,-0.034,0.63,-0.776,0.014,-0.024,-0.005,-0.016,-0.065,0.012,-0.044,-0.681,1.976
2024-09-23 11:26:50.144,161942.981,-0.035,0.63,-0.776,-0.007,-0.057,0.015,0.024,-0.03,0.016,-0.045,-0.681,1.976
2024-09-23 11:26:50.154,161942.991,-0.035,0.629,-0.776,-0.021,-0.033,-0.003,0.067,0.032,-0.028,-0.045,-0.681,1.976
2024-09-23 11:26:50.164,161943.001,-0.035,0.629,-0.776,-0.02,-0.019,-0.008,-0.096,0.048,-0.036,-0.044,-0.681,1.975
2024-09-23 11:26:50.174,161943.011,-0.034,0.631,-0.775,-0.025,-0.015,-0.003,-0.293,0.058,-0.005,-0.044,-0.683,1.975
2024-09-23 11:26:50.184,161943.021,-0.034,0.634,-0.773,-0.035,-0.083,-0.018,-0.373,0.079,-0.035,-0.044,-0.686,1.975
2024-09-23 11:26:50.194,161943.031,-0.034,0.637,-0.77,-0.023,-0.083,-0.035,-0.433,0.069,-0.051,-0.044,-0.69,1.974
2024-09-23 11:26:50.204,161943.041,-0.033,0.64,-0.768,-0.026,-0.022,0.004,-0.423,0.072,-0.029,-0.043,-0.695,1.973
2024-09-23 11:26:50.213,161943.051,-0.033,0.643,-0.765,-0.008,-0.043,0.022,-0.335,0.085,-0.04,-0.043,-0.698,1.972
2024-09-23 11:26:50.224,161943.061,-0.033,0.645,-0.763,0.002,-0.021,0.004,-0.231,0.074,-0.027,-0.043,-0.701,1.972
2024-09-23 11:26:50.232,161943.071,-0.032,0.646,-0.762,-0.001,0.043,0.0,-0.158,0.041,-0.017,-0.042,-0.703,1.971
2024-09-23 11:26:50.243,161943.081,-0.032,0.647,-0.761,0.011,0.043,-0.004,-0.108,0.017,-0.017,-0.042,-0.704,1.971
2024-09-23 11:26:50.253,161943.091,-0.032,0.648,-0.761,0.034,0.025,-0.001,-0.058,0.005,-0.02,-0.042,-0.705,1.971
2024-09-23 11:26:50.263,161943.101,-0.032,0.648,-0.761,0.034,0.028,-0.004,-0.012,-0.01,-0.026,-0.043,-0.705,1.97
2024-09-23 11:26:50.274,161943.111,-0.033,0.648,-0.761,0.032,0.031,0.004,-0.014,-0.016,-0.008,-0.043,-0.705,1.97
2024-09-23 11:26:50.284,161943.121,-0.033,0.648,-0.761,0.033,0.013,0.001,-0.031,-0.018,-0.003,-0.043,-0.705,1.97
2024-09-23 11:26:50.293,161943.131,-0.033,0.649,-0.76,0.028,0.001,-0.003,-0.043,-0.024,-0.007,-0.043,-0.706,1.97
2024-09-23 11:26:50.303,161943.141,-0.033,0.649,-0.76,0.014,-0.002,0.007,-0.034,-0.027,0.0,-0.044,-0.706,1.97
2024-09-23 11:26:50.313,161943.151,-0.033,0.649,-0.76,-0.003,0.002,0.019,0.004,-0.037,0.009,-0.044,-0.706,1.97
2024-09-23 11:26:50.323,161943.161,-0.034,0.649,-0.76,-0.007,0.007,0.027,0.063,-0.042,0.024,-0.044,-0.706,1.97
2024-09-23 11:26:50.333,161943.171,-0.034,0.648,-0.761,-0.002,0.021,0.022,0.126,-0.048,0.017,-0.044,-0.705,1.97
2024-09-23 11:26:50.345,161943.181,-0.034,0.647,-0.762,0.002,0.029,0.016,0.166,-0.044,0.015,-0.045,-0.704,1.971
2024-09-23 11:26:50.354,161943.191,-0.034,0.646,-0.763,-0.001,0.024,0.013,0.152,-0.028,0.004,-0.045,-0.702,1.971
2024-09-23 11:26:50.362,161943.201,-0.034,0.645,-0.764,-0.006,0.015,0.004,0.119,-0.004,-0.008,-0.045,-0.701,1.971
2024-09-23 11:26:50.372,161943.211,-0.034,0.644,-0.764,-0.013,-0.002,-0.001,0.069,0.014,-0.016,-0.044,-0.7,1.971
2024-09-23 11:26:50.383,161943.221,-0.034,0.644,-0.764,-0.021,-0.019,-0.006,0.031,0.019,-0.004,-0.044,-0.699,1.971
2024-09-23 11:26:50.393,161943.231,-0.034,0.644,-0.765,-0.018,-0.031,-0.005,0.043,0.016,-0.005,-0.044,-0.699,1.971
2024-09-23 11:26:50.403,161943.241,-0.034,0.643,-0.765,-0.004,-0.028,-0.003,0.115,0.015,-0.009,-0.044,-0.699,1.971
2024-09-23 11:26:50.413,161943.251,-0.034,0.642,-0.766,0.005,-0.004,0.003,0.17,0.001,-0.013,-0.044,-0.697,1.971
2024-09-23 11:26:50.423,161943.261,-0.034,0.641,-0.767,0.009,0.025,0.008,0.183,0.004,-0.022,-0.044,-0.696,1.971
2024-09-23 11:26:50.433,161943.271,-0.034,0.64,-0.768,0.014,0.032,0.009,0.18,-0.001,-0.002,-0.044,-0.694,1.971
2024-09-23 11:26:50.443,161943.28,-0.034,0.638,-0.769,0.005,0.02,0.014,0.193,-0.011,0.027,-0.044,-0.692,1.971
2024-09-23 11:26:50.453,161943.29,-0.034,0.637,-0.77,-0.003,0.006,0.007,0.158,0.009,0.041,-0.044,-0.691,1.972
2024-09-23 11:26:50.464,161943.3,-0.034,0.636,-0.771,0.002,0.017,0.013,0.182,-0.014,0.057,-0.043,-0.689,1.972
2024-09-23 11:26:50.474,161943.31,-0.033,0.634,-0.772,0.003,0.047,-0.006,0.133,0.005,0.041,-0.043,-0.687,1.973
2024-09-23 11:26:50.484,161943.32,-0.033,0.634,-0.773,0.003,0.002,0.007,0.085,0.007,0.06,-0.043,-0.686,1.974
2024-09-23 11:26:50.493,161943.33,-0.033,0.633,-0.773,0.011,-0.04,0.002,0.021,0.001,0.044,-0.042,-0.686,1.974
2024-09-23 11:26:50.504,161943.34,-0.032,0.634,-0.773,0.006,-0.03,-0.035,-0.065,0.022,0.049,-0.042,-0.686,1.975
2024-09-23 11:26:50.513,161943.35,-0.032,0.634,-0.772,0.002,-0.043,-0.031,-0.095,0.027,0.039,-0.041,-0.687,1.975
2024-09-23 11:26:50.523,161943.36,-0.032,0.635,-0.772,-0.006,-0.049,-0.014,-0.108,0.001,0.038,-0.041,-0.688,1.976
2024-09-23 11:26:50.533,161943.37,-0.031,0.636,-0.771,-0.016,-0.033,-0.013,-0.084,-0.006,0.052,-0.04,-0.689,1.976
2024-09-23 11:26:50.543,161943.38,-0.031,0.636,-0.771,-0.012,-0.023,-0.003,-0.04,0.003,0.057,-0.04,-0.69,1.977
2024-09-23 11:26:50.553,161943.39,-0.031,0.637,-0.77,0.008,-0.01,0.014,-0.062,0.0,0.05,-0.04,-0.69,1.978
2024-09-23 11:26:50.563,161943.4,-0.03,0.638,-0.77,-0.005,0.025,0.001,-0.126,0.03,0.052,-0.039,-0.691,1.978
2024-09-23 11:26:50.574,161943.41,-0.03,0.639,-0.769,-0.012,0.013,-0.008,-0.162,0.0,0.025,-0.039,-0.693,1.979
2024-09-23 11:26:50.583,161943.42,-0.03,0.64,-0.768,0.001,-0.043,-0.001,-0.171,0.01,0.018,-0.039,-0.694,1.979
2024-09-23 11:26:50.593,161943.43,-0.03,0.641,-0.767,0.001,-0.053,0.015,-0.171,-0.003,0.002,-0.039,-0.696,1.979
2024-09-23 11:26:50.603,161943.44,-0.03,0.642,-0.766,-0.009,-0.031,0.015,-0.194,-0.01,0.007,-0.039,-0.698,1.979
2024-09-23 11:26:50.613,161943.45,-0.03,0.644,-0.765,0.006,-0.014,0.016,-0.178,0.003,0.011,-0.039,-0.699,1.979
2024-09-23 11:26:50.623,161943.46,-0.03,0.645,-0.764,0.015,0.003,0.02,-0.081,-0.025,0.021,-0.039,-0.701,1.979
2024-09-23 11:26:50.633,161943.47,-0.03,0.645,-0.763,0.01,0.014,0.007,-0.051,-0.006,0.003,-0.039,-0.701,1.979
2024-09-23 11:26:50.643,161943.48,-0.03,0.645,-0.763,0.001,0.026,-0.008,-0.015,-0.029,-0.01,-0.039,-0.702,1.979
2024-09-23 11:26:50.653,161943.49,-0.03,0.645,-0.763,-0.005,-0.009,0.02,0.069,-0.014,-0.04,-0.04,-0.701,1.979
2024-09-23 11:26:50.663,161943.5,-0.031,0.644,-0.764,-0.02,-0.04,0.04,0.132,-0.039,-0.077,-0.04,-0.7,1.978
2024-09-23 11:26:50.673,161943.51,-0.032,0.643,-0.765,-0.032,-0.015,0.04,0.143,-0.023,-0.085,-0.041,-0.699,1.977
2024-09-23 11:26:50.683,161943.52,-0.032,0.642,-0.766,-0.029,-0.021,0.036,0.063,0.007,-0.093,-0.042,-0.697,1.976
2024-09-23 11:26:50.693,161943.53,-0.033,0.643,-0.765,-0.04,-0.029,0.011,-0.21,0.067,-0.072,-0.043,-0.698,1.975
2024-09-23 11:26:50.703,161943.54,-0.032,0.645,-0.763,-0.048,-0.039,-0.021,-0.457,0.085,-0.09,-0.043,-0.701,1.974
2024-09-23 11:26:50.713,161943.55,-0.032,0.649,-0.76,-0.033,-0.059,-0.04,-0.581,0.109,-0.087,-0.042,-0.707,1.972
2024-09-23 11:26:50.723,161943.56,-0.032,0.654,-0.756,-0.038,-0.045,-0.057,-0.581,0.1,-0.087,-0.042,-0.712,1.971
2024-09-23 11:26:50.733,161943.57,-0.032,0.658,-0.753,-0.037,-0.041,-0.024,-0.495,0.078,-0.059,-0.042,-0.718,1.97
2024-09-23 11:26:50.743,161943.58,-0.032,0.661,-0.75,0.011,-0.032,-0.006,-0.407,0.072,-0.041,-0.042,-0.722,1.969
2024-09-23 11:26:50.753,161943.59,-0.031,0.664,-0.747,0.047,0.031,-0.001,-0.35,0.08,-0.038,-0.042,-0.726,1.968
2024-09-23 11:26:50.763,161943.6,-0.031,0.667,-0.745,0.048,0.059,0.015,-0.384,0.094,-0.019,-0.042,-0.73,1.967
2024-09-23 11:26:50.773,161943.61,-0.03,0.669,-0.742,0.038,0.009,0.008,-0.385,0.127,-0.03,-0.041,-0.733,1.967
2024-09-23 11:26:50.783,161943.62,-0.029,0.672,-0.74,0.035,-0.019,0.002,-0.414,0.157,-0.01,-0.04,-0.737,1.966
2024-09-23 11:26:50.793,161943.63,-0.028,0.676,-0.737,0.013,-0.012,-0.011,-0.474,0.174,-0.025,-0.038,-0.742,1.966
2024-09-23 11:26:50.803,161943.64,-0.027,0.679,-0.734,0.005,-0.007,-0.013,-0.47,0.159,-0.02,-0.037,-0.746,1.965
2024-09-23 11:26:50.812,161943.65,-0.026,0.682,-0.731,0.007,-0.015,0.0,-0.409,0.13,0.017,-0.036,-0.751,1.965
2024-09-23 11:26:50.823,161943.66,-0.025,0.685,-0.728,-0.002,-0.016,0.001,-0.336,0.093,0.043,-0.035,-0.755,1.965
2024-09-23 11:26:50.833,161943.67,-0.024,0.687,-0.726,-0.004,-0.001,-0.018,-0.32,0.072,0.047,-0.033,-0.758,1.966
2024-09-23 11:26:50.842,161943.68,-0.023,0.69,-0.724,-0.007,0.019,-0.01,-0.322,0.061,0.052,-0.032,-0.761,1.966
2024-09-23 11:26:50.853,161943.69,-0.023,0.692,-0.722,-0.012,0.011,0.007,-0.304,0.065,0.047,-0.031,-0.764,1.967
2024-09-23 11:26:50.863,161943.7,-0.022,0.694,-0.719,-0.013,0.001,0.007,-0.315,0.064,0.028,-0.03,-0.767,1.967
2024-09-23 11:26:50.872,161943.71,-0.021,0.697,-0.717,-0.005,0.015,0.015,-0.356,0.066,0.017,-0.03,-0.771,1.967
2024-09-23 11:26:50.882,161943.72,-0.021,0.699,-0.715,0.003,0.008,0.017,-0.364,0.083,0.014,-0.029,-0.774,1.967
2024-09-23 11:26:50.891,161943.73,-0.02,0.701,-0.713,0.009,-0.013,0.01,-0.152,0.077,-0.039,-0.028,-0.777,1.967
2024-09-23 11:26:50.902,161943.74,-0.02,0.702,-0.712,0.008,-0.019,0.007,-0.064,0.035,0.025,-0.028,-0.778,1.967
2024-09-23 11:26:50.913,161943.75,-0.019,0.702,-0.712,0.008,-0.019,-0.0,-0.088,0.051,0.015,-0.027,-0.779,1.967
2024-09-23 11:26:50.923,161943.76,-0.019,0.703,-0.711,0.007,0.003,0.01,-0.087,0.066,0.039,-0.026,-0.78,1.968
2024-09-23 11:26:50.933,161943.77,-0.018,0.704,-0.71,-0.007,0.007,-0.01,-0.033,0.072,0.046,-0.025,-0.78,1.968
2024-09-23 11:26:50.943,161943.78,-0.017,0.704,-0.71,-0.002,0.003,0.002,0.005,0.069,0.032,-0.024,-0.78,1.969
2024-09-23 11:26:50.952,161943.79,-0.016,0.703,-0.711,0.002,0.038,0.012,0.035,0.084,0.039,-0.023,-0.78,1.969
2024-09-23 11:26:50.962,161943.8,-0.015,0.703,-0.711,0.001,0.023,0.008,0.068,0.092,0.047,-0.022,-0.78,1.97
2024-09-23 11:26:50.973,161943.81,-0.014,0.703,-0.711,-0.011,-0.001,-0.002,0.072,0.1,0.044,-0.02,-0.779,1.97
2024-09-23 11:26:50.982,161943.82,-0.013,0.702,-0.712,-0.021,-0.002,0.001,0.051,0.095,0.046,-0.019,-0.778,1.971
2024-09-23 11:26:50.993,161943.83,-0.012,0.702,-0.712,-0.019,0.006,0.009,0.066,0.118,0.049,-0.017,-0.778,1.972
2024-09-23 11:26:51.002,161943.84,-0.011,0.701,-0.713,-0.021,0.013,0.016,0.08,0.113,0.063,-0.015,-0.777,1.973
2024-09-23 11:26:51.012,161943.85,-0.01,0.701,-0.713,-0.025,0.025,0.018,0.069,0.1,0.072,-0.014,-0.776,1.974
2024-09-23 11:26:51.022,161943.86,-0.009,0.7,-0.714,-0.023,0.043,0.012,0.055,0.098,0.105,-0.012,-0.776,1.975
2024-09-23 11:26:51.032,161943.869,-0.007,0.7,-0.714,-0.016,0.032,0.018,0.101,0.128,0.155,-0.01,-0.775,1.976
2024-09-23 11:26:51.042,161943.879,-0.005,0.699,-0.715,-0.029,0.021,-0.003,0.152,0.098,0.172,-0.007,-0.774,1.979
2024-09-23 11:26:51.052,161943.889,-0.003,0.698,-0.716,-0.042,0.054,-0.022,0.14,0.078,0.161,-0.005,-0.773,1.981
2024-09-23 11:26:51.062,161943.899,-0.002,0.697,-0.717,-0.024,0.082,0.007,0.07,0.069,0.155,-0.003,-0.772,1.983
2024-09-23 11:26:51.073,161943.909,-0.0,0.697,-0.717,-0.019,0.075,0.052,0.05,0.086,0.161,-0.0,-0.771,1.985
2024-09-23 11:26:51.082,161943.919,0.001,0.696,-0.718,-0.027,0.042,0.066,0.179,0.057,0.15,0.002,-0.77,1.987
2024-09-23 11:26:51.092,161943.929,0.002,0.694,-0.72,-0.039,0.03,0.06,0.36,0.032,0.128,0.003,-0.768,1.989
2024-09-23 11:26:51.102,161943.939,0.003,0.692,-0.722,-0.041,0.033,0.024,0.479,0.021,0.12,0.004,-0.764,1.991
2024-09-23 11:26:51.113,161943.949,0.004,0.688,-0.726,-0.03,0.005,-0.011,0.485,0.007,0.083,0.005,-0.759,1.992
2024-09-23 11:26:51.123,161943.959,0.005,0.686,-0.728,-0.021,-0.014,-0.03,0.08,-0.043,0.198,0.006,-0.756,1.994
2024-09-23 11:26:51.132,161943.969,0.005,0.688,-0.725,-0.02,0.011,-0.025,-0.58,-0.099,0.108,0.007,-0.759,1.996
2024-09-23 11:26:51.142,161943.979,0.005,0.693,-0.721,0.016,0.033,0.05,-0.61,-0.07,0.024,0.007,-0.766,1.997
2024-09-23 11:26:51.152,161943.989,0.005,0.695,-0.719,0.032,-0.014,0.157,0.001,-0.032,0.052,0.007,-0.769,1.997
2024-09-23 11:26:51.161,161943.999,0.005,0.692,-0.722,-0.032,-0.086,0.08,0.871,-0.006,-0.011,0.007,-0.765,1.998
2024-09-23 11:26:51.172,161944.009,0.005,0.684,-0.729,0.014,-0.061,0.024,1.241,-0.038,0.001,0.007,-0.754,1.997
2024-09-23 11:26:51.182,161944.019,0.005,0.676,-0.736,0.052,0.05,-0.064,0.798,-0.014,0.037,0.006,-0.743,1.998
2024-09-23 11:26:51.192,161944.029,0.005,0.673,-0.739,0.075,0.108,-0.134,0.074,0.071,0.05,0.007,-0.739,1.998
2024-09-23 11:26:51.202,161944.039,0.006,0.674,-0.739,0.077,0.003,-0.113,-0.221,0.145,0.05,0.009,-0.74,1.999
2024-09-23 11:26:51.212,161944.049,0.008,0.676,-0.737,0.045,-0.142,-0.081,-0.182,0.104,0.02,0.01,-0.742,1.999
2024-09-23 11:26:51.222,161944.059,0.008,0.677,-0.736,0.016,-0.128,-0.04,-0.087,0.072,0.042,0.011,-0.743,2.0
2024-09-23 11:26:51.232,161944.069,0.009,0.677,-0.736,0.011,-0.063,-0.015,-0.064,0.045,0.032,0.012,-0.744,2.0
2024-09-23 11:26:51.243,161944.079,0.01,0.678,-0.735,0.032,-0.045,0.015,-0.013,0.03,0.033,0.013,-0.744,2.001
2024-09-23 11:26:51.252,161944.089,0.01,0.677,-0.736,0.017,-0.031,0.034,0.041,-0.024,0.074,0.014,-0.744,2.002
2024-09-23 11:26:51.262,161944.099,0.01,0.677,-0.736,0.0,-0.021,0.06,0.093,-0.086,0.098,0.014,-0.744,2.003
2024-09-23 11:26:51.272,161944.109,0.01,0.676,-0.737,0.021,0.001,0.076,0.165,-0.107,0.131,0.014,-0.742,2.004
2024-09-23 11:26:51.282,161944.119,0.01,0.675,-0.738,0.035,0.024,0.071,0.164,-0.137,0.131,0.014,-0.741,2.006
2024-09-23 11:26:51.292,161944.129,0.01,0.674,-0.739,0.028,0.043,0.056,0.065,-0.164,0.11,0.013,-0.739,2.008
2024-09-23 11:26:51.302,161944.139,0.01,0.673,-0.739,0.013,0.062,0.04,0.055,-0.126,0.134,0.013,-0.739,2.009
2024-09-23 11:26:51.312,161944.149,0.01,0.673,-0.739,-0.004,0.018,0.058,0.014,-0.159,0.114,0.013,-0.738,2.011
2024-09-23 11:26:51.322,161944.159,0.009,0.674,-0.739,-0.032,-0.035,0.042,-0.143,-0.201,0.123,0.012,-0.739,2.012
2024-09-23 11:26:51.332,161944.169,0.008,0.675,-0.738,-0.039,-0.015,0.032,-0.162,-0.186,0.122,0.011,-0.741,2.014
2024-09-23 11:26:51.342,161944.179,0.008,0.676,-0.737,0.012,-0.059,0.069,-0.052,-0.216,0.077,0.01,-0.742,2.015
2024-09-23 11:26:51.352,161944.189,0.006,0.675,-0.737,0.014,-0.057,0.047,0.147,-0.193,0.03,0.009,-0.741,2.016
2024-09-23 11:26:51.362,161944.199,0.005,0.673,-0.739,-0.011,0.002,0.029,0.381,-0.168,0.015,0.007,-0.739,2.016
2024-09-23 11:26:51.372,161944.209,0.004,0.67,-0.742,-0.021,0.014,-0.021,0.501,-0.17,0.004,0.006,-0.734,2.017
2024-09-23 11:26:51.382,161944.219,0.003,0.667,-0.745,-0.043,0.041,-0.107,0.402,-0.131,-0.006,0.004,-0.73,2.017
2024-09-23 11:26:51.392,161944.229,0.002,0.665,-0.747,-0.011,0.021,-0.115,0.193,-0.09,-0.039,0.003,-0.727,2.016
2024-09-23 11:26:51.402,161944.239,0.001,0.664,-0.748,0.039,-0.039,-0.084,0.015,-0.1,-0.045,0.001,-0.726,2.016
2024-09-23 11:26:51.412,161944.249,-0.0,0.664,-0.747,0.047,-0.059,-0.074,-0.124,-0.117,-0.075,-0.0,-0.727,2.015
2024-09-23 11:26:51.422,161944.259,-0.002,0.665,-0.747,0.047,-0.065,-0.046,-0.099,-0.148,-0.101,-0.002,-0.728,2.014
2024-09-23 11:26:51.432,161944.269,-0.004,0.665,-0.746,0.073,-0.06,0.024,0.031,-0.198,-0.07,-0.005,-0.728,2.013
2024-09-23 11:26:51.442,161944.279,-0.005,0.665,-0.747,0.068,-0.025,0.051,0.21,-0.192,-0.049,-0.007,-0.727,2.012
2024-09-23 11:26:51.451,161944.289,-0.007,0.663,-0.749,0.061,0.035,0.056,0.339,-0.173,-0.016,-0.009,-0.724,2.011
2024-09-23 11:26:51.461,161944.299,-0.008,0.66,-0.752,0.045,0.086,0.064,0.46,-0.181,-0.01,-0.011,-0.72,2.011
2024-09-23 11:26:51.472,161944.309,-0.01,0.656,-0.755,0.012,0.12,0.025,0.475,-0.179,0.01,-0.013,-0.715,2.011
2024-09-23 11:26:51.481,161944.319,-0.011,0.653,-0.758,-0.008,0.094,0.003,0.366,-0.151,0.02,-0.015,-0.711,2.012
2024-09-23 11:26:51.492,161944.329,-0.012,0.65,-0.76,-0.014,-0.005,0.002,0.268,-0.109,-0.007,-0.016,-0.708,2.012
2024-09-23 11:26:51.502,161944.339,-0.013,0.649,-0.761,-0.014,-0.058,0.003,0.17,-0.094,-0.014,-0.017,-0.706,2.012
2024-09-23 11:26:51.511,161944.349,-0.013,0.648,-0.762,-0.027,-0.052,-0.017,0.022,-0.07,-0.035,-0.018,-0.705,2.011
2024-09-23 11:26:51.522,161944.359,-0.014,0.648,-0.761,-0.029,-0.05,-0.029,-0.106,-0.038,-0.051,-0.019,-0.705,2.011
2024-09-23 11:26:51.532,161944.369,-0.015,0.649,-0.76,-0.016,-0.076,-0.013,-0.153,-0.01,-0.046,-0.019,-0.707,2.01
2024-09-23 11:26:51.542,161944.379,-0.015,0.65,-0.76,-0.019,-0.076,0.008,-0.084,-0.002,-0.055,-0.02,-0.708,2.009
2024-09-23 11:26:51.552,161944.389,-0.015,0.651,-0.759,-0.021,-0.021,0.007,0.026,-0.005,-0.018,-0.02,-0.708,2.009
2024-09-23 11:26:51.562,161944.399,-0.016,0.65,-0.76,-0.022,0.029,-0.002,0.128,-0.02,-0.007,-0.02,-0.707,2.009
2024-09-23 11:26:51.572,161944.409,-0.016,0.649,-0.761,-0.017,0.047,-0.014,0.145,-0.022,-0.011,-0.021,-0.706,2.009
2024-09-23 11:26:51.582,161944.419,-0.016,0.648,-0.762,-0.004,0.058,-0.012,0.098,-0.015,-0.018,-0.021,-0.705,2.009
2024-09-23 11:26:51.591,161944.429,-0.016,0.647,-0.762,0.01,0.011,0.004,0.027,-0.017,-0.025,-0.021,-0.704,2.008
2024-09-23 11:26:51.602,161944.439,-0.017,0.647,-0.762,0.014,-0.041,0.002,-0.033,0.002,-0.035,-0.022,-0.704,2.008
2024-09-23 11:26:51.611,161944.449,-0.017,0.648,-0.762,0.012,-0.046,-0.011,-0.049,0.005,-0.042,-0.022,-0.705,2.007
2024-09-23 11:26:51.621,161944.459,-0.017,0.648,-0.762,0.008,-0.028,-0.005,-0.001,0.005,-0.025,-0.022,-0.705,2.007
2024-09-23 11:26:51.631,161944.468,-0.017,0.648,-0.762,0.007,-0.009,-0.003,0.043,-0.006,-0.02,-0.022,-0.705,2.007
2024-09-23 11:26:51.641,161944.478,-0.017,0.647,-0.762,0.01,0.002,-0.005,0.076,-0.003,-0.023,-0.023,-0.704,2.006
2024-09-23 11:26:51.651,161944.488,-0.018,0.647,-0.763,0.003,0.012,0.002,0.114,-0.015,-0.017,-0.023,-0.703,2.006
2024-09-23 11:26:51.661,161944.498,-0.018,0.646,-0.763,-0.008,0.014,0.003,0.112,-0.019,-0.016,-0.023,-0.702,2.006
2024-09-23 11:26:51.672,161944.508,-0.018,0.645,-0.764,-0.011,0.004,0.001,0.097,-0.02,-0.011,-0.024,-0.701,2.006
2024-09-23 11:26:51.681,161944.518,-0.018,0.644,-0.765,-0.004,-0.003,0.003,0.086,-0.006,-0.004,-0.024,-0.7,2.006
2024-09-23 11:26:51.692,161944.528,-0.018,0.644,-0.765,-0.002,-0.006,-0.004,0.08,0.008,-0.021,-0.024,-0.699,2.006
2024-09-23 11:26:51.701,161944.538,-0.018,0.643,-0.766,-0.004,-0.006,0.001,0.052,0.013,-0.028,-0.024,-0.698,2.005
2024-09-23 11:26:51.711,161944.548,-0.018,0.643,-0.766,-0.005,-0.013,0.001,0.014,0.013,-0.029,-0.024,-0.698,2.005
2024-09-23 11:26:51.721,161944.558,-0.018,0.643,-0.766,-0.003,-0.025,-0.006,-0.001,0.014,-0.036,-0.024,-0.698,2.005
2024-09-23 11:26:51.731,161944.568,-0.018,0.643,-0.766,0.0,-0.029,-0.005,-0.006,0.013,-0.042,-0.024,-0.698,2.004
2024-09-23 11:26:51.741,161944.578,-0.019,0.643,-0.766,0.004,-0.019,0.006,0.002,0.015,-0.023,-0.024,-0.698,2.004
2024-09-23 11:26:51.752,161944.588,-0.019,0.643,-0.766,0.003,-0.012,0.007,0.04,0.007,-0.028,-0.024,-0.698,2.003
2024-09-23 11:26:51.760,161944.598,-0.019,0.642,-0.766,0.001,-0.001,0.006,0.075,0.001,-0.016,-0.025,-0.697,2.003
2024-09-23 11:26:51.771,161944.608,-0.019,0.642,-0.767,0.002,0.023,0.008,0.108,-0.001,-0.013,-0.025,-0.697,2.003
2024-09-23 11:26:51.781,161944.618,-0.019,0.641,-0.768,0.005,0.017,0.007,0.142,-0.009,-0.012,-0.025,-0.695,2.003
2024-09-23 11:26:51.791,161944.628,-0.019,0.639,-0.769,0.003,0.018,0.008,0.17,-0.02,-0.006,-0.025,-0.694,2.003
2024-09-23 11:26:51.801,161944.638,-0.02,0.638,-0.77,0.005,0.017,0.009,0.181,-0.034,-0.014,-0.025,-0.692,2.002
2024-09-23 11:26:51.811,161944.648,-0.02,0.636,-0.771,0.011,0.023,0.008,0.162,-0.041,-0.013,-0.026,-0.69,2.002
2024-09-23 11:26:51.821,161944.658,-0.02,0.635,-0.772,0.012,0.021,0.007,0.142,-0.041,-0.002,-0.026,-0.688,2.002
2024-09-23 11:26:51.831,161944.668,-0.02,0.634,-0.773,0.008,0.004,-0.001,0.126,-0.027,0.034,-0.026,-0.687,2.003
2024-09-23 11:26:51.841,161944.678,-0.02,0.634,-0.773,0.007,-0.002,-0.005,0.034,-0.009,0.045,-0.026,-0.686,2.003
2024-09-23 11:26:51.851,161944.688,-0.02,0.634,-0.773,0.011,0.002,-0.003,0.025,-0.001,0.054,-0.026,-0.686,2.004
2024-09-23 11:26:51.861,161944.698,-0.02,0.634,-0.773,0.011,-0.016,-0.006,0.033,-0.009,0.028,-0.025,-0.686,2.004
2024-09-23 11:26:51.871,161944.708,-0.02,0.633,-0.774,-0.016,-0.045,-0.017,0.058,-0.006,0.02,-0.025,-0.686,2.005
2024-09-23 11:26:51.881,161944.718,-0.019,0.633,-0.774,-0.018,-0.057,0.03,0.078,0.003,0.041,-0.025,-0.685,2.005
2024-09-23 11:26:51.891,161944.728,-0.019,0.632,-0.774,-0.018,-0.01,0.009,0.096,-0.01,0.044,-0.025,-0.685,2.006
2024-09-23 11:26:51.901,161944.738,-0.019,0.632,-0.775,-0.013,0.019,0.0,0.089,-0.022,0.048,-0.024,-0.684,2.006
2024-09-23 11:26:51.911,161944.748,-0.019,0.631,-0.775,-0.007,0.012,-0.002,0.026,-0.026,0.036,-0.024,-0.683,2.007
2024-09-23 11:26:51.921,161944.758,-0.019,0.631,-0.775,-0.0,0.0,-0.005,-0.013,-0.022,0.087,-0.024,-0.683,2.008
2024-09-23 11:26:51.931,161944.768,-0.018,0.631,-0.775,0.001,-0.018,-0.002,0.039,-0.023,0.039,-0.024,-0.683,2.009
2024-09-23 11:26:51.941,161944.778,-0.018,0.631,-0.776,0.006,-0.021,0.012,0.021,-0.053,0.054,-0.024,-0.683,2.009
2024-09-23 11:26:51.951,161944.788,-0.019,0.631,-0.776,0.005,0.009,0.023,0.018,-0.065,0.065,-0.024,-0.682,2.01
2024-09-23 11:26:51.961,161944.798,-0.019,0.63,-0.776,0.011,-0.011,0.002,0.04,-0.091,0.084,-0.024,-0.682,2.011
2024-09-23 11:26:51.971,161944.808,-0.019,0.63,-0.777,0.013,-0.013,-0.009,0.122,-0.12,0.074,-0.025,-0.681,2.012
2024-09-23 11:26:51.981,161944.818,-0.02,0.629,-0.777,0.009,0.025,0.003,0.194,-0.152,0.058,-0.026,-0.68,2.013
2024-09-23 11:26:51.991,161944.828,-0.021,0.627,-0.779,0.029,0.035,0.035,0.237,-0.142,0.038,-0.027,-0.678,2.013
2024-09-23 11:26:52.001,161944.838,-0.022,0.625,-0.78,0.038,0.018,0.029,0.23,-0.108,0.039,-0.028,-0.675,2.014
2024-09-23 11:26:52.011,161944.848,-0.022,0.623,-0.782,0.015,0.025,0.017,0.232,-0.074,0.0,-0.029,-0.673,2.014
2024-09-23 11:26:52.021,161944.858,-0.023,0.622,-0.783,-0.014,0.02,0.002,0.219,-0.059,0.015,-0.029,-0.671,2.014
2024-09-23 11:26:52.030,161944.868,-0.023,0.62,-0.784,-0.012,-0.021,0.001,0.192,-0.072,0.036,-0.03,-0.669,2.015
2024-09-23 11:26:52.041,161944.878,-0.024,0.619,-0.785,-0.006,-0.055,-0.01,0.157,-0.048,-0.039,-0.03,-0.668,2.015
2024-09-23 11:26:52.051,161944.888,-0.024,0.618,-0.786,0.004,-0.034,0.006,0.085,-0.022,-0.015,-0.031,-0.666,2.014
2024-09-23 11:26:52.061,161944.898,-0.024,0.618,-0.786,-0.009,-0.008,-0.004,-0.009,-0.005,0.013,-0.031,-0.666,2.014
2024-09-23 11:26:52.071,161944.908,-0.024,0.619,-0.785,-0.025,-0.035,-0.017,-0.093,0.021,0.02,-0.031,-0.667,2.015
2024-09-23 11:26:52.081,161944.918,-0.024,0.62,-0.785,-0.018,-0.043,-0.012,-0.126,0.036,0.041,-0.03,-0.668,2.015
2024-09-23 11:26:52.091,161944.928,-0.023,0.621,-0.784,-0.017,-0.032,-0.017,-0.139,0.058,0.025,-0.029,-0.67,2.016
2024-09-23 11:26:52.101,161944.938,-0.022,0.622,-0.783,-0.012,-0.025,-0.008,-0.179,0.053,-0.024,-0.029,-0.671,2.016
2024-09-23 11:26:52.111,161944.948,-0.022,0.624,-0.781,-0.008,-0.03,-0.0,-0.31,0.086,-0.025,-0.028,-0.674,2.015
2024-09-23 11:26:52.120,161944.958,-0.022,0.626,-0.779,-0.02,-0.051,-0.006,-0.417,0.123,-0.034,-0.028,-0.677,2.015
2024-09-23 11:26:52.130,161944.968,-0.021,0.63,-0.776,-0.034,-0.06,-0.021,-0.474,0.131,-0.074,-0.027,-0.681,2.014
2024-09-23 11:26:52.141,161944.978,-0.02,0.633,-0.774,-0.036,-0.048,-0.037,-0.458,0.141,-0.062,-0.026,-0.686,2.013
2024-09-23 11:26:52.150,161944.988,-0.02,0.637,-0.771,-0.036,-0.055,-0.034,-0.468,0.154,-0.066,-0.025,-0.69,2.012
2024-09-23 11:26:52.161,161944.998,-0.019,0.64,-0.768,-0.017,-0.061,-0.013,-0.427,0.139,-0.048,-0.025,-0.695,2.011
2024-09-23 11:26:52.171,161945.008,-0.018,0.643,-0.766,0.009,-0.015,0.014,-0.3,0.13,-0.035,-0.024,-0.698,2.01
2024-09-23 11:26:52.181,161945.018,-0.018,0.644,-0.765,0.027,0.039,0.023,-0.08,0.077,-0.111,-0.023,-0.7,2.009
2024-09-23 11:26:52.191,161945.028,-0.018,0.645,-0.764,0.04,0.059,0.041,-0.108,0.054,-0.015,-0.023,-0.701,2.008
2024-09-23 11:26:52.201,161945.038,-0.018,0.645,-0.764,0.032,0.042,0.028,-0.012,0.004,0.003,-0.023,-0.701,2.008
2024-09-23 11:26:52.211,161945.048,-0.018,0.645,-0.764,0.019,0.027,-0.002,0.122,-0.031,-0.025,-0.023,-0.7,2.008
2024-09-23 11:26:52.221,161945.058,-0.018,0.643,-0.765,0.029,0.09,-0.015,0.171,-0.059,-0.018,-0.024,-0.699,2.008
2024-09-23 11:26:52.230,161945.067,-0.019,0.642,-0.766,0.037,0.093,0.019,0.179,-0.064,-0.039,-0.025,-0.697,2.007
2024-09-23 11:26:52.240,161945.077,-0.02,0.641,-0.768,0.051,0.019,0.029,0.165,-0.04,-0.055,-0.026,-0.695,2.007
2024-09-23 11:26:52.250,161945.087,-0.02,0.64,-0.768,0.025,-0.002,0.026,0.126,-0.032,-0.027,-0.026,-0.694,2.006
2024-09-23 11:26:52.260,161945.097,-0.021,0.639,-0.769,-0.006,-0.017,0.006,0.112,-0.035,-0.027,-0.027,-0.693,2.006
2024-09-23 11:26:52.271,161945.107,-0.021,0.638,-0.77,-0.003,-0.036,-0.002,0.111,-0.021,-0.034,-0.028,-0.692,2.005
2024-09-23 11:26:52.279,161945.117,-0.021,0.637,-0.771,0.002,-0.015,0.006,0.129,0.001,-0.019,-0.028,-0.69,2.005
2024-09-23 11:26:52.289,161945.127,-0.021,0.636,-0.772,-0.013,-0.003,0.004,0.144,0.01,-0.01,-0.028,-0.689,2.005
2024-09-23 11:26:52.299,161945.137,-0.021,0.635,-0.772,-0.02,0.019,-0.006,0.17,-0.004,0.012,-0.028,-0.688,2.005
2024-09-23 11:26:52.310,161945.147,-0.021,0.633,-0.774,-0.011,0.013,0.001,0.207,-0.001,0.008,-0.027,-0.686,2.005
2024-09-23 11:26:52.320,161945.157,-0.021,0.632,-0.775,0.006,0.01,0.01,0.223,-0.008,0.003,-0.027,-0.684,2.006
2024-09-23 11:26:52.330,161945.167,-0.021,0.63,-0.776,0.006,0.023,0.012,0.238,-0.007,0.012,-0.027,-0.681,2.006
2024-09-23 11:26:52.340,161945.177,-0.021,0.628,-0.778,0.002,0.018,0.005,0.253,-0.031,0.028,-0.027,-0.679,2.006
2024-09-23 11:26:52.350,161945.187,-0.021,0.626,-0.779,0.002,0.005,-0.005,0.153,-0.019,0.013,-0.027,-0.677,2.007
2024-09-23 11:26:52.360,161945.197,-0.021,0.625,-0.78,0.006,-0.004,-0.001,0.13,0.013,0.047,-0.027,-0.675,2.007
2024-09-23 11:26:52.370,161945.207,-0.021,0.625,-0.781,0.005,-0.015,-0.009,0.045,0.003,0.036,-0.027,-0.675,2.008
2024-09-23 11:26:52.380,161945.217,-0.021,0.624,-0.781,-0.019,-0.033,-0.026,0.024,0.003,0.048,-0.026,-0.674,2.008
2024-09-23 11:26:52.391,161945.227,-0.02,0.624,-0.781,0.001,-0.046,-0.0,0.034,0.004,0.065,-0.026,-0.674,2.009
2024-09-23 11:26:52.400,161945.237,-0.02,0.624,-0.781,0.003,-0.021,-0.018,0.026,-0.003,0.077,-0.025,-0.674,2.01
2024-09-23 11:26:52.410,161945.247,-0.019,0.624,-0.781,-0.005,0.008,-0.028,0.024,0.026,0.093,-0.024,-0.674,2.011
2024-09-23 11:26:52.420,161945.257,-0.018,0.624,-0.781,-0.004,-0.011,-0.011,0.036,0.027,0.087,-0.023,-0.674,2.012
2024-09-23 11:26:52.430,161945.267,-0.018,0.624,-0.781,0.0,-0.01,-0.014,-0.086,-0.001,0.072,-0.023,-0.674,2.013
2024-09-23 11:26:52.440,161945.277,-0.017,0.625,-0.78,0.006,-0.011,-0.024,-0.184,0.048,0.065,-0.022,-0.675,2.014
2024-09-23 11:26:52.450,161945.287,-0.016,0.627,-0.779,0.001,-0.042,0.014,-0.166,0.023,0.061,-0.021,-0.677,2.014
2024-09-23 11:26:52.460,161945.297,-0.016,0.628,-0.778,-0.019,-0.056,0.005,-0.148,-0.001,0.073,-0.02,-0.679,2.015
2024-09-23 11:26:52.470,161945.307,-0.016,0.628,-0.778,0.001,-0.017,-0.006,-0.069,-0.009,0.036,-0.02,-0.68,2.016
2024-09-23 11:26:52.480,161945.317,-0.016,0.629,-0.778,0.017,0.01,0.011,-0.004,-0.062,0.004,-0.02,-0.68,2.016
2024-09-23 11:26:52.490,161945.327,-0.016,0.629,-0.778,0.01,-0.007,0.052,0.001,-0.024,-0.012,-0.021,-0.68,2.016
2024-09-23 11:26:52.500,161945.337,-0.017,0.628,-0.778,-0.002,-0.028,0.052,0.028,-0.044,-0.053,-0.021,-0.679,2.016
2024-09-23 11:26:52.510,161945.347,-0.017,0.628,-0.778,-0.006,-0.045,0.035,0.024,-0.017,-0.074,-0.022,-0.679,2.015
2024-09-23 11:26:52.520,161945.357,-0.018,0.628,-0.778,-0.021,-0.035,0.006,0.004,0.013,-0.095,-0.023,-0.679,2.014
2024-09-23 11:26:52.530,161945.367,-0.018,0.628,-0.778,-0.038,-0.033,0.018,-0.202,0.059,-0.078,-0.023,-0.68,2.013
2024-09-23 11:26:52.540,161945.377,-0.018,0.631,-0.776,-0.047,-0.023,0.025,-0.369,0.097,-0.042,-0.023,-0.682,2.012
2024-09-23 11:26:52.550,161945.387,-0.017,0.634,-0.773,-0.05,-0.005,-0.015,-0.397,0.13,-0.005,-0.022,-0.686,2.011
2024-09-23 11:26:52.560,161945.397,-0.016,0.637,-0.771,-0.064,-0.018,-0.082,-0.385,0.166,-0.013,-0.021,-0.69,2.011
2024-09-23 11:26:52.570,161945.407,-0.015,0.64,-0.769,-0.06,-0.002,-0.058,-0.35,0.192,0.01,-0.019,-0.694,2.011
2024-09-23 11:26:52.580,161945.417,-0.013,0.642,-0.766,-0.023,0.008,-0.026,-0.309,0.192,0.046,-0.017,-0.697,2.011
2024-09-23 11:26:52.590,161945.427,-0.011,0.644,-0.765,-0.002,0.048,-0.005,-0.108,0.192,0.069,-0.015,-0.699,2.012
2024-09-23 11:26:52.600,161945.437,-0.009,0.644,-0.765,0.005,0.085,0.029,0.074,0.125,0.093,-0.012,-0.699,2.013
2024-09-23 11:26:52.610,161945.447,-0.008,0.642,-0.767,-0.008,0.117,0.059,0.363,0.104,0.02,-0.011,-0.697,2.014
2024-09-23 11:26:52.620,161945.457,-0.007,0.639,-0.769,0.003,0.134,0.121,0.28,0.046,0.165,-0.009,-0.693,2.015
2024-09-23 11:26:52.630,161945.467,-0.007,0.641,-0.767,-0.012,0.081,0.168,-0.801,-0.099,0.058,-0.009,-0.696,2.017
2024-09-23 11:26:52.639,161945.477,-0.006,0.647,-0.762,-0.022,0.044,0.097,-0.754,-0.014,0.236,-0.007,-0.704,2.019
2024-09-23 11:26:52.650,161945.487,-0.004,0.651,-0.759,-0.013,0.086,0.174,-0.172,-0.08,0.221,-0.006,-0.708,2.022
2024-09-23 11:26:52.659,161945.497,-0.004,0.65,-0.76,-0.089,0.046,0.117,0.235,-0.144,0.145,-0.006,-0.708,2.024
2024-09-23 11:26:52.670,161945.507,-0.004,0.648,-0.762,0.01,0.074,0.045,0.4,-0.088,0.136,-0.006,-0.705,2.026
2024-09-23 11:26:52.680,161945.517,-0.004,0.644,-0.765,0.033,0.099,0.061,0.489,0.022,0.134,-0.005,-0.7,2.028
2024-09-23 11:26:52.690,161945.527,-0.002,0.641,-0.768,-0.018,-0.002,0.004,0.362,0.073,0.181,-0.003,-0.696,2.03
2024-09-23 11:26:52.700,161945.537,-0.001,0.64,-0.768,-0.027,-0.028,-0.1,-0.111,0.071,0.087,-0.001,-0.694,2.032
2024-09-23 11:26:52.709,161945.547,0.0,0.642,-0.767,0.037,-0.018,-0.14,-0.407,0.181,0.055,0.001,-0.697,2.033
2024-09-23 11:26:52.720,161945.557,0.002,0.645,-0.764,0.06,-0.119,-0.058,-0.253,0.181,0.017,0.003,-0.701,2.033
2024-09-23 11:26:52.729,161945.567,0.003,0.645,-0.764,-0.006,-0.204,-0.01,0.128,0.133,0.036,0.004,-0.701,2.033
2024-09-23 11:26:52.740,161945.577,0.005,0.644,-0.765,0.011,-0.139,-0.039,0.271,0.119,0.034,0.006,-0.699,2.034
2024-09-23 11:26:52.750,161945.587,0.006,0.642,-0.767,0.086,-0.063,-0.097,0.181,0.103,0.021,0.007,-0.697,2.034
2024-09-23 11:26:52.759,161945.597,0.006,0.641,-0.767,0.103,-0.026,-0.102,-0.003,0.065,-0.005,0.008,-0.696,2.034
2024-09-23 11:26:52.770,161945.607,0.007,0.642,-0.767,0.044,0.025,-0.069,-0.113,0.057,0.013,0.009,-0.697,2.034
2024-09-23 11:26:52.780,161945.617,0.007,0.642,-0.767,0.006,0.043,-0.021,0.021,0.02,0.052,0.01,-0.697,2.035
2024-09-23 11:26:52.789,161945.627,0.008,0.641,-0.767,0.018,-0.017,0.046,0.142,-0.063,0.056,0.01,-0.696,2.036
2024-09-23 11:26:52.799,161945.637,0.007,0.64,-0.768,0.046,-0.007,0.035,0.083,-0.094,0.034,0.009,-0.695,2.036
2024-09-23 11:26:52.809,161945.647,0.007,0.64,-0.768,0.057,0.041,0.01,0.078,-0.075,0.069,0.009,-0.694,2.037
2024-09-23 11:26:52.819,161945.657,0.007,0.639,-0.769,0.031,-0.005,0.047,0.162,-0.1,0.04,0.009,-0.693,2.037
2024-09-23 11:26:52.829,161945.666,0.006,0.637,-0.771,-0.0,-0.042,0.022,0.252,-0.095,0.007,0.008,-0.691,2.038
2024-09-23 11:26:52.839,161945.676,0.005,0.635,-0.772,0.017,0.015,-0.03,0.201,-0.07,-0.018,0.007,-0.689,2.038
2024-09-23 11:26:52.849,161945.686,0.005,0.634,-0.773,0.009,0.019,-0.047,0.071,-0.039,0.001,0.006,-0.687,2.038
2024-09-23 11:26:52.859,161945.696,0.005,0.634,-0.773,-0.012,-0.038,-0.037,0.013,-0.048,-0.006,0.006,-0.687,2.038
2024-09-23 11:26:52.869,161945.706,0.004,0.634,-0.773,-0.009,-0.088,-0.003,0.004,-0.055,-0.019,0.005,-0.687,2.037
2024-09-23 11:26:52.879,161945.716,0.004,0.634,-0.773,0.005,-0.078,0.012,0.006,-0.032,-0.017,0.005,-0.687,2.037
2024-09-23 11:26:52.889,161945.726,0.004,0.634,-0.773,0.007,-0.028,0.001,0.04,-0.013,0.005,0.005,-0.687,2.037
2024-09-23 11:26:52.899,161945.736,0.004,0.633,-0.774,-0.012,-0.001,-0.009,0.111,-0.015,0.009,0.005,-0.686,2.037
2024-09-23 11:26:52.910,161945.746,0.003,0.632,-0.775,-0.019,0.016,-0.001,0.155,-0.021,0.004,0.004,-0.685,2.037
2024-09-23 11:26:52.919,161945.756,0.003,0.631,-0.776,-0.003,0.02,0.019,0.147,-0.02,0.003,0.004,-0.683,2.037
2024-09-23 11:26:52.929,161945.766,0.003,0.63,-0.777,0.007,0.002,0.018,0.131,-0.005,-0.002,0.004,-0.682,2.037
2024-09-23 11:26:52.939,161945.776,0.003,0.629,-0.777,0.002,-0.014,0.008,0.108,-0.002,-0.014,0.004,-0.68,2.037
2024-09-23 11:26:52.949,161945.786,0.003,0.628,-0.778,0.0,-0.013,0.004,0.091,-0.005,-0.022,0.004,-0.679,2.037
2024-09-23 11:26:52.959,161945.796,0.003,0.627,-0.779,0.004,-0.015,0.007,0.081,-0.0,-0.038,0.004,-0.678,2.037
2024-09-23 11:26:52.969,161945.806,0.003,0.627,-0.779,0.007,-0.009,0.001,0.096,0.008,-0.026,0.003,-0.677,2.036
2024-09-23 11:26:52.979,161945.816,0.002,0.626,-0.78,-0.001,0.005,-0.008,0.142,0.009,-0.031,0.003,-0.676,2.036
2024-09-23 11:26:52.989,161945.826,0.002,0.625,-0.781,-0.008,0.008,-0.004,0.151,-0.0,-0.025,0.003,-0.675,2.035
2024-09-23 11:26:52.999,161945.836,0.002,0.624,-0.782,0.0,0.024,0.005,0.144,-0.001,-0.007,0.003,-0.673,2.035
2024-09-23 11:26:53.009,161945.846,0.002,0.623,-0.783,0.003,0.015,0.007,0.144,-0.006,0.001,0.003,-0.672,2.035
2024-09-23 11:26:53.018,161945.856,0.002,0.622,-0.783,0.001,-0.001,0.009,0.135,-0.01,0.003,0.003,-0.671,2.035
2024-09-23 11:26:53.029,161945.866,0.002,0.621,-0.784,0.002,-0.007,0.012,0.112,-0.012,-0.01,0.003,-0.669,2.035
2024-09-23 11:26:53.039,161945.876,0.002,0.62,-0.785,0.006,-0.002,0.007,0.077,-0.003,-0.023,0.002,-0.668,2.035
2024-09-23 11:26:53.049,161945.886,0.002,0.619,-0.785,0.003,-0.007,-0.001,0.02,-0.003,-0.041,0.002,-0.668,2.035
2024-09-23 11:26:53.059,161945.896,0.002,0.62,-0.785,0.002,-0.016,-0.003,-0.036,0.012,-0.042,0.002,-0.668,2.034
2024-09-23 11:26:53.069,161945.906,0.001,0.62,-0.785,0.001,-0.023,-0.008,-0.046,0.014,-0.028,0.002,-0.669,2.034
2024-09-23 11:26:53.079,161945.916,0.001,0.62,-0.784,-0.003,-0.036,-0.007,-0.034,0.009,-0.033,0.002,-0.669,2.033
2024-09-23 11:26:53.089,161945.926,0.001,0.621,-0.784,0.001,-0.025,0.003,0.004,0.001,-0.008,0.002,-0.669,2.033
2024-09-23 11:26:53.099,161945.936,0.001,0.62,-0.784,0.003,0.008,0.007,0.066,0.004,0.001,0.002,-0.669,2.033
2024-09-23 11:26:53.109,161945.946,0.001,0.62,-0.785,0.001,0.022,0.007,0.115,-0.018,-0.005,0.002,-0.668,2.033
2024-09-23 11:26:53.119,161945.956,0.001,0.619,-0.786,0.004,0.02,0.015,0.126,-0.01,-0.003,0.001,-0.667,2.033
2024-09-23 11:26:53.129,161945.966,0.001,0.618,-0.786,0.009,0.022,0.013,0.107,-0.006,-0.003,0.001,-0.666,2.033
2024-09-23 11:26:53.139,161945.976,0.001,0.617,-0.787,0.0,0.004,0.004,0.065,0.004,-0.017,0.001,-0.665,2.033
2024-09-23 11:26:53.149,161945.986,0.001,0.617,-0.787,-0.004,-0.01,0.002,0.013,0.011,-0.023,0.001,-0.664,2.033
2024-09-23 11:26:53.160,161945.996,0.001,0.616,-0.787,0.002,-0.018,-0.005,-0.018,0.013,-0.026,0.001,-0.664,2.032
2024-09-23 11:26:53.169,161946.006,0.001,0.617,-0.787,0.001,-0.02,-0.01,-0.027,0.013,-0.019,0.001,-0.664,2.032
2024-09-23 11:26:53.179,161946.016,0.001,0.617,-0.787,-0.004,-0.022,-0.002,-0.011,0.012,-0.02,0.001,-0.665,2.032
2024-09-23 11:26:53.189,161946.026,0.001,0.617,-0.787,0.002,-0.019,0.007,0.028,0.018,-0.005,0.001,-0.665,2.031
2024-09-23 11:26:53.199,161946.036,0.001,0.617,-0.787,0.003,-0.005,0.008,0.064,0.007,-0.009,0.001,-0.664,2.031
2024-09-23 11:26:53.209,161946.046,0.001,0.616,-0.788,-0.0,0.006,0.011,0.101,0.003,-0.002,0.001,-0.664,2.031
2024-09-23 11:26:53.219,161946.056,0.001,0.615,-0.788,0.001,0.026,0.004,0.109,-0.016,-0.012,0.001,-0.663,2.031
2024-09-23 11:26:53.229,161946.066,0.001,0.614,-0.789,0.004,0.023,0.001,0.096,-0.021,-0.03,0.001,-0.662,2.031
2024-09-23 11:26:53.239,161946.076,0.0,0.614,-0.79,0.011,0.017,0.002,0.077,-0.03,-0.032,0.0,-0.661,2.031
2024-09-23 11:26:53.249,161946.086,-0.0,0.613,-0.79,0.011,0.0,0.0,0.059,-0.034,-0.042,-0.0,-0.66,2.03
2024-09-23 11:26:53.259,161946.096,-0.001,0.613,-0.79,0.009,-0.013,0.004,0.047,-0.039,-0.035,-0.001,-0.659,2.03
2024-09-23 11:26:53.269,161946.106,-0.001,0.612,-0.791,0.006,-0.006,0.003,0.067,-0.047,-0.028,-0.002,-0.659,2.029
2024-09-23 11:26:53.279,161946.116,-0.002,0.612,-0.791,0.002,-0.001,0.002,0.084,-0.054,-0.018,-0.002,-0.658,2.029
2024-09-23 11:26:53.289,161946.126,-0.002,0.611,-0.792,0.004,0.007,0.009,0.099,-0.054,0.005,-0.003,-0.657,2.029
2024-09-23 11:26:53.298,161946.136,-0.003,0.61,-0.792,0.006,0.006,0.01,0.082,-0.038,-0.011,-0.003,-0.657,2.029
2024-09-23 11:26:53.308,161946.146,-0.003,0.61,-0.793,0.005,0.006,0.011,0.077,-0.031,0.023,-0.004,-0.656,2.029
2024-09-23 11:26:53.319,161946.156,-0.003,0.609,-0.793,-0.009,0.003,-0.006,0.055,-0.036,0.005,-0.004,-0.655,2.029
2024-09-23 11:26:53.328,161946.166,-0.003,0.609,-0.793,-0.008,-0.036,0.012,0.009,-0.022,0.016,-0.004,-0.655,2.029
2024-09-23 11:26:53.338,161946.176,-0.003,0.609,-0.793,0.004,-0.013,0.004,-0.018,-0.017,0.023,-0.004,-0.655,2.03
2024-09-23 11:26:53.348,161946.186,-0.003,0.609,-0.793,-0.007,-0.015,-0.006,-0.032,-0.013,0.02,-0.004,-0.655,2.03
2024-09-23 11:26:53.358,161946.196,-0.003,0.61,-0.793,-0.007,-0.025,-0.0,-0.026,-0.016,0.027,-0.004,-0.656,2.03
2024-09-23 11:26:53.368,161946.206,-0.003,0.61,-0.793,0.002,-0.022,0.002,0.012,-0.029,0.052,-0.004,-0.656,2.031
2024-09-23 11:26:53.378,161946.216,-0.003,0.609,-0.793,0.004,-0.003,0.006,0.066,-0.026,0.035,-0.003,-0.655,2.032
2024-09-23 11:26:53.388,161946.226,-0.003,0.609,-0.793,0.006,0.02,0.01,0.08,-0.034,0.043,-0.003,-0.655,2.032
2024-09-23 11:26:53.398,161946.236,-0.003,0.608,-0.794,0.006,0.026,0.013,0.122,-0.055,0.093,-0.004,-0.654,2.033
2024-09-23 11:26:53.408,161946.246,-0.003,0.607,-0.795,0.003,0.0,0.005,0.119,-0.085,0.069,-0.004,-0.653,2.034
2024-09-23 11:26:53.419,161946.256,-0.003,0.606,-0.795,0.009,0.004,0.006,0.128,-0.094,0.08,-0.004,-0.651,2.035
2024-09-23 11:26:53.428,161946.265,-0.003,0.605,-0.796,0.009,0.036,0.008,0.209,-0.075,0.08,-0.004,-0.649,2.036
2024-09-23 11:26:53.438,161946.275,-0.004,0.603,-0.798,0.009,0.019,0.004,0.235,-0.071,0.019,-0.005,-0.647,2.036
2024-09-23 11:26:53.448,161946.285,-0.004,0.601,-0.799,0.007,0.004,0.011,0.163,-0.087,0.025,-0.005,-0.645,2.037
2024-09-23 11:26:53.458,161946.295,-0.005,0.6,-0.8,0.003,0.009,0.013,0.09,-0.079,-0.002,-0.006,-0.644,2.037
2024-09-23 11:26:53.468,161946.305,-0.005,0.6,-0.8,0.003,-0.033,0.0,0.034,-0.079,0.02,-0.007,-0.643,2.037
2024-09-23 11:26:53.478,161946.315,-0.006,0.6,-0.8,0.005,-0.06,-0.006,0.051,-0.086,0.031,-0.007,-0.643,2.037
2024-09-23 11:26:53.488,161946.325,-0.006,0.599,-0.801,-0.006,-0.027,-0.011,0.078,-0.11,0.025,-0.008,-0.642,2.038
2024-09-23 11:26:53.498,161946.335,-0.007,0.598,-0.802,-0.0,-0.002,0.01,0.173,-0.083,0.008,-0.008,-0.641,2.038
2024-09-23 11:26:53.508,161946.345,-0.007,0.597,-0.803,0.011,0.024,0.015,0.18,-0.072,0.02,-0.009,-0.639,2.038
2024-09-23 11:26:53.518,161946.355,-0.008,0.596,-0.803,0.009,0.027,0.015,0.079,-0.104,0.022,-0.01,-0.638,2.038
2024-09-23 11:26:53.528,161946.365,-0.008,0.595,-0.804,-0.004,-0.009,0.003,0.122,-0.057,0.009,-0.01,-0.637,2.039
2024-09-23 11:26:53.538,161946.375,-0.009,0.594,-0.804,-0.0,-0.03,0.003,0.048,-0.05,0.012,-0.011,-0.636,2.039
2024-09-23 11:26:53.548,161946.385,-0.009,0.594,-0.804,0.005,-0.021,0.007,-0.044,-0.032,0.003,-0.011,-0.636,2.039
2024-09-23 11:26:53.558,161946.395,-0.009,0.594,-0.804,-0.011,-0.02,-0.003,-0.078,-0.019,0.023,-0.011,-0.637,2.039
2024-09-23 11:26:53.568,161946.405,-0.009,0.595,-0.803,-0.012,-0.036,-0.009,-0.142,-0.019,0.023,-0.011,-0.638,2.039
2024-09-23 11:26:53.578,161946.415,-0.009,0.596,-0.803,-0.009,-0.018,-0.003,-0.088,-0.001,0.04,-0.011,-0.639,2.04
2024-09-23 11:26:53.588,161946.425,-0.009,0.597,-0.802,-0.005,-0.029,0.007,-0.105,0.035,-0.002,-0.011,-0.64,2.04
2024-09-23 11:26:53.598,161946.435,-0.008,0.598,-0.801,-0.001,-0.005,0.009,-0.216,0.077,0.028,-0.01,-0.642,2.04
2024-09-23 11:26:53.608,161946.445,-0.007,0.6,-0.8,-0.016,-0.001,-0.005,-0.283,0.138,0.065,-0.009,-0.644,2.041
2024-09-23 11:26:53.618,161946.455,-0.005,0.603,-0.798,-0.027,-0.062,-0.027,-0.291,0.179,0.057,-0.007,-0.647,2.042
2024-09-23 11:26:53.628,161946.465,-0.004,0.605,-0.796,-0.034,-0.055,-0.021,-0.282,0.154,0.072,-0.005,-0.65,2.042
2024-09-23 11:26:53.638,161946.475,-0.002,0.607,-0.795,-0.028,-0.013,0.011,-0.254,0.137,0.083,-0.003,-0.652,2.043
2024-09-23 11:26:53.648,161946.485,-0.001,0.609,-0.793,0.005,-0.036,0.024,-0.203,0.137,0.083,-0.001,-0.654,2.044
2024-09-23 11:26:53.658,161946.495,0.001,0.61,-0.792,0.016,-0.019,0.015,-0.165,0.151,0.054,0.001,-0.656,2.045
2024-09-23 11:26:53.668,161946.505,0.002,0.611,-0.792,-0.001,0.022,0.008,-0.157,0.178,0.034,0.003,-0.657,2.046
2024-09-23 11:26:53.679,161946.515,0.004,0.612,-0.791,-0.013,0.042,-0.016,-0.191,0.159,0.042,0.005,-0.659,2.046
2024-09-23 11:26:53.688,161946.525,0.005,0.614,-0.789,-0.027,0.012,-0.021,-0.245,0.049,-0.064,0.006,-0.661,2.046
2024-09-23 11:26:53.698,161946.535,0.005,0.616,-0.788,-0.021,-0.02,-0.001,-0.162,0.098,0.001,0.006,-0.663,2.046
2024-09-23 11:26:53.708,161946.545,0.006,0.617,-0.787,-0.029,0.023,-0.008,-0.104,0.045,-0.008,0.007,-0.664,2.045
2024-09-23 11:26:53.718,161946.555,0.006,0.617,-0.787,-0.028,0.035,0.005,-0.09,0.007,-0.004,0.007,-0.665,2.045
2024-09-23 11:26:53.728,161946.565,0.006,0.618,-0.786,0.038,0.01,0.003,0.009,-0.008,0.019,0.007,-0.666,2.045
2024-09-23 11:26:53.738,161946.575,0.006,0.617,-0.787,0.063,0.02,-0.004,0.051,-0.032,0.023,0.007,-0.666,2.046
2024-09-23 11:26:53.748,161946.585,0.005,0.617,-0.787,0.047,0.029,0.035,0.098,-0.059,0.006,0.007,-0.665,2.046
2024-09-23 11:26:53.758,161946.595,0.005,0.616,-0.788,0.043,0.002,0.027,0.137,-0.066,-0.021,0.006,-0.664,2.046
2024-09-23 11:26:53.768,161946.605,0.004,0.615,-0.789,0.032,0.021,0.005,0.119,-0.051,-0.041,0.005,-0.662,2.045
2024-09-23 11:26:53.778,161946.615,0.004,0.614,-0.789,0.014,0.04,0.009,0.069,-0.029,-0.05,0.004,-0.661,2.045
2024-09-23 11:26:53.788,161946.625,0.003,0.614,-0.789,0.002,-0.02,-0.001,0.002,-0.016,-0.057,0.004,-0.661,2.044
2024-09-23 11:26:53.798,161946.635,0.002,0.614,-0.789,-0.005,-0.059,-0.006,-0.06,-0.007,-0.052,0.003,-0.661,2.043
2024-09-23 11:26:53.808,161946.645,0.002,0.615,-0.789,-0.007,-0.035,-0.006,-0.067,0.004,-0.037,0.003,-0.662,2.043
2024-09-23 11:26:53.818,161946.655,0.002,0.615,-0.788,-0.01,-0.025,-0.01,-0.047,-0.003,-0.031,0.003,-0.663,2.042
2024-09-23 11:26:53.828,161946.665,0.002,0.616,-0.788,-0.006,-0.025,-0.001,-0.005,-0.008,-0.021,0.003,-0.663,2.042
2024-09-23 11:26:53.838,161946.675,0.002,0.616,-0.788,0.001,0.005,0.008,0.031,-0.003,-0.009,0.003,-0.663,2.042
2024-09-23 11:26:53.847,161946.685,0.002,0.615,-0.788,0.002,0.025,0.009,0.063,-0.019,-0.001,0.003,-0.663,2.042
2024-09-23 11:26:53.858,161946.695,0.002,0.615,-0.789,-0.001,0.019,0.008,0.075,-0.027,-0.018,0.002,-0.662,2.042
2024-09-23 11:26:53.868,161946.705,0.002,0.614,-0.789,0.007,0.014,0.015,0.051,-0.019,-0.023,0.002,-0.661,2.042
2024-09-23 11:26:53.880,161946.715,0.001,0.614,-0.79,0.013,-0.008,0.012,0.03,-0.018,-0.026,0.002,-0.661,2.041
2024-09-23 11:26:53.887,161946.725,0.001,0.613,-0.79,0.005,-0.029,0.005,0.017,-0.015,-0.03,0.001,-0.66,2.041
2024-09-23 11:26:53.897,161946.735,0.001,0.613,-0.79,0.001,-0.025,0.005,0.0,-0.012,-0.03,0.001,-0.66,2.041
2024-09-23 11:26:53.921,161946.745,0.0,0.613,-0.79,0.002,-0.012,0.005,-0.002,-0.005,-0.032,0.0,-0.66,2.04
2024-09-23 11:26:53.926,161946.755,0.0,0.613,-0.79,0.001,-0.009,0.001,0.005,-0.001,-0.037,0.0,-0.66,2.04
2024-09-23 11:26:53.933,161946.765,-0.0,0.613,-0.79,-0.001,-0.006,-0.002,0.009,0.001,-0.043,-0.0,-0.66,2.039
2024-09-23 11:26:53.938,161946.775,-0.0,0.613,-0.79,-0.001,0.005,0.002,0.026,0.007,-0.029,-0.0,-0.66,2.039
2024-09-23 11:26:53.946,161946.785,-0.0,0.613,-0.79,0.001,0.009,0.002,0.047,0.012,-0.029,-0.0,-0.66,2.039
2024-09-23 11:26:53.957,161946.795,-0.0,0.613,-0.79,-0.001,0.006,0.005,0.042,0.013,-0.01,-0.0,-0.66,2.038
2024-09-23 11:26:53.967,161946.805,-0.0,0.612,-0.791,-0.003,0.007,0.01,0.06,0.025,0.001,-0.0,-0.659,2.038
2024-09-23 11:26:53.977,161946.815,0.0,0.612,-0.791,-0.004,-0.011,0.001,0.084,0.017,0.001,0.0,-0.658,2.038
2024-09-23 11:26:53.987,161946.825,0.0,0.611,-0.792,-0.008,0.006,0.001,0.108,0.012,-0.007,0.0,-0.657,2.038
2024-09-23 11:26:53.997,161946.835,0.0,0.61,-0.792,-0.001,0.014,0.006,0.11,0.004,-0.015,0.0,-0.656,2.038
2024-09-23 11:26:54.008,161946.845,0.0,0.609,-0.793,0.009,0.012,0.005,0.121,-0.002,-0.008,0.0,-0.655,2.038
2024-09-23 11:26:54.017,161946.855,0.0,0.608,-0.794,0.005,0.008,0.001,0.136,0.002,-0.011,0.0,-0.654,2.038
2024-09-23 11:26:54.027,161946.864,0.0,0.607,-0.795,0.004,0.002,0.004,0.168,-0.003,0.003,0.0,-0.652,2.038
2024-09-23 11:26:54.037,161946.874,-0.0,0.606,-0.796,0.002,0.001,0.006,0.22,-0.002,0.01,-0.0,-0.65,2.038
2024-09-23 11:26:54.047,161946.884,-0.0,0.604,-0.797,0.001,0.013,0.006,0.117,-0.014,-0.025,-0.0,-0.649,2.038
2024-09-23 11:26:54.058,161946.894,-0.0,0.604,-0.797,0.005,0.02,0.017,0.047,0.018,0.02,-0.0,-0.648,2.038
2024-09-23 11:26:54.067,161946.904,0.0,0.604,-0.797,-0.004,0.013,-0.022,-0.005,0.027,0.001,0.0,-0.648,2.038
2024-09-23 11:26:54.077,161946.914,0.0,0.604,-0.797,-0.019,-0.058,-0.004,-0.145,0.045,-0.038,0.0,-0.649,2.038
2024-09-23 11:26:54.087,161946.924,0.001,0.606,-0.796,0.001,-0.063,-0.0,-0.246,0.053,0.007,0.001,-0.651,2.038
2024-09-23 11:26:54.097,161946.934,0.001,0.608,-0.794,-0.009,-0.043,-0.027,-0.21,0.067,0.01,0.001,-0.653,2.038
2024-09-23 11:26:54.107,161946.944,0.002,0.609,-0.793,-0.015,-0.045,-0.017,-0.201,0.072,-0.049,0.002,-0.655,2.037
2024-09-23 11:26:54.118,161946.954,0.002,0.611,-0.792,-0.007,0.001,-0.001,-0.199,0.059,0.012,0.002,-0.657,2.037
2024-09-23 11:26:54.127,161946.964,0.003,0.612,-0.791,-0.002,-0.002,0.004,-0.173,0.089,-0.019,0.003,-0.659,2.037
2024-09-23 11:26:54.137,161946.974,0.003,0.613,-0.79,0.01,-0.019,0.005,0.003,0.066,0.089,0.004,-0.66,2.038
2024-09-23 11:26:54.147,161946.984,0.004,0.613,-0.79,-0.011,0.002,-0.004,0.055,0.041,0.048,0.005,-0.66,2.039
2024-09-23 11:26:54.157,161946.994,0.005,0.613,-0.79,-0.006,0.017,-0.027,-0.024,0.05,0.036,0.006,-0.659,2.039
2024-09-23 11:26:54.168,161947.004,0.005,0.613,-0.79,0.031,0.029,-0.012,-0.121,0.071,0.046,0.007,-0.66,2.04
2024-09-23 11:26:54.177,161947.014,0.006,0.614,-0.789,-0.01,-0.037,0.003,-0.096,0.075,0.045,0.008,-0.661,2.04
2024-09-23 11:26:54.187,161947.024,0.007,0.615,-0.789,-0.02,-0.048,-0.006,-0.084,0.059,0.021,0.009,-0.662,2.04
2024-09-23 11:26:54.197,161947.034,0.007,0.616,-0.788,-0.005,-0.014,-0.007,-0.138,0.073,0.012,0.009,-0.663,2.041
2024-09-23 11:26:54.207,161947.044,0.008,0.617,-0.787,0.005,-0.007,0.016,-0.107,0.083,-0.003,0.01,-0.664,2.041
2024-09-23 11:26:54.217,161947.054,0.009,0.617,-0.787,0.001,-0.05,0.044,-0.055,0.092,-0.007,0.011,-0.665,2.041
2024-09-23 11:26:54.227,161947.064,0.009,0.617,-0.787,-0.015,-0.041,0.042,0.021,0.084,-0.007,0.012,-0.665,2.04
2024-09-23 11:26:54.237,161947.074,0.01,0.617,-0.787,-0.011,-0.005,0.028,0.101,0.095,-0.034,0.012,-0.665,2.04
2024-09-23 11:26:54.247,161947.084,0.01,0.617,-0.787,-0.009,0.014,0.018,-0.07,0.083,-0.034,0.013,-0.665,2.04
2024-09-23 11:26:54.257,161947.094,0.011,0.618,-0.786,-0.012,0.014,0.013,-0.256,0.073,-0.031,0.013,-0.666,2.039
2024-09-23 11:26:54.267,161947.104,0.011,0.62,-0.784,-0.013,-0.033,-0.023,-0.358,0.11,-0.047,0.014,-0.669,2.039
2024-09-23 11:26:54.277,161947.114,0.012,0.623,-0.782,-0.036,-0.03,-0.07,-0.45,0.109,-0.042,0.015,-0.673,2.038
2024-09-23 11:26:54.287,161947.124,0.012,0.627,-0.779,-0.06,-0.012,-0.029,-0.447,0.082,-0.043,0.016,-0.678,2.038
2024-09-23 11:26:54.297,161947.134,0.013,0.63,-0.777,-0.012,-0.03,-0.006,-0.33,0.079,-0.017,0.016,-0.681,2.038
2024-09-23 11:26:54.307,161947.144,0.013,0.632,-0.775,0.021,-0.002,-0.013,-0.151,0.071,0.012,0.017,-0.684,2.038
2024-09-23 11:26:54.317,161947.154,0.014,0.632,-0.775,0.016,0.045,0.009,0.022,0.05,0.072,0.018,-0.684,2.038
2024-09-23 11:26:54.327,161947.164,0.015,0.631,-0.775,0.013,0.094,0.018,0.18,0.06,0.111,0.019,-0.683,2.039
2024-09-23 11:26:54.337,161947.174,0.016,0.63,-0.777,0.002,0.129,0.02,0.301,0.063,0.076,0.02,-0.681,2.041
2024-09-23 11:26:54.347,161947.184,0.017,0.629,-0.777,-0.023,0.149,0.043,-0.577,0.027,0.323,0.023,-0.68,2.043
2024-09-23 11:26:54.357,161947.194,0.019,0.635,-0.773,-0.046,0.13,0.055,-0.885,0.041,0.282,0.025,-0.688,2.046
2024-09-23 11:26:54.367,161947.204,0.021,0.645,-0.764,-0.033,0.13,0.118,-1.517,-0.074,0.444,0.028,-0.7,2.051
2024-09-23 11:26:54.377,161947.214,0.024,0.654,-0.756,-0.056,0.051,0.273,-1.031,-0.026,0.336,0.031,-0.713,2.057
2024-09-23 11:26:54.387,161947.224,0.025,0.658,-0.752,-0.086,-0.01,0.348,-0.0,-0.182,0.292,0.033,-0.718,2.062
2024-09-23 11:26:54.397,161947.234,0.026,0.654,-0.756,-0.107,0.092,0.26,1.229,-0.091,0.59,0.035,-0.713,2.066
2024-09-23 11:26:54.406,161947.244,0.029,0.642,-0.766,-0.059,0.197,0.144,1.824,-0.186,0.513,0.037,-0.697,2.073
2024-09-23 11:26:54.417,161947.254,0.03,0.629,-0.777,0.104,0.14,-0.054,1.445,0.026,0.205,0.039,-0.68,2.077
2024-09-23 11:26:54.427,161947.264,0.032,0.622,-0.782,0.223,0.117,-0.309,0.165,0.171,0.084,0.041,-0.671,2.078
2024-09-23 11:26:54.436,161947.274,0.034,0.625,-0.78,-0.007,-0.066,-0.271,-0.834,0.398,-0.05,0.044,-0.675,2.079
2024-09-23 11:26:54.447,161947.284,0.037,0.632,-0.774,-0.139,-0.328,-0.127,-0.845,0.467,-0.044,0.048,-0.684,2.079
2024-09-23 11:26:54.456,161947.294,0.04,0.637,-0.77,-0.103,-0.469,-0.071,-0.319,0.35,-0.039,0.052,-0.69,2.079
2024-09-23 11:26:54.467,161947.304,0.042,0.638,-0.769,0.009,-0.401,-0.075,-0.153,0.206,-0.131,0.055,-0.692,2.078
2024-09-23 11:26:54.477,161947.314,0.042,0.639,-0.768,0.173,-0.163,-0.1,-0.115,0.14,-0.117,0.055,-0.694,2.076
2024-09-23 11:26:54.486,161947.324,0.043,0.64,-0.767,0.166,0.05,-0.076,0.027,0.114,-0.042,0.056,-0.694,2.075
2024-09-23 11:26:54.496,161947.334,0.043,0.639,-0.768,0.025,0.144,-0.045,0.275,-0.006,0.01,0.056,-0.693,2.075
2024-09-23 11:26:54.506,161947.344,0.043,0.636,-0.771,-0.023,0.139,0.003,0.477,-0.16,0.018,0.055,-0.689,2.075
2024-09-23 11:26:54.517,161947.354,0.041,0.632,-0.774,0.06,0.086,0.071,0.543,-0.22,0.011,0.053,-0.684,2.075
2024-09-23 11:26:54.526,161947.364,0.04,0.628,-0.777,0.116,0.054,0.086,0.447,-0.197,0.001,0.051,-0.679,2.074
2024-09-23 11:26:54.536,161947.374,0.038,0.625,-0.78,0.057,0.033,0.031,0.266,-0.137,-0.03,0.049,-0.675,2.074
2024-09-23 11:26:54.546,161947.384,0.037,0.623,-0.781,-0.023,0.027,-0.018,0.142,-0.094,-0.047,0.048,-0.673,2.073
2024-09-23 11:26:54.556,161947.394,0.036,0.623,-0.782,-0.038,-0.038,-0.022,0.093,-0.094,-0.049,0.046,-0.672,2.073
2024-09-23 11:26:54.568,161947.404,0.035,0.622,-0.782,-0.016,-0.085,-0.016,0.053,-0.082,-0.036,0.045,-0.671,2.072
2024-09-23 11:26:54.577,161947.414,0.035,0.622,-0.782,-0.004,-0.079,0.0,0.022,-0.053,-0.013,0.044,-0.671,2.072
2024-09-23 11:26:54.586,161947.424,0.034,0.621,-0.783,-0.001,-0.087,0.007,0.082,-0.016,0.039,0.044,-0.671,2.072
2024-09-23 11:26:54.596,161947.434,0.035,0.62,-0.784,-0.017,-0.034,-0.012,0.216,-0.019,0.097,0.044,-0.669,2.073
2024-09-23 11:26:54.607,161947.444,0.035,0.618,-0.785,-0.034,0.059,-0.009,0.331,-0.05,0.117,0.045,-0.666,2.074
2024-09-23 11:26:54.616,161947.454,0.036,0.615,-0.788,-0.009,0.117,0.022,0.382,-0.037,0.14,0.045,-0.663,2.075
2024-09-23 11:26:54.627,161947.463,0.036,0.612,-0.79,0.012,0.108,0.024,0.33,-0.012,0.111,0.046,-0.659,2.077
2024-09-23 11:26:54.637,161947.473,0.037,0.61,-0.791,0.001,0.032,0.019,0.162,0.035,0.073,0.047,-0.656,2.078
2024-09-23 11:26:54.646,161947.483,0.038,0.61,-0.792,-0.017,-0.03,0.017,0.016,0.098,0.043,0.047,-0.656,2.078
2024-09-23 11:26:54.656,161947.493,0.039,0.61,-0.792,-0.031,-0.08,0.036,-0.014,0.108,0.057,0.049,-0.656,2.079
2024-09-23 11:26:54.666,161947.503,0.04,0.61,-0.792,-0.04,-0.096,0.028,0.021,0.104,0.049,0.05,-0.656,2.08
2024-09-23 11:26:54.677,161947.513,0.041,0.609,-0.792,-0.013,-0.034,-0.016,0.089,0.115,0.054,0.052,-0.655,2.08
2024-09-23 11:26:54.686,161947.523,0.042,0.608,-0.793,0.014,0.015,-0.006,0.13,0.088,0.078,0.053,-0.654,2.081
2024-09-23 11:26:54.697,161947.533,0.043,0.608,-0.793,0.005,0.056,0.004,-0.02,0.005,0.116,0.054,-0.653,2.082
2024-09-23 11:26:54.706,161947.543,0.044,0.608,-0.793,-0.007,0.057,0.017,0.054,0.071,0.117,0.056,-0.653,2.084
2024-09-23 11:26:54.716,161947.553,0.046,0.607,-0.794,0.004,0.029,0.083,0.12,0.063,0.175,0.057,-0.652,2.085
2024-09-23 11:26:54.727,161947.563,0.047,0.606,-0.794,-0.029,0.0,0.061,0.093,0.043,0.131,0.059,-0.651,2.087
2024-09-23 11:26:54.736,161947.573,0.048,0.605,-0.794,-0.015,0.004,-0.003,-0.018,0.053,0.128,0.06,-0.65,2.089
2024-09-23 11:26:54.746,161947.583,0.049,0.606,-0.794,0.005,0.023,0.004,-0.01,0.106,0.132,0.062,-0.65,2.09
2024-09-23 11:26:54.756,161947.593,0.051,0.606,-0.794,-0.013,-0.02,0.005,-0.002,0.11,0.106,0.064,-0.65,2.092
2024-09-23 11:26:54.766,161947.603,0.052,0.606,-0.794,-0.026,-0.037,-0.014,-0.01,0.099,0.058,0.066,-0.65,2.093
2024-09-23 11:26:54.776,161947.613,0.053,0.606,-0.794,-0.007,-0.021,-0.018,-0.049,0.1,0.037,0.067,-0.651,2.094
2024-09-23 11:26:54.786,161947.623,0.054,0.606,-0.793,0.019,-0.05,-0.022,-0.083,0.091,-0.002,0.068,-0.651,2.094
2024-09-23 11:26:54.796,161947.633,0.055,0.607,-0.793,0.02,-0.067,-0.043,-0.105,0.063,-0.03,0.069,-0.652,2.094
2024-09-23 11:26:54.806,161947.643,0.055,0.608,-0.792,0.019,-0.056,-0.037,-0.099,0.023,-0.066,0.069,-0.654,2.093
2024-09-23 11:26:54.816,161947.653,0.054,0.609,-0.791,0.03,-0.052,-0.015,-0.073,-0.014,-0.084,0.069,-0.654,2.092
2024-09-23 11:26:54.826,161947.663,0.054,0.609,-0.791,0.04,-0.028,-0.01,-0.047,-0.033,-0.095,0.068,-0.655,2.091
2024-09-23 11:26:54.836,161947.673,0.053,0.61,-0.791,0.033,-0.007,-0.003,-0.034,-0.034,-0.094,0.067,-0.656,2.09
2024-09-23 11:26:54.846,161947.683,0.052,0.61,-0.791,0.023,-0.006,0.001,-0.019,-0.044,-0.079,0.066,-0.656,2.089
2024-09-23 11:26:54.856,161947.693,0.051,0.61,-0.791,0.01,-0.002,-0.003,0.03,-0.058,-0.072,0.064,-0.656,2.088
2024-09-23 11:26:54.866,161947.703,0.05,0.609,-0.791,0.003,0.0,0.004,0.062,-0.067,-0.075,0.063,-0.655,2.087
2024-09-23 11:26:54.876,161947.713,0.049,0.609,-0.792,0.01,0.01,0.014,0.065,-0.049,-0.074,0.062,-0.654,2.086
2024-09-23 11:26:54.886,161947.723,0.049,0.608,-0.792,0.008,0.029,0.01,0.061,-0.031,-0.065,0.061,-0.654,2.085
2024-09-23 11:26:54.896,161947.733,0.048,0.607,-0.793,-0.005,0.009,0.001,0.053,-0.022,-0.059,0.061,-0.653,2.084
2024-09-23 11:26:54.906,161947.743,0.048,0.607,-0.793,-0.006,-0.015,0.004,0.059,-0.003,-0.061,0.06,-0.652,2.084
2024-09-23 11:26:54.916,161947.753,0.048,0.607,-0.794,-0.001,-0.01,0.006,0.066,0.002,-0.058,0.06,-0.652,2.083
2024-09-23 11:26:54.926,161947.763,0.047,0.606,-0.794,-0.002,-0.006,0.008,0.082,0.002,-0.057,0.06,-0.651,2.082
2024-09-23 11:26:54.936,161947.773,0.047,0.605,-0.795,-0.0,-0.008,0.007,0.067,-0.009,-0.061,0.059,-0.65,2.082
2024-09-23 11:26:54.946,161947.783,0.047,0.605,-0.795,0.007,0.005,0.005,0.06,0.005,-0.053,0.059,-0.65,2.081
2024-09-23 11:26:54.956,161947.793,0.046,0.605,-0.795,0.005,0.014,-0.003,0.059,0.015,-0.057,0.058,-0.649,2.08
2024-09-23 11:26:54.966,161947.803,0.046,0.604,-0.795,-0.002,0.001,-0.004,0.062,0.024,-0.055,0.058,-0.649,2.079
2024-09-23 11:26:54.976,161947.813,0.046,0.604,-0.796,-0.005,-0.001,-0.002,0.085,0.027,-0.053,0.058,-0.648,2.079
2024-09-23 11:26:54.986,161947.823,0.046,0.603,-0.796,-0.001,0.002,0.006,0.134,0.028,-0.044,0.058,-0.647,2.078
2024-09-23 11:26:54.996,161947.833,0.046,0.602,-0.797,0.001,0.004,0.015,0.182,0.011,-0.029,0.058,-0.646,2.077
2024-09-23 11:26:55.006,161947.843,0.046,0.6,-0.799,0.002,0.014,0.013,0.228,-0.002,-0.028,0.057,-0.644,2.077
2024-09-23 11:26:55.016,161947.853,0.046,0.598,-0.8,0.004,0.041,0.009,0.235,-0.019,-0.028,0.057,-0.641,2.076
2024-09-23 11:26:55.026,161947.863,0.045,0.597,-0.801,0.005,0.056,0.003,0.191,-0.029,-0.028,0.057,-0.639,2.076
2024-09-23 11:26:55.036,161947.873,0.045,0.595,-0.802,0.007,0.026,0.005,0.142,-0.029,0.004,0.056,-0.638,2.076
2024-09-23 11:26:55.045,161947.883,0.045,0.595,-0.803,0.01,-0.023,0.006,0.027,-0.019,-0.017,0.056,-0.637,2.076
2024-09-23 11:26:55.055,161947.893,0.045,0.595,-0.803,0.005,-0.052,0.009,0.007,0.011,0.05,0.056,-0.637,2.076
2024-09-23 11:26:55.066,161947.903,0.045,0.595,-0.803,-0.011,-0.028,-0.018,0.003,-0.02,0.05,0.056,-0.637,2.076
2024-09-23 11:26:55.076,161947.913,0.045,0.595,-0.803,-0.022,-0.057,0.011,-0.02,-0.021,0.035,0.056,-0.637,2.077
2024-09-23 11:26:55.086,161947.923,0.046,0.595,-0.803,0.014,-0.026,0.023,-0.046,-0.011,0.064,0.057,-0.637,2.078
2024-09-23 11:26:55.095,161947.933,0.046,0.595,-0.802,-0.003,0.01,-0.011,0.007,-0.032,0.096,0.057,-0.637,2.079
2024-09-23 11:26:55.105,161947.943,0.046,0.595,-0.803,-0.011,0.002,-0.014,0.052,-0.043,0.03,0.057,-0.637,2.079
2024-09-23 11:26:55.115,161947.953,0.046,0.594,-0.803,0.004,0.039,0.004,0.024,-0.084,0.055,0.057,-0.637,2.08
2024-09-23 11:26:55.125,161947.963,0.045,0.594,-0.803,0.017,0.025,0.012,0.082,-0.088,0.066,0.056,-0.636,2.081
2024-09-23 11:26:55.135,161947.973,0.045,0.593,-0.804,0.019,-0.021,-0.004,0.142,-0.14,0.072,0.056,-0.635,2.081
2024-09-23 11:26:55.146,161947.983,0.044,0.592,-0.805,0.013,-0.002,0.017,0.224,-0.206,0.074,0.054,-0.633,2.082
2024-09-23 11:26:55.156,161947.993,0.042,0.589,-0.807,0.024,0.029,0.027,0.319,-0.202,0.034,0.052,-0.63,2.082
2024-09-23 11:26:55.166,161948.003,0.041,0.587,-0.809,0.044,0.048,0.032,0.293,-0.183,0.002,0.05,-0.627,2.082
2024-09-23 11:26:55.176,161948.013,0.039,0.584,-0.81,0.014,0.023,0.017,0.307,-0.149,0.019,0.049,-0.624,2.082
2024-09-23 11:26:55.185,161948.023,0.038,0.583,-0.812,-0.016,0.017,-0.005,0.225,-0.16,-0.03,0.047,-0.622,2.082
2024-09-23 11:26:55.196,161948.033,0.037,0.582,-0.813,-0.008,-0.012,0.007,0.086,-0.147,-0.035,0.045,-0.621,2.082
2024-09-23 11:26:55.205,161948.043,0.035,0.581,-0.813,0.006,-0.065,0.002,0.027,-0.126,-0.027,0.044,-0.62,2.081
2024-09-23 11:26:55.216,161948.053,0.035,0.581,-0.813,0.002,-0.073,-0.016,-0.069,-0.063,-0.072,0.042,-0.62,2.081
2024-09-23 11:26:55.225,161948.062,0.034,0.582,-0.812,-0.018,-0.023,-0.019,-0.155,-0.073,0.011,0.042,-0.622,2.08
2024-09-23 11:26:55.236,161948.072,0.033,0.584,-0.811,-0.027,-0.032,-0.008,-0.146,-0.047,-0.044,0.041,-0.623,2.08
2024-09-23 11:26:55.246,161948.082,0.033,0.585,-0.81,-0.006,-0.068,-0.004,-0.204,-0.046,-0.001,0.041,-0.625,2.08
2024-09-23 11:26:55.255,161948.092,0.033,0.587,-0.809,0.006,-0.026,0.011,-0.178,-0.008,0.007,0.04,-0.627,2.08
2024-09-23 11:26:55.266,161948.102,0.033,0.588,-0.808,-0.011,-0.004,-0.002,-0.184,0.031,-0.002,0.041,-0.629,2.08
2024-09-23 11:26:55.276,161948.112,0.033,0.59,-0.807,-0.003,-0.049,0.009,-0.243,0.065,0.037,0.041,-0.631,2.081
2024-09-23 11:26:55.285,161948.122,0.034,0.592,-0.805,-0.013,-0.013,0.001,-0.296,0.112,0.027,0.042,-0.633,2.081
2024-09-23 11:26:55.295,161948.132,0.036,0.594,-0.804,-0.021,-0.002,0.001,-0.297,0.161,0.034,0.044,-0.636,2.082
2024-09-23 11:26:55.305,161948.142,0.037,0.596,-0.802,-0.021,-0.023,-0.018,-0.277,0.166,0.021,0.046,-0.639,2.082
2024-09-23 11:26:55.315,161948.152,0.038,0.598,-0.8,-0.018,-0.04,0.01,-0.237,0.166,0.023,0.048,-0.641,2.083
2024-09-23 11:26:55.325,161948.162,0.04,0.6,-0.799,0.006,-0.03,0.027,-0.163,0.176,0.035,0.05,-0.643,2.083
2024-09-23 11:26:55.336,161948.172,0.042,0.601,-0.798,0.007,-0.004,0.013,-0.076,0.177,0.039,0.052,-0.644,2.084
2024-09-23 11:26:55.345,161948.182,0.043,0.601,-0.798,-0.007,0.043,0.004,0.029,0.149,0.047,0.054,-0.644,2.084
2024-09-23 11:26:55.354,161948.192,0.044,0.6,-0.799,-0.011,0.064,0.001,0.108,0.111,0.017,0.055,-0.644,2.085
2024-09-23 11:26:55.365,161948.202,0.045,0.599,-0.799,0.007,0.056,0.013,0.133,0.082,-0.007,0.056,-0.642,2.085
2024-09-23 11:26:55.375,161948.212,0.046,0.598,-0.8,0.023,0.056,0.015,0.098,0.08,-0.019,0.057,-0.641,2.084
2024-09-23 11:26:55.385,161948.222,0.046,0.597,-0.801,0.015,0.024,-0.0,0.074,0.075,-0.019,0.057,-0.64,2.084
2024-09-23 11:26:55.395,161948.232,0.046,0.597,-0.801,-0.0,-0.003,-0.011,0.067,0.051,-0.02,0.058,-0.64,2.084
2024-09-23 11:26:55.405,161948.242,0.047,0.596,-0.801,-0.002,-0.013,-0.002,0.071,0.03,-0.02,0.058,-0.639,2.083
2024-09-23 11:26:55.415,161948.252,0.047,0.596,-0.802,0.005,-0.003,0.003,0.123,0.014,-0.006,0.058,-0.638,2.083
2024-09-23 11:26:55.425,161948.262,0.047,0.594,-0.803,0.003,0.016,-0.0,0.169,-0.016,-0.024,0.058,-0.637,2.083
2024-09-23 11:26:55.435,161948.272,0.046,0.593,-0.804,0.007,0.016,0.008,0.177,-0.03,-0.03,0.057,-0.635,2.082
2024-09-23 11:26:55.445,161948.282,0.046,0.592,-0.805,0.014,0.034,0.012,0.138,-0.057,-0.007,0.057,-0.634,2.082
2024-09-23 11:26:55.455,161948.292,0.046,0.591,-0.805,0.007,0.018,-0.001,0.053,-0.05,-0.016,0.057,-0.633,2.082
2024-09-23 11:26:55.465,161948.302,0.045,0.591,-0.805,0.002,-0.009,-0.002,-0.034,0.007,-0.013,0.056,-0.633,2.082
2024-09-23 11:26:55.474,161948.312,0.045,0.592,-0.805,-0.003,-0.015,-0.017,-0.127,0.008,0.023,0.056,-0.633,2.082
2024-09-23 11:26:55.484,161948.322,0.045,0.593,-0.804,-0.024,-0.069,-0.022,-0.184,0.019,-0.031,0.056,-0.635,2.082
2024-09-23 11:26:55.494,161948.332,0.046,0.595,-0.803,-0.001,-0.086,0.009,-0.216,0.025,-0.003,0.057,-0.637,2.082
2024-09-23 11:26:55.505,161948.342,0.046,0.597,-0.801,-0.006,-0.023,-0.019,-0.22,0.056,-0.02,0.057,-0.639,2.082
2024-09-23 11:26:55.515,161948.352,0.046,0.598,-0.8,-0.015,-0.013,-0.017,-0.236,0.043,0.004,0.058,-0.642,2.082
2024-09-23 11:26:55.525,161948.362,0.047,0.6,-0.798,-0.013,-0.014,0.002,-0.236,0.065,-0.002,0.058,-0.644,2.082
2024-09-23 11:26:55.535,161948.372,0.047,0.602,-0.797,0.002,-0.033,-0.001,-0.202,0.055,0.023,0.059,-0.646,2.082
2024-09-23 11:26:55.545,161948.382,0.048,0.604,-0.796,0.001,-0.005,0.012,-0.171,0.081,0.015,0.06,-0.648,2.083
2024-09-23 11:26:55.554,161948.392,0.048,0.605,-0.795,-0.008,0.009,0.008,-0.195,0.055,0.023,0.061,-0.65,2.083
2024-09-23 11:26:55.565,161948.402,0.049,0.607,-0.793,0.0,0.003,0.021,-0.251,0.078,0.02,0.062,-0.652,2.083
2024-09-23 11:26:55.575,161948.412,0.05,0.609,-0.792,0.004,-0.032,-0.001,-0.311,0.086,0.015,0.063,-0.654,2.084
2024-09-23 11:26:55.584,161948.422,0.05,0.611,-0.79,-0.002,-0.045,0.011,-0.376,0.083,-0.006,0.064,-0.658,2.084
2024-09-23 11:26:55.595,161948.432,0.051,0.614,-0.788,-0.004,-0.061,0.01,-0.352,0.112,0.022,0.065,-0.661,2.085
2024-09-23 11:26:55.605,161948.442,0.052,0.616,-0.786,0.002,-0.06,-0.008,-0.224,0.123,0.006,0.067,-0.664,2.085
2024-09-23 11:26:55.615,161948.452,0.053,0.618,-0.785,-0.009,-0.014,0.012,-0.204,0.103,-0.012,0.068,-0.666,2.085
2024-09-23 11:26:55.625,161948.462,0.054,0.619,-0.784,0.001,0.018,0.028,-0.13,0.113,0.013,0.069,-0.667,2.085
2024-09-23 11:26:55.635,161948.472,0.055,0.62,-0.783,0.005,0.013,-0.008,-0.05,0.142,-0.002,0.07,-0.668,2.085
2024-09-23 11:26:55.645,161948.482,0.056,0.62,-0.783,-0.006,0.03,-0.004,0.001,0.114,-0.01,0.071,-0.669,2.085
2024-09-23 11:26:55.655,161948.492,0.057,0.62,-0.783,-0.012,0.024,0.014,0.07,0.079,0.038,0.072,-0.668,2.085
2024-09-23 11:26:55.665,161948.502,0.057,0.619,-0.783,0.009,0.008,0.014,0.026,0.05,-0.0,0.073,-0.667,2.086
2024-09-23 11:26:55.675,161948.512,0.058,0.619,-0.783,0.024,0.008,0.029,-0.088,0.085,0.011,0.074,-0.668,2.086
2024-09-23 11:26:55.685,161948.522,0.059,0.62,-0.782,0.01,0.028,-0.002,-0.171,0.083,0.023,0.075,-0.669,2.086
2024-09-23 11:26:55.695,161948.532,0.059,0.621,-0.781,-0.029,-0.025,-0.033,-0.138,0.035,-0.026,0.075,-0.67,2.086
2024-09-23 11:26:55.705,161948.542,0.06,0.622,-0.781,-0.04,-0.029,-0.034,-0.019,0.095,0.026,0.076,-0.671,2.086
2024-09-23 11:26:55.715,161948.552,0.061,0.622,-0.781,-0.062,0.049,-0.005,0.126,0.07,0.061,0.077,-0.671,2.087
2024-09-23 11:26:55.725,161948.562,0.061,0.62,-0.782,-0.059,0.114,0.004,0.287,-0.003,0.088,0.078,-0.669,2.087
2024-09-23 11:26:55.735,161948.572,0.061,0.617,-0.784,-0.005,0.117,-0.0,0.325,-0.242,0.2,0.078,-0.665,2.089
2024-09-23 11:26:55.745,161948.582,0.061,0.615,-0.786,0.027,0.106,0.034,0.303,-0.121,0.243,0.078,-0.662,2.092
2024-09-23 11:26:55.754,161948.592,0.061,0.614,-0.787,-0.003,0.141,0.125,-0.01,-0.202,0.267,0.078,-0.661,2.094
2024-09-23 11:26:55.764,161948.602,0.062,0.613,-0.788,-0.068,0.131,0.147,0.151,-0.11,0.261,0.078,-0.66,2.098
2024-09-23 11:26:55.775,161948.612,0.062,0.611,-0.789,-0.068,-0.07,0.096,0.243,-0.098,0.142,0.079,-0.658,2.1
2024-09-23 11:26:55.785,161948.622,0.062,0.61,-0.79,-0.021,0.077,0.104,0.131,-0.14,0.205,0.079,-0.656,2.102
2024-09-23 11:26:55.795,161948.632,0.062,0.609,-0.79,-0.046,0.087,-0.011,-0.075,-0.118,0.122,0.079,-0.655,2.104
2024-09-23 11:26:55.804,161948.642,0.062,0.61,-0.79,-0.0,0.038,-0.008,-0.129,-0.052,0.066,0.079,-0.656,2.106
2024-09-23 11:26:55.814,161948.651,0.062,0.611,-0.789,-0.037,-0.016,0.021,-0.061,-0.015,0.034,0.079,-0.657,2.106
2024-09-23 11:26:55.824,161948.661,0.062,0.611,-0.789,-0.05,-0.067,0.007,-0.015,-0.03,-0.034,0.079,-0.658,2.106
2024-09-23 11:26:55.834,161948.671,0.062,0.612,-0.789,0.012,-0.067,-0.026,-0.005,0.013,-0.065,0.078,-0.658,2.106
2024-09-23 11:26:55.844,161948.681,0.061,0.612,-0.789,0.054,-0.069,-0.044,-0.033,0.042,-0.075,0.078,-0.658,2.105
2024-09-23 11:26:55.855,161948.691,0.061,0.612,-0.788,0.039,-0.067,-0.047,-0.013,0.053,-0.082,0.078,-0.659,2.104
2024-09-23 11:26:55.864,161948.701,0.061,0.612,-0.788,0.029,-0.078,-0.044,0.024,0.039,-0.103,0.077,-0.659,2.103
2024-09-23 11:26:55.874,161948.711,0.061,0.612,-0.789,0.051,-0.077,-0.03,0.027,0.01,-0.108,0.077,-0.659,2.101
2024-09-23 11:26:55.884,161948.721,0.06,0.612,-0.789,0.072,-0.067,-0.024,0.01,-0.01,-0.105,0.076,-0.658,2.1
2024-09-23 11:26:55.894,161948.731,0.059,0.612,-0.789,0.08,-0.057,-0.022,-0.005,-0.035,-0.088,0.075,-0.659,2.099
2024-09-23 11:26:55.904,161948.741,0.058,0.612,-0.789,0.063,-0.037,-0.03,0.015,-0.083,-0.061,0.074,-0.659,2.098
2024-09-23 11:26:55.914,161948.751,0.057,0.612,-0.789,0.043,-0.017,-0.017,0.072,-0.135,-0.042,0.072,-0.658,2.097
2024-09-23 11:26:55.924,161948.761,0.056,0.611,-0.79,0.048,-0.018,0.028,0.112,-0.178,-0.041,0.07,-0.657,2.097
2024-09-23 11:26:55.934,161948.771,0.054,0.61,-0.791,0.054,-0.015,0.038,0.158,-0.173,-0.046,0.068,-0.656,2.096
2024-09-23 11:26:55.944,161948.781,0.053,0.608,-0.792,0.037,0.022,0.028,0.227,-0.123,-0.07,0.066,-0.654,2.095
2024-09-23 11:26:55.954,161948.791,0.051,0.606,-0.793,0.009,0.028,0.016,0.198,-0.095,-0.048,0.065,-0.652,2.094
2024-09-23 11:26:55.964,161948.801,0.051,0.605,-0.795,-0.012,0.021,-0.018,0.126,-0.074,-0.026,0.064,-0.65,2.094
2024-09-23 11:26:55.974,161948.811,0.05,0.604,-0.795,-0.015,-0.001,-0.034,0.065,-0.036,-0.036,0.063,-0.649,2.093
2024-09-23 11:26:55.984,161948.821,0.05,0.604,-0.795,-0.002,-0.046,-0.021,-0.036,-0.025,-0.022,0.063,-0.649,2.093
2024-09-23 11:26:55.993,161948.831,0.05,0.605,-0.795,-0.006,-0.076,-0.017,-0.105,-0.01,-0.006,0.063,-0.649,2.093
2024-09-23 11:26:56.003,161948.841,0.05,0.606,-0.794,-0.005,-0.074,-0.014,-0.15,0.014,-0.012,0.063,-0.651,2.093
2024-09-23 11:26:56.014,161948.851,0.05,0.607,-0.793,-0.0,-0.06,-0.004,-0.139,0.035,0.013,0.063,-0.652,2.093
2024-09-23 11:26:56.024,161948.861,0.051,0.608,-0.793,-0.011,-0.031,-0.003,-0.071,0.033,0.016,0.064,-0.653,2.094
2024-09-23 11:26:56.034,161948.871,0.051,0.608,-0.792,-0.013,-0.015,-0.0,0.004,0.034,0.005,0.064,-0.654,2.094
2024-09-23 11:26:56.044,161948.881,0.051,0.608,-0.792,-0.003,0.035,0.01,0.061,0.033,-0.002,0.064,-0.653,2.094
2024-09-23 11:26:56.054,161948.891,0.051,0.607,-0.793,-0.002,0.057,0.009,0.097,0.015,-0.012,0.065,-0.652,2.094
2024-09-23 11:26:56.064,161948.901,0.051,0.606,-0.794,0.005,0.031,0.01,0.108,-0.0,-0.016,0.064,-0.651,2.093
2024-09-23 11:26:56.074,161948.911,0.051,0.605,-0.794,0.012,0.02,0.015,0.083,0.007,-0.033,0.064,-0.65,2.093
2024-09-23 11:26:56.084,161948.921,0.051,0.605,-0.795,0.011,0.007,0.018,0.022,0.026,-0.031,0.064,-0.65,2.092
2024-09-23 11:26:56.094,161948.931,0.051,0.605,-0.795,0.001,-0.011,-0.001,-0.03,0.041,-0.029,0.064,-0.65,2.092
2024-09-23 11:26:56.105,161948.941,0.051,0.605,-0.794,-0.01,-0.032,-0.013,-0.049,0.052,-0.039,0.064,-0.65,2.092
2024-09-23 11:26:56.114,161948.951,0.051,0.606,-0.794,-0.005,-0.034,-0.008,-0.026,0.057,-0.033,0.065,-0.65,2.091
2024-09-23 11:26:56.123,161948.961,0.052,0.606,-0.794,-0.001,-0.02,-0.003,0.033,0.038,-0.019,0.065,-0.65,2.091
2024-09-23 11:26:56.132,161948.971,0.052,0.605,-0.794,-0.001,0.001,0.006,0.087,0.029,-0.023,0.065,-0.65,2.09
2024-09-23 11:26:56.143,161948.981,0.052,0.604,-0.795,0.005,0.027,0.018,0.125,0.021,-0.005,0.065,-0.649,2.09
2024-09-23 11:26:56.153,161948.991,0.052,0.603,-0.796,0.005,0.04,0.012,0.148,0.01,0.003,0.065,-0.648,2.09
2024-09-23 11:26:56.163,161949.001,0.052,0.602,-0.797,-0.003,0.031,0.005,0.156,0.005,-0.009,0.065,-0.646,2.09
2024-09-23 11:26:56.174,161949.011,0.052,0.601,-0.798,-0.001,0.03,0.006,0.142,-0.003,-0.023,0.065,-0.645,2.09
2024-09-23 11:26:56.184,161949.021,0.052,0.6,-0.798,0.006,0.01,0.011,0.115,-0.01,-0.025,0.065,-0.643,2.089
2024-09-23 11:26:56.194,161949.031,0.052,0.599,-0.799,0.01,-0.01,0.006,0.112,-0.015,-0.026,0.064,-0.642,2.089
2024-09-23 11:26:56.204,161949.041,0.051,0.598,-0.8,0.005,-0.012,0.002,0.111,-0.022,-0.021,0.064,-0.641,2.088
2024-09-23 11:26:56.214,161949.051,0.051,0.597,-0.801,0.006,-0.011,0.01,0.141,-0.03,-0.007,0.064,-0.64,2.088
2024-09-23 11:26:56.224,161949.061,0.051,0.596,-0.801,0.003,-0.0,0.007,0.166,-0.049,-0.001,0.063,-0.638,2.088
2024-09-23 11:26:56.234,161949.071,0.05,0.595,-0.802,0.001,0.016,0.013,0.148,-0.054,0.003,0.063,-0.637,2.088
2024-09-23 11:26:56.244,161949.081,0.05,0.594,-0.803,0.005,0.03,0.012,0.065,-0.04,-0.002,0.062,-0.636,2.088
2024-09-23 11:26:56.254,161949.091,0.05,0.594,-0.803,0.005,0.016,-0.002,0.041,-0.036,0.034,0.062,-0.636,2.088
2024-09-23 11:26:56.264,161949.101,0.049,0.594,-0.803,-0.014,-0.01,-0.021,0.043,-0.042,-0.0,0.061,-0.636,2.088
2024-09-23 11:26:56.274,161949.111,0.049,0.594,-0.803,-0.003,-0.052,0.012,-0.004,-0.041,0.003,0.061,-0.635,2.088
2024-09-23 11:26:56.284,161949.121,0.049,0.594,-0.803,0.012,-0.022,0.01,-0.03,-0.063,0.04,0.061,-0.636,2.089
2024-09-23 11:26:56.294,161949.131,0.049,0.593,-0.803,-0.0,-0.012,-0.005,0.109,-0.058,0.033,0.061,-0.635,2.089
2024-09-23 11:26:56.304,161949.141,0.048,0.593,-0.804,-0.001,0.004,0.001,0.099,-0.072,-0.009,0.06,-0.634,2.089
2024-09-23 11:26:56.314,161949.151,0.048,0.592,-0.805,0.009,0.042,0.016,0.095,-0.09,0.047,0.059,-0.633,2.089
2024-09-23 11:26:56.324,161949.161,0.047,0.591,-0.805,0.004,0.033,0.004,0.106,-0.095,0.045,0.059,-0.632,2.09
2024-09-23 11:26:56.333,161949.171,0.047,0.59,-0.806,0.01,-0.012,0.006,0.096,-0.106,0.031,0.058,-0.631,2.09
2024-09-23 11:26:56.344,161949.181,0.046,0.589,-0.807,0.007,-0.007,0.011,0.123,-0.152,0.068,0.057,-0.63,2.091
2024-09-23 11:26:56.354,161949.191,0.045,0.588,-0.808,0.004,-0.013,0.007,0.186,-0.149,0.038,0.056,-0.628,2.091
2024-09-23 11:26:56.364,161949.201,0.044,0.586,-0.809,0.022,0.004,0.02,0.207,-0.135,0.01,0.054,-0.626,2.091
2024-09-23 11:26:56.374,161949.211,0.043,0.585,-0.81,0.012,0.034,0.022,0.222,-0.122,0.007,0.053,-0.624,2.091
2024-09-23 11:26:56.384,161949.221,0.042,0.583,-0.811,-0.005,0.028,0.007,0.151,-0.137,-0.013,0.052,-0.622,2.091
2024-09-23 11:26:56.394,161949.231,0.041,0.582,-0.812,0.002,-0.023,0.014,0.177,-0.124,0.022,0.051,-0.621,2.091
2024-09-23 11:26:56.404,161949.241,0.04,0.581,-0.813,0.01,-0.051,0.007,0.126,-0.109,0.0,0.049,-0.619,2.091
2024-09-23 11:26:56.414,161949.25,0.04,0.58,-0.814,0.005,-0.013,0.006,0.091,-0.093,0.017,0.049,-0.618,2.091
2024-09-23 11:26:56.424,161949.26,0.039,0.579,-0.814,-0.013,-0.005,-0.005,0.015,-0.055,0.021,0.048,-0.618,2.092
2024-09-23 11:26:56.433,161949.27,0.039,0.579,-0.814,-0.009,-0.019,-0.009,-0.041,-0.049,0.043,0.048,-0.618,2.092
2024-09-23 11:26:56.443,161949.28,0.039,0.58,-0.814,-0.016,-0.018,-0.011,-0.009,-0.029,0.018,0.048,-0.618,2.092
2024-09-23 11:26:56.453,161949.29,0.039,0.58,-0.814,-0.01,-0.026,0.004,-0.059,-0.023,0.024,0.048,-0.619,2.093
2024-09-23 11:26:56.464,161949.3,0.039,0.581,-0.813,0.007,-0.037,0.019,-0.068,-0.007,0.029,0.048,-0.619,2.093
2024-09-23 11:26:56.473,161949.31,0.039,0.581,-0.813,0.001,-0.027,0.011,-0.051,0.013,0.034,0.048,-0.62,2.093
2024-09-23 11:26:56.483,161949.32,0.039,0.581,-0.813,-0.004,-0.018,0.011,-0.017,0.04,0.03,0.048,-0.62,2.094
2024-09-23 11:26:56.494,161949.33,0.04,0.581,-0.813,-0.011,0.008,0.002,-0.062,0.062,0.023,0.049,-0.62,2.094
2024-09-23 11:26:56.503,161949.34,0.041,0.582,-0.812,-0.013,0.018,0.002,-0.16,0.088,0.04,0.05,-0.622,2.095
2024-09-23 11:26:56.513,161949.35,0.042,0.584,-0.811,-0.012,-0.017,-0.008,-0.26,0.125,0.042,0.052,-0.624,2.095
2024-09-23 11:26:56.523,161949.36,0.043,0.586,-0.809,-0.013,-0.047,-0.018,-0.309,0.133,0.056,0.053,-0.626,2.096
2024-09-23 11:26:56.533,161949.37,0.044,0.588,-0.807,-0.014,-0.06,-0.004,-0.285,0.141,0.035,0.055,-0.629,2.097
2024-09-23 11:26:56.543,161949.38,0.046,0.59,-0.806,0.002,-0.07,0.023,-0.231,0.155,0.023,0.057,-0.632,2.097
2024-09-23 11:26:56.553,161949.39,0.047,0.592,-0.805,0.01,-0.034,0.021,-0.178,0.175,0.023,0.059,-0.634,2.098
2024-09-23 11:26:56.563,161949.4,0.049,0.593,-0.804,-0.014,0.014,-0.002,-0.111,0.174,0.028,0.061,-0.635,2.098
2024-09-23 11:26:56.573,161949.41,0.05,0.594,-0.803,-0.032,0.057,-0.024,-0.006,0.126,0.02,0.062,-0.635,2.098
2024-09-23 11:26:56.583,161949.42,0.051,0.593,-0.803,-0.021,0.06,-0.012,0.07,0.071,-0.005,0.063,-0.635,2.099
2024-09-23 11:26:56.593,161949.43,0.051,0.593,-0.804,0.013,0.064,0.015,0.098,0.037,-0.028,0.064,-0.634,2.098
2024-09-23 11:26:56.603,161949.44,0.051,0.592,-0.805,0.034,0.046,0.017,0.102,0.02,-0.036,0.064,-0.633,2.098
2024-09-23 11:26:56.613,161949.45,0.051,0.591,-0.805,0.025,0.017,0.007,0.107,-0.0,-0.042,0.063,-0.632,2.097
2024-09-23 11:26:56.623,161949.46,0.051,0.59,-0.806,0.011,0.003,0.008,0.118,-0.013,-0.047,0.063,-0.631,2.096
2024-09-23 11:26:56.633,161949.47,0.05,0.589,-0.807,0.01,-0.009,0.008,0.1,-0.011,-0.048,0.062,-0.63,2.096
2024-09-23 11:26:56.643,161949.48,0.05,0.588,-0.807,0.006,0.003,0.005,0.082,0.001,-0.033,0.062,-0.629,2.095
2024-09-23 11:26:56.653,161949.49,0.05,0.588,-0.808,-0.006,0.013,-0.003,0.091,-0.007,-0.02,0.062,-0.628,2.095
2024-09-23 11:26:56.663,161949.5,0.05,0.587,-0.808,-0.008,-0.004,-0.007,0.132,-0.027,-0.014,0.061,-0.627,2.094
2024-09-23 11:26:56.673,161949.51,0.049,0.586,-0.809,0.002,0.004,0.002,0.184,-0.044,-0.016,0.061,-0.626,2.094
2024-09-23 11:26:56.683,161949.52,0.049,0.584,-0.81,0.007,0.032,0.008,0.185,-0.064,-0.015,0.06,-0.624,2.094
2024-09-23 11:26:56.692,161949.53,0.048,0.583,-0.811,0.006,0.045,0.014,0.065,-0.052,-0.017,0.059,-0.623,2.094
2024-09-23 11:26:56.703,161949.54,0.048,0.583,-0.811,0.005,0.02,0.008,-0.077,0.007,-0.002,0.059,-0.623,2.093
2024-09-23 11:26:56.712,161949.55,0.048,0.584,-0.81,0.001,-0.019,-0.023,-0.169,0.016,0.02,0.059,-0.624,2.094
2024-09-23 11:26:56.723,161949.56,0.048,0.586,-0.809,-0.03,-0.086,-0.042,-0.22,0.017,0.001,0.06,-0.626,2.094
2024-09-23 11:26:56.733,161949.57,0.049,0.588,-0.808,-0.004,-0.115,0.027,-0.23,0.052,0.021,0.06,-0.628,2.094
2024-09-23 11:26:56.745,161949.58,0.049,0.59,-0.806,0.007,-0.041,-0.003,-0.194,0.041,0.053,0.061,-0.631,2.095
2024-09-23 11:26:56.753,161949.59,0.05,0.591,-0.805,-0.016,0.009,-0.014,-0.114,0.045,0.04,0.062,-0.632,2.096
2024-09-23 11:26:56.763,161949.6,0.051,0.592,-0.805,-0.009,0.028,0.002,-0.154,0.053,0.05,0.063,-0.633,2.096
2024-09-23 11:26:56.772,161949.61,0.051,0.593,-0.803,0.002,0.032,0.015,-0.232,0.081,0.048,0.064,-0.635,2.097
2024-09-23 11:26:56.782,161949.62,0.052,0.595,-0.802,-0.007,-0.035,0.001,-0.29,0.099,0.054,0.065,-0.638,2.098
2024-09-23 11:26:56.793,161949.63,0.054,0.598,-0.8,-0.008,-0.061,-0.02,-0.368,0.126,0.022,0.067,-0.641,2.099
2024-09-23 11:26:56.803,161949.64,0.055,0.601,-0.797,-0.014,-0.033,-0.014,-0.442,0.103,0.049,0.068,-0.645,2.099
2024-09-23 11:26:56.813,161949.65,0.056,0.604,-0.795,-0.011,-0.054,0.005,-0.413,0.119,0.017,0.07,-0.649,2.1
2024-09-23 11:26:56.823,161949.66,0.057,0.607,-0.793,0.005,-0.067,-0.001,-0.309,0.093,0.037,0.071,-0.652,2.101
2024-09-23 11:26:56.833,161949.67,0.057,0.609,-0.791,-0.003,-0.038,0.02,-0.072,0.023,0.022,0.072,-0.654,2.102
2024-09-23 11:26:56.843,161949.68,0.057,0.608,-0.792,0.004,0.001,0.029,0.15,0.006,-0.062,0.072,-0.654,2.101
2024-09-23 11:26:56.853,161949.69,0.058,0.607,-0.793,0.01,0.081,0.056,0.272,0.094,0.012,0.073,-0.652,2.101
2024-09-23 11:26:56.873,161949.7,0.058,0.604,-0.795,-0.033,0.095,0.04,0.38,0.088,-0.015,0.073,-0.649,2.1
2024-09-23 11:26:56.877,161949.71,0.059,0.601,-0.797,-0.04,0.042,0.019,0.306,0.075,-0.024,0.074,-0.645,2.1
2024-09-23 11:26:56.882,161949.72,0.059,0.6,-0.798,-0.005,0.018,0.017,0.056,0.107,-0.042,0.074,-0.643,2.099
2024-09-23 11:26:56.892,161949.73,0.06,0.6,-0.798,0.001,0.028,0.001,-0.094,0.147,0.017,0.075,-0.643,2.099
2024-09-23 11:26:56.903,161949.74,0.061,0.601,-0.797,-0.047,0.006,-0.066,-0.124,0.113,0.012,0.077,-0.645,2.099
2024-09-23 11:26:56.913,161949.75,0.062,0.602,-0.796,-0.068,-0.051,-0.02,-0.081,0.043,0.005,0.078,-0.646,2.099
2024-09-23 11:26:56.923,161949.76,0.062,0.602,-0.796,-0.008,0.004,0.022,-0.049,-0.099,0.073,0.078,-0.646,2.1
2024-09-23 11:26:56.933,161949.77,0.061,0.602,-0.796,0.023,0.046,0.009,0.003,0.039,0.064,0.077,-0.647,2.1
2024-09-23 11:26:56.943,161949.78,0.062,0.602,-0.796,-0.028,0.131,0.059,0.062,0.024,0.124,0.078,-0.646,2.101
2024-09-23 11:26:56.953,161949.79,0.062,0.603,-0.796,-0.164,0.119,0.094,-0.18,-0.215,0.091,0.078,-0.647,2.103
2024-09-23 11:26:56.963,161949.8,0.061,0.604,-0.795,-0.135,0.013,0.051,-0.164,-0.047,0.044,0.077,-0.648,2.104
2024-09-23 11:26:56.972,161949.81,0.062,0.605,-0.794,-0.044,0.11,0.166,-0.031,-0.002,0.093,0.077,-0.649,2.104
2024-09-23 11:26:56.982,161949.82,0.062,0.605,-0.794,-0.125,0.092,0.127,0.035,-0.09,0.069,0.078,-0.649,2.106
2024-09-23 11:26:56.992,161949.83,0.061,0.604,-0.795,-0.083,0.01,0.028,0.063,-0.11,0.013,0.077,-0.649,2.106
2024-09-23 11:26:57.003,161949.84,0.06,0.604,-0.795,0.055,0.044,-0.0,0.086,-0.064,0.005,0.076,-0.648,2.106
2024-09-23 11:26:57.012,161949.849,0.06,0.603,-0.796,0.07,-0.005,-0.016,0.112,-0.034,0.013,0.076,-0.647,2.106
2024-09-23 11:26:57.022,161949.859,0.06,0.602,-0.796,0.067,-0.08,-0.045,0.118,-0.011,-0.04,0.075,-0.646,2.106
2024-09-23 11:26:57.032,161949.869,0.06,0.601,-0.797,0.092,-0.102,-0.071,0.067,0.031,-0.054,0.075,-0.645,2.105
2024-09-23 11:26:57.042,161949.879,0.06,0.601,-0.797,0.114,-0.108,-0.07,-0.004,0.041,-0.064,0.075,-0.645,2.104
2024-09-23 11:26:57.052,161949.889,0.06,0.601,-0.797,0.114,-0.109,-0.078,-0.067,0.014,-0.066,0.075,-0.645,2.104
2024-09-23 11:26:57.063,161949.899,0.059,0.602,-0.796,0.111,-0.1,-0.077,-0.086,0.02,-0.147,0.074,-0.646,2.102
2024-09-23 11:26:57.073,161949.909,0.058,0.603,-0.796,0.095,-0.076,-0.044,-0.063,-0.033,-0.145,0.073,-0.647,2.101
2024-09-23 11:26:57.083,161949.919,0.057,0.603,-0.795,0.07,-0.062,-0.026,-0.032,-0.087,-0.155,0.071,-0.648,2.099
2024-09-23 11:26:57.093,161949.929,0.055,0.603,-0.795,0.056,-0.029,-0.017,-0.006,-0.102,-0.123,0.069,-0.648,2.097
2024-09-23 11:26:57.102,161949.939,0.054,0.604,-0.795,0.036,0.011,0.003,-0.067,-0.074,-0.045,0.068,-0.648,2.096
2024-09-23 11:26:57.112,161949.949,0.053,0.604,-0.795,0.008,0.013,0.026,-0.047,-0.075,0.008,0.067,-0.649,2.096
2024-09-23 11:26:57.122,161949.959,0.053,0.604,-0.795,-0.007,-0.0,0.022,0.012,-0.095,0.026,0.066,-0.649,2.096
2024-09-23 11:26:57.134,161949.969,0.052,0.604,-0.795,-0.004,-0.001,0.005,-0.001,-0.085,0.034,0.066,-0.649,2.097
2024-09-23 11:26:57.141,161949.979,0.052,0.604,-0.795,-0.003,0.024,-0.013,-0.048,-0.076,0.046,0.065,-0.649,2.097
2024-09-23 11:26:57.153,161949.989,0.052,0.605,-0.795,-0.008,0.005,-0.024,-0.08,-0.077,0.05,0.065,-0.649,2.098
2024-09-23 11:26:57.162,161949.999,0.052,0.605,-0.794,-0.011,-0.035,-0.02,-0.041,-0.066,0.039,0.065,-0.65,2.099
2024-09-23 11:26:57.172,161950.009,0.051,0.605,-0.794,-0.002,-0.035,-0.004,0.001,-0.051,0.025,0.065,-0.65,2.099
2024-09-23 11:26:57.183,161950.019,0.051,0.605,-0.794,0.004,-0.005,0.008,-0.017,-0.045,0.028,0.064,-0.65,2.099
2024-09-23 11:26:57.192,161950.029,0.051,0.605,-0.794,0.005,0.018,0.005,-0.002,-0.039,0.037,0.064,-0.65,2.1
2024-09-23 11:26:57.202,161950.039,0.051,0.605,-0.794,0.001,0.005,-0.0,0.031,-0.033,0.042,0.064,-0.65,2.1
2024-09-23 11:26:57.212,161950.049,0.051,0.605,-0.795,-0.006,-0.017,0.012,0.06,-0.033,0.044,0.064,-0.65,2.101
2024-09-23 11:26:57.222,161950.059,0.051,0.604,-0.795,-0.01,0.001,0.023,0.099,-0.04,0.043,0.064,-0.649,2.101
2024-09-23 11:26:57.232,161950.069,0.051,0.603,-0.796,-0.006,0.021,0.014,0.127,-0.036,0.031,0.064,-0.648,2.102
2024-09-23 11:26:57.242,161950.079,0.051,0.602,-0.797,0.002,0.025,0.013,0.115,-0.02,0.026,0.064,-0.646,2.102
2024-09-23 11:26:57.252,161950.089,0.051,0.601,-0.798,0.002,0.022,0.015,0.085,-0.001,0.024,0.064,-0.645,2.102
2024-09-23 11:26:57.263,161950.099,0.051,0.601,-0.798,-0.004,-0.011,0.007,0.045,0.015,0.027,0.064,-0.644,2.102
2024-09-23 11:26:57.272,161950.109,0.051,0.6,-0.798,-0.009,-0.019,0.002,0.021,0.028,0.026,0.064,-0.644,2.103
2024-09-23 11:26:57.282,161950.119,0.052,0.6,-0.798,-0.009,-0.028,-0.0,0.006,0.042,0.026,0.065,-0.644,2.103
2024-09-23 11:26:57.292,161950.129,0.052,0.6,-0.798,-0.006,-0.027,0.003,-0.008,0.055,0.021,0.065,-0.644,2.103
2024-09-23 11:26:57.302,161950.139,0.053,0.601,-0.798,-0.005,-0.013,0.001,-0.02,0.064,0.019,0.066,-0.644,2.103
2024-09-23 11:26:57.312,161950.149,0.053,0.601,-0.798,-0.003,-0.021,-0.001,-0.009,0.056,0.015,0.067,-0.645,2.104
2024-09-23 11:26:57.322,161950.159,0.054,0.601,-0.797,-0.004,-0.01,0.003,0.001,0.051,0.009,0.067,-0.645,2.104
2024-09-23 11:26:57.332,161950.169,0.054,0.601,-0.797,0.0,0.006,0.005,0.021,0.044,0.008,0.068,-0.645,2.104
2024-09-23 11:26:57.342,161950.179,0.055,0.601,-0.798,0.005,0.002,0.009,0.051,0.026,0.002,0.068,-0.644,2.104
2024-09-23 11:26:57.352,161950.189,0.055,0.6,-0.798,0.004,0.004,0.007,0.092,0.015,-0.011,0.068,-0.644,2.104
2024-09-23 11:26:57.362,161950.199,0.055,0.599,-0.799,0.007,0.016,0.008,0.124,0.013,-0.021,0.068,-0.642,2.103
2024-09-23 11:26:57.372,161950.209,0.055,0.598,-0.8,0.011,0.023,0.01,0.143,0.01,-0.023,0.068,-0.641,2.103
2024-09-23 11:26:57.382,161950.219,0.055,0.597,-0.8,0.011,0.025,0.003,0.129,0.026,-0.026,0.068,-0.64,2.103
2024-09-23 11:26:57.392,161950.229,0.055,0.596,-0.801,0.006,0.006,0.002,0.109,0.02,-0.014,0.068,-0.638,2.102
2024-09-23 11:26:57.402,161950.239,0.055,0.595,-0.802,-0.004,-0.006,0.002,0.086,0.029,-0.008,0.068,-0.637,2.102
2024-09-23 11:26:57.412,161950.249,0.055,0.595,-0.802,-0.008,-0.012,0.004,0.065,0.038,0.008,0.068,-0.637,2.102
2024-09-23 11:26:57.422,161950.259,0.055,0.594,-0.802,-0.006,-0.011,0.006,0.059,0.033,0.015,0.069,-0.636,2.102
2024-09-23 11:26:57.432,161950.269,0.056,0.594,-0.803,-0.004,-0.015,-0.003,0.064,0.018,0.003,0.069,-0.636,2.102
2024-09-23 11:26:57.442,161950.279,0.056,0.593,-0.803,0.003,0.001,0.001,0.078,0.021,-0.013,0.069,-0.635,2.102
2024-09-23 11:26:57.452,161950.289,0.056,0.593,-0.803,0.009,0.013,0.005,0.073,0.019,-0.022,0.069,-0.635,2.102
2024-09-23 11:26:57.462,161950.299,0.056,0.592,-0.804,0.007,0.004,0.005,0.062,0.021,-0.025,0.069,-0.634,2.101
2024-09-23 11:26:57.472,161950.309,0.056,0.592,-0.804,0.001,-0.007,0.007,0.076,0.015,-0.014,0.069,-0.634,2.101
2024-09-23 11:26:57.482,161950.319,0.056,0.591,-0.805,0.001,-0.011,0.005,0.121,0.007,-0.014,0.069,-0.633,2.101
2024-09-23 11:26:57.492,161950.329,0.056,0.59,-0.805,0.003,0.001,0.007,0.157,-0.011,-0.012,0.069,-0.631,2.101
2024-09-23 11:26:57.501,161950.339,0.056,0.589,-0.806,0.003,0.023,0.014,0.191,-0.014,-0.011,0.069,-0.629,2.1
2024-09-23 11:26:57.513,161950.349,0.055,0.587,-0.808,0.008,0.028,0.013,0.187,-0.003,-0.007,0.068,-0.628,2.1
2024-09-23 11:26:57.522,161950.359,0.055,0.586,-0.808,0.01,0.02,0.006,0.131,0.006,-0.011,0.068,-0.626,2.1
2024-09-23 11:26:57.531,161950.369,0.055,0.585,-0.809,0.002,0.003,-0.002,0.09,0.019,-0.013,0.068,-0.625,2.1
2024-09-23 11:26:57.541,161950.379,0.056,0.585,-0.809,-0.005,-0.017,-0.003,0.061,0.026,-0.012,0.069,-0.624,2.099
2024-09-23 11:26:57.551,161950.389,0.056,0.584,-0.81,-0.006,-0.031,0.0,0.039,0.015,0.001,0.069,-0.624,2.099
2024-09-23 11:26:57.561,161950.399,0.056,0.584,-0.81,-0.004,-0.024,-0.0,0.055,-0.023,0.007,0.069,-0.624,2.099
2024-09-23 11:26:57.571,161950.409,0.056,0.583,-0.81,0.003,-0.014,-0.0,0.075,-0.019,0.012,0.069,-0.623,2.099
2024-09-23 11:26:57.581,161950.419,0.056,0.583,-0.811,0.01,0.008,0.012,0.113,-0.03,0.014,0.068,-0.622,2.099
2024-09-23 11:26:57.591,161950.429,0.055,0.582,-0.811,0.005,0.046,0.001,0.102,-0.019,0.003,0.068,-0.621,2.099
2024-09-23 11:26:57.601,161950.439,0.055,0.582,-0.812,0.005,-0.003,0.016,0.071,-0.015,0.01,0.068,-0.621,2.1
2024-09-23 11:26:57.611,161950.448,0.055,0.581,-0.812,-0.006,-0.017,0.01,0.048,-0.012,0.016,0.068,-0.62,2.1
2024-09-23 11:26:57.621,161950.458,0.055,0.581,-0.812,-0.006,-0.011,0.001,0.05,-0.011,0.024,0.068,-0.619,2.1
2024-09-23 11:26:57.631,161950.468,0.055,0.58,-0.813,-0.0,-0.021,0.002,0.054,-0.006,0.03,0.068,-0.619,2.1
2024-09-23 11:26:57.642,161950.478,0.056,0.58,-0.813,-0.001,-0.015,0.005,0.026,-0.015,0.041,0.068,-0.618,2.1
2024-09-23 11:26:57.651,161950.488,0.056,0.579,-0.813,-0.004,0.004,0.003,0.022,-0.02,0.065,0.068,-0.618,2.101
2024-09-23 11:26:57.661,161950.498,0.056,0.579,-0.813,0.001,-0.008,0.0,-0.032,-0.029,0.054,0.069,-0.618,2.102
2024-09-23 11:26:57.671,161950.508,0.056,0.58,-0.813,0.003,-0.004,-0.006,-0.017,-0.038,0.062,0.069,-0.618,2.103
2024-09-23 11:26:57.681,161950.518,0.056,0.579,-0.813,-0.001,-0.004,-0.002,0.055,-0.039,0.04,0.069,-0.618,2.103
2024-09-23 11:26:57.691,161950.528,0.056,0.579,-0.813,0.002,-0.019,0.008,0.027,-0.098,0.066,0.069,-0.618,2.104
2024-09-23 11:26:57.701,161950.538,0.056,0.578,-0.814,0.005,0.013,0.014,0.13,-0.087,0.062,0.068,-0.617,2.105
2024-09-23 11:26:57.711,161950.548,0.055,0.577,-0.815,0.006,0.014,0.007,0.149,-0.103,0.066,0.068,-0.615,2.105
2024-09-23 11:26:57.721,161950.558,0.055,0.576,-0.816,0.013,0.025,0.016,0.131,-0.14,0.071,0.067,-0.614,2.106
2024-09-23 11:26:57.731,161950.568,0.054,0.575,-0.817,0.005,0.028,0.003,0.195,-0.143,0.067,0.066,-0.612,2.107
2024-09-23 11:26:57.741,161950.578,0.053,0.573,-0.818,0.011,-0.006,0.009,0.211,-0.144,0.042,0.065,-0.61,2.107
2024-09-23 11:26:57.752,161950.588,0.052,0.571,-0.819,0.012,0.002,0.017,0.212,-0.149,0.039,0.064,-0.608,2.108
2024-09-23 11:26:57.761,161950.598,0.051,0.57,-0.82,0.006,0.028,0.014,0.17,-0.162,0.037,0.062,-0.606,2.108
2024-09-23 11:26:57.772,161950.608,0.05,0.568,-0.821,0.01,-0.007,0.006,0.127,-0.141,0.015,0.061,-0.604,2.108
2024-09-23 11:26:57.782,161950.618,0.049,0.567,-0.822,0.016,-0.032,-0.001,0.153,-0.154,0.053,0.06,-0.603,2.108
2024-09-23 11:26:57.791,161950.628,0.048,0.566,-0.823,0.006,-0.024,0.004,0.141,-0.146,0.021,0.059,-0.602,2.109
2024-09-23 11:26:57.801,161950.638,0.047,0.565,-0.824,-0.002,-0.015,0.003,0.154,-0.133,0.04,0.057,-0.601,2.109
2024-09-23 11:26:57.811,161950.648,0.047,0.564,-0.824,-0.003,0.018,0.01,0.1,-0.126,0.046,0.057,-0.6,2.11
2024-09-23 11:26:57.821,161950.658,0.046,0.564,-0.825,-0.003,-0.011,0.003,0.118,-0.1,0.069,0.056,-0.599,2.11
2024-09-23 11:26:57.831,161950.668,0.046,0.563,-0.825,-0.003,-0.025,-0.001,0.046,-0.075,0.055,0.055,-0.598,2.111
2024-09-23 11:26:57.841,161950.678,0.046,0.563,-0.825,-0.004,0.0,-0.005,-0.043,-0.062,0.072,0.055,-0.598,2.112
2024-09-23 11:26:57.851,161950.688,0.046,0.564,-0.825,-0.008,-0.014,-0.01,-0.095,-0.046,0.051,0.055,-0.599,2.113
2024-09-23 11:26:57.861,161950.698,0.046,0.564,-0.824,-0.011,-0.056,-0.007,-0.061,-0.011,0.018,0.055,-0.599,2.113
2024-09-23 11:26:57.871,161950.708,0.046,0.565,-0.824,-0.007,-0.032,0.005,-0.093,0.053,-0.006,0.056,-0.6,2.113
2024-09-23 11:26:57.881,161950.718,0.046,0.566,-0.823,-0.009,-0.018,0.007,-0.2,0.092,0.02,0.056,-0.602,2.114
2024-09-23 11:26:57.891,161950.728,0.048,0.568,-0.822,-0.023,-0.035,0.003,-0.264,0.124,0.019,0.058,-0.604,2.114
2024-09-23 11:26:57.901,161950.738,0.049,0.57,-0.82,-0.035,-0.079,-0.009,-0.32,0.145,-0.01,0.059,-0.607,2.114
2024-09-23 11:26:57.911,161950.748,0.05,0.573,-0.818,-0.027,-0.041,-0.003,-0.348,0.142,-0.01,0.061,-0.61,2.114
2024-09-23 11:26:57.921,161950.758,0.051,0.576,-0.816,-0.015,-0.009,0.006,-0.312,0.152,-0.003,0.062,-0.613,2.114
2024-09-23 11:26:57.931,161950.768,0.052,0.578,-0.815,-0.009,-0.036,0.005,-0.266,0.156,-0.004,0.064,-0.616,2.115
2024-09-23 11:26:57.941,161950.778,0.053,0.58,-0.813,-0.006,-0.01,0.012,-0.23,0.151,-0.027,0.065,-0.618,2.115
2024-09-23 11:26:57.951,161950.788,0.054,0.581,-0.812,-0.006,0.033,-0.002,-0.173,0.148,-0.042,0.067,-0.62,2.114
2024-09-23 11:26:57.961,161950.798,0.055,0.582,-0.811,-0.01,0.013,-0.003,-0.105,0.132,-0.025,0.068,-0.622,2.114
2024-09-23 11:26:57.971,161950.808,0.056,0.583,-0.811,-0.011,0.007,0.016,-0.039,0.091,-0.034,0.069,-0.622,2.114
2024-09-23 11:26:57.981,161950.818,0.056,0.583,-0.811,0.017,0.029,0.012,0.018,0.068,-0.039,0.069,-0.622,2.113
2024-09-23 11:26:57.991,161950.828,0.056,0.583,-0.811,0.031,0.041,0.011,0.038,0.05,-0.04,0.069,-0.622,2.113
2024-09-23 11:26:58.001,161950.838,0.057,0.582,-0.811,0.019,0.029,0.015,0.029,0.05,-0.04,0.07,-0.622,2.112
2024-09-23 11:26:58.011,161950.848,0.057,0.582,-0.811,0.013,0.01,0.008,0.009,0.045,-0.039,0.07,-0.621,2.112
2024-09-23 11:26:58.020,161950.858,0.057,0.582,-0.811,0.009,-0.0,-0.005,-0.0,0.038,-0.036,0.07,-0.621,2.111
2024-09-23 11:26:58.031,161950.868,0.057,0.582,-0.811,0.004,-0.016,-0.008,0.015,0.024,-0.024,0.07,-0.621,2.111
2024-09-23 11:26:58.040,161950.878,0.057,0.582,-0.811,0.007,-0.007,-0.004,0.057,0.004,-0.01,0.07,-0.621,2.11
2024-09-23 11:26:58.050,161950.888,0.057,0.581,-0.812,0.011,0.009,-0.003,0.094,-0.019,-0.011,0.07,-0.62,2.11
2024-09-23 11:26:58.061,161950.898,0.056,0.58,-0.812,0.01,0.022,0.0,0.128,-0.035,-0.005,0.069,-0.619,2.11
2024-09-23 11:26:58.070,161950.908,0.056,0.58,-0.813,0.009,0.024,0.006,0.139,-0.045,-0.011,0.069,-0.618,2.11
2024-09-23 11:26:58.080,161950.918,0.056,0.579,-0.814,0.006,0.015,0.006,0.12,-0.048,-0.011,0.069,-0.617,2.11
2024-09-23 11:26:58.091,161950.928,0.056,0.578,-0.814,0.006,0.017,0.004,0.078,-0.045,-0.001,0.068,-0.616,2.11
2024-09-23 11:26:58.101,161950.938,0.055,0.577,-0.815,0.007,-0.014,-0.002,0.033,-0.056,0.004,0.068,-0.616,2.11
2024-09-23 11:26:58.110,161950.948,0.055,0.577,-0.815,0.005,-0.026,-0.009,-0.008,-0.029,-0.025,0.067,-0.615,2.11
2024-09-23 11:26:58.120,161950.958,0.054,0.578,-0.814,0.004,-0.017,-0.002,-0.093,-0.041,0.01,0.067,-0.616,2.109
2024-09-23 11:26:58.130,161950.968,0.054,0.579,-0.814,0.002,-0.014,0.003,-0.147,-0.01,-0.019,0.067,-0.617,2.11
2024-09-23 11:26:58.140,161950.978,0.054,0.58,-0.813,-0.008,-0.02,-0.037,-0.182,0.007,-0.002,0.066,-0.619,2.11
2024-09-23 11:26:58.151,161950.988,0.054,0.582,-0.812,-0.002,-0.082,0.013,-0.173,0.021,0.015,0.067,-0.621,2.11
2024-09-23 11:26:58.161,161950.998,0.055,0.583,-0.811,-0.013,-0.033,-0.003,-0.162,0.012,0.033,0.067,-0.622,2.11
2024-09-23 11:26:58.170,161951.008,0.055,0.584,-0.81,-0.006,-0.004,-0.012,-0.152,0.029,0.046,0.068,-0.624,2.111
2024-09-23 11:26:58.180,161951.018,0.056,0.586,-0.809,-0.008,-0.003,0.009,-0.221,0.024,0.068,0.069,-0.626,2.112
2024-09-23 11:26:58.190,161951.028,0.056,0.588,-0.807,-0.009,-0.022,0.004,-0.263,0.043,0.064,0.07,-0.628,2.113
2024-09-23 11:26:58.200,161951.038,0.057,0.59,-0.806,-0.014,-0.012,-0.001,-0.308,0.05,0.09,0.071,-0.631,2.114
2024-09-23 11:26:58.210,161951.047,0.058,0.592,-0.804,-0.009,-0.027,-0.003,-0.265,0.019,0.021,0.072,-0.634,2.115
2024-09-23 11:26:58.220,161951.057,0.058,0.594,-0.802,-0.002,-0.035,-0.015,-0.271,-0.01,0.055,0.072,-0.636,2.116
2024-09-23 11:26:58.230,161951.067,0.058,0.596,-0.801,-0.011,-0.04,-0.041,-0.365,0.041,-0.009,0.073,-0.639,2.116
2024-09-23 11:26:58.240,161951.077,0.059,0.599,-0.798,0.003,-0.013,-0.045,-0.412,0.069,0.001,0.074,-0.642,2.117
2024-09-23 11:26:58.250,161951.087,0.059,0.602,-0.796,0.003,-0.062,0.019,-0.253,0.103,-0.005,0.075,-0.646,2.117
2024-09-23 11:26:58.260,161951.097,0.06,0.603,-0.795,-0.01,-0.069,0.05,-0.072,0.077,-0.018,0.075,-0.648,2.117
2024-09-23 11:26:58.270,161951.107,0.061,0.603,-0.796,-0.011,0.028,0.053,0.159,0.07,-0.03,0.076,-0.647,2.116
2024-09-23 11:26:58.281,161951.117,0.061,0.601,-0.797,-0.007,0.087,0.052,0.33,0.057,-0.041,0.076,-0.645,2.116
2024-09-23 11:26:58.290,161951.127,0.061,0.599,-0.799,0.004,0.057,0.052,0.145,0.074,-0.029,0.076,-0.642,2.115
2024-09-23 11:26:58.300,161951.137,0.062,0.599,-0.798,-0.012,0.059,0.056,-0.189,0.112,0.053,0.077,-0.642,2.115
2024-09-23 11:26:58.310,161951.147,0.063,0.602,-0.796,-0.022,0.009,-0.013,-0.485,0.128,0.047,0.079,-0.645,2.116
2024-09-23 11:26:58.320,161951.157,0.064,0.606,-0.793,-0.021,-0.131,-0.091,-0.636,0.027,-0.099,0.08,-0.651,2.117
2024-09-23 11:26:58.330,161951.167,0.064,0.612,-0.789,-0.016,-0.15,-0.064,-0.729,0.074,-0.073,0.08,-0.658,2.116
2024-09-23 11:26:58.340,161951.177,0.064,0.617,-0.784,-0.015,-0.091,-0.043,-0.74,0.028,-0.083,0.081,-0.665,2.116
2024-09-23 11:26:58.350,161951.187,0.063,0.623,-0.779,-0.019,-0.041,-0.028,-0.767,0.004,-0.115,0.081,-0.673,2.115
2024-09-23 11:26:58.360,161951.197,0.062,0.63,-0.774,0.039,-0.015,-0.017,-0.835,-0.015,-0.108,0.08,-0.681,2.115
2024-09-23 11:26:58.370,161951.207,0.062,0.636,-0.769,0.059,-0.022,-0.007,-0.909,0.012,-0.125,0.08,-0.69,2.114
2024-09-23 11:26:58.380,161951.217,0.061,0.644,-0.763,0.037,-0.027,-0.006,-1.013,0.034,-0.15,0.08,-0.699,2.113
2024-09-23 11:26:58.390,161951.227,0.06,0.652,-0.756,0.01,-0.064,-0.016,-1.201,0.079,-0.164,0.079,-0.71,2.112
2024-09-23 11:26:58.400,161951.237,0.06,0.662,-0.747,-0.002,-0.076,-0.017,-1.407,0.125,-0.154,0.08,-0.723,2.112
2024-09-23 11:26:58.410,161951.247,0.06,0.673,-0.737,-0.008,-0.077,-0.047,-1.6,0.19,-0.169,0.081,-0.739,2.111
2024-09-23 11:26:58.420,161951.257,0.06,0.686,-0.725,-0.017,-0.135,-0.049,-1.793,0.265,-0.168,0.083,-0.756,2.111
2024-09-23 11:26:58.430,161951.267,0.062,0.699,-0.712,-0.022,-0.114,-0.053,-1.941,0.384,-0.19,0.086,-0.774,2.111
2024-09-23 11:26:58.440,161951.277,0.063,0.713,-0.698,-0.025,-0.117,-0.075,-1.898,0.44,-0.253,0.09,-0.794,2.11
2024-09-23 11:26:58.450,161951.287,0.064,0.726,-0.685,-0.031,-0.118,-0.08,-1.776,0.291,-0.186,0.093,-0.812,2.109
2024-09-23 11:26:58.460,161951.297,0.065,0.737,-0.672,-0.036,-0.107,-0.1,-1.618,0.305,-0.155,0.096,-0.829,2.109
2024-09-23 11:26:58.470,161951.307,0.066,0.748,-0.661,0.026,0.003,-0.105,-1.408,0.312,-0.076,0.1,-0.844,2.109
2024-09-23 11:26:58.480,161951.317,0.068,0.756,-0.651,0.07,0.023,-0.072,-1.149,0.273,-0.023,0.103,-0.857,2.111
2024-09-23 11:26:58.490,161951.327,0.069,0.762,-0.643,0.047,-0.001,-0.076,-0.874,0.247,-0.064,0.107,-0.867,2.112
2024-09-23 11:26:58.500,161951.337,0.07,0.767,-0.638,0.082,0.037,-0.049,-0.602,0.297,-0.07,0.11,-0.875,2.112
2024-09-23 11:26:58.510,161951.347,0.071,0.77,-0.633,0.079,0.062,-0.017,-0.388,0.232,-0.01,0.112,-0.88,2.112
2024-09-23 11:26:58.520,161951.357,0.073,0.772,-0.631,0.066,0.101,-0.019,-0.182,0.224,0.01,0.115,-0.882,2.113
2024-09-23 11:26:58.530,161951.367,0.075,0.773,-0.63,0.117,0.094,-0.005,-0.099,0.171,0.046,0.118,-0.884,2.113
2024-09-23 11:26:58.540,161951.377,0.075,0.774,-0.629,0.106,0.072,0.025,-0.236,0.124,-0.076,0.119,-0.885,2.113
2024-09-23 11:26:58.550,161951.387,0.075,0.776,-0.626,0.082,0.07,0.03,-0.266,0.096,-0.037,0.12,-0.888,2.113
2024-09-23 11:26:58.560,161951.397,0.075,0.777,-0.625,0.1,0.005,0.032,-0.229,0.006,-0.049,0.12,-0.89,2.113
2024-09-23 11:26:58.570,161951.407,0.075,0.779,-0.623,0.088,0.03,0.016,-0.141,-0.045,-0.067,0.12,-0.892,2.112
2024-09-23 11:26:58.579,161951.417,0.074,0.778,-0.623,0.092,0.046,0.003,0.32,-0.055,-0.104,0.118,-0.892,2.111
2024-09-23 11:26:58.589,161951.427,0.073,0.775,-0.628,0.105,-0.01,0.003,0.803,-0.099,-0.05,0.115,-0.886,2.108
2024-09-23 11:26:58.600,161951.437,0.072,0.769,-0.635,0.086,-0.062,-0.06,0.844,-0.175,0.01,0.113,-0.878,2.107
2024-09-23 11:26:58.609,161951.447,0.071,0.764,-0.641,0.096,-0.032,-0.117,0.778,-0.146,-0.055,0.11,-0.87,2.105
2024-09-23 11:26:58.619,161951.457,0.069,0.76,-0.646,0.116,0.034,-0.027,0.576,-0.146,-0.033,0.107,-0.863,2.103
2024-09-23 11:26:58.629,161951.467,0.068,0.757,-0.65,0.053,-0.002,-0.011,0.376,-0.144,-0.019,0.104,-0.858,2.102
2024-09-23 11:26:58.639,161951.477,0.067,0.755,-0.653,0.032,-0.033,-0.04,0.259,-0.157,-0.033,0.102,-0.855,2.101
2024-09-23 11:26:58.649,161951.487,0.066,0.753,-0.654,0.038,-0.027,-0.038,0.2,-0.168,-0.05,0.1,-0.853,2.1
2024-09-23 11:26:58.660,161951.497,0.064,0.752,-0.656,0.046,-0.029,-0.033,0.176,-0.184,-0.066,0.097,-0.851,2.099
2024-09-23 11:26:58.670,161951.507,0.062,0.751,-0.657,0.055,-0.019,-0.027,0.156,-0.209,-0.084,0.094,-0.85,2.097
2024-09-23 11:26:58.678,161951.517,0.06,0.75,-0.659,0.052,-0.023,-0.025,0.142,-0.192,-0.129,0.091,-0.848,2.096
2024-09-23 11:26:58.688,161951.527,0.058,0.749,-0.66,0.05,-0.037,-0.014,0.133,-0.183,-0.167,0.087,-0.847,2.093
2024-09-23 11:26:58.699,161951.537,0.055,0.749,-0.661,0.033,-0.047,-0.007,0.121,-0.194,-0.198,0.083,-0.846,2.09
2024-09-23 11:26:58.709,161951.547,0.052,0.748,-0.661,0.016,-0.046,-0.009,0.0,-0.229,-0.164,0.079,-0.845,2.087
2024-09-23 11:26:58.720,161951.557,0.05,0.749,-0.661,0.016,-0.044,-0.017,-0.149,-0.251,-0.132,0.075,-0.846,2.085
2024-09-23 11:26:58.730,161951.567,0.047,0.75,-0.659,0.018,-0.036,-0.003,-0.278,-0.252,-0.132,0.071,-0.849,2.084
2024-09-23 11:26:58.739,161951.577,0.044,0.752,-0.657,-0.005,-0.018,0.015,-0.287,-0.245,-0.127,0.067,-0.852,2.082
2024-09-23 11:26:58.749,161951.587,0.042,0.754,-0.656,-0.037,0.002,0.029,-0.167,-0.256,-0.12,0.064,-0.854,2.08
2024-09-23 11:26:58.760,161951.597,0.039,0.754,-0.655,-0.038,0.025,0.034,0.044,-0.28,-0.13,0.06,-0.855,2.079
2024-09-23 11:26:58.770,161951.607,0.036,0.753,-0.657,-0.022,0.046,0.031,0.26,-0.311,-0.141,0.055,-0.853,2.076
2024-09-23 11:26:58.780,161951.617,0.033,0.751,-0.659,-0.008,0.054,0.019,0.338,-0.31,-0.13,0.05,-0.85,2.074
2024-09-23 11:26:58.790,161951.627,0.03,0.749,-0.662,-0.012,0.032,0.013,0.305,-0.348,-0.128,0.045,-0.847,2.072
2024-09-23 11:26:58.800,161951.637,0.027,0.748,-0.664,-0.007,-0.003,0.029,0.195,-0.385,-0.139,0.04,-0.845,2.07
2024-09-23 11:26:58.810,161951.646,0.023,0.747,-0.665,0.003,-0.023,0.045,0.044,-0.371,-0.158,0.035,-0.843,2.067
2024-09-23 11:26:58.820,161951.656,0.019,0.747,-0.665,-0.001,-0.057,0.06,-0.021,-0.352,-0.211,0.029,-0.843,2.065
2024-09-23 11:26:58.829,161951.666,0.015,0.747,-0.664,-0.009,-0.086,0.066,-0.025,-0.315,-0.246,0.023,-0.844,2.061
2024-09-23 11:26:58.839,161951.676,0.011,0.747,-0.665,-0.026,-0.091,0.048,0.031,-0.295,-0.262,0.017,-0.844,2.057
2024-09-23 11:26:58.849,161951.686,0.007,0.747,-0.665,-0.028,-0.082,0.024,0.113,-0.286,-0.276,0.011,-0.843,2.053
2024-09-23 11:26:58.860,161951.696,0.003,0.746,-0.666,-0.019,-0.06,0.009,0.128,-0.258,-0.34,0.005,-0.842,2.049
2024-09-23 11:26:58.869,161951.706,-0.001,0.745,-0.667,-0.026,-0.045,0.007,0.07,-0.234,-0.376,-0.001,-0.841,2.043
2024-09-23 11:26:58.879,161951.716,-0.005,0.745,-0.667,-0.049,-0.076,0.019,-0.057,-0.211,-0.354,-0.008,-0.841,2.038
2024-09-23 11:26:58.889,161951.726,-0.009,0.746,-0.666,-0.063,-0.119,0.034,-0.199,-0.199,-0.341,-0.014,-0.842,2.033
2024-09-23 11:26:58.899,161951.736,-0.013,0.748,-0.664,-0.059,-0.1,0.056,-0.333,-0.206,-0.329,-0.019,-0.845,2.028
2024-09-23 11:26:58.909,161951.746,-0.017,0.75,-0.661,-0.06,-0.056,0.085,-0.448,-0.209,-0.352,-0.026,-0.848,2.022
2024-09-23 11:26:58.920,161951.756,-0.021,0.753,-0.657,-0.068,-0.028,0.125,-0.508,-0.2,-0.381,-0.032,-0.853,2.017
2024-09-23 11:26:58.929,161951.766,-0.025,0.756,-0.654,-0.079,-0.027,0.16,-0.448,-0.205,-0.404,-0.039,-0.858,2.01
2024-09-23 11:26:58.939,161951.776,-0.03,0.759,-0.651,-0.095,-0.015,0.167,-0.314,-0.202,-0.408,-0.046,-0.862,2.004
2024-09-23 11:26:58.949,161951.786,-0.034,0.76,-0.649,-0.107,0.005,0.148,-0.171,-0.185,-0.302,-0.052,-0.864,1.998
2024-09-23 11:26:58.960,161951.796,-0.037,0.76,-0.648,-0.112,0.026,0.123,0.143,-0.115,-0.226,-0.056,-0.864,1.994
2024-09-23 11:26:58.969,161951.806,-0.038,0.758,-0.651,-0.1,0.091,0.094,0.464,-0.062,-0.12,-0.059,-0.861,1.992
2024-09-23 11:26:58.979,161951.816,-0.04,0.755,-0.655,-0.095,0.197,0.023,0.675,-0.004,-0.096,-0.06,-0.855,1.991
2024-09-23 11:26:58.989,161951.826,-0.04,0.75,-0.66,-0.092,0.291,-0.044,0.655,0.038,-0.036,-0.06,-0.848,1.99
2024-09-23 11:26:58.999,161951.836,-0.04,0.746,-0.664,-0.071,0.295,-0.056,0.427,0.077,0.039,-0.059,-0.843,1.991
2024-09-23 11:26:59.009,161951.846,-0.038,0.744,-0.667,-0.047,0.214,-0.022,0.217,0.136,0.068,-0.058,-0.84,1.992
2024-09-23 11:26:59.019,161951.856,-0.037,0.743,-0.668,-0.027,0.116,0.022,0.233,0.177,0.076,-0.055,-0.838,1.993
2024-09-23 11:26:59.029,161951.866,-0.035,0.741,-0.671,-0.023,0.047,0.033,0.42,0.163,0.047,-0.052,-0.834,1.994
2024-09-23 11:26:59.039,161951.876,-0.034,0.737,-0.675,-0.012,0.05,0.008,0.632,0.106,0.018,-0.05,-0.829,1.995
2024-09-23 11:26:59.050,161951.886,-0.033,0.733,-0.68,0.014,0.102,0.001,0.704,0.061,0.104,-0.049,-0.822,1.996
2024-09-23 11:26:59.060,161951.896,-0.032,0.728,-0.685,0.038,0.073,0.017,0.697,0.046,0.194,-0.046,-0.815,1.999
2024-09-23 11:26:59.069,161951.906,-0.03,0.724,-0.69,0.054,0.017,0.05,0.583,0.023,0.229,-0.043,-0.809,2.003
2024-09-23 11:26:59.079,161951.916,-0.028,0.72,-0.693,0.033,0.047,0.082,0.352,-0.013,0.243,-0.04,-0.804,2.006
2024-09-23 11:26:59.089,161951.926,-0.026,0.719,-0.694,-0.01,0.122,0.085,0.052,-0.052,0.277,-0.038,-0.802,2.01
2024-09-23 11:26:59.099,161951.936,-0.025,0.72,-0.694,-0.027,0.13,0.053,-0.183,-0.089,0.32,-0.036,-0.803,2.014
2024-09-23 11:26:59.109,161951.946,-0.023,0.721,-0.692,-0.017,0.059,0.023,-0.314,-0.117,0.329,-0.033,-0.806,2.019
2024-09-23 11:26:59.119,161951.956,-0.022,0.724,-0.69,0.001,-0.018,0.012,-0.276,-0.141,0.292,-0.031,-0.809,2.023
2024-09-23 11:26:59.129,161951.966,-0.021,0.725,-0.688,0.031,-0.054,0.012,-0.121,-0.213,0.261,-0.03,-0.811,2.027
2024-09-23 11:26:59.139,161951.976,-0.021,0.726,-0.687,0.052,-0.066,-0.026,-0.197,-0.259,0.258,-0.03,-0.813,2.031
2024-09-23 11:26:59.149,161951.986,-0.021,0.728,-0.685,0.052,-0.08,-0.054,-0.323,-0.275,0.139,-0.031,-0.815,2.034
2024-09-23 11:26:59.159,161951.996,-0.022,0.731,-0.683,0.067,-0.135,-0.024,-0.421,-0.266,0.07,-0.032,-0.819,2.035
2024-09-23 11:26:59.169,161952.006,-0.023,0.734,-0.679,0.061,-0.187,-0.003,-0.495,-0.262,0.048,-0.035,-0.824,2.036
2024-09-23 11:26:59.179,161952.016,-0.025,0.737,-0.675,0.018,-0.189,-0.012,-0.471,-0.252,-0.051,-0.037,-0.829,2.035
2024-09-23 11:26:59.189,161952.026,-0.027,0.74,-0.672,0.035,-0.188,0.013,-0.353,-0.228,-0.097,-0.041,-0.833,2.034
2024-09-23 11:26:59.198,161952.036,-0.03,0.742,-0.67,0.034,-0.18,0.009,-0.23,-0.201,-0.174,-0.044,-0.836,2.032
2024-09-23 11:26:59.209,161952.046,-0.032,0.743,-0.669,0.003,-0.138,-0.028,-0.083,-0.137,-0.208,-0.048,-0.837,2.029
2024-09-23 11:26:59.219,161952.056,-0.035,0.743,-0.669,-0.028,-0.081,-0.057,0.02,-0.104,-0.213,-0.052,-0.837,2.026
2024-09-23 11:26:59.229,161952.066,-0.037,0.743,-0.669,-0.051,-0.03,-0.082,-0.001,-0.111,-0.164,-0.055,-0.837,2.023
2024-09-23 11:26:59.239,161952.076,-0.039,0.743,-0.668,-0.053,0.021,-0.111,-0.087,-0.069,-0.165,-0.058,-0.837,2.02
2024-09-23 11:26:59.249,161952.086,-0.04,0.744,-0.668,-0.051,0.051,-0.117,-0.135,-0.062,-0.153,-0.06,-0.838,2.018
2024-09-23 11:26:59.259,161952.096,-0.041,0.744,-0.667,-0.063,0.061,-0.083,0.006,-0.045,0.166,-0.061,-0.839,2.018
2024-09-23 11:26:59.269,161952.106,-0.041,0.743,-0.668,-0.06,0.032,-0.036,0.312,-0.201,-0.101,-0.062,-0.838,2.018
2024-09-23 11:26:59.278,161952.116,-0.043,0.74,-0.671,0.055,0.014,0.001,0.464,-0.078,-0.171,-0.064,-0.834,2.017
2024-09-23 11:26:59.289,161952.126,-0.045,0.737,-0.674,0.092,0.035,0.017,0.379,0.004,-0.148,-0.066,-0.829,2.015
2024-09-23 11:26:59.299,161952.136,-0.046,0.735,-0.676,-0.103,0.007,0.01,0.271,-0.045,-0.118,-0.068,-0.826,2.013
2024-09-23 11:26:59.309,161952.146,-0.047,0.734,-0.678,-0.11,-0.01,0.044,0.163,-0.085,-0.077,-0.069,-0.824,2.012
2024-09-23 11:26:59.319,161952.156,-0.048,0.733,-0.679,-0.005,0.021,0.094,0.097,-0.054,-0.046,-0.07,-0.822,2.011
2024-09-23 11:26:59.329,161952.166,-0.049,0.732,-0.68,0.027,0.044,0.106,0.167,-0.037,-0.042,-0.071,-0.821,2.011
2024-09-23 11:26:59.338,161952.176,-0.049,0.73,-0.681,0.003,0.063,0.105,0.3,-0.058,-0.044,-0.072,-0.819,2.01
2024-09-23 11:26:59.349,161952.186,-0.05,0.728,-0.684,-0.01,0.094,0.091,0.472,-0.061,-0.042,-0.073,-0.815,2.01
2024-09-23 11:26:59.359,161952.196,-0.051,0.724,-0.688,0.008,0.096,0.072,0.664,-0.079,-0.017,-0.073,-0.809,2.01
2024-09-23 11:26:59.369,161952.206,-0.051,0.719,-0.693,0.005,0.077,0.053,0.762,-0.084,-0.004,-0.074,-0.802,2.011
2024-09-23 11:26:59.379,161952.216,-0.052,0.714,-0.699,-0.012,0.07,0.019,0.713,-0.07,0.01,-0.074,-0.795,2.012
2024-09-23 11:26:59.388,161952.226,-0.052,0.709,-0.703,-0.007,0.042,0.004,0.557,-0.047,0.006,-0.074,-0.788,2.012
2024-09-23 11:26:59.398,161952.236,-0.052,0.706,-0.706,-0.003,0.008,0.012,0.366,-0.003,0.006,-0.074,-0.784,2.013
2024-09-23 11:26:59.408,161952.245,-0.052,0.704,-0.709,-0.0,-0.024,0.017,0.279,0.033,0.002,-0.073,-0.78,2.013
2024-09-23 11:26:59.419,161952.255,-0.052,0.702,-0.711,0.003,-0.045,0.004,0.269,0.066,-0.008,-0.073,-0.778,2.014
2024-09-23 11:26:59.428,161952.265,-0.051,0.7,-0.712,0.001,-0.031,-0.011,0.266,0.061,-0.007,-0.072,-0.775,2.014
2024-09-23 11:26:59.438,161952.275,-0.051,0.698,-0.714,0.001,-0.005,-0.012,0.275,0.065,0.016,-0.071,-0.772,2.014
2024-09-23 11:26:59.447,161952.285,-0.05,0.696,-0.717,0.008,-0.011,0.002,0.33,0.08,0.0,-0.07,-0.769,2.014
2024-09-23 11:26:59.458,161952.295,-0.05,0.693,-0.719,0.008,0.013,0.03,0.365,0.072,0.021,-0.069,-0.766,2.015
2024-09-23 11:26:59.467,161952.305,-0.049,0.691,-0.722,-0.009,0.06,0.039,0.367,0.077,0.029,-0.068,-0.762,2.016
2024-09-23 11:26:59.477,161952.315,-0.048,0.688,-0.724,-0.005,0.04,0.012,0.327,0.105,0.019,-0.066,-0.759,2.016
2024-09-23 11:26:59.488,161952.325,-0.047,0.686,-0.726,-0.001,0.008,-0.007,0.211,0.117,0.001,-0.065,-0.756,2.017
2024-09-23 11:26:59.499,161952.335,-0.046,0.685,-0.727,-0.011,-0.008,-0.008,0.059,0.126,-0.001,-0.064,-0.755,2.017
2024-09-23 11:26:59.508,161952.345,-0.045,0.685,-0.727,-0.005,-0.047,-0.008,0.009,0.133,-0.008,-0.062,-0.755,2.017
2024-09-23 11:26:59.518,161952.355,-0.045,0.685,-0.727,0.006,-0.054,0.002,0.043,0.134,-0.015,-0.061,-0.754,2.017
2024-09-23 11:26:59.528,161952.365,-0.044,0.684,-0.728,0.004,0.007,0.012,0.144,0.117,0.017,-0.06,-0.753,2.017
2024-09-23 11:26:59.538,161952.375,-0.043,0.683,-0.729,0.008,0.073,0.01,0.235,0.106,0.025,-0.058,-0.752,2.017
2024-09-23 11:26:59.548,161952.385,-0.042,0.681,-0.731,0.013,0.077,-0.003,0.254,0.088,0.026,-0.057,-0.749,2.018
2024-09-23 11:26:59.559,161952.395,-0.041,0.679,-0.733,0.01,0.06,-0.007,0.159,0.078,0.03,-0.056,-0.747,2.018
2024-09-23 11:26:59.568,161952.405,-0.04,0.679,-0.733,0.002,0.01,0.002,0.027,0.062,0.03,-0.055,-0.746,2.019
2024-09-23 11:26:59.578,161952.415,-0.04,0.679,-0.733,0.012,-0.044,0.015,-0.122,0.057,0.043,-0.054,-0.747,2.019
2024-09-23 11:26:59.588,161952.425,-0.039,0.68,-0.732,0.011,-0.056,0.016,-0.237,0.057,0.06,-0.053,-0.748,2.02
2024-09-23 11:26:59.598,161952.435,-0.038,0.682,-0.73,0.01,-0.036,0.028,-0.194,0.069,0.042,-0.052,-0.751,2.02
2024-09-23 11:26:59.608,161952.445,-0.037,0.683,-0.729,0.009,-0.029,0.051,-0.073,0.057,0.032,-0.051,-0.752,2.02
2024-09-23 11:26:59.618,161952.455,-0.037,0.683,-0.729,0.011,-0.016,0.064,0.089,0.037,0.015,-0.051,-0.752,2.021
2024-09-23 11:26:59.628,161952.465,-0.037,0.682,-0.73,0.02,0.011,0.059,0.207,-0.009,0.026,-0.05,-0.751,2.021
2024-09-23 11:26:59.638,161952.475,-0.037,0.68,-0.732,0.013,0.019,0.047,0.325,-0.044,0.043,-0.05,-0.748,2.022
2024-09-23 11:26:59.648,161952.485,-0.037,0.678,-0.734,-0.012,0.037,0.019,0.319,-0.103,0.065,-0.05,-0.745,2.023
2024-09-23 11:26:59.658,161952.495,-0.037,0.676,-0.736,-0.033,0.048,-0.018,0.236,-0.079,0.088,-0.05,-0.742,2.024
2024-09-23 11:26:59.668,161952.505,-0.037,0.674,-0.738,-0.035,0.017,-0.026,0.184,-0.049,0.047,-0.05,-0.74,2.025
2024-09-23 11:26:59.678,161952.515,-0.037,0.673,-0.739,-0.033,-0.027,-0.013,0.1,-0.063,0.038,-0.05,-0.738,2.026
2024-09-23 11:26:59.689,161952.525,-0.037,0.673,-0.739,-0.047,-0.046,-0.03,-0.043,-0.046,0.022,-0.051,-0.738,2.026
2024-09-23 11:26:59.698,161952.535,-0.038,0.674,-0.738,-0.016,-0.083,-0.053,-0.118,-0.001,-0.053,-0.051,-0.739,2.026
2024-09-23 11:26:59.708,161952.545,-0.038,0.674,-0.737,0.019,-0.11,-0.065,-0.093,0.006,-0.12,-0.052,-0.74,2.025
2024-09-23 11:26:59.718,161952.555,-0.039,0.675,-0.736,0.009,-0.053,-0.06,-0.198,0.01,-0.099,-0.053,-0.742,2.023
2024-09-23 11:26:59.728,161952.565,-0.039,0.677,-0.735,0.009,-0.053,-0.061,-0.302,0.012,-0.108,-0.054,-0.744,2.022
2024-09-23 11:26:59.738,161952.575,-0.04,0.68,-0.732,0.034,-0.083,-0.069,-0.318,0.059,-0.102,-0.054,-0.747,2.02
2024-09-23 11:26:59.748,161952.585,-0.04,0.682,-0.731,0.025,-0.025,-0.041,-0.257,0.031,-0.101,-0.055,-0.75,2.018
2024-09-23 11:26:59.758,161952.595,-0.041,0.683,-0.729,0.02,0.062,0.003,-0.129,-0.0,-0.072,-0.056,-0.752,2.017
2024-09-23 11:26:59.768,161952.605,-0.041,0.684,-0.729,0.035,0.108,0.009,-0.027,0.009,-0.054,-0.057,-0.753,2.016
2024-09-23 11:26:59.778,161952.615,-0.042,0.683,-0.729,0.039,0.063,0.032,0.036,-0.01,-0.054,-0.057,-0.752,2.015
2024-09-23 11:26:59.788,161952.625,-0.042,0.683,-0.729,0.009,0.017,0.062,0.057,-0.028,-0.052,-0.058,-0.752,2.014
2024-09-23 11:26:59.797,161952.635,-0.043,0.682,-0.73,-0.01,0.012,0.082,0.078,-0.035,-0.062,-0.059,-0.751,2.014
2024-09-23 11:26:59.808,161952.645,-0.043,0.682,-0.73,0.001,-0.008,0.069,0.074,-0.041,-0.052,-0.059,-0.75,2.013
2024-09-23 11:26:59.818,161952.655,-0.044,0.681,-0.731,-0.003,-0.013,0.015,0.009,-0.031,-0.047,-0.06,-0.75,2.012
2024-09-23 11:26:59.828,161952.665,-0.044,0.682,-0.73,-0.011,-0.004,-0.036,-0.08,-0.001,-0.046,-0.061,-0.75,2.012
2024-09-23 11:26:59.838,161952.675,-0.045,0.682,-0.73,-0.014,-0.013,-0.042,-0.128,0.011,-0.059,-0.061,-0.751,2.011
2024-09-23 11:26:59.847,161952.685,-0.045,0.683,-0.729,-0.011,-0.019,-0.022,-0.13,0.007,-0.053,-0.062,-0.752,2.01
2024-09-23 11:26:59.858,161952.695,-0.045,0.684,-0.728,-0.007,-0.01,-0.009,-0.103,0.014,-0.041,-0.062,-0.754,2.01
2024-09-23 11:26:59.868,161952.705,-0.045,0.685,-0.727,-0.004,-0.019,-0.001,-0.025,0.022,-0.035,-0.062,-0.754,2.009
2024-09-23 11:26:59.878,161952.715,-0.045,0.685,-0.727,-0.01,-0.023,0.005,0.055,0.013,-0.017,-0.062,-0.754,2.009
2024-09-23 11:26:59.887,161952.725,-0.045,0.684,-0.728,-0.02,-0.003,0.003,0.099,0.015,-0.015,-0.062,-0.753,2.009
2024-09-23 11:26:59.898,161952.735,-0.045,0.683,-0.729,-0.012,0.008,0.002,0.115,0.01,-0.012,-0.062,-0.752,2.008
2024-09-23 11:26:59.908,161952.745,-0.045,0.683,-0.729,-0.002,0.014,0.008,0.092,0.024,-0.022,-0.062,-0.751,2.008
2024-09-23 11:26:59.918,161952.755,-0.045,0.682,-0.73,0.005,0.015,0.01,0.105,0.041,-0.021,-0.062,-0.75,2.008
2024-09-23 11:26:59.927,161952.765,-0.045,0.681,-0.731,0.012,0.006,0.006,0.128,0.047,-0.03,-0.062,-0.749,2.008
2024-09-23 11:26:59.937,161952.775,-0.045,0.68,-0.732,0.003,0.006,0.0,0.145,0.045,-0.032,-0.061,-0.748,2.008
2024-09-23 11:26:59.948,161952.785,-0.045,0.679,-0.733,0.001,0.018,0.003,0.181,0.049,-0.027,-0.061,-0.746,2.007
2024-09-23 11:26:59.958,161952.795,-0.045,0.677,-0.735,0.001,0.002,0.012,0.244,0.052,-0.028,-0.061,-0.744,2.007
2024-09-23 11:26:59.968,161952.805,-0.045,0.675,-0.736,-0.001,-0.013,0.013,0.299,0.04,-0.028,-0.061,-0.741,2.007
2024-09-23 11:26:59.977,161952.815,-0.045,0.673,-0.738,-0.006,0.011,0.006,0.343,0.042,-0.018,-0.06,-0.738,2.007
2024-09-23 11:26:59.987,161952.825,-0.045,0.67,-0.741,0.002,0.024,-0.005,0.393,0.036,-0.009,-0.06,-0.735,2.007
2024-09-23 11:26:59.998,161952.835,-0.044,0.667,-0.743,0.002,0.027,-0.009,0.447,0.011,-0.012,-0.06,-0.731,2.007
2024-09-23 11:27:00.006,161952.844,-0.044,0.664,-0.746,-0.001,0.046,-0.002,0.434,-0.032,-0.001,-0.059,-0.726,2.007
2024-09-23 11:27:00.017,161952.854,-0.044,0.662,-0.748,0.01,0.054,0.01,0.221,0.053,0.037,-0.059,-0.723,2.008
2024-09-23 11:27:00.027,161952.864,-0.044,0.66,-0.75,0.021,0.04,0.034,0.253,-0.041,0.002,-0.059,-0.721,2.008
2024-09-23 11:27:00.036,161952.874,-0.044,0.659,-0.751,0.024,0.025,0.032,0.249,0.005,0.041,-0.058,-0.719,2.009
2024-09-23 11:27:00.046,161952.884,-0.044,0.657,-0.753,-0.019,-0.003,-0.041,0.231,-0.035,0.02,-0.058,-0.716,2.009
2024-09-23 11:27:00.056,161952.894,-0.044,0.656,-0.754,0.008,-0.091,0.015,0.085,-0.04,0.013,-0.058,-0.715,2.009
2024-09-23 11:27:00.066,161952.904,-0.044,0.655,-0.754,0.009,-0.09,0.003,-0.023,-0.022,0.015,-0.059,-0.715,2.01
2024-09-23 11:27:00.077,161952.914,-0.044,0.656,-0.754,-0.003,-0.023,0.004,0.023,0.007,-0.006,-0.059,-0.715,2.01
2024-09-23 11:27:00.086,161952.924,-0.045,0.655,-0.754,-0.009,-0.021,0.007,0.098,-0.014,-0.009,-0.059,-0.714,2.01
2024-09-23 11:27:00.096,161952.934,-0.045,0.654,-0.755,-0.004,-0.021,0.007,0.085,-0.029,-0.009,-0.059,-0.713,2.009
2024-09-23 11:27:00.106,161952.944,-0.045,0.654,-0.755,0.008,-0.018,0.01,0.094,-0.022,-0.007,-0.059,-0.713,2.01
2024-09-23 11:27:00.117,161952.954,-0.045,0.653,-0.756,-0.001,-0.036,0.026,0.139,-0.042,0.014,-0.06,-0.712,2.01
2024-09-23 11:27:00.127,161952.964,-0.045,0.652,-0.757,-0.012,-0.024,0.04,0.155,-0.06,0.01,-0.06,-0.71,2.01
2024-09-23 11:27:00.137,161952.974,-0.046,0.651,-0.758,-0.011,0.026,0.045,0.108,-0.054,0.014,-0.06,-0.709,2.01
2024-09-23 11:27:00.147,161952.984,-0.046,0.65,-0.759,0.009,0.041,0.042,0.105,-0.066,0.015,-0.061,-0.708,2.011
2024-09-23 11:27:00.157,161952.994,-0.047,0.649,-0.759,-0.002,0.042,0.013,0.142,-0.078,0.025,-0.061,-0.706,2.011
2024-09-23 11:27:00.167,161953.004,-0.047,0.648,-0.76,-0.005,0.031,-0.004,0.204,-0.076,0.016,-0.062,-0.705,2.011
2024-09-23 11:27:00.177,161953.014,-0.047,0.646,-0.762,0.017,-0.004,0.009,0.277,-0.074,0.018,-0.062,-0.702,2.012
2024-09-23 11:27:00.188,161953.024,-0.048,0.644,-0.764,0.017,0.012,0.001,0.308,-0.09,0.029,-0.063,-0.699,2.012
2024-09-23 11:27:00.197,161953.034,-0.048,0.641,-0.766,0.002,0.036,-0.004,0.399,-0.06,0.01,-0.063,-0.696,2.013
2024-09-23 11:27:00.208,161953.044,-0.049,0.638,-0.769,0.006,0.034,-0.001,0.429,-0.056,0.004,-0.063,-0.692,2.013
2024-09-23 11:27:00.217,161953.054,-0.049,0.635,-0.771,0.0,0.021,0.008,0.415,-0.058,0.002,-0.064,-0.688,2.014
2024-09-23 11:27:00.227,161953.064,-0.049,0.632,-0.773,0.005,0.019,0.003,0.359,-0.033,0.003,-0.064,-0.684,2.014
2024-09-23 11:27:00.237,161953.074,-0.05,0.63,-0.775,0.008,-0.013,-0.029,0.253,-0.044,-0.001,-0.064,-0.681,2.014
2024-09-23 11:27:00.247,161953.084,-0.05,0.629,-0.776,-0.002,-0.035,-0.026,0.12,-0.021,0.002,-0.064,-0.68,2.014
2024-09-23 11:27:00.257,161953.094,-0.05,0.628,-0.777,0.002,-0.041,-0.019,0.018,-0.025,0.003,-0.064,-0.679,2.015
2024-09-23 11:27:00.267,161953.104,-0.05,0.628,-0.776,0.004,-0.038,-0.042,-0.043,-0.028,0.001,-0.064,-0.679,2.015
2024-09-23 11:27:00.277,161953.114,-0.05,0.629,-0.776,-0.011,-0.042,-0.02,-0.032,-0.033,0.012,-0.065,-0.68,2.015
2024-09-23 11:27:00.287,161953.124,-0.05,0.629,-0.776,0.001,-0.053,0.008,0.047,-0.024,0.012,-0.065,-0.68,2.015
2024-09-23 11:27:00.297,161953.134,-0.051,0.628,-0.776,-0.001,-0.009,0.011,0.089,-0.018,0.022,-0.065,-0.679,2.015
2024-09-23 11:27:00.307,161953.144,-0.051,0.628,-0.777,-0.008,0.013,0.013,0.035,-0.043,0.054,-0.065,-0.679,2.016
2024-09-23 11:27:00.317,161953.154,-0.05,0.627,-0.777,-0.016,-0.011,0.005,0.032,-0.016,0.031,-0.065,-0.678,2.016
2024-09-23 11:27:00.328,161953.164,-0.05,0.627,-0.777,-0.008,-0.044,-0.005,0.021,-0.016,0.037,-0.065,-0.678,2.017
2024-09-23 11:27:00.337,161953.174,-0.05,0.627,-0.778,-0.01,-0.029,-0.008,0.007,-0.01,0.01,-0.064,-0.677,2.017
2024-09-23 11:27:00.347,161953.184,-0.05,0.627,-0.778,-0.01,-0.014,-0.007,-0.045,0.018,0.012,-0.064,-0.677,2.017
2024-09-23 11:27:00.357,161953.194,-0.05,0.627,-0.777,-0.01,-0.048,-0.009,-0.099,0.024,0.001,-0.064,-0.678,2.017
2024-09-23 11:27:00.367,161953.204,-0.049,0.628,-0.777,-0.006,-0.059,-0.017,-0.103,0.033,-0.004,-0.064,-0.679,2.017
2024-09-23 11:27:00.377,161953.214,-0.049,0.629,-0.776,-0.01,-0.033,-0.0,-0.08,0.027,0.003,-0.063,-0.68,2.017
2024-09-23 11:27:00.387,161953.224,-0.049,0.629,-0.776,-0.001,-0.004,0.009,-0.028,0.037,-0.0,-0.063,-0.68,2.017
2024-09-23 11:27:00.397,161953.234,-0.049,0.629,-0.776,-0.001,0.027,0.017,0.077,0.014,0.014,-0.063,-0.68,2.017
2024-09-23 11:27:00.407,161953.244,-0.049,0.628,-0.777,0.007,0.035,0.031,0.119,-0.003,0.019,-0.063,-0.679,2.017
2024-09-23 11:27:00.417,161953.254,-0.049,0.627,-0.778,0.013,0.052,0.011,0.134,-0.015,0.006,-0.063,-0.678,2.018
2024-09-23 11:27:00.427,161953.264,-0.049,0.626,-0.778,0.021,0.05,0.009,0.141,-0.025,0.015,-0.063,-0.676,2.018
2024-09-23 11:27:00.437,161953.274,-0.049,0.625,-0.779,0.017,0.022,0.017,0.123,-0.024,0.002,-0.063,-0.675,2.018
2024-09-23 11:27:00.447,161953.284,-0.049,0.624,-0.78,0.015,0.014,0.013,0.093,-0.014,-0.003,-0.063,-0.674,2.018
2024-09-23 11:27:00.458,161953.294,-0.049,0.623,-0.781,0.017,0.003,0.01,0.083,-0.014,-0.007,-0.063,-0.673,2.018
2024-09-23 11:27:00.467,161953.304,-0.05,0.622,-0.781,0.01,-0.004,0.003,0.072,-0.0,-0.005,-0.063,-0.672,2.018
2024-09-23 11:27:00.477,161953.314,-0.05,0.622,-0.781,-0.004,-0.006,-0.017,0.041,-0.008,-0.002,-0.063,-0.671,2.018
2024-09-23 11:27:00.487,161953.324,-0.05,0.622,-0.781,-0.01,-0.021,-0.009,-0.014,-0.003,0.016,-0.063,-0.672,2.018
2024-09-23 11:27:00.497,161953.334,-0.049,0.622,-0.781,-0.011,-0.038,-0.001,-0.01,-0.016,0.03,-0.063,-0.672,2.018
2024-09-23 11:27:00.507,161953.344,-0.049,0.622,-0.781,-0.013,-0.024,0.003,0.04,-0.021,0.041,-0.063,-0.672,2.019
2024-09-23 11:27:00.517,161953.354,-0.049,0.622,-0.781,-0.007,0.012,0.012,0.075,-0.031,0.049,-0.063,-0.671,2.02
2024-09-23 11:27:00.526,161953.364,-0.049,0.621,-0.782,0.012,0.045,0.017,0.074,-0.035,0.061,-0.063,-0.671,2.02
2024-09-23 11:27:00.537,161953.374,-0.049,0.621,-0.782,0.01,0.032,0.005,0.093,-0.036,0.051,-0.063,-0.67,2.021
2024-09-23 11:27:00.546,161953.384,-0.049,0.62,-0.783,0.012,0.008,0.011,0.087,-0.048,0.052,-0.063,-0.669,2.022
2024-09-23 11:27:00.557,161953.394,-0.049,0.62,-0.783,0.007,-0.003,0.026,0.081,-0.058,0.041,-0.063,-0.668,2.023
2024-09-23 11:27:00.566,161953.404,-0.049,0.619,-0.784,0.014,-0.018,0.019,0.09,-0.072,0.049,-0.063,-0.667,2.023
2024-09-23 11:27:00.577,161953.414,-0.05,0.618,-0.785,0.012,-0.02,0.021,0.139,-0.072,0.026,-0.063,-0.666,2.024
2024-09-23 11:27:00.587,161953.424,-0.05,0.617,-0.786,0.004,0.006,0.011,0.175,-0.091,0.024,-0.064,-0.665,2.024
2024-09-23 11:27:00.597,161953.434,-0.051,0.615,-0.787,0.018,0.014,0.007,0.18,-0.06,0.015,-0.065,-0.663,2.025
2024-09-23 11:27:00.606,161953.443,-0.051,0.614,-0.787,0.011,-0.011,-0.01,0.123,-0.076,0.006,-0.065,-0.662,2.025
2024-09-23 11:27:00.616,161953.453,-0.052,0.614,-0.787,0.001,-0.028,-0.012,-0.021,-0.064,0.012,-0.066,-0.661,2.025
2024-09-23 11:27:00.626,161953.463,-0.052,0.615,-0.787,-0.009,-0.034,-0.017,-0.036,-0.027,-0.008,-0.066,-0.662,2.025
2024-09-23 11:27:00.637,161953.473,-0.052,0.615,-0.787,-0.004,-0.051,-0.004,-0.039,-0.047,0.003,-0.066,-0.662,2.025
