Date,TimeStamp,GravityX,GravityY,GravityZ,UserAccelerationX,UserAccelerationY,UserAccelerationZ,RotationRateX,RotationRateY,RotationRateZ,AttitudeRoll,AttitudePitch,AttitudeYaw
2024-11-02 22:36:43.845,39361.063,0.064,-0.31,-0.948,-0.09,-0.01,-0.005,-0.044,-0.015,-0.064,0.068,0.315,1.384
2024-11-02 22:36:43.876,39361.073,0.064,-0.31,-0.949,-0.041,0.013,0.014,-0.041,-0.054,-0.103,0.068,0.315,1.383
2024-11-02 22:36:43.881,39361.083,0.064,-0.309,-0.949,0.01,-0.008,0.035,-0.021,-0.06,-0.128,0.067,0.315,1.382
2024-11-02 22:36:43.885,39361.093,0.064,-0.309,-0.949,0.001,-0.036,0.034,0.017,-0.026,-0.142,0.067,0.314,1.38
2024-11-02 22:36:43.891,39361.103,0.064,-0.31,-0.949,-0.023,-0.032,0.026,0.015,-0.013,-0.151,0.068,0.315,1.379
2024-11-02 22:36:43.896,39361.113,0.065,-0.31,-0.949,-0.035,-0.033,0.022,-0.022,-0.031,-0.166,0.068,0.315,1.377
2024-11-02 22:36:43.899,39361.123,0.065,-0.309,-0.949,-0.032,-0.051,0.024,-0.073,-0.057,-0.192,0.068,0.314,1.375
2024-11-02 22:36:43.908,39361.133,0.065,-0.308,-0.949,-0.022,-0.066,0.025,-0.1,-0.07,-0.207,0.068,0.313,1.373
2024-11-02 22:36:43.915,39361.143,0.065,-0.307,-0.949,-0.024,-0.071,0.025,-0.1,-0.072,-0.226,0.068,0.312,1.371
2024-11-02 22:36:43.926,39361.153,0.065,-0.306,-0.95,-0.024,-0.062,0.021,-0.071,-0.087,-0.249,0.068,0.311,1.368
2024-11-02 22:36:43.936,39361.163,0.065,-0.306,-0.95,-0.012,-0.046,0.021,-0.03,-0.104,-0.288,0.068,0.311,1.366
2024-11-02 22:36:43.945,39361.173,0.065,-0.305,-0.95,-0.0,-0.032,0.016,0.02,-0.101,-0.301,0.068,0.31,1.363
2024-11-02 22:36:43.957,39361.183,0.065,-0.306,-0.95,0.002,-0.015,0.01,0.049,-0.087,-0.308,0.068,0.311,1.359
2024-11-02 22:36:43.966,39361.193,0.065,-0.306,-0.95,-0.006,-0.01,0.004,0.045,-0.082,-0.307,0.068,0.311,1.356
2024-11-02 22:36:43.977,39361.203,0.065,-0.306,-0.95,-0.009,-0.015,-0.001,0.006,-0.087,-0.311,0.068,0.312,1.353
2024-11-02 22:36:43.986,39361.213,0.064,-0.306,-0.95,-0.009,-0.03,-0.004,-0.054,-0.102,-0.324,0.068,0.311,1.35
2024-11-02 22:36:43.995,39361.223,0.064,-0.306,-0.95,-0.011,-0.048,-0.007,-0.114,-0.09,-0.335,0.068,0.311,1.346
2024-11-02 22:36:44.007,39361.233,0.065,-0.305,-0.95,-0.015,-0.057,-0.012,-0.155,-0.062,-0.347,0.068,0.31,1.343
2024-11-02 22:36:44.015,39361.243,0.065,-0.303,-0.951,-0.031,-0.064,-0.015,-0.172,-0.027,-0.366,0.068,0.308,1.339
2024-11-02 22:36:44.026,39361.253,0.066,-0.301,-0.951,-0.045,-0.064,-0.016,-0.157,-0.0,-0.388,0.069,0.306,1.336
2024-11-02 22:36:44.037,39361.263,0.067,-0.3,-0.952,-0.044,-0.06,-0.008,-0.129,0.024,-0.425,0.071,0.304,1.331
2024-11-02 22:36:44.045,39361.273,0.069,-0.298,-0.952,-0.037,-0.054,-0.001,-0.101,0.041,-0.459,0.072,0.303,1.327
2024-11-02 22:36:44.057,39361.283,0.071,-0.297,-0.952,-0.029,-0.05,0.005,-0.101,0.047,-0.492,0.074,0.302,1.322
2024-11-02 22:36:44.065,39361.293,0.073,-0.296,-0.953,-0.027,-0.061,0.014,-0.13,0.037,-0.524,0.076,0.3,1.317
2024-11-02 22:36:44.076,39361.303,0.075,-0.294,-0.953,-0.026,-0.082,0.021,-0.186,0.025,-0.556,0.078,0.298,1.311
2024-11-02 22:36:44.086,39361.313,0.077,-0.291,-0.954,-0.028,-0.106,0.028,-0.264,0.018,-0.596,0.08,0.295,1.306
2024-11-02 22:36:44.095,39361.323,0.079,-0.288,-0.954,-0.037,-0.14,0.035,-0.332,0.012,-0.641,0.082,0.292,1.299
2024-11-02 22:36:44.107,39361.333,0.081,-0.284,-0.955,-0.047,-0.163,0.044,-0.385,0.006,-0.691,0.084,0.288,1.293
2024-11-02 22:36:44.116,39361.343,0.083,-0.279,-0.957,-0.051,-0.172,0.059,-0.426,0.012,-0.75,0.086,0.283,1.286
2024-11-02 22:36:44.126,39361.353,0.085,-0.274,-0.958,-0.053,-0.181,0.082,-0.461,0.022,-0.811,0.089,0.278,1.278
2024-11-02 22:36:44.136,39361.363,0.088,-0.269,-0.959,-0.059,-0.191,0.103,-0.517,0.024,-0.885,0.091,0.272,1.27
2024-11-02 22:36:44.145,39361.373,0.09,-0.263,-0.961,-0.065,-0.216,0.117,-0.601,0.032,-0.965,0.094,0.266,1.261
2024-11-02 22:36:44.157,39361.383,0.093,-0.256,-0.962,-0.076,-0.259,0.128,-0.717,0.045,-1.053,0.097,0.259,1.251
2024-11-02 22:36:44.165,39361.393,0.097,-0.247,-0.964,-0.088,-0.305,0.129,-0.859,0.065,-1.178,0.1,0.25,1.24
2024-11-02 22:36:44.175,39361.403,0.1,-0.237,-0.966,-0.1,-0.357,0.128,-1.012,0.074,-1.304,0.103,0.239,1.228
2024-11-02 22:36:44.185,39361.413,0.104,-0.225,-0.969,-0.108,-0.395,0.129,-1.131,0.095,-1.429,0.107,0.227,1.216
2024-11-02 22:36:44.195,39361.423,0.109,-0.212,-0.971,-0.104,-0.407,0.138,-1.226,0.145,-1.569,0.111,0.214,1.202
2024-11-02 22:36:44.205,39361.433,0.113,-0.198,-0.974,-0.101,-0.406,0.154,-1.308,0.17,-1.688,0.116,0.199,1.187
2024-11-02 22:36:44.215,39361.443,0.118,-0.183,-0.976,-0.104,-0.408,0.179,-1.406,0.147,-1.8,0.121,0.184,1.171
2024-11-02 22:36:44.225,39361.453,0.123,-0.166,-0.978,-0.094,-0.416,0.19,-1.563,0.155,-1.93,0.125,0.167,1.154
2024-11-02 22:36:44.235,39361.463,0.128,-0.147,-0.981,-0.098,-0.42,0.172,-1.86,0.198,-2.046,0.13,0.147,1.136
2024-11-02 22:36:44.245,39361.473,0.133,-0.124,-0.983,-0.127,-0.441,0.141,-2.372,0.332,-2.113,0.135,0.124,1.118
2024-11-02 22:36:44.255,39361.483,0.14,-0.094,-0.986,-0.183,-0.489,0.118,-2.997,0.471,-2.192,0.141,0.095,1.1
2024-11-02 22:36:44.265,39361.493,0.146,-0.058,-0.987,-0.231,-0.513,0.124,-3.655,0.572,-2.23,0.147,0.058,1.083
2024-11-02 22:36:44.275,39361.503,0.153,-0.016,-0.988,-0.244,-0.558,0.159,-4.287,0.664,-2.213,0.154,0.016,1.067
2024-11-02 22:36:44.285,39361.513,0.16,0.033,-0.987,-0.203,-0.582,0.231,-4.834,0.751,-2.212,0.161,-0.033,1.053
2024-11-02 22:36:44.295,39361.523,0.167,0.086,-0.982,-0.138,-0.524,0.277,-5.316,0.876,-2.22,0.168,-0.086,1.039
2024-11-02 22:36:44.305,39361.533,0.174,0.144,-0.974,-0.107,-0.448,0.27,-5.767,1.074,-2.185,0.177,-0.144,1.027
2024-11-02 22:36:44.315,39361.543,0.182,0.205,-0.962,-0.117,-0.379,0.219,-6.151,1.354,-2.19,0.187,-0.207,1.016
2024-11-02 22:36:44.325,39361.553,0.19,0.27,-0.944,-0.156,-0.308,0.131,-6.436,1.585,-2.221,0.199,-0.273,1.006
2024-11-02 22:36:44.335,39361.563,0.2,0.335,-0.921,-0.205,-0.235,0.062,-6.562,1.821,-2.275,0.213,-0.341,0.997
2024-11-02 22:36:44.345,39361.573,0.209,0.399,-0.893,-0.235,-0.147,0.033,-6.515,2.033,-2.322,0.229,-0.41,0.988
2024-11-02 22:36:44.355,39361.582,0.217,0.46,-0.861,-0.251,-0.062,0.016,-6.336,2.231,-2.336,0.247,-0.478,0.98
2024-11-02 22:36:44.365,39361.592,0.225,0.517,-0.826,-0.265,0.001,0.026,-6.012,2.285,-2.32,0.266,-0.544,0.972
2024-11-02 22:36:44.375,39361.602,0.229,0.567,-0.791,-0.255,0.062,0.073,-4.895,1.818,-2.358,0.282,-0.603,0.963
2024-11-02 22:36:44.390,39361.612,0.228,0.604,-0.764,-0.207,0.126,0.123,-3.18,1.459,-2.481,0.29,-0.649,0.949
2024-11-02 22:36:44.395,39361.622,0.223,0.626,-0.748,-0.093,0.244,0.08,-1.031,1.32,-2.471,0.289,-0.676,0.926
2024-11-02 22:36:44.405,39361.632,0.218,0.631,-0.745,-0.005,0.483,0.079,1.096,1.5,-2.463,0.284,-0.683,0.896
2024-11-02 22:36:44.415,39361.642,0.214,0.621,-0.754,-0.042,0.647,0.067,2.791,1.545,-2.486,0.276,-0.67,0.858
2024-11-02 22:36:44.426,39361.652,0.21,0.601,-0.771,-0.13,0.605,0.091,3.73,1.381,-2.516,0.265,-0.645,0.817
2024-11-02 22:36:44.434,39361.662,0.204,0.577,-0.791,-0.124,0.456,0.15,3.735,1.015,-2.445,0.253,-0.615,0.775
2024-11-02 22:36:44.445,39361.672,0.197,0.554,-0.809,-0.02,0.301,0.261,3.188,0.435,-2.339,0.239,-0.587,0.737
2024-11-02 22:36:44.455,39361.682,0.185,0.535,-0.824,0.064,0.188,0.349,2.6,-0.269,-2.268,0.221,-0.564,0.702
2024-11-02 22:36:44.465,39361.692,0.169,0.518,-0.838,0.097,0.132,0.375,2.425,-0.769,-2.202,0.199,-0.545,0.67
2024-11-02 22:36:44.475,39361.702,0.151,0.501,-0.853,0.09,0.214,0.358,2.577,-0.942,-2.01,0.175,-0.524,0.641
2024-11-02 22:36:44.486,39361.712,0.133,0.48,-0.867,0.015,0.358,0.311,2.801,-0.991,-1.85,0.152,-0.501,0.614
2024-11-02 22:36:44.495,39361.722,0.115,0.457,-0.882,-0.089,0.464,0.258,2.986,-1.146,-1.732,0.13,-0.475,0.59
2024-11-02 22:36:44.505,39361.732,0.097,0.432,-0.897,-0.13,0.493,0.216,3.031,-1.277,-1.618,0.108,-0.447,0.567
2024-11-02 22:36:44.515,39361.742,0.079,0.406,-0.91,-0.093,0.465,0.189,2.928,-1.339,-1.499,0.086,-0.419,0.547
2024-11-02 22:36:44.525,39361.752,0.061,0.382,-0.922,-0.053,0.391,0.206,2.647,-1.376,-1.332,0.066,-0.392,0.529
2024-11-02 22:36:44.535,39361.762,0.043,0.36,-0.932,-0.048,0.323,0.22,2.253,-1.381,-1.146,0.046,-0.368,0.514
2024-11-02 22:36:44.545,39361.772,0.027,0.341,-0.94,-0.057,0.319,0.22,1.86,-1.368,-0.963,0.028,-0.348,0.502
2024-11-02 22:36:44.555,39361.782,0.011,0.325,-0.946,-0.067,0.336,0.202,1.529,-1.274,-0.773,0.012,-0.331,0.493
2024-11-02 22:36:44.565,39361.792,-0.002,0.312,-0.95,-0.08,0.356,0.165,1.243,-1.16,-0.603,-0.003,-0.317,0.485
2024-11-02 22:36:44.575,39361.802,-0.015,0.302,-0.953,-0.089,0.382,0.111,0.989,-1.017,-0.481,-0.015,-0.306,0.48
2024-11-02 22:36:44.585,39361.812,-0.025,0.293,-0.956,-0.096,0.396,0.061,0.729,-0.844,-0.368,-0.026,-0.298,0.476
2024-11-02 22:36:44.595,39361.822,-0.033,0.288,-0.957,-0.102,0.374,0.02,0.422,-0.723,-0.287,-0.034,-0.292,0.472
2024-11-02 22:36:44.605,39361.832,-0.04,0.285,-0.958,-0.094,0.318,-0.003,0.034,-0.63,-0.277,-0.042,-0.289,0.47
2024-11-02 22:36:44.615,39361.842,-0.047,0.287,-0.957,-0.054,0.255,-0.01,-0.383,-0.552,-0.257,-0.049,-0.291,0.467
2024-11-02 22:36:44.625,39361.852,-0.052,0.292,-0.955,-0.016,0.196,-0.012,-0.722,-0.459,-0.186,-0.055,-0.296,0.464
2024-11-02 22:36:44.635,39361.862,-0.056,0.3,-0.952,0.003,0.162,-0.018,-0.863,-0.359,-0.097,-0.059,-0.304,0.462
2024-11-02 22:36:44.645,39361.872,-0.06,0.307,-0.95,0.022,0.157,-0.04,-0.57,-0.298,-0.089,-0.063,-0.312,0.461
2024-11-02 22:36:44.655,39361.882,-0.064,0.306,-0.95,0.052,0.192,-0.121,1.118,-0.27,-0.755,-0.067,-0.311,0.457
2024-11-02 22:36:44.665,39361.892,-0.064,0.296,-0.953,0.054,0.291,-0.282,0.867,0.463,-0.404,-0.067,-0.3,0.451
2024-11-02 22:36:44.675,39361.902,-0.059,0.287,-0.956,-0.25,0.424,-0.599,0.996,0.645,0.139,-0.061,-0.291,0.45
2024-11-02 22:36:44.685,39361.912,-0.052,0.28,-0.959,-0.298,0.468,-0.563,0.256,0.686,0.232,-0.054,-0.284,0.453
2024-11-02 22:36:44.695,39361.922,-0.046,0.28,-0.959,0.077,0.238,-0.202,-0.053,0.284,0.035,-0.048,-0.284,0.454
2024-11-02 22:36:44.705,39361.932,-0.047,0.281,-0.959,0.232,-0.019,0.115,-0.119,-0.351,-0.399,-0.049,-0.285,0.452
2024-11-02 22:36:44.715,39361.942,-0.052,0.28,-0.959,0.311,-0.235,0.238,0.361,-0.151,-0.575,-0.054,-0.283,0.447
2024-11-02 22:36:44.725,39361.952,-0.053,0.273,-0.96,0.121,-0.09,0.24,0.841,0.162,-0.488,-0.055,-0.277,0.442
2024-11-02 22:36:44.735,39361.962,-0.053,0.265,-0.963,-0.225,0.047,0.065,0.68,0.078,-0.247,-0.055,-0.269,0.439
2024-11-02 22:36:44.745,39361.972,-0.054,0.26,-0.964,-0.298,-0.007,-0.063,0.381,-0.274,-0.214,-0.056,-0.263,0.437
2024-11-02 22:36:44.755,39361.982,-0.059,0.258,-0.964,-0.054,-0.193,-0.063,0.123,-0.508,-0.426,-0.061,-0.261,0.434
2024-11-02 22:36:44.764,39361.992,-0.065,0.257,-0.964,0.136,-0.247,-0.033,0.006,-0.469,-0.45,-0.067,-0.26,0.429
2024-11-02 22:36:44.774,39362.002,-0.069,0.256,-0.964,0.088,-0.105,0.019,0.054,-0.247,-0.344,-0.072,-0.259,0.425
2024-11-02 22:36:44.784,39362.012,-0.071,0.256,-0.964,-0.036,-0.027,0.047,0.001,0.005,-0.21,-0.074,-0.259,0.422
2024-11-02 22:36:44.794,39362.022,-0.071,0.256,-0.964,-0.102,0.025,0.028,-0.026,0.093,-0.218,-0.074,-0.259,0.42
2024-11-02 22:36:44.804,39362.032,-0.071,0.256,-0.964,-0.086,0.055,-0.012,-0.179,0.124,-0.234,-0.073,-0.259,0.417
2024-11-02 22:36:44.814,39362.042,-0.07,0.258,-0.963,-0.045,-0.007,-0.011,-0.241,0.104,-0.234,-0.073,-0.261,0.415
2024-11-02 22:36:44.824,39362.052,-0.07,0.261,-0.963,-0.029,-0.052,-0.012,-0.363,0.033,-0.184,-0.073,-0.264,0.412
2024-11-02 22:36:44.835,39362.062,-0.071,0.265,-0.962,-0.006,-0.09,-0.0,-0.367,-0.061,-0.162,-0.073,-0.268,0.41
2024-11-02 22:36:44.844,39362.072,-0.072,0.268,-0.961,0.026,-0.063,-0.018,-0.292,-0.031,-0.161,-0.074,-0.271,0.408
2024-11-02 22:36:44.855,39362.082,-0.072,0.27,-0.96,0.004,0.011,-0.042,-0.149,0.019,-0.123,-0.075,-0.273,0.407
2024-11-02 22:36:44.864,39362.092,-0.072,0.271,-0.96,-0.025,0.108,-0.006,-0.034,0.049,-0.107,-0.075,-0.274,0.406
2024-11-02 22:36:44.875,39362.102,-0.072,0.271,-0.96,-0.017,0.112,0.016,0.004,0.1,-0.105,-0.074,-0.274,0.404
2024-11-02 22:36:44.884,39362.112,-0.071,0.27,-0.96,-0.008,0.073,0.02,0.039,0.171,-0.108,-0.073,-0.274,0.403
2024-11-02 22:36:44.894,39362.122,-0.069,0.27,-0.96,-0.019,0.026,0.021,0.086,0.228,-0.092,-0.072,-0.273,0.402
2024-11-02 22:36:44.904,39362.132,-0.067,0.269,-0.961,-0.032,0.011,0.018,0.114,0.266,-0.08,-0.069,-0.272,0.402
2024-11-02 22:36:44.914,39362.142,-0.064,0.268,-0.961,-0.022,0.046,0.022,0.095,0.315,-0.082,-0.067,-0.271,0.401
2024-11-02 22:36:44.924,39362.152,-0.061,0.267,-0.962,-0.015,0.043,0.006,0.067,0.349,-0.076,-0.064,-0.27,0.4
2024-11-02 22:36:44.934,39362.162,-0.058,0.266,-0.962,-0.028,0.008,0.001,0.033,0.306,-0.07,-0.06,-0.269,0.399
2024-11-02 22:36:44.944,39362.171,-0.056,0.266,-0.962,-0.024,-0.014,-0.005,-0.007,0.213,-0.105,-0.058,-0.269,0.398
2024-11-02 22:36:44.955,39362.181,-0.055,0.266,-0.962,0.012,-0.013,-0.006,-0.04,0.089,-0.137,-0.057,-0.269,0.397
2024-11-02 22:36:44.964,39362.191,-0.055,0.267,-0.962,0.04,-0.011,0.01,-0.06,0.016,-0.152,-0.057,-0.27,0.396
2024-11-02 22:36:44.974,39362.201,-0.055,0.267,-0.962,0.035,-0.023,0.003,-0.076,-0.014,-0.17,-0.057,-0.27,0.394
2024-11-02 22:36:44.984,39362.211,-0.056,0.268,-0.962,0.021,-0.019,-0.005,-0.06,-0.028,-0.167,-0.058,-0.271,0.392
2024-11-02 22:36:44.994,39362.221,-0.057,0.268,-0.962,0.007,0.009,0.01,-0.063,-0.023,-0.176,-0.059,-0.272,0.39
2024-11-02 22:36:45.005,39362.231,-0.057,0.269,-0.961,0.006,0.023,0.0,-0.039,-0.003,-0.206,-0.06,-0.272,0.388
2024-11-02 22:36:45.014,39362.241,-0.058,0.269,-0.961,0.001,0.023,-0.008,-0.022,0.008,-0.209,-0.06,-0.272,0.386
2024-11-02 22:36:45.023,39362.251,-0.059,0.269,-0.961,-0.007,0.026,0.009,-0.023,-0.002,-0.198,-0.061,-0.272,0.384
2024-11-02 22:36:45.034,39362.261,-0.059,0.269,-0.961,0.003,0.021,0.015,-0.059,-0.02,-0.201,-0.061,-0.273,0.382
2024-11-02 22:36:45.044,39362.271,-0.059,0.27,-0.961,0.005,0.001,0.015,-0.097,-0.059,-0.187,-0.062,-0.273,0.38
2024-11-02 22:36:45.054,39362.281,-0.06,0.27,-0.961,0.004,-0.016,0.02,-0.133,-0.098,-0.176,-0.063,-0.274,0.378
2024-11-02 22:36:45.064,39362.291,-0.062,0.271,-0.96,0.008,-0.024,0.012,-0.133,-0.125,-0.161,-0.064,-0.275,0.376
2024-11-02 22:36:45.074,39362.301,-0.063,0.273,-0.96,0.007,-0.019,0.008,-0.114,-0.123,-0.131,-0.066,-0.276,0.375
2024-11-02 22:36:45.084,39362.311,-0.064,0.274,-0.96,-0.0,0.002,0.009,-0.069,-0.102,-0.113,-0.067,-0.277,0.373
2024-11-02 22:36:45.094,39362.321,-0.065,0.274,-0.959,-0.008,0.025,0.006,-0.012,-0.052,-0.097,-0.068,-0.278,0.372
2024-11-02 22:36:45.104,39362.331,-0.066,0.274,-0.959,-0.018,0.042,0.009,0.043,-0.01,-0.076,-0.068,-0.278,0.372
2024-11-02 22:36:45.114,39362.341,-0.066,0.274,-0.96,-0.021,0.043,0.017,0.086,0.039,-0.062,-0.068,-0.277,0.371
2024-11-02 22:36:45.125,39362.351,-0.065,0.273,-0.96,-0.019,0.04,0.011,0.079,0.093,-0.055,-0.068,-0.276,0.37
2024-11-02 22:36:45.134,39362.361,-0.064,0.272,-0.96,-0.025,0.036,0.016,0.062,0.088,-0.052,-0.067,-0.276,0.37
2024-11-02 22:36:45.144,39362.371,-0.064,0.271,-0.96,-0.027,0.014,0.012,0.031,0.064,-0.055,-0.066,-0.275,0.369
2024-11-02 22:36:45.154,39362.381,-0.063,0.271,-0.96,-0.011,-0.016,0.007,0.003,0.064,-0.049,-0.066,-0.275,0.369
2024-11-02 22:36:45.163,39362.391,-0.063,0.271,-0.96,-0.001,-0.016,0.011,-0.014,0.079,-0.042,-0.065,-0.275,0.368
2024-11-02 22:36:45.174,39362.401,-0.062,0.272,-0.96,-0.016,-0.0,0.005,-0.026,0.088,-0.033,-0.064,-0.275,0.368
2024-11-02 22:36:45.184,39362.411,-0.061,0.272,-0.96,-0.024,0.004,-0.001,-0.022,0.116,-0.032,-0.064,-0.276,0.368
2024-11-02 22:36:45.194,39362.421,-0.06,0.273,-0.96,-0.015,0.009,0.007,-0.033,0.121,-0.02,-0.063,-0.276,0.367
2024-11-02 22:36:45.204,39362.431,-0.06,0.274,-0.96,-0.012,0.005,0.016,-0.067,0.085,-0.027,-0.062,-0.277,0.367
2024-11-02 22:36:45.214,39362.441,-0.06,0.275,-0.96,0.002,-0.007,0.014,-0.108,0.017,-0.047,-0.062,-0.278,0.366
2024-11-02 22:36:45.223,39362.451,-0.06,0.276,-0.959,0.021,-0.021,0.008,-0.127,-0.041,-0.06,-0.063,-0.28,0.366
2024-11-02 22:36:45.233,39362.461,-0.061,0.277,-0.959,0.019,-0.023,-0.009,-0.126,-0.075,-0.077,-0.064,-0.281,0.365
2024-11-02 22:36:45.243,39362.471,-0.062,0.278,-0.959,0.019,-0.007,-0.0,-0.106,-0.089,-0.089,-0.065,-0.282,0.364
2024-11-02 22:36:45.253,39362.481,-0.063,0.279,-0.958,0.018,0.017,0.006,-0.057,-0.082,-0.108,-0.066,-0.282,0.363
2024-11-02 22:36:45.263,39362.491,-0.065,0.279,-0.958,0.004,0.026,0.001,-0.003,-0.053,-0.115,-0.067,-0.283,0.361
2024-11-02 22:36:45.273,39362.501,-0.065,0.279,-0.958,-0.006,0.039,0.007,0.043,-0.013,-0.108,-0.068,-0.282,0.36
2024-11-02 22:36:45.283,39362.511,-0.066,0.278,-0.958,-0.012,0.049,0.013,0.072,0.02,-0.093,-0.068,-0.282,0.359
2024-11-02 22:36:45.293,39362.521,-0.066,0.277,-0.959,-0.018,0.039,0.016,0.074,0.031,-0.08,-0.068,-0.281,0.358
2024-11-02 22:36:45.304,39362.531,-0.065,0.276,-0.959,-0.021,0.018,0.015,0.059,0.029,-0.067,-0.068,-0.28,0.358
2024-11-02 22:36:45.314,39362.541,-0.065,0.276,-0.959,-0.017,0.001,0.013,0.042,0.009,-0.056,-0.068,-0.279,0.357
2024-11-02 22:36:45.324,39362.551,-0.065,0.275,-0.959,-0.012,-0.005,0.007,0.03,-0.015,-0.06,-0.068,-0.279,0.357
2024-11-02 22:36:45.334,39362.561,-0.065,0.275,-0.959,-0.004,-0.008,0.005,0.017,-0.018,-0.056,-0.068,-0.279,0.356
2024-11-02 22:36:45.344,39362.571,-0.065,0.275,-0.959,0.003,-0.005,0.009,0.011,-0.007,-0.049,-0.068,-0.279,0.356
2024-11-02 22:36:45.354,39362.581,-0.066,0.275,-0.959,-0.005,0.002,0.007,0.007,-0.006,-0.049,-0.068,-0.279,0.355
2024-11-02 22:36:45.364,39362.591,-0.066,0.276,-0.959,-0.008,0.006,0.005,0.004,-0.012,-0.048,-0.069,-0.28,0.355
2024-11-02 22:36:45.374,39362.601,-0.066,0.276,-0.959,-0.001,0.004,0.01,0.003,-0.014,-0.044,-0.069,-0.28,0.354
2024-11-02 22:36:45.384,39362.611,-0.067,0.276,-0.959,-0.001,0.007,0.007,-0.005,-0.015,-0.041,-0.07,-0.28,0.354
2024-11-02 22:36:45.394,39362.621,-0.067,0.277,-0.959,-0.006,0.004,0.005,-0.003,-0.014,-0.035,-0.07,-0.28,0.353
2024-11-02 22:36:45.404,39362.631,-0.068,0.276,-0.959,-0.005,-0.0,0.012,0.005,-0.029,-0.036,-0.07,-0.28,0.353
2024-11-02 22:36:45.413,39362.641,-0.068,0.276,-0.959,-0.005,0.002,0.007,0.013,-0.055,-0.033,-0.071,-0.28,0.352
2024-11-02 22:36:45.423,39362.651,-0.069,0.276,-0.959,-0.0,0.012,0.001,0.039,-0.065,-0.047,-0.072,-0.28,0.352
2024-11-02 22:36:45.433,39362.661,-0.069,0.275,-0.959,0.007,0.014,0.008,0.066,-0.051,-0.031,-0.072,-0.279,0.352
2024-11-02 22:36:45.444,39362.671,-0.07,0.275,-0.959,-0.001,0.021,0.01,0.089,-0.015,-0.02,-0.073,-0.278,0.351
2024-11-02 22:36:45.453,39362.681,-0.07,0.274,-0.959,-0.012,0.026,0.006,0.08,0.034,-0.002,-0.073,-0.278,0.351
2024-11-02 22:36:45.463,39362.691,-0.069,0.274,-0.959,-0.019,0.031,0.003,0.055,0.066,0.002,-0.072,-0.277,0.351
2024-11-02 22:36:45.474,39362.701,-0.068,0.273,-0.959,-0.024,0.019,-0.003,0.009,0.088,0.003,-0.071,-0.277,0.352
2024-11-02 22:36:45.483,39362.711,-0.068,0.273,-0.96,-0.018,-0.007,-0.01,-0.019,0.081,-0.016,-0.07,-0.277,0.351
2024-11-02 22:36:45.493,39362.721,-0.067,0.274,-0.959,-0.01,-0.01,-0.005,-0.043,0.074,-0.041,-0.07,-0.277,0.351
2024-11-02 22:36:45.503,39362.731,-0.067,0.274,-0.959,-0.006,-0.013,0.013,-0.031,0.063,-0.033,-0.069,-0.278,0.351
2024-11-02 22:36:45.513,39362.741,-0.066,0.275,-0.959,-0.0,-0.017,0.028,-0.025,0.072,-0.016,-0.069,-0.278,0.35
2024-11-02 22:36:45.523,39362.751,-0.065,0.275,-0.959,-0.001,-0.008,0.025,-0.014,0.071,-0.014,-0.068,-0.279,0.35
2024-11-02 22:36:45.533,39362.761,-0.065,0.275,-0.959,-0.001,0.008,0.024,-0.005,0.063,-0.003,-0.068,-0.279,0.35
2024-11-02 22:36:45.544,39362.77,-0.065,0.276,-0.959,0.001,0.004,0.02,0.002,0.056,-0.006,-0.067,-0.279,0.35
2024-11-02 22:36:45.553,39362.78,-0.064,0.276,-0.959,0.004,0.005,0.016,-0.005,0.077,0.008,-0.067,-0.279,0.35
2024-11-02 22:36:45.563,39362.79,-0.064,0.276,-0.959,-0.003,0.005,0.018,0.001,0.073,0.017,-0.066,-0.279,0.35
2024-11-02 22:36:45.573,39362.8,-0.063,0.276,-0.959,-0.008,-0.002,0.023,-0.018,0.045,0.014,-0.066,-0.279,0.35
2024-11-02 22:36:45.583,39362.81,-0.063,0.276,-0.959,-0.009,-0.009,0.014,-0.025,0.025,0.02,-0.065,-0.279,0.35
2024-11-02 22:36:45.593,39362.82,-0.063,0.276,-0.959,-0.002,-0.009,0.011,-0.033,0.017,0.025,-0.065,-0.28,0.35
2024-11-02 22:36:45.603,39362.83,-0.062,0.276,-0.959,-0.002,-0.009,0.014,-0.046,0.01,0.027,-0.065,-0.28,0.351
2024-11-02 22:36:45.613,39362.84,-0.062,0.277,-0.959,-0.003,-0.005,0.01,-0.052,-0.004,0.024,-0.065,-0.281,0.351
2024-11-02 22:36:45.623,39362.85,-0.062,0.278,-0.959,-0.002,0.0,0.002,-0.058,-0.021,0.025,-0.065,-0.281,0.351
2024-11-02 22:36:45.633,39362.86,-0.063,0.278,-0.958,0.002,0.001,-0.001,-0.045,-0.029,0.017,-0.065,-0.282,0.351
2024-11-02 22:36:45.643,39362.87,-0.063,0.279,-0.958,0.003,0.002,0.002,-0.04,-0.028,0.015,-0.065,-0.282,0.351
2024-11-02 22:36:45.652,39362.88,-0.063,0.279,-0.958,0.003,0.006,0.003,-0.034,-0.027,0.014,-0.066,-0.283,0.352
2024-11-02 22:36:45.663,39362.89,-0.063,0.279,-0.958,0.003,0.01,0.005,-0.026,-0.021,0.012,-0.066,-0.283,0.352
2024-11-02 22:36:45.673,39362.9,-0.064,0.279,-0.958,0.003,0.006,0.007,-0.023,-0.014,0.016,-0.066,-0.283,0.352
2024-11-02 22:36:45.683,39362.91,-0.064,0.28,-0.958,-0.002,0.006,0.009,-0.031,-0.001,0.02,-0.066,-0.283,0.352
2024-11-02 22:36:45.693,39362.92,-0.064,0.28,-0.958,-0.007,0.01,0.006,-0.027,0.014,0.019,-0.066,-0.284,0.352
2024-11-02 22:36:45.703,39362.93,-0.063,0.28,-0.958,-0.011,0.007,0.004,-0.022,0.027,0.023,-0.066,-0.284,0.352
2024-11-02 22:36:45.713,39362.94,-0.063,0.28,-0.958,-0.013,0.007,0.005,-0.017,0.035,0.022,-0.066,-0.284,0.352
2024-11-02 22:36:45.723,39362.95,-0.062,0.28,-0.958,-0.011,0.011,0.008,-0.005,0.031,0.027,-0.065,-0.284,0.353
2024-11-02 22:36:45.733,39362.96,-0.062,0.281,-0.958,-0.006,0.008,0.011,-0.016,0.027,0.021,-0.065,-0.284,0.353
2024-11-02 22:36:45.743,39362.97,-0.062,0.281,-0.958,0.001,0.005,0.009,-0.013,0.015,0.02,-0.064,-0.285,0.353
2024-11-02 22:36:45.753,39362.98,-0.062,0.281,-0.958,0.0,0.004,0.006,-0.019,-0.009,0.016,-0.064,-0.285,0.353
2024-11-02 22:36:45.763,39362.99,-0.062,0.281,-0.958,0.003,-0.004,0.005,-0.028,-0.029,0.011,-0.065,-0.285,0.354
2024-11-02 22:36:45.773,39363.0,-0.062,0.282,-0.957,0.012,-0.004,0.009,-0.037,-0.037,0.013,-0.065,-0.286,0.354
2024-11-02 22:36:45.782,39363.01,-0.063,0.282,-0.957,0.008,-0.005,0.012,-0.047,-0.023,0.013,-0.065,-0.286,0.354
2024-11-02 22:36:45.793,39363.02,-0.063,0.283,-0.957,-0.001,-0.001,0.006,-0.056,-0.003,0.019,-0.066,-0.287,0.354
2024-11-02 22:36:45.803,39363.03,-0.063,0.283,-0.957,-0.011,0.005,0.003,-0.069,-0.011,0.023,-0.066,-0.287,0.354
2024-11-02 22:36:45.813,39363.04,-0.063,0.284,-0.957,-0.007,-0.001,0.01,-0.074,-0.003,0.007,-0.066,-0.288,0.354
2024-11-02 22:36:45.823,39363.05,-0.063,0.285,-0.956,-0.005,-0.01,0.01,-0.08,-0.013,0.013,-0.066,-0.289,0.354
2024-11-02 22:36:45.833,39363.06,-0.063,0.286,-0.956,-0.005,-0.005,0.013,-0.078,-0.018,0.011,-0.066,-0.29,0.354
2024-11-02 22:36:45.843,39363.07,-0.063,0.286,-0.956,0.002,0.002,0.011,-0.067,-0.033,0.004,-0.066,-0.29,0.354
2024-11-02 22:36:45.853,39363.08,-0.064,0.287,-0.956,-0.003,0.002,0.005,-0.05,-0.058,0.003,-0.067,-0.291,0.354
2024-11-02 22:36:45.863,39363.09,-0.064,0.287,-0.956,0.001,0.008,0.011,-0.038,-0.076,-0.008,-0.067,-0.291,0.354
2024-11-02 22:36:45.873,39363.1,-0.065,0.287,-0.956,0.008,0.01,0.008,-0.022,-0.06,-0.002,-0.068,-0.292,0.354
2024-11-02 22:36:45.883,39363.11,-0.065,0.288,-0.956,0.003,0.007,0.005,-0.001,-0.022,0.007,-0.068,-0.292,0.354
2024-11-02 22:36:45.894,39363.12,-0.065,0.288,-0.956,-0.011,0.018,0.004,0.013,0.017,0.009,-0.068,-0.292,0.354
2024-11-02 22:36:45.903,39363.13,-0.065,0.287,-0.956,-0.017,0.022,0.006,0.017,0.039,0.008,-0.068,-0.291,0.354
2024-11-02 22:36:45.913,39363.14,-0.065,0.287,-0.956,-0.015,0.014,0.01,0.011,0.026,0.007,-0.068,-0.291,0.354
2024-11-02 22:36:45.923,39363.15,-0.065,0.287,-0.956,-0.006,0.006,0.013,-0.003,-0.005,0.01,-0.068,-0.291,0.354
2024-11-02 22:36:45.933,39363.16,-0.065,0.287,-0.956,0.007,-0.002,0.009,-0.002,-0.026,-0.017,-0.068,-0.291,0.354
2024-11-02 22:36:45.943,39363.17,-0.065,0.287,-0.956,0.008,-0.002,0.002,-0.004,-0.027,-0.006,-0.068,-0.291,0.354
2024-11-02 22:36:45.953,39363.18,-0.065,0.287,-0.956,0.004,0.004,0.008,0.013,-0.017,0.001,-0.068,-0.291,0.354
2024-11-02 22:36:45.963,39363.19,-0.065,0.287,-0.956,-0.003,0.012,0.001,0.026,-0.009,0.001,-0.068,-0.291,0.354
2024-11-02 22:36:45.973,39363.2,-0.066,0.287,-0.956,-0.009,0.017,0.003,0.032,0.001,-0.001,-0.068,-0.291,0.354
2024-11-02 22:36:45.982,39363.21,-0.066,0.287,-0.956,-0.01,0.015,0.006,0.014,0.006,-0.002,-0.069,-0.291,0.354
2024-11-02 22:36:45.992,39363.22,-0.066,0.287,-0.956,-0.008,0.003,0.005,-0.005,0.023,0.005,-0.069,-0.291,0.354
2024-11-02 22:36:46.003,39363.23,-0.065,0.287,-0.956,-0.007,-0.0,0.006,-0.017,0.034,-0.003,-0.068,-0.291,0.354
2024-11-02 22:36:46.012,39363.24,-0.065,0.288,-0.956,-0.009,-0.004,0.004,-0.027,0.029,-0.007,-0.068,-0.292,0.354
2024-11-02 22:36:46.022,39363.25,-0.065,0.288,-0.956,-0.006,-0.002,0.003,-0.024,0.02,-0.01,-0.068,-0.292,0.354
2024-11-02 22:36:46.033,39363.26,-0.065,0.288,-0.955,0.0,-0.001,0.01,-0.015,0.021,-0.014,-0.068,-0.292,0.354
2024-11-02 22:36:46.042,39363.27,-0.064,0.288,-0.955,0.001,-0.002,0.008,-0.003,0.034,-0.011,-0.067,-0.292,0.354
2024-11-02 22:36:46.053,39363.28,-0.064,0.288,-0.955,-0.003,0.009,0.01,0.004,0.035,-0.006,-0.067,-0.292,0.354
2024-11-02 22:36:46.063,39363.29,-0.064,0.288,-0.955,-0.008,0.009,0.01,0.009,0.042,-0.003,-0.067,-0.292,0.354
2024-11-02 22:36:46.072,39363.3,-0.064,0.288,-0.955,-0.006,0.007,0.011,0.02,0.055,-0.006,-0.066,-0.292,0.353
2024-11-02 22:36:46.082,39363.31,-0.063,0.288,-0.956,-0.003,0.004,0.016,0.041,0.055,-0.01,-0.066,-0.292,0.353
2024-11-02 22:36:46.092,39363.32,-0.063,0.287,-0.956,-0.008,0.003,0.02,0.039,0.054,-0.02,-0.066,-0.292,0.353
2024-11-02 22:36:46.102,39363.33,-0.062,0.287,-0.956,-0.003,0.004,0.015,0.032,0.072,-0.014,-0.065,-0.291,0.353
2024-11-02 22:36:46.112,39363.34,-0.062,0.287,-0.956,-0.003,0.004,0.01,0.032,0.078,-0.005,-0.064,-0.291,0.353
2024-11-02 22:36:46.122,39363.35,-0.061,0.286,-0.956,-0.009,0.002,0.009,0.047,0.051,-0.014,-0.064,-0.29,0.353
2024-11-02 22:36:46.132,39363.36,-0.061,0.286,-0.956,0.001,0.001,0.014,0.059,0.024,-0.026,-0.063,-0.29,0.353
2024-11-02 22:36:46.142,39363.369,-0.061,0.285,-0.956,0.014,-0.002,0.026,0.084,0.013,-0.033,-0.063,-0.289,0.352
2024-11-02 22:36:46.153,39363.379,-0.061,0.285,-0.957,0.012,0.002,0.02,0.088,0.013,-0.037,-0.064,-0.289,0.352
2024-11-02 22:36:46.162,39363.389,-0.061,0.284,-0.957,0.001,0.007,0.013,0.072,0.029,-0.029,-0.063,-0.288,0.352
2024-11-02 22:36:46.172,39363.399,-0.061,0.283,-0.957,-0.005,0.006,0.005,0.051,0.043,-0.026,-0.063,-0.287,0.352
2024-11-02 22:36:46.182,39363.409,-0.06,0.283,-0.957,-0.015,-0.002,-0.005,0.025,0.036,-0.038,-0.063,-0.287,0.351
2024-11-02 22:36:46.192,39363.419,-0.06,0.283,-0.957,-0.009,-0.007,0.001,0.015,0.042,-0.037,-0.063,-0.287,0.351
2024-11-02 22:36:46.202,39363.429,-0.06,0.283,-0.957,0.001,-0.012,0.008,0.011,0.061,-0.032,-0.062,-0.287,0.35
2024-11-02 22:36:46.213,39363.439,-0.059,0.283,-0.957,-0.004,-0.005,0.013,0.015,0.082,-0.024,-0.062,-0.287,0.35
2024-11-02 22:36:46.222,39363.449,-0.059,0.283,-0.957,-0.009,0.004,0.011,0.028,0.058,-0.029,-0.061,-0.287,0.35
2024-11-02 22:36:46.233,39363.459,-0.058,0.282,-0.958,-0.008,0.004,0.004,0.046,0.037,-0.031,-0.061,-0.286,0.35
2024-11-02 22:36:46.242,39363.469,-0.058,0.282,-0.958,0.006,0.011,0.007,0.057,0.04,-0.033,-0.06,-0.286,0.349
2024-11-02 22:36:46.252,39363.479,-0.058,0.281,-0.958,0.007,0.013,0.01,0.064,0.043,-0.026,-0.06,-0.285,0.349
2024-11-02 22:36:46.262,39363.489,-0.057,0.281,-0.958,-0.003,0.013,0.004,0.058,0.043,-0.022,-0.06,-0.285,0.349
2024-11-02 22:36:46.272,39363.499,-0.057,0.28,-0.958,-0.004,0.012,0.003,0.055,0.044,-0.024,-0.06,-0.284,0.349
2024-11-02 22:36:46.282,39363.509,-0.057,0.28,-0.958,-0.002,0.005,0.001,0.053,0.052,-0.021,-0.059,-0.283,0.348
2024-11-02 22:36:46.292,39363.519,-0.056,0.279,-0.959,-0.008,-0.003,0.005,0.038,0.06,-0.024,-0.059,-0.283,0.348
2024-11-02 22:36:46.302,39363.529,-0.056,0.279,-0.959,-0.003,0.002,0.008,0.047,0.061,-0.029,-0.058,-0.283,0.348
2024-11-02 22:36:46.312,39363.539,-0.056,0.279,-0.959,0.001,-0.001,0.013,0.037,0.034,-0.035,-0.058,-0.282,0.348
2024-11-02 22:36:46.322,39363.549,-0.055,0.278,-0.959,0.007,-0.005,0.007,0.065,0.044,-0.047,-0.058,-0.282,0.347
2024-11-02 22:36:46.332,39363.559,-0.055,0.278,-0.959,0.014,0.004,0.01,0.076,0.044,-0.048,-0.057,-0.281,0.347
2024-11-02 22:36:46.342,39363.569,-0.055,0.277,-0.959,0.007,0.011,0.015,0.061,0.076,-0.021,-0.057,-0.281,0.346
2024-11-02 22:36:46.352,39363.579,-0.054,0.277,-0.959,-0.001,0.016,0.015,-0.03,0.084,-0.01,-0.056,-0.28,0.346
2024-11-02 22:36:46.362,39363.589,-0.053,0.278,-0.959,-0.014,-0.005,0.011,-0.231,0.089,0.042,-0.055,-0.282,0.346
2024-11-02 22:36:46.372,39363.599,-0.053,0.281,-0.958,-0.011,-0.054,0.014,-0.324,0.036,0.019,-0.055,-0.285,0.346
2024-11-02 22:36:46.382,39363.609,-0.052,0.284,-0.957,-0.004,-0.134,0.019,-0.407,0.009,0.018,-0.055,-0.288,0.346
2024-11-02 22:36:46.392,39363.619,-0.052,0.288,-0.956,0.002,-0.121,0.002,-0.403,0.086,0.042,-0.054,-0.293,0.347
2024-11-02 22:36:46.402,39363.629,-0.05,0.292,-0.955,-0.007,-0.01,-0.02,-0.35,0.196,0.075,-0.053,-0.296,0.347
2024-11-02 22:36:46.412,39363.639,-0.048,0.295,-0.954,-0.047,0.049,-0.016,-0.308,0.271,0.081,-0.05,-0.3,0.348
2024-11-02 22:36:46.422,39363.649,-0.045,0.298,-0.954,-0.046,0.055,-0.004,-0.276,0.306,0.091,-0.047,-0.303,0.348
2024-11-02 22:36:46.432,39363.659,-0.042,0.3,-0.953,-0.017,0.024,0.021,-0.228,0.309,0.11,-0.044,-0.305,0.349
2024-11-02 22:36:46.442,39363.669,-0.039,0.303,-0.952,-0.006,-0.006,0.055,-0.239,0.289,0.103,-0.04,-0.307,0.35
2024-11-02 22:36:46.452,39363.679,-0.035,0.305,-0.952,0.002,-0.012,0.036,-0.32,0.323,0.137,-0.037,-0.31,0.351
2024-11-02 22:36:46.462,39363.689,-0.031,0.309,-0.951,-0.004,-0.001,-0.02,-0.378,0.379,0.181,-0.033,-0.314,0.353
2024-11-02 22:36:46.472,39363.699,-0.027,0.313,-0.949,-0.033,-0.008,-0.037,-0.53,0.419,0.182,-0.029,-0.318,0.355
2024-11-02 22:36:46.482,39363.709,-0.022,0.319,-0.948,-0.051,-0.031,-0.062,-0.684,0.469,0.184,-0.024,-0.324,0.356
2024-11-02 22:36:46.492,39363.719,-0.017,0.326,-0.945,-0.039,-0.072,-0.072,-0.804,0.558,0.229,-0.018,-0.332,0.358
2024-11-02 22:36:46.502,39363.729,-0.01,0.334,-0.943,-0.054,-0.094,-0.067,-0.85,0.67,0.284,-0.011,-0.34,0.361
2024-11-02 22:36:46.512,39363.739,-0.003,0.342,-0.94,-0.065,-0.021,-0.047,-0.833,0.722,0.296,-0.003,-0.349,0.364
2024-11-02 22:36:46.522,39363.749,0.005,0.349,-0.937,-0.053,0.035,-0.025,-0.812,0.707,0.337,0.005,-0.357,0.367
2024-11-02 22:36:46.532,39363.759,0.012,0.356,-0.934,-0.035,0.028,0.007,-0.719,0.544,0.334,0.013,-0.364,0.371
2024-11-02 22:36:46.542,39363.769,0.018,0.363,-0.932,-0.006,-0.041,0.031,-0.763,0.355,0.33,0.019,-0.372,0.375
2024-11-02 22:36:46.551,39363.779,0.022,0.37,-0.929,0.011,-0.086,-0.013,-0.777,0.291,0.268,0.023,-0.379,0.378
2024-11-02 22:36:46.562,39363.789,0.026,0.377,-0.926,-0.006,-0.01,-0.077,-0.512,0.379,0.553,0.028,-0.386,0.382
2024-11-02 22:36:46.572,39363.799,0.036,0.375,-0.926,-0.083,0.095,-0.106,0.724,1.24,1.195,0.039,-0.384,0.392
2024-11-02 22:36:46.581,39363.809,0.053,0.366,-0.929,-0.133,0.266,-0.131,0.947,1.265,1.285,0.057,-0.375,0.405
2024-11-02 22:36:46.591,39363.819,0.067,0.36,-0.931,-0.179,0.534,-0.165,0.276,0.755,1.137,0.071,-0.368,0.417
2024-11-02 22:36:46.602,39363.829,0.076,0.359,-0.93,-0.159,0.424,-0.062,-0.307,0.5,1.165,0.082,-0.367,0.43
2024-11-02 22:36:46.612,39363.839,0.085,0.362,-0.928,-0.031,0.142,-0.019,-0.609,0.475,1.332,0.092,-0.371,0.443
2024-11-02 22:36:46.622,39363.849,0.095,0.368,-0.925,-0.051,0.373,0.005,-0.882,0.398,1.494,0.102,-0.377,0.459
2024-11-02 22:36:46.631,39363.859,0.103,0.376,-0.921,-0.132,0.554,0.042,-1.157,0.2,1.561,0.111,-0.385,0.477
2024-11-02 22:36:46.641,39363.869,0.11,0.386,-0.916,-0.109,0.483,0.077,-1.351,0.061,1.647,0.12,-0.396,0.495
2024-11-02 22:36:46.651,39363.879,0.117,0.397,-0.91,-0.058,0.396,0.095,-1.454,-0.009,1.742,0.128,-0.408,0.516
2024-11-02 22:36:46.662,39363.889,0.124,0.408,-0.904,-0.04,0.357,0.096,-1.581,-0.094,1.811,0.136,-0.42,0.537
2024-11-02 22:36:46.672,39363.899,0.13,0.421,-0.898,-0.037,0.312,0.058,-1.716,-0.194,1.897,0.144,-0.434,0.56
2024-11-02 22:36:46.681,39363.909,0.136,0.434,-0.89,-0.048,0.275,0.013,-1.86,-0.283,1.946,0.152,-0.449,0.584
2024-11-02 22:36:46.691,39363.919,0.142,0.449,-0.882,-0.056,0.228,-0.014,-2.055,-0.363,1.969,0.16,-0.465,0.608
2024-11-02 22:36:46.701,39363.929,0.148,0.465,-0.873,-0.06,0.172,-0.006,-2.301,-0.498,2.03,0.167,-0.483,0.635
2024-11-02 22:36:46.711,39363.939,0.153,0.483,-0.862,-0.078,0.122,0.054,-2.556,-0.593,2.079,0.175,-0.504,0.662
2024-11-02 22:36:46.721,39363.949,0.157,0.503,-0.85,-0.065,0.092,0.13,-2.838,-0.698,2.123,0.183,-0.527,0.691
2024-11-02 22:36:46.731,39363.959,0.162,0.524,-0.836,-0.034,0.057,0.186,-3.057,-0.819,2.139,0.191,-0.552,0.722
2024-11-02 22:36:46.741,39363.968,0.166,0.547,-0.821,-0.016,0.015,0.221,-3.198,-0.958,2.125,0.199,-0.578,0.754
2024-11-02 22:36:46.751,39363.978,0.169,0.569,-0.805,0.01,-0.04,0.234,-3.243,-1.118,2.102,0.207,-0.605,0.787
2024-11-02 22:36:46.761,39363.988,0.172,0.591,-0.788,0.023,-0.071,0.223,-3.212,-1.24,2.086,0.215,-0.633,0.82
2024-11-02 22:36:46.771,39363.998,0.174,0.612,-0.771,0.022,-0.047,0.174,-3.061,-1.318,2.044,0.222,-0.659,0.854
2024-11-02 22:36:46.781,39364.008,0.177,0.632,-0.755,0.007,-0.04,0.125,-2.98,-1.372,1.99,0.23,-0.684,0.888
2024-11-02 22:36:46.791,39364.018,0.179,0.65,-0.738,-0.018,-0.097,0.104,-2.959,-1.475,1.895,0.237,-0.708,0.921
2024-11-02 22:36:46.801,39364.028,0.179,0.668,-0.722,-0.028,-0.142,0.112,-2.878,-1.616,1.746,0.244,-0.732,0.954
2024-11-02 22:36:46.811,39364.038,0.179,0.685,-0.706,-0.015,-0.186,0.104,-2.754,-1.742,1.573,0.248,-0.755,0.985
2024-11-02 22:36:46.821,39364.048,0.176,0.702,-0.69,0.006,-0.234,0.082,-2.641,-1.851,1.427,0.25,-0.778,1.015
2024-11-02 22:36:46.831,39364.058,0.173,0.717,-0.675,0.016,-0.249,0.071,-2.52,-1.916,1.278,0.251,-0.799,1.042
2024-11-02 22:36:46.841,39364.068,0.169,0.731,-0.661,0.009,-0.245,0.031,-2.403,-1.942,1.13,0.25,-0.82,1.068
2024-11-02 22:36:46.851,39364.078,0.164,0.745,-0.647,-0.005,-0.258,-0.029,-2.315,-1.955,1.007,0.248,-0.84,1.092
2024-11-02 22:36:46.861,39364.088,0.159,0.758,-0.633,-0.009,-0.291,-0.064,-2.282,-1.91,0.893,0.246,-0.86,1.114
2024-11-02 22:36:46.871,39364.098,0.153,0.771,-0.618,-0.008,-0.325,-0.076,-2.309,-1.844,0.76,0.243,-0.88,1.135
2024-11-02 22:36:46.881,39364.108,0.148,0.784,-0.603,-0.009,-0.337,-0.065,-2.379,-1.799,0.598,0.24,-0.901,1.155
2024-11-02 22:36:46.891,39364.118,0.141,0.798,-0.586,-0.012,-0.316,-0.047,-2.472,-1.671,0.461,0.237,-0.924,1.172
2024-11-02 22:36:46.901,39364.128,0.135,0.812,-0.568,-0.01,-0.291,-0.045,-2.5,-1.55,0.334,0.234,-0.947,1.189
2024-11-02 22:36:46.911,39364.138,0.129,0.825,-0.55,-0.002,-0.286,-0.093,-2.413,-1.456,0.184,0.23,-0.97,1.203
2024-11-02 22:36:46.922,39364.148,0.122,0.837,-0.533,-0.001,-0.287,-0.161,-2.185,-1.355,0.04,0.226,-0.992,1.214
2024-11-02 22:36:46.931,39364.158,0.116,0.848,-0.517,0.011,-0.262,-0.226,-1.963,-1.252,-0.028,0.22,-1.012,1.223
2024-11-02 22:36:46.941,39364.168,0.109,0.858,-0.503,0.029,-0.256,-0.253,-1.782,-1.185,-0.055,0.214,-1.031,1.23
2024-11-02 22:36:46.951,39364.178,0.102,0.866,-0.489,0.038,-0.282,-0.258,-1.715,-1.127,-0.14,0.207,-1.048,1.235
2024-11-02 22:36:46.961,39364.188,0.096,0.875,-0.475,0.035,-0.293,-0.256,-1.616,-1.09,-0.209,0.198,-1.065,1.238
2024-11-02 22:36:46.971,39364.198,0.089,0.882,-0.463,0.017,-0.263,-0.233,-1.452,-1.042,-0.277,0.189,-1.08,1.239
2024-11-02 22:36:46.981,39364.208,0.081,0.888,-0.452,-0.011,-0.206,-0.23,-1.236,-0.977,-0.379,0.177,-1.094,1.238
2024-11-02 22:36:46.991,39364.218,0.073,0.894,-0.443,-0.038,-0.129,-0.246,-0.993,-0.9,-0.458,0.164,-1.106,1.233
2024-11-02 22:36:47.001,39364.228,0.065,0.898,-0.436,-0.064,-0.065,-0.266,-0.698,-0.781,-0.479,0.148,-1.115,1.225
2024-11-02 22:36:47.011,39364.238,0.058,0.901,-0.43,-0.06,-0.069,-0.252,-0.577,-0.726,-0.464,0.133,-1.122,1.217
2024-11-02 22:36:47.021,39364.248,0.05,0.903,-0.426,-0.035,-0.142,-0.248,-0.543,-0.69,-0.472,0.118,-1.128,1.207
2024-11-02 22:36:47.031,39364.258,0.043,0.906,-0.421,-0.02,-0.177,-0.232,-0.483,-0.622,-0.476,0.102,-1.133,1.198
2024-11-02 22:36:47.041,39364.268,0.036,0.908,-0.418,-0.026,-0.137,-0.21,-0.363,-0.548,-0.512,0.087,-1.138,1.187
2024-11-02 22:36:47.051,39364.278,0.03,0.909,-0.415,-0.05,-0.052,-0.198,-0.172,-0.385,-0.499,0.072,-1.141,1.175
2024-11-02 22:36:47.061,39364.288,0.024,0.909,-0.415,-0.073,0.028,-0.19,0.106,-0.224,-0.48,0.058,-1.142,1.164
2024-11-02 22:36:47.071,39364.298,0.019,0.909,-0.417,-0.079,0.113,-0.212,0.327,-0.151,-0.477,0.045,-1.14,1.152
2024-11-02 22:36:47.081,39364.308,0.015,0.907,-0.42,-0.086,0.243,-0.266,0.295,-0.11,-0.26,0.036,-1.137,1.143
2024-11-02 22:36:47.091,39364.318,0.014,0.907,-0.422,-0.115,0.346,-0.272,-0.078,-0.097,0.022,0.032,-1.135,1.14
2024-11-02 22:36:47.101,39364.328,0.014,0.908,-0.419,-0.164,0.384,-0.259,-0.542,-0.103,0.249,0.034,-1.138,1.143
2024-11-02 22:36:47.111,39364.338,0.017,0.911,-0.412,-0.186,0.354,-0.221,-0.884,-0.094,0.369,0.041,-1.146,1.152
2024-11-02 22:36:47.121,39364.348,0.02,0.915,-0.404,-0.162,0.27,-0.189,-0.973,-0.104,0.433,0.05,-1.155,1.163
2024-11-02 22:36:47.131,39364.358,0.024,0.918,-0.396,-0.102,0.193,-0.141,-0.729,-0.16,0.438,0.06,-1.163,1.175
2024-11-02 22:36:47.141,39364.368,0.027,0.92,-0.391,-0.038,0.157,-0.088,-0.346,-0.168,0.353,0.068,-1.168,1.186
2024-11-02 22:36:47.151,39364.378,0.029,0.921,-0.39,-0.015,0.144,-0.052,0.079,-0.167,0.301,0.074,-1.169,1.194
2024-11-02 22:36:47.160,39364.388,0.031,0.92,-0.392,-0.024,0.115,-0.044,0.334,-0.207,0.265,0.079,-1.167,1.201
2024-11-02 22:36:47.171,39364.398,0.032,0.918,-0.396,-0.021,0.078,-0.056,0.507,-0.264,0.203,0.081,-1.163,1.206
2024-11-02 22:36:47.181,39364.408,0.033,0.915,-0.401,-0.01,0.061,-0.043,0.766,-0.281,0.151,0.081,-1.156,1.209
2024-11-02 22:36:47.190,39364.418,0.033,0.912,-0.409,-0.009,0.019,-0.032,0.959,-0.27,0.084,0.079,-1.148,1.21
2024-11-02 22:36:47.201,39364.428,0.032,0.907,-0.419,-0.01,-0.039,-0.015,1.108,-0.331,0.003,0.076,-1.137,1.209
2024-11-02 22:36:47.211,39364.438,0.03,0.903,-0.428,-0.011,-0.076,0.014,0.743,-0.346,0.025,0.071,-1.128,1.208
2024-11-02 22:36:47.221,39364.448,0.029,0.901,-0.432,-0.014,-0.096,0.065,0.312,-0.318,0.04,0.068,-1.122,1.208
2024-11-02 22:36:47.230,39364.458,0.028,0.901,-0.434,-0.003,-0.103,0.152,-0.092,-0.402,-0.035,0.064,-1.121,1.208
2024-11-02 22:36:47.240,39364.468,0.025,0.902,-0.432,0.016,-0.17,0.187,-0.252,-0.475,-0.22,0.057,-1.123,1.205
2024-11-02 22:36:47.250,39364.478,0.021,0.903,-0.43,0.031,-0.183,0.192,-0.138,-0.499,-0.245,0.048,-1.126,1.2
2024-11-02 22:36:47.261,39364.488,0.016,0.903,-0.43,0.012,-0.148,0.165,0.049,-0.522,-0.23,0.038,-1.126,1.195
2024-11-02 22:36:47.270,39364.498,0.012,0.902,-0.431,0.014,-0.102,0.147,0.178,-0.562,-0.213,0.028,-1.125,1.189
2024-11-02 22:36:47.280,39364.508,0.008,0.901,-0.433,0.018,-0.102,0.166,0.348,-0.58,-0.185,0.018,-1.122,1.185
2024-11-02 22:36:47.291,39364.518,0.003,0.899,-0.437,0.018,-0.156,0.204,0.45,-0.611,-0.175,0.008,-1.118,1.181
2024-11-02 22:36:47.301,39364.528,-0.001,0.897,-0.442,0.018,-0.183,0.209,0.55,-0.642,-0.205,-0.002,-1.113,1.176
2024-11-02 22:36:47.311,39364.538,-0.006,0.894,-0.447,0.012,-0.103,0.176,0.741,-0.632,-0.2,-0.013,-1.107,1.172
2024-11-02 22:36:47.320,39364.548,-0.01,0.891,-0.454,0.001,-0.017,0.127,0.839,-0.525,-0.081,-0.021,-1.099,1.169
2024-11-02 22:36:47.330,39364.558,-0.011,0.887,-0.462,-0.009,0.007,0.11,0.8,-0.392,0.12,-0.025,-1.091,1.17
2024-11-02 22:36:47.341,39364.567,-0.012,0.883,-0.468,-0.006,0.04,0.124,0.711,-0.313,0.175,-0.025,-1.083,1.173
2024-11-02 22:36:47.350,39364.577,-0.011,0.881,-0.474,-0.007,0.117,0.114,0.561,-0.194,0.302,-0.023,-1.077,1.178
2024-11-02 22:36:47.360,39364.587,-0.008,0.878,-0.478,-0.038,0.18,0.086,0.49,-0.06,0.415,-0.017,-1.072,1.186
2024-11-02 22:36:47.370,39364.597,-0.004,0.876,-0.483,-0.057,0.186,0.063,0.564,0.024,0.495,-0.009,-1.067,1.196
2024-11-02 22:36:47.380,39364.607,0.0,0.873,-0.488,-0.053,0.12,0.033,0.718,0.045,0.538,0.001,-1.06,1.207
2024-11-02 22:36:47.390,39364.617,0.005,0.869,-0.496,-0.024,0.088,-0.01,0.925,0.027,0.512,0.01,-1.052,1.217
2024-11-02 22:36:47.400,39364.627,0.009,0.863,-0.504,-0.006,0.119,-0.021,1.08,-0.004,0.451,0.018,-1.042,1.227
2024-11-02 22:36:47.410,39364.637,0.013,0.858,-0.514,-0.032,0.144,-0.007,1.206,0.032,0.428,0.025,-1.031,1.235
2024-11-02 22:36:47.420,39364.647,0.017,0.851,-0.525,-0.061,0.124,0.04,1.319,0.092,0.505,0.033,-1.018,1.243
2024-11-02 22:36:47.430,39364.657,0.023,0.843,-0.537,-0.06,0.053,0.103,1.524,0.162,0.608,0.042,-1.004,1.252
2024-11-02 22:36:47.440,39364.667,0.029,0.835,-0.55,-0.022,-0.037,0.195,1.647,0.237,0.595,0.052,-0.987,1.262
2024-11-02 22:36:47.450,39364.677,0.035,0.825,-0.564,0.014,-0.105,0.237,1.614,0.228,0.514,0.062,-0.971,1.27
2024-11-02 22:36:47.460,39364.687,0.04,0.817,-0.576,0.015,-0.067,0.154,1.394,0.152,0.401,0.069,-0.955,1.277
2024-11-02 22:36:47.470,39364.697,0.044,0.809,-0.587,-0.002,0.019,0.038,1.325,0.196,0.418,0.075,-0.942,1.282
2024-11-02 22:36:47.480,39364.707,0.048,0.8,-0.598,-0.038,0.078,-0.061,1.46,-0.02,0.403,0.08,-0.928,1.287
2024-11-02 22:36:47.490,39364.717,0.048,0.793,-0.608,-0.009,0.111,-0.163,1.043,-0.307,-0.006,0.078,-0.915,1.287
2024-11-02 22:36:47.500,39364.727,0.047,0.787,-0.615,0.047,0.116,-0.263,0.696,-0.231,0.172,0.076,-0.907,1.287
2024-11-02 22:36:47.510,39364.737,0.048,0.783,-0.62,-0.04,0.136,-0.149,0.589,-0.062,0.238,0.077,-0.9,1.29
2024-11-02 22:36:47.520,39364.747,0.049,0.78,-0.624,-0.103,0.062,-0.046,0.627,-0.119,0.15,0.078,-0.894,1.293
2024-11-02 22:36:47.530,39364.757,0.048,0.776,-0.629,-0.045,-0.124,0.001,0.604,-0.167,-0.008,0.076,-0.888,1.293
2024-11-02 22:36:47.540,39364.767,0.047,0.772,-0.634,0.026,-0.105,0.017,0.537,-0.16,-0.14,0.073,-0.882,1.291
2024-11-02 22:36:47.550,39364.777,0.044,0.769,-0.637,0.018,-0.025,-0.006,0.394,-0.28,-0.206,0.069,-0.878,1.288
2024-11-02 22:36:47.560,39364.787,0.04,0.767,-0.64,0.002,-0.043,-0.02,0.274,-0.348,-0.224,0.063,-0.874,1.285
2024-11-02 22:36:47.570,39364.797,0.036,0.766,-0.642,0.021,-0.071,-0.008,0.185,-0.345,-0.275,0.056,-0.872,1.28
2024-11-02 22:36:47.580,39364.807,0.032,0.765,-0.643,0.031,-0.02,-0.009,0.116,-0.363,-0.306,0.049,-0.871,1.276
2024-11-02 22:36:47.590,39364.817,0.027,0.765,-0.644,0.027,0.036,-0.004,0.017,-0.322,-0.306,0.042,-0.87,1.271
2024-11-02 22:36:47.600,39364.827,0.023,0.765,-0.644,0.018,0.036,-0.001,-0.088,-0.272,-0.288,0.035,-0.871,1.266
2024-11-02 22:36:47.610,39364.837,0.019,0.766,-0.643,-0.004,-0.012,-0.021,-0.238,-0.244,-0.239,0.03,-0.873,1.262
2024-11-02 22:36:47.620,39364.847,0.016,0.768,-0.64,-0.013,-0.068,-0.046,-0.38,-0.203,-0.17,0.025,-0.876,1.259
2024-11-02 22:36:47.630,39364.857,0.014,0.771,-0.637,-0.018,-0.066,-0.056,-0.435,-0.143,-0.111,0.022,-0.88,1.257
2024-11-02 22:36:47.640,39364.867,0.013,0.773,-0.634,-0.026,-0.031,-0.04,-0.342,-0.05,-0.046,0.02,-0.884,1.256
2024-11-02 22:36:47.650,39364.877,0.013,0.775,-0.632,-0.038,-0.004,-0.008,-0.258,0.031,0.021,0.02,-0.887,1.256
2024-11-02 22:36:47.660,39364.887,0.013,0.777,-0.63,-0.039,0.032,0.021,-0.18,0.073,0.083,0.021,-0.889,1.257
2024-11-02 22:36:47.670,39364.897,0.015,0.777,-0.629,-0.03,0.077,0.035,-0.095,0.061,0.11,0.023,-0.891,1.259
2024-11-02 22:36:47.679,39364.907,0.016,0.778,-0.628,-0.016,0.048,0.019,-0.03,0.035,0.122,0.025,-0.891,1.26
2024-11-02 22:36:47.690,39364.917,0.017,0.778,-0.628,0.001,0.03,0.005,0.077,0.037,0.132,0.027,-0.891,1.262
2024-11-02 22:36:47.700,39364.927,0.018,0.777,-0.63,0.005,0.056,0.014,0.256,0.076,0.13,0.029,-0.889,1.265
2024-11-02 22:36:47.710,39364.937,0.02,0.774,-0.632,-0.004,0.039,0.034,0.401,0.117,0.136,0.032,-0.886,1.266
2024-11-02 22:36:47.720,39364.947,0.022,0.772,-0.635,-0.015,0.007,0.045,0.4,0.118,0.132,0.034,-0.882,1.268
2024-11-02 22:36:47.729,39364.957,0.023,0.77,-0.638,-0.013,0.026,0.034,0.276,0.104,0.125,0.037,-0.878,1.27
2024-11-02 22:36:47.739,39364.967,0.025,0.768,-0.64,-0.006,0.011,0.007,0.167,0.078,0.109,0.039,-0.876,1.272
2024-11-02 22:36:47.750,39364.977,0.026,0.767,-0.641,-0.002,-0.071,-0.022,0.076,0.046,0.052,0.041,-0.875,1.273
2024-11-02 22:36:47.759,39364.987,0.026,0.767,-0.641,0.002,-0.095,-0.031,0.046,-0.003,0.003,0.041,-0.874,1.273
2024-11-02 22:36:47.769,39364.997,0.026,0.767,-0.641,0.018,-0.038,-0.013,0.052,-0.044,-0.051,0.04,-0.874,1.273
2024-11-02 22:36:47.780,39365.007,0.025,0.766,-0.642,0.026,0.009,0.003,0.118,-0.078,-0.084,0.039,-0.873,1.272
2024-11-02 22:36:47.790,39365.017,0.024,0.765,-0.644,0.026,0.031,0.009,0.325,-0.066,-0.106,0.037,-0.871,1.27
2024-11-02 22:36:47.800,39365.027,0.023,0.763,-0.647,0.024,0.026,0.03,0.48,-0.054,-0.087,0.035,-0.867,1.268
2024-11-02 22:36:47.810,39365.037,0.022,0.759,-0.65,0.012,0.034,0.047,0.542,-0.023,-0.044,0.033,-0.862,1.267
2024-11-02 22:36:47.820,39365.047,0.022,0.756,-0.655,-0.006,0.07,0.042,0.559,0.005,0.009,0.033,-0.857,1.267
2024-11-02 22:36:47.829,39365.057,0.022,0.752,-0.659,-0.023,0.035,0.027,0.532,0.025,0.068,0.033,-0.851,1.267
2024-11-02 22:36:47.839,39365.067,0.023,0.749,-0.662,-0.033,-0.024,0.01,0.428,0.082,0.084,0.034,-0.847,1.268
2024-11-02 22:36:47.849,39365.077,0.024,0.746,-0.665,-0.031,-0.029,-0.009,0.307,0.019,0.178,0.036,-0.843,1.269
2024-11-02 22:36:47.859,39365.087,0.026,0.745,-0.667,-0.022,-0.052,-0.005,0.18,0.043,0.177,0.039,-0.84,1.272
2024-11-02 22:36:47.870,39365.097,0.027,0.744,-0.668,-0.013,-0.036,-0.015,0.122,0.016,0.141,0.041,-0.839,1.274
2024-11-02 22:36:47.879,39365.107,0.028,0.743,-0.669,-0.002,-0.001,-0.025,0.117,0.013,0.095,0.042,-0.837,1.276
2024-11-02 22:36:47.889,39365.117,0.029,0.742,-0.669,0.017,0.0,-0.002,0.07,0.021,0.067,0.043,-0.836,1.277
2024-11-02 22:36:47.900,39365.127,0.029,0.742,-0.67,0.012,-0.001,0.008,-0.001,0.021,0.048,0.044,-0.836,1.278
2024-11-02 22:36:47.909,39365.137,0.03,0.742,-0.669,0.006,-0.018,-0.003,-0.082,0.015,0.024,0.044,-0.837,1.279
2024-11-02 22:36:47.919,39365.147,0.03,0.743,-0.669,0.003,-0.029,-0.013,-0.126,0.019,0.014,0.045,-0.838,1.279
2024-11-02 22:36:47.929,39365.157,0.03,0.744,-0.667,-0.001,-0.036,-0.021,-0.171,0.035,0.008,0.045,-0.839,1.279
2024-11-02 22:36:47.940,39365.166,0.03,0.745,-0.666,-0.005,-0.032,-0.017,-0.202,0.017,0.012,0.046,-0.841,1.279
2024-11-02 22:36:47.950,39365.176,0.031,0.747,-0.664,-0.007,-0.028,-0.011,-0.251,0.003,0.001,0.046,-0.843,1.28
2024-11-02 22:36:47.959,39365.186,0.031,0.748,-0.663,0.002,-0.027,-0.009,-0.188,0.001,0.003,0.046,-0.845,1.28
2024-11-02 22:36:47.969,39365.196,0.031,0.749,-0.662,0.003,-0.023,-0.006,-0.1,0.025,0.017,0.046,-0.847,1.28
2024-11-02 22:36:47.979,39365.206,0.031,0.75,-0.661,-0.001,0.022,0.015,-0.025,0.031,0.032,0.047,-0.847,1.281
2024-11-02 22:36:47.989,39365.216,0.032,0.749,-0.661,-0.003,0.082,0.024,0.049,0.007,0.039,0.048,-0.847,1.281
2024-11-02 22:36:47.999,39365.226,0.032,0.749,-0.662,-0.004,0.055,0.013,0.175,-0.032,0.044,0.048,-0.846,1.282
2024-11-02 22:36:48.009,39365.236,0.032,0.747,-0.664,0.002,0.019,0.01,0.324,-0.047,0.032,0.048,-0.843,1.282
2024-11-02 22:36:48.019,39365.246,0.032,0.744,-0.667,0.008,0.046,0.03,0.45,-0.039,0.012,0.048,-0.839,1.282
2024-11-02 22:36:48.029,39365.256,0.032,0.741,-0.671,0.009,0.071,0.049,0.466,-0.029,0.013,0.047,-0.834,1.282
2024-11-02 22:36:48.039,39365.266,0.032,0.738,-0.674,0.009,0.036,0.041,0.46,-0.034,0.051,0.047,-0.83,1.282
2024-11-02 22:36:48.049,39365.276,0.032,0.735,-0.678,0.002,-0.006,0.021,0.416,0.019,0.08,0.047,-0.825,1.283
2024-11-02 22:36:48.059,39365.286,0.033,0.732,-0.68,-0.009,-0.018,0.015,0.281,0.052,0.113,0.048,-0.822,1.284
2024-11-02 22:36:48.070,39365.296,0.034,0.731,-0.681,-0.024,-0.027,-0.005,0.11,0.087,0.117,0.05,-0.82,1.286
2024-11-02 22:36:48.079,39365.306,0.036,0.731,-0.681,-0.029,-0.046,-0.029,-0.041,0.113,0.115,0.052,-0.82,1.287
2024-11-02 22:36:48.089,39365.316,0.037,0.732,-0.68,-0.02,-0.076,-0.025,-0.197,0.1,0.096,0.055,-0.822,1.289
2024-11-02 22:36:48.099,39365.326,0.038,0.734,-0.678,-0.01,-0.09,-0.028,-0.264,0.056,0.061,0.057,-0.824,1.29
2024-11-02 22:36:48.109,39365.336,0.039,0.736,-0.676,-0.001,-0.062,-0.027,-0.281,0.057,0.006,0.058,-0.827,1.291
2024-11-02 22:36:48.119,39365.346,0.039,0.738,-0.674,0.016,-0.05,-0.005,-0.268,0.037,-0.037,0.058,-0.83,1.291
2024-11-02 22:36:48.129,39365.356,0.039,0.74,-0.672,0.019,-0.003,-0.008,-0.252,0.055,-0.061,0.058,-0.832,1.29
2024-11-02 22:36:48.140,39365.366,0.039,0.741,-0.67,0.022,0.05,0.011,-0.3,0.087,-0.061,0.058,-0.835,1.29
2024-11-02 22:36:48.149,39365.376,0.039,0.744,-0.667,0.009,0.019,0.014,-0.366,0.095,-0.041,0.059,-0.839,1.289
2024-11-02 22:36:48.159,39365.386,0.04,0.746,-0.664,-0.011,-0.039,-0.016,-0.442,0.092,-0.003,0.06,-0.843,1.289
2024-11-02 22:36:48.169,39365.396,0.041,0.75,-0.661,-0.011,-0.052,-0.011,-0.55,0.073,0.017,0.061,-0.848,1.29
2024-11-02 22:36:48.179,39365.406,0.041,0.754,-0.656,-0.011,-0.005,-0.021,-0.611,0.024,0.001,0.062,-0.853,1.291
2024-11-02 22:36:48.189,39365.416,0.041,0.758,-0.651,-0.002,-0.018,-0.017,-0.64,-0.055,-0.039,0.062,-0.86,1.291
2024-11-02 22:36:48.199,39365.426,0.04,0.762,-0.647,0.015,-0.069,-0.016,-0.655,-0.117,-0.089,0.061,-0.866,1.291
2024-11-02 22:36:48.209,39365.436,0.038,0.766,-0.642,0.029,-0.036,-0.016,-0.595,-0.139,-0.13,0.059,-0.873,1.289
2024-11-02 22:36:48.218,39365.446,0.036,0.769,-0.638,0.029,0.018,-0.011,-0.493,-0.126,-0.157,0.056,-0.878,1.288
2024-11-02 22:36:48.229,39365.456,0.034,0.772,-0.634,0.016,0.028,0.002,-0.369,-0.098,-0.158,0.054,-0.882,1.286
2024-11-02 22:36:48.239,39365.466,0.032,0.774,-0.632,0.006,0.03,0.016,-0.278,-0.066,-0.124,0.051,-0.886,1.284
2024-11-02 22:36:48.249,39365.476,0.031,0.776,-0.63,-0.004,0.023,0.019,-0.227,-0.041,-0.078,0.05,-0.888,1.282
2024-11-02 22:36:48.259,39365.486,0.031,0.777,-0.628,-0.015,0.013,0.01,-0.181,-0.021,-0.034,0.049,-0.89,1.281
2024-11-02 22:36:48.269,39365.496,0.031,0.778,-0.627,-0.019,0.009,0.003,-0.148,-0.006,-0.001,0.049,-0.892,1.281
2024-11-02 22:36:48.279,39365.506,0.031,0.779,-0.626,-0.015,0.001,0.004,-0.106,-0.008,0.014,0.049,-0.893,1.282
2024-11-02 22:36:48.289,39365.516,0.031,0.78,-0.626,-0.008,-0.01,0.006,-0.066,-0.025,0.009,0.049,-0.894,1.282
2024-11-02 22:36:48.299,39365.526,0.03,0.78,-0.625,-0.0,0.003,0.011,-0.046,-0.039,-0.01,0.049,-0.895,1.282
2024-11-02 22:36:48.309,39365.536,0.03,0.78,-0.625,0.007,0.017,0.011,-0.039,-0.048,-0.026,0.048,-0.895,1.282
2024-11-02 22:36:48.319,39365.546,0.029,0.78,-0.625,0.009,0.009,0.01,-0.024,-0.041,-0.037,0.047,-0.895,1.281
2024-11-02 22:36:48.329,39365.556,0.029,0.781,-0.624,0.005,-0.013,0.005,-0.035,-0.018,-0.032,0.046,-0.896,1.281
2024-11-02 22:36:48.338,39365.566,0.029,0.781,-0.624,-0.003,-0.011,0.002,-0.096,0.023,-0.02,0.046,-0.896,1.28
2024-11-02 22:36:48.348,39365.576,0.029,0.782,-0.623,-0.009,0.008,-0.004,-0.166,0.05,0.002,0.046,-0.898,1.28
2024-11-02 22:36:48.358,39365.586,0.029,0.783,-0.621,-0.014,-0.017,-0.015,-0.222,0.048,0.008,0.047,-0.9,1.28
2024-11-02 22:36:48.369,39365.596,0.029,0.784,-0.62,-0.01,-0.049,-0.018,-0.229,0.032,-0.002,0.047,-0.902,1.28
2024-11-02 22:36:48.378,39365.606,0.029,0.786,-0.618,-0.001,-0.035,-0.013,-0.208,0.012,-0.023,0.047,-0.904,1.28
2024-11-02 22:36:48.388,39365.616,0.029,0.787,-0.616,0.007,-0.002,-0.001,-0.151,-0.024,-0.038,0.047,-0.906,1.28
2024-11-02 22:36:48.399,39365.626,0.029,0.788,-0.615,0.011,0.016,0.008,-0.07,-0.061,-0.059,0.047,-0.907,1.28
2024-11-02 22:36:48.408,39365.636,0.028,0.788,-0.615,0.016,0.012,0.016,0.027,-0.087,-0.073,0.045,-0.907,1.279
2024-11-02 22:36:48.418,39365.646,0.027,0.787,-0.616,0.016,0.013,0.021,0.103,-0.085,-0.072,0.043,-0.906,1.277
2024-11-02 22:36:48.428,39365.656,0.026,0.786,-0.617,0.01,0.04,0.022,0.158,-0.067,-0.062,0.041,-0.905,1.276
2024-11-02 22:36:48.438,39365.666,0.025,0.785,-0.619,-0.001,0.057,0.022,0.165,-0.049,-0.06,0.04,-0.903,1.275
2024-11-02 22:36:48.448,39365.676,0.024,0.784,-0.62,-0.005,0.028,0.015,0.116,-0.046,-0.05,0.038,-0.901,1.274
2024-11-02 22:36:48.459,39365.686,0.023,0.783,-0.621,-0.005,-0.008,0.001,0.053,-0.045,-0.041,0.037,-0.9,1.273
2024-11-02 22:36:48.468,39365.696,0.023,0.783,-0.621,-0.002,-0.032,-0.005,-0.001,-0.046,-0.036,0.037,-0.9,1.272
2024-11-02 22:36:48.478,39365.706,0.022,0.783,-0.621,-0.003,-0.041,-0.009,-0.048,-0.049,-0.032,0.036,-0.9,1.272
2024-11-02 22:36:48.488,39365.716,0.022,0.784,-0.621,-0.001,-0.026,-0.009,-0.028,-0.06,-0.038,0.035,-0.901,1.272
2024-11-02 22:36:48.498,39365.726,0.021,0.784,-0.62,0.003,-0.02,-0.002,0.002,-0.059,-0.041,0.034,-0.901,1.271
2024-11-02 22:36:48.508,39365.736,0.021,0.784,-0.62,0.006,-0.009,0.006,0.022,-0.053,-0.031,0.033,-0.901,1.271
2024-11-02 22:36:48.518,39365.746,0.02,0.784,-0.62,0.001,0.016,0.01,0.023,-0.037,-0.017,0.033,-0.901,1.27
2024-11-02 22:36:48.528,39365.756,0.02,0.784,-0.62,-0.004,0.01,0.007,0.015,-0.021,0.005,0.032,-0.901,1.27
2024-11-02 22:36:48.538,39365.765,0.02,0.784,-0.62,-0.007,-0.007,0.002,0.002,-0.004,0.026,0.032,-0.901,1.271
2024-11-02 22:36:48.548,39365.775,0.02,0.784,-0.62,-0.01,-0.013,-0.002,-0.015,0.015,0.037,0.033,-0.901,1.271
2024-11-02 22:36:48.558,39365.785,0.021,0.784,-0.62,-0.009,-0.007,-0.001,-0.025,0.017,0.037,0.033,-0.901,1.272
2024-11-02 22:36:48.568,39365.795,0.021,0.784,-0.62,-0.007,-0.005,-0.0,-0.017,0.007,0.031,0.034,-0.901,1.272
2024-11-02 22:36:48.578,39365.805,0.021,0.784,-0.62,-0.002,-0.01,0.003,-0.003,-0.007,0.02,0.034,-0.901,1.273
2024-11-02 22:36:48.588,39365.815,0.021,0.784,-0.62,0.004,-0.008,0.003,0.02,-0.019,0.016,0.034,-0.901,1.273
2024-11-02 22:36:48.598,39365.825,0.021,0.784,-0.62,0.005,0.005,0.006,0.038,-0.017,0.016,0.034,-0.901,1.273
2024-11-02 22:36:48.608,39365.835,0.021,0.784,-0.621,0.002,0.014,0.012,0.03,-0.024,0.016,0.034,-0.901,1.273
2024-11-02 22:36:48.618,39365.845,0.021,0.784,-0.621,0.0,0.007,0.008,0.034,-0.031,0.018,0.034,-0.9,1.273
2024-11-02 22:36:48.628,39365.855,0.021,0.783,-0.621,-0.001,-0.006,0.0,0.037,-0.027,0.011,0.034,-0.9,1.273
2024-11-02 22:36:48.638,39365.865,0.021,0.783,-0.622,0.002,-0.008,0.001,0.048,-0.025,0.007,0.033,-0.9,1.273
2024-11-02 22:36:48.648,39365.875,0.021,0.783,-0.622,-0.001,0.001,0.002,0.04,-0.028,-0.003,0.033,-0.899,1.273
2024-11-02 22:36:48.658,39365.885,0.02,0.782,-0.622,-0.001,0.003,0.003,0.062,-0.051,-0.016,0.032,-0.899,1.273
2024-11-02 22:36:48.668,39365.895,0.02,0.782,-0.623,0.005,0.003,-0.001,0.1,-0.074,-0.029,0.032,-0.898,1.273
2024-11-02 22:36:48.678,39365.905,0.019,0.781,-0.624,0.01,0.0,0.004,0.159,-0.097,-0.044,0.03,-0.897,1.272
2024-11-02 22:36:48.688,39365.915,0.018,0.78,-0.625,0.01,0.016,0.01,0.221,-0.115,-0.055,0.029,-0.895,1.272
2024-11-02 22:36:48.698,39365.925,0.017,0.779,-0.627,0.009,0.034,0.017,0.3,-0.128,-0.06,0.027,-0.893,1.271
2024-11-02 22:36:48.709,39365.935,0.016,0.777,-0.63,0.008,0.034,0.019,0.406,-0.103,-0.065,0.025,-0.889,1.27
2024-11-02 22:36:48.718,39365.945,0.015,0.774,-0.632,0.008,0.036,0.024,0.274,-0.035,-0.024,0.024,-0.886,1.269
2024-11-02 22:36:48.728,39365.955,0.015,0.773,-0.634,-0.008,0.055,0.006,0.259,-0.032,-0.012,0.023,-0.883,1.269
2024-11-02 22:36:48.738,39365.965,0.014,0.771,-0.636,-0.023,0.047,-0.018,0.249,-0.039,-0.024,0.023,-0.881,1.268
2024-11-02 22:36:48.748,39365.975,0.014,0.77,-0.638,-0.004,-0.079,0.005,0.21,-0.035,-0.03,0.022,-0.879,1.268
2024-11-02 22:36:48.758,39365.985,0.014,0.769,-0.639,0.007,-0.06,-0.008,0.232,0.003,-0.032,0.021,-0.877,1.267
2024-11-02 22:36:48.768,39365.995,0.014,0.767,-0.641,0.003,0.047,0.006,0.267,0.023,-0.035,0.021,-0.874,1.267
2024-11-02 22:36:48.778,39366.005,0.014,0.766,-0.643,-0.007,0.026,0.015,0.283,0.028,-0.035,0.021,-0.872,1.266
2024-11-02 22:36:48.788,39366.015,0.014,0.764,-0.645,-0.004,-0.013,0.017,0.287,0.054,-0.029,0.021,-0.869,1.266
2024-11-02 22:36:48.798,39366.025,0.014,0.762,-0.647,-0.001,-0.006,0.015,0.322,0.081,-0.022,0.021,-0.867,1.265
2024-11-02 22:36:48.808,39366.035,0.014,0.76,-0.65,-0.008,0.01,0.014,0.391,0.099,-0.024,0.022,-0.863,1.265
2024-11-02 22:36:48.818,39366.045,0.015,0.757,-0.653,-0.011,0.017,0.018,0.379,0.123,-0.062,0.022,-0.859,1.264
2024-11-02 22:36:48.828,39366.055,0.015,0.755,-0.655,-0.004,0.008,0.025,0.296,0.124,-0.085,0.023,-0.856,1.263
2024-11-02 22:36:48.838,39366.065,0.015,0.754,-0.657,0.001,-0.042,0.013,0.237,0.088,-0.081,0.023,-0.854,1.261
2024-11-02 22:36:48.848,39366.075,0.015,0.752,-0.659,0.001,-0.078,-0.013,0.115,0.117,-0.096,0.023,-0.852,1.26
2024-11-02 22:36:48.858,39366.085,0.015,0.752,-0.659,0.002,-0.042,-0.009,0.096,0.064,-0.082,0.023,-0.851,1.258
2024-11-02 22:36:48.868,39366.095,0.015,0.751,-0.66,-0.001,-0.018,-0.011,0.013,0.074,-0.111,0.022,-0.85,1.257
2024-11-02 22:36:48.878,39366.105,0.014,0.752,-0.659,0.001,-0.024,-0.019,-0.023,0.057,-0.102,0.022,-0.85,1.255
2024-11-02 22:36:48.888,39366.115,0.014,0.752,-0.659,0.006,-0.014,-0.011,0.029,0.027,-0.104,0.021,-0.851,1.254
2024-11-02 22:36:48.898,39366.125,0.013,0.751,-0.66,0.002,-0.02,-0.01,0.11,0.05,-0.12,0.02,-0.85,1.252
2024-11-02 22:36:48.907,39366.135,0.013,0.751,-0.661,-0.0,0.013,0.023,0.125,0.101,-0.131,0.019,-0.849,1.25
2024-11-02 22:36:48.917,39366.145,0.012,0.75,-0.662,-0.005,0.039,0.021,0.134,0.084,-0.101,0.019,-0.848,1.248
2024-11-02 22:36:48.927,39366.155,0.012,0.749,-0.663,-0.007,0.028,0.01,0.132,0.073,-0.106,0.018,-0.846,1.247
2024-11-02 22:36:48.937,39366.165,0.012,0.748,-0.664,-0.0,-0.019,0.001,0.079,0.086,-0.115,0.018,-0.845,1.245
2024-11-02 22:36:48.947,39366.175,0.012,0.747,-0.664,-0.0,-0.008,0.001,0.005,0.051,-0.085,0.017,-0.844,1.244
2024-11-02 22:36:48.958,39366.185,0.011,0.748,-0.664,-0.002,-0.026,-0.004,-0.033,0.018,-0.052,0.017,-0.844,1.243
2024-11-02 22:36:48.968,39366.195,0.011,0.748,-0.664,-0.003,-0.044,-0.022,0.003,0.012,-0.049,0.017,-0.844,1.242
2024-11-02 22:36:48.978,39366.205,0.011,0.747,-0.664,0.002,-0.008,-0.003,0.047,0.025,-0.051,0.016,-0.844,1.241
2024-11-02 22:36:48.988,39366.215,0.011,0.747,-0.665,0.003,0.038,0.012,0.112,0.019,-0.055,0.016,-0.843,1.24
2024-11-02 22:36:48.998,39366.225,0.01,0.746,-0.665,-0.001,0.035,0.018,0.068,0.028,-0.074,0.015,-0.843,1.239
2024-11-02 22:36:49.008,39366.235,0.01,0.746,-0.665,0.003,-0.001,0.011,0.022,-0.01,-0.062,0.015,-0.843,1.238
2024-11-02 22:36:49.018,39366.245,0.009,0.746,-0.666,0.007,-0.029,-0.002,0.016,-0.008,-0.057,0.014,-0.842,1.237
2024-11-02 22:36:49.027,39366.255,0.009,0.746,-0.665,0.006,-0.043,-0.011,-0.035,-0.004,-0.046,0.013,-0.843,1.237
2024-11-02 22:36:49.037,39366.265,0.009,0.747,-0.665,-0.003,-0.001,0.005,-0.059,-0.032,-0.006,0.013,-0.843,1.236
2024-11-02 22:36:49.048,39366.275,0.008,0.747,-0.665,-0.006,-0.023,-0.003,-0.077,-0.02,-0.005,0.013,-0.843,1.236
2024-11-02 22:36:49.057,39366.285,0.008,0.747,-0.664,0.001,-0.034,-0.018,-0.082,0.004,-0.009,0.013,-0.844,1.236
2024-11-02 22:36:49.067,39366.295,0.008,0.748,-0.664,-0.004,-0.008,0.0,-0.055,0.03,-0.02,0.013,-0.845,1.236
2024-11-02 22:36:49.077,39366.305,0.008,0.748,-0.663,-0.004,0.0,0.007,-0.001,0.03,-0.019,0.013,-0.845,1.236
2024-11-02 22:36:49.087,39366.315,0.009,0.748,-0.663,-0.003,-0.007,0.014,0.014,0.025,-0.017,0.013,-0.845,1.235
2024-11-02 22:36:49.098,39366.325,0.009,0.748,-0.664,-0.002,0.006,0.014,0.027,0.022,-0.022,0.013,-0.845,1.235
2024-11-02 22:36:49.107,39366.335,0.009,0.748,-0.664,0.001,0.025,0.001,0.027,-0.003,-0.037,0.013,-0.844,1.235
2024-11-02 22:36:49.117,39366.345,0.008,0.747,-0.664,0.002,0.007,0.0,0.024,-0.033,-0.029,0.012,-0.844,1.234
2024-11-02 22:36:49.127,39366.355,0.008,0.747,-0.665,0.007,-0.007,-0.006,0.023,-0.032,-0.028,0.012,-0.844,1.234
2024-11-02 22:36:49.137,39366.364,0.007,0.747,-0.665,0.006,0.021,-0.004,0.012,-0.031,-0.032,0.011,-0.843,1.233
2024-11-02 22:36:49.147,39366.374,0.007,0.747,-0.665,-0.001,0.011,0.001,-0.017,-0.031,-0.048,0.01,-0.843,1.233
2024-11-02 22:36:49.157,39366.384,0.006,0.747,-0.665,0.0,-0.017,-0.002,-0.063,-0.035,-0.057,0.009,-0.844,1.232
2024-11-02 22:36:49.167,39366.394,0.005,0.748,-0.664,0.0,-0.025,-0.004,-0.101,-0.041,-0.052,0.008,-0.845,1.231
2024-11-02 22:36:49.177,39366.404,0.005,0.749,-0.663,0.001,-0.022,-0.007,-0.134,-0.039,-0.044,0.007,-0.846,1.23
2024-11-02 22:36:49.187,39366.414,0.004,0.75,-0.662,-0.001,-0.014,-0.009,-0.154,-0.046,-0.047,0.006,-0.848,1.23
2024-11-02 22:36:49.197,39366.424,0.004,0.751,-0.661,-0.001,-0.006,-0.004,-0.162,-0.055,-0.061,0.005,-0.849,1.229
2024-11-02 22:36:49.207,39366.434,0.003,0.752,-0.659,0.005,-0.005,-0.004,-0.169,-0.071,-0.076,0.004,-0.851,1.228
2024-11-02 22:36:49.217,39366.444,0.002,0.753,-0.658,0.01,-0.001,-0.003,-0.169,-0.086,-0.085,0.003,-0.852,1.227
2024-11-02 22:36:49.227,39366.454,0.001,0.754,-0.657,0.014,-0.004,-0.002,-0.213,-0.083,-0.055,0.001,-0.854,1.226
2024-11-02 22:36:49.237,39366.464,0.003,0.756,-0.654,0.012,-0.008,-0.0,-0.462,0.261,0.528,0.005,-0.858,1.229
2024-11-02 22:36:49.247,39366.474,0.002,0.758,-0.653,0.031,-0.019,-0.001,-0.247,-0.24,-0.251,0.003,-0.86,1.23
2024-11-02 22:36:49.257,39366.484,0.001,0.76,-0.65,0.084,-0.062,0.008,-0.508,0.233,0.199,0.002,-0.863,1.228
2024-11-02 22:36:49.267,39366.494,0.004,0.762,-0.647,-0.065,-0.05,-0.028,-0.29,-0.248,0.066,0.006,-0.867,1.233
2024-11-02 22:36:49.277,39366.504,0.004,0.764,-0.645,0.034,0.057,-0.028,-0.427,0.232,0.239,0.006,-0.87,1.234
2024-11-02 22:36:49.287,39366.514,0.007,0.767,-0.642,0.005,-0.017,-0.008,-0.278,-0.061,0.187,0.011,-0.873,1.238
2024-11-02 22:36:49.297,39366.524,0.008,0.768,-0.64,-0.012,0.028,-0.011,-0.296,0.136,0.221,0.013,-0.876,1.241
2024-11-02 22:36:49.307,39366.534,0.01,0.77,-0.638,0.041,-0.004,0.021,-0.203,-0.05,0.203,0.016,-0.879,1.244
2024-11-02 22:36:49.317,39366.544,0.012,0.771,-0.637,-0.001,0.021,-0.008,-0.101,0.047,0.181,0.019,-0.88,1.247
2024-11-02 22:36:49.327,39366.554,0.014,0.771,-0.636,-0.008,0.035,0.023,-0.074,0.036,0.155,0.021,-0.881,1.25
2024-11-02 22:36:49.337,39366.564,0.015,0.772,-0.636,-0.031,-0.018,0.012,-0.049,-0.013,0.127,0.023,-0.882,1.252
2024-11-02 22:36:49.347,39366.574,0.016,0.772,-0.635,-0.018,-0.011,0.011,-0.052,0.045,0.15,0.025,-0.882,1.254
2024-11-02 22:36:49.357,39366.584,0.017,0.772,-0.635,-0.019,-0.001,0.003,-0.02,0.028,0.135,0.027,-0.882,1.257
2024-11-02 22:36:49.367,39366.594,0.018,0.772,-0.635,-0.033,-0.001,-0.014,-0.017,0.028,0.145,0.029,-0.883,1.259
2024-11-02 22:36:49.377,39366.604,0.02,0.773,-0.635,-0.028,-0.008,-0.01,-0.02,0.02,0.102,0.031,-0.883,1.261
2024-11-02 22:36:49.386,39366.614,0.02,0.773,-0.634,-0.012,0.004,-0.014,-0.06,0.012,0.069,0.032,-0.883,1.262
2024-11-02 22:36:49.397,39366.624,0.021,0.773,-0.634,-0.013,-0.006,-0.005,-0.051,0.021,0.061,0.033,-0.884,1.263
2024-11-02 22:36:49.422,39366.634,0.021,0.773,-0.634,-0.018,0.0,-0.0,-0.007,0.017,0.028,0.034,-0.884,1.264
2024-11-02 22:36:49.428,39366.644,0.022,0.773,-0.634,-0.015,0.011,0.012,0.027,0.023,0.047,0.034,-0.884,1.264
2024-11-02 22:36:49.431,39366.654,0.021,0.773,-0.634,-0.003,-0.0,0.014,0.042,-0.006,-0.005,0.034,-0.884,1.264
2024-11-02 22:36:49.436,39366.664,0.021,0.773,-0.635,0.009,-0.009,0.014,0.069,0.051,-0.03,0.033,-0.883,1.263
2024-11-02 22:36:49.446,39366.674,0.021,0.772,-0.635,-0.004,-0.018,0.049,0.012,0.059,-0.052,0.033,-0.882,1.262
2024-11-02 22:36:49.456,39366.684,0.021,0.772,-0.635,-0.022,-0.033,0.078,-0.015,0.074,-0.056,0.032,-0.882,1.261
2024-11-02 22:36:49.467,39366.694,0.021,0.772,-0.635,-0.029,-0.048,0.077,0.07,0.092,0.055,0.033,-0.882,1.261
2024-11-02 22:36:49.478,39366.704,0.023,0.771,-0.636,-0.039,-0.053,0.033,0.044,0.163,0.211,0.036,-0.881,1.263
2024-11-02 22:36:49.487,39366.714,0.025,0.772,-0.636,-0.016,-0.026,-0.039,-0.086,0.122,0.2,0.04,-0.881,1.266
2024-11-02 22:36:49.496,39366.724,0.027,0.772,-0.635,0.014,-0.031,-0.053,-0.15,0.114,0.182,0.043,-0.882,1.269
2024-11-02 22:36:49.507,39366.734,0.029,0.773,-0.633,0.002,-0.075,-0.01,-0.152,0.104,0.132,0.046,-0.884,1.272
2024-11-02 22:36:49.517,39366.744,0.031,0.774,-0.632,-0.003,-0.083,-0.007,-0.169,0.119,0.09,0.049,-0.885,1.274
2024-11-02 22:36:49.527,39366.754,0.032,0.776,-0.63,0.003,-0.022,-0.01,-0.262,0.179,0.089,0.051,-0.888,1.275
2024-11-02 22:36:49.536,39366.764,0.034,0.777,-0.628,-0.011,0.093,-0.035,-0.263,0.206,0.099,0.054,-0.89,1.277
2024-11-02 22:36:49.546,39366.774,0.036,0.779,-0.626,-0.029,0.084,-0.026,-0.204,0.169,0.078,0.058,-0.893,1.278
2024-11-02 22:36:49.556,39366.784,0.037,0.78,-0.625,-0.01,-0.054,-0.003,-0.135,0.103,0.044,0.06,-0.894,1.279
2024-11-02 22:36:49.566,39366.794,0.038,0.78,-0.624,0.02,-0.061,0.01,-0.1,0.076,0.025,0.061,-0.895,1.28
2024-11-02 22:36:49.576,39366.804,0.039,0.781,-0.624,0.025,0.041,0.011,-0.042,0.053,0.019,0.062,-0.896,1.28
2024-11-02 22:36:49.586,39366.814,0.039,0.781,-0.624,0.007,0.085,0.005,0.064,-0.003,0.005,0.062,-0.896,1.281
2024-11-02 22:36:49.596,39366.824,0.039,0.78,-0.625,0.008,0.049,0.01,0.155,-0.029,-0.022,0.062,-0.895,1.28
2024-11-02 22:36:49.607,39366.834,0.038,0.779,-0.626,0.02,0.028,0.023,0.211,-0.043,-0.028,0.061,-0.893,1.28
2024-11-02 22:36:49.617,39366.844,0.038,0.777,-0.628,0.014,0.039,0.025,0.236,-0.046,-0.021,0.06,-0.891,1.279
2024-11-02 22:36:49.626,39366.854,0.037,0.776,-0.63,0.004,0.032,0.018,0.24,-0.044,-0.021,0.059,-0.888,1.278
2024-11-02 22:36:49.636,39366.864,0.037,0.774,-0.632,-0.001,0.012,0.007,0.221,-0.039,-0.011,0.058,-0.886,1.278
2024-11-02 22:36:49.646,39366.874,0.037,0.773,-0.633,-0.001,-0.002,0.004,0.184,-0.031,-0.003,0.058,-0.884,1.278
2024-11-02 22:36:49.656,39366.884,0.036,0.772,-0.634,-0.002,-0.007,0.001,0.144,-0.029,-0.003,0.057,-0.882,1.278
2024-11-02 22:36:49.666,39366.894,0.036,0.771,-0.635,-0.004,-0.009,-0.005,0.099,-0.046,0.003,0.057,-0.881,1.277
2024-11-02 22:36:49.676,39366.904,0.036,0.771,-0.636,-0.001,-0.015,-0.01,0.085,-0.054,0.004,0.056,-0.88,1.277
2024-11-02 22:36:49.686,39366.914,0.036,0.77,-0.637,0.002,-0.008,-0.008,0.11,-0.049,0.005,0.056,-0.879,1.278
2024-11-02 22:36:49.696,39366.924,0.036,0.77,-0.637,0.002,-0.003,0.004,0.113,-0.041,0.009,0.056,-0.878,1.278
2024-11-02 22:36:49.706,39366.934,0.035,0.769,-0.638,0.001,0.006,0.009,0.115,-0.027,0.013,0.055,-0.877,1.278
2024-11-02 22:36:49.716,39366.944,0.035,0.768,-0.639,-0.0,0.012,0.009,0.119,-0.022,0.016,0.055,-0.876,1.278
2024-11-02 22:36:49.726,39366.954,0.035,0.768,-0.64,-0.002,-0.01,0.008,0.108,-0.019,0.022,0.055,-0.875,1.278
2024-11-02 22:36:49.736,39366.963,0.035,0.767,-0.641,-0.001,-0.016,0.003,0.098,-0.009,0.018,0.055,-0.874,1.278
2024-11-02 22:36:49.746,39366.973,0.035,0.766,-0.641,-0.001,-0.002,0.002,0.094,-0.011,0.001,0.055,-0.873,1.278
2024-11-02 22:36:49.756,39366.983,0.035,0.766,-0.642,-0.0,-0.003,0.004,0.09,-0.028,-0.013,0.055,-0.872,1.278
2024-11-02 22:36:49.766,39366.993,0.035,0.765,-0.643,0.004,-0.008,0.003,0.089,-0.043,-0.032,0.054,-0.871,1.278
2024-11-02 22:36:49.776,39367.003,0.034,0.765,-0.644,0.007,0.002,0.0,0.121,-0.068,-0.051,0.053,-0.87,1.277
2024-11-02 22:36:49.786,39367.013,0.033,0.764,-0.644,0.009,0.006,0.004,0.15,-0.095,-0.068,0.052,-0.869,1.276
2024-11-02 22:36:49.796,39367.023,0.032,0.763,-0.646,0.01,0.004,0.007,0.206,-0.126,-0.086,0.05,-0.868,1.275
2024-11-02 22:36:49.806,39367.033,0.03,0.761,-0.648,0.015,0.021,0.005,0.3,-0.149,-0.098,0.047,-0.865,1.273
2024-11-02 22:36:49.816,39367.043,0.029,0.759,-0.65,0.015,0.034,0.016,0.402,-0.152,-0.101,0.044,-0.862,1.271
2024-11-02 22:36:49.826,39367.053,0.027,0.757,-0.653,0.014,0.041,0.025,0.396,-0.113,-0.088,0.041,-0.858,1.27
2024-11-02 22:36:49.836,39367.063,0.026,0.754,-0.656,0.008,0.057,0.025,0.313,-0.047,-0.063,0.04,-0.855,1.268
2024-11-02 22:36:49.846,39367.073,0.026,0.752,-0.658,-0.02,0.08,-0.021,0.319,-0.042,-0.057,0.039,-0.852,1.268
2024-11-02 22:36:49.856,39367.083,0.025,0.751,-0.66,-0.018,-0.022,0.006,0.271,-0.061,-0.066,0.038,-0.849,1.267
2024-11-02 22:36:49.867,39367.093,0.024,0.749,-0.662,0.003,-0.118,0.005,0.26,-0.052,-0.07,0.036,-0.847,1.265
2024-11-02 22:36:49.876,39367.103,0.023,0.747,-0.664,0.009,-0.005,0.0,0.26,-0.021,-0.078,0.035,-0.844,1.264
2024-11-02 22:36:49.886,39367.113,0.023,0.746,-0.666,-0.002,0.06,0.005,0.27,-0.009,-0.076,0.034,-0.841,1.263
2024-11-02 22:36:49.896,39367.123,0.022,0.744,-0.668,-0.007,0.033,0.003,0.273,-0.011,-0.083,0.033,-0.839,1.262
2024-11-02 22:36:49.906,39367.133,0.021,0.742,-0.67,0.002,0.003,0.009,0.158,-0.004,-0.086,0.032,-0.837,1.26
2024-11-02 22:36:49.916,39367.143,0.021,0.742,-0.67,0.005,-0.0,0.005,-0.096,-0.015,-0.091,0.031,-0.836,1.259
2024-11-02 22:36:49.926,39367.153,0.021,0.746,-0.666,-0.007,-0.029,-0.011,-0.816,0.158,0.018,0.032,-0.842,1.259
2024-11-02 22:36:49.936,39367.163,0.022,0.752,-0.659,-0.009,-0.104,0.051,-0.927,0.103,0.019,0.033,-0.85,1.26
2024-11-02 22:36:49.946,39367.173,0.022,0.757,-0.653,0.011,-0.17,0.072,-0.712,0.048,-0.048,0.034,-0.859,1.26
2024-11-02 22:36:49.956,39367.183,0.023,0.76,-0.649,0.018,-0.067,-0.011,-0.237,0.116,-0.029,0.035,-0.864,1.259
2024-11-02 22:36:49.966,39367.193,0.023,0.761,-0.648,-0.012,0.059,-0.06,-0.075,0.145,-0.017,0.036,-0.865,1.259
2024-11-02 22:36:49.975,39367.203,0.024,0.761,-0.648,-0.019,0.078,-0.083,-0.007,0.105,0.037,0.038,-0.865,1.259
2024-11-02 22:36:49.986,39367.213,0.025,0.762,-0.647,-0.016,0.034,-0.036,-0.085,0.009,-0.005,0.038,-0.866,1.26
2024-11-02 22:36:49.996,39367.223,0.025,0.762,-0.647,0.002,-0.041,-0.004,-0.032,-0.029,0.001,0.038,-0.867,1.26
2024-11-02 22:36:50.005,39367.233,0.024,0.762,-0.647,0.013,-0.031,0.009,0.136,0.013,-0.026,0.038,-0.866,1.259
2024-11-02 22:36:50.015,39367.243,0.025,0.761,-0.649,0.02,0.034,0.012,0.16,0.021,0.013,0.038,-0.865,1.259
2024-11-02 22:36:50.025,39367.253,0.024,0.76,-0.649,0.003,0.097,-0.006,0.092,0.012,-0.071,0.038,-0.863,1.259
2024-11-02 22:36:50.036,39367.263,0.024,0.76,-0.65,0.007,0.021,0.06,0.056,0.034,-0.094,0.037,-0.863,1.257
2024-11-02 22:36:50.046,39367.273,0.024,0.76,-0.65,-0.007,-0.084,0.053,-0.066,0.024,-0.046,0.036,-0.863,1.256
2024-11-02 22:36:50.056,39367.283,0.024,0.76,-0.649,-0.014,-0.082,0.012,-0.203,0.058,-0.027,0.036,-0.864,1.256
2024-11-02 22:36:50.066,39367.293,0.024,0.762,-0.647,-0.021,-0.073,0.003,-0.43,0.073,-0.029,0.037,-0.867,1.256
2024-11-02 22:36:50.076,39367.303,0.024,0.766,-0.642,-0.052,-0.13,-0.037,-0.773,0.097,0.004,0.038,-0.873,1.256
2024-11-02 22:36:50.085,39367.313,0.026,0.772,-0.635,-0.048,-0.165,-0.057,-1.017,0.259,0.166,0.041,-0.882,1.257
2024-11-02 22:36:50.096,39367.323,0.029,0.779,-0.627,-0.033,-0.191,-0.057,-1.104,0.25,0.17,0.047,-0.892,1.261
2024-11-02 22:36:50.105,39367.333,0.032,0.786,-0.618,0.009,-0.201,-0.064,-1.124,0.229,0.121,0.051,-0.904,1.264
2024-11-02 22:36:50.116,39367.343,0.034,0.792,-0.61,0.052,-0.081,-0.053,-0.958,0.287,0.021,0.055,-0.914,1.267
2024-11-02 22:36:50.125,39367.353,0.036,0.798,-0.602,0.021,0.124,-0.006,-1.024,0.404,-0.036,0.059,-0.924,1.267
2024-11-02 22:36:50.135,39367.363,0.038,0.804,-0.593,-0.041,0.177,-0.025,-1.097,0.419,-0.002,0.064,-0.934,1.268
2024-11-02 22:36:50.146,39367.373,0.041,0.811,-0.584,-0.06,0.073,-0.056,-1.123,0.368,0.026,0.069,-0.945,1.269
2024-11-02 22:36:50.156,39367.383,0.043,0.817,-0.575,-0.015,-0.134,-0.043,-1.187,0.318,0.044,0.074,-0.957,1.271
2024-11-02 22:36:50.165,39367.393,0.045,0.824,-0.564,0.019,-0.16,-0.03,-1.243,0.323,0.071,0.08,-0.969,1.274
2024-11-02 22:36:50.175,39367.403,0.048,0.831,-0.554,-0.0,-0.029,-0.033,-1.301,0.353,0.12,0.086,-0.981,1.278
2024-11-02 22:36:50.185,39367.413,0.051,0.838,-0.543,-0.037,0.055,-0.041,-1.278,0.37,0.176,0.094,-0.994,1.282
2024-11-02 22:36:50.195,39367.423,0.054,0.845,-0.532,-0.046,0.051,-0.032,-1.127,0.361,0.193,0.102,-1.006,1.288
2024-11-02 22:36:50.205,39367.433,0.051,0.852,-0.521,-0.019,0.013,-0.008,-1.601,-0.431,-0.952,0.097,-1.02,1.284
2024-11-02 22:36:50.215,39367.443,0.044,0.86,-0.508,-0.024,0.037,0.051,-1.431,0.236,-0.369,0.087,-1.036,1.272
2024-11-02 22:36:50.225,39367.453,0.045,0.867,-0.497,-0.223,-0.027,0.157,-1.196,0.279,0.061,0.09,-1.049,1.273
2024-11-02 22:36:50.235,39367.463,0.045,0.872,-0.487,-0.026,-0.026,0.008,-0.894,-0.016,-0.036,0.093,-1.059,1.275
2024-11-02 22:36:50.246,39367.473,0.045,0.876,-0.481,0.213,0.097,-0.022,-0.618,0.025,-0.023,0.094,-1.067,1.276
2024-11-02 22:36:50.255,39367.483,0.045,0.878,-0.476,0.125,0.078,-0.023,-0.471,0.083,0.007,0.095,-1.072,1.276
2024-11-02 22:36:50.265,39367.493,0.046,0.88,-0.472,-0.002,0.028,-0.056,-0.416,0.101,-0.012,0.097,-1.077,1.277
2024-11-02 22:36:50.275,39367.503,0.046,0.882,-0.468,-0.036,-0.005,-0.032,-0.421,0.106,-0.02,0.098,-1.081,1.278
2024-11-02 22:36:50.285,39367.513,0.046,0.884,-0.465,-0.002,-0.032,-0.024,-0.44,0.103,-0.042,0.099,-1.085,1.278
2024-11-02 22:36:50.296,39367.523,0.047,0.886,-0.46,0.021,-0.025,-0.032,-0.496,0.125,-0.041,0.101,-1.09,1.278
2024-11-02 22:36:50.305,39367.533,0.047,0.889,-0.456,0.005,0.003,-0.035,-0.466,0.16,-0.065,0.102,-1.095,1.278
2024-11-02 22:36:50.315,39367.543,0.047,0.891,-0.452,-0.024,0.018,-0.043,-0.365,0.231,-0.085,0.103,-1.099,1.277
2024-11-02 22:36:50.325,39367.553,0.047,0.892,-0.449,-0.044,0.022,-0.036,-0.306,0.3,-0.136,0.105,-1.102,1.276
2024-11-02 22:36:50.335,39367.562,0.047,0.893,-0.447,-0.045,0.085,-0.003,-0.095,0.346,-0.172,0.105,-1.104,1.273
2024-11-02 22:36:50.345,39367.572,0.047,0.893,-0.447,-0.042,0.135,0.015,0.07,0.398,-0.205,0.105,-1.105,1.268
2024-11-02 22:36:50.355,39367.582,0.047,0.893,-0.448,-0.034,0.094,-0.007,0.322,0.435,-0.218,0.105,-1.103,1.263
2024-11-02 22:36:50.365,39367.592,0.047,0.891,-0.452,-0.027,0.055,-0.044,0.469,0.453,-0.199,0.104,-1.099,1.258
2024-11-02 22:36:50.376,39367.602,0.048,0.889,-0.456,-0.017,0.035,-0.092,0.507,0.52,-0.136,0.105,-1.095,1.253
2024-11-02 22:36:50.385,39367.612,0.049,0.887,-0.46,-0.021,0.057,-0.095,0.397,0.557,-0.086,0.107,-1.09,1.249
2024-11-02 22:36:50.395,39367.622,0.051,0.885,-0.462,-0.032,0.026,-0.07,0.106,0.523,-0.08,0.111,-1.088,1.247
2024-11-02 22:36:50.405,39367.632,0.053,0.886,-0.461,-0.034,-0.038,-0.041,-0.183,0.483,-0.101,0.114,-1.088,1.245
2024-11-02 22:36:50.415,39367.642,0.054,0.887,-0.459,-0.036,-0.034,0.009,-0.291,0.468,-0.075,0.117,-1.091,1.244
2024-11-02 22:36:50.425,39367.652,0.056,0.888,-0.456,-0.048,0.022,0.032,-0.223,0.404,-0.07,0.121,-1.093,1.243
2024-11-02 22:36:50.435,39367.662,0.056,0.889,-0.455,-0.047,0.083,0.028,0.012,0.283,-0.095,0.123,-1.095,1.242
2024-11-02 22:36:50.445,39367.672,0.056,0.888,-0.456,-0.04,0.093,0.019,0.286,0.152,-0.092,0.123,-1.093,1.239
2024-11-02 22:36:50.455,39367.682,0.056,0.886,-0.46,-0.025,0.052,0.011,0.509,0.011,-0.083,0.121,-1.089,1.236
2024-11-02 22:36:50.465,39367.692,0.055,0.884,-0.464,-0.004,0.028,0.015,0.541,-0.126,-0.08,0.118,-1.084,1.233
2024-11-02 22:36:50.475,39367.702,0.053,0.882,-0.469,0.006,0.021,0.043,0.468,-0.23,-0.133,0.113,-1.079,1.23
2024-11-02 22:36:50.485,39367.712,0.051,0.88,-0.472,0.012,0.019,0.078,0.274,-0.295,-0.201,0.107,-1.076,1.225
2024-11-02 22:36:50.495,39367.722,0.047,0.879,-0.474,0.013,-0.023,0.107,0.077,-0.372,-0.275,0.099,-1.074,1.22
2024-11-02 22:36:50.505,39367.732,0.042,0.879,-0.474,0.022,-0.086,0.119,-0.066,-0.448,-0.308,0.089,-1.075,1.214
2024-11-02 22:36:50.515,39367.742,0.037,0.88,-0.474,0.055,-0.156,0.128,-0.085,-0.495,-0.354,0.079,-1.076,1.207
2024-11-02 22:36:50.525,39367.752,0.032,0.88,-0.474,0.077,-0.155,0.128,0.056,-0.538,-0.396,0.066,-1.076,1.199
2024-11-02 22:36:50.535,39367.762,0.025,0.88,-0.475,0.073,-0.097,0.119,0.224,-0.552,-0.387,0.054,-1.075,1.191
2024-11-02 22:36:50.545,39367.772,0.02,0.878,-0.478,0.072,-0.066,0.111,0.383,-0.542,-0.369,0.041,-1.072,1.183
2024-11-02 22:36:50.555,39367.782,0.014,0.876,-0.482,0.066,-0.075,0.101,0.477,-0.54,-0.374,0.028,-1.068,1.175
2024-11-02 22:36:50.565,39367.792,0.008,0.874,-0.486,0.058,-0.089,0.092,0.495,-0.577,-0.375,0.016,-1.063,1.167
2024-11-02 22:36:50.575,39367.802,0.002,0.871,-0.491,0.063,-0.086,0.09,0.513,-0.494,-0.325,0.004,-1.058,1.159
2024-11-02 22:36:50.585,39367.812,-0.002,0.869,-0.495,0.06,-0.111,0.104,0.619,-0.328,-0.145,-0.004,-1.052,1.154
2024-11-02 22:36:50.595,39367.822,-0.004,0.865,-0.501,0.033,-0.122,0.106,0.775,-0.199,-0.028,-0.008,-1.046,1.153
2024-11-02 22:36:50.605,39367.832,-0.005,0.861,-0.509,0.048,-0.023,0.057,1.018,-0.091,0.041,-0.01,-1.037,1.153
2024-11-02 22:36:50.615,39367.842,-0.004,0.855,-0.518,0.074,0.107,-0.032,1.141,0.002,0.155,-0.008,-1.026,1.155
2024-11-02 22:36:50.625,39367.852,-0.003,0.849,-0.528,0.071,0.143,-0.089,1.12,0.011,0.2,-0.005,-1.014,1.159
2024-11-02 22:36:50.635,39367.862,-0.001,0.844,-0.537,0.067,0.087,-0.077,1.004,0.051,0.194,-0.001,-1.004,1.163
2024-11-02 22:36:50.645,39367.872,0.001,0.838,-0.545,0.041,-0.009,-0.019,0.912,0.081,0.145,0.002,-0.994,1.166
2024-11-02 22:36:50.654,39367.882,0.003,0.834,-0.552,0.013,-0.083,0.043,0.807,0.126,0.111,0.005,-0.986,1.168
2024-11-02 22:36:50.665,39367.892,0.004,0.829,-0.559,0.006,-0.104,0.095,0.749,0.175,0.035,0.007,-0.978,1.169
2024-11-02 22:36:50.675,39367.902,0.006,0.825,-0.565,-0.004,-0.096,0.108,0.742,0.229,0.076,0.01,-0.971,1.17
2024-11-02 22:36:50.685,39367.912,0.008,0.821,-0.571,-0.038,-0.084,0.072,0.766,0.239,0.14,0.014,-0.963,1.172
2024-11-02 22:36:50.695,39367.922,0.01,0.816,-0.578,-0.038,-0.018,0.019,0.868,0.22,0.142,0.018,-0.955,1.174
2024-11-02 22:36:50.705,39367.932,0.013,0.81,-0.586,-0.031,0.087,-0.022,1.272,0.177,0.161,0.022,-0.945,1.176
2024-11-02 22:36:50.714,39367.942,0.015,0.802,-0.598,-0.053,0.165,-0.048,1.352,0.169,0.093,0.025,-0.93,1.179
2024-11-02 22:36:50.725,39367.952,0.017,0.794,-0.608,-0.04,0.198,-0.146,1.226,0.103,0.174,0.028,-0.917,1.18
2024-11-02 22:36:50.734,39367.962,0.019,0.786,-0.617,0.001,0.228,-0.153,1.192,0.173,0.159,0.031,-0.905,1.183
2024-11-02 22:36:50.744,39367.972,0.021,0.779,-0.626,-0.021,0.199,-0.007,1.146,0.187,0.098,0.034,-0.893,1.184
2024-11-02 22:36:50.754,39367.982,0.023,0.773,-0.635,-0.022,-0.033,0.018,0.947,0.161,0.011,0.036,-0.883,1.184
2024-11-02 22:36:50.765,39367.992,0.024,0.767,-0.641,0.015,-0.074,0.005,0.697,0.146,-0.023,0.037,-0.875,1.184
2024-11-02 22:36:50.774,39368.002,0.024,0.763,-0.645,0.014,-0.011,-0.045,0.511,0.138,-0.027,0.038,-0.869,1.183
2024-11-02 22:36:50.784,39368.012,0.025,0.761,-0.649,-0.002,-0.038,-0.064,0.368,0.15,-0.034,0.039,-0.864,1.182
2024-11-02 22:36:50.794,39368.022,0.026,0.759,-0.651,-0.003,-0.055,-0.041,0.254,0.171,-0.032,0.04,-0.861,1.181
2024-11-02 22:36:50.804,39368.032,0.027,0.757,-0.652,-0.007,-0.02,-0.021,0.135,0.172,-0.024,0.041,-0.859,1.181
2024-11-02 22:36:50.814,39368.042,0.028,0.758,-0.652,-0.009,-0.034,-0.016,-0.004,0.163,-0.031,0.042,-0.86,1.18
2024-11-02 22:36:50.824,39368.052,0.028,0.757,-0.652,-0.005,-0.073,-0.004,-0.019,0.078,0.034,0.044,-0.859,1.18
2024-11-02 22:36:50.834,39368.062,0.029,0.758,-0.652,-0.001,-0.096,-0.007,-0.019,0.044,0.013,0.045,-0.86,1.181
2024-11-02 22:36:50.844,39368.072,0.029,0.758,-0.652,0.018,0.005,-0.028,0.034,-0.024,0.011,0.045,-0.86,1.181
2024-11-02 22:36:50.854,39368.082,0.029,0.757,-0.653,0.013,0.024,0.006,0.144,-0.083,-0.004,0.044,-0.859,1.181
2024-11-02 22:36:50.864,39368.092,0.028,0.756,-0.654,0.021,0.004,0.023,0.267,-0.105,-0.043,0.043,-0.857,1.181
2024-11-02 22:36:50.874,39368.102,0.027,0.754,-0.657,0.028,0.045,0.039,0.349,-0.105,-0.069,0.041,-0.854,1.179
2024-11-02 22:36:50.886,39368.112,0.026,0.751,-0.659,0.02,0.065,0.038,0.359,-0.095,-0.075,0.039,-0.85,1.178
2024-11-02 22:36:50.894,39368.122,0.025,0.749,-0.662,0.01,0.034,0.024,0.313,-0.061,-0.076,0.037,-0.847,1.177
2024-11-02 22:36:50.904,39368.132,0.024,0.747,-0.664,0.002,-0.009,0.008,0.219,-0.024,-0.066,0.036,-0.844,1.175
2024-11-02 22:36:50.914,39368.142,0.023,0.746,-0.665,-0.006,-0.043,-0.0,0.048,0.004,-0.053,0.035,-0.843,1.175
2024-11-02 22:36:50.924,39368.152,0.023,0.747,-0.665,-0.013,-0.068,-0.014,-0.109,0.009,-0.035,0.035,-0.843,1.174
2024-11-02 22:36:50.934,39368.162,0.023,0.748,-0.664,-0.016,-0.086,-0.043,-0.17,0.016,-0.018,0.035,-0.845,1.174
2024-11-02 22:36:50.944,39368.171,0.023,0.749,-0.662,-0.01,-0.083,-0.039,-0.122,0.013,-0.016,0.035,-0.846,1.174
2024-11-02 22:36:50.954,39368.181,0.023,0.749,-0.662,-0.002,-0.04,-0.01,-0.052,0.002,-0.023,0.035,-0.847,1.173
2024-11-02 22:36:50.964,39368.191,0.023,0.75,-0.661,0.003,0.048,0.013,0.036,-0.027,-0.022,0.034,-0.848,1.173
2024-11-02 22:36:50.974,39368.201,0.022,0.749,-0.662,0.008,0.078,0.021,0.143,-0.055,-0.03,0.034,-0.847,1.173
2024-11-02 22:36:50.984,39368.211,0.022,0.748,-0.663,0.012,0.032,0.019,0.189,-0.047,-0.041,0.033,-0.845,1.172
2024-11-02 22:36:50.994,39368.221,0.021,0.747,-0.665,0.011,0.023,0.023,0.195,-0.043,-0.042,0.032,-0.843,1.171
2024-11-02 22:36:51.004,39368.231,0.02,0.745,-0.666,0.004,0.026,0.015,0.162,-0.029,-0.048,0.031,-0.841,1.171
2024-11-02 22:36:51.014,39368.241,0.02,0.744,-0.668,-0.0,-0.001,-0.001,0.122,-0.018,-0.054,0.03,-0.84,1.17
2024-11-02 22:36:51.024,39368.251,0.019,0.744,-0.668,-0.002,-0.021,-0.006,0.08,-0.007,-0.061,0.029,-0.838,1.169
2024-11-02 22:36:51.034,39368.261,0.019,0.743,-0.669,-0.001,-0.029,-0.003,0.054,-0.013,-0.064,0.028,-0.838,1.168
2024-11-02 22:36:51.044,39368.271,0.018,0.743,-0.669,0.0,-0.025,-0.005,0.074,-0.024,-0.064,0.027,-0.837,1.167
2024-11-02 22:36:51.054,39368.281,0.018,0.742,-0.67,0.001,-0.007,-0.005,0.129,-0.045,-0.069,0.026,-0.836,1.166
2024-11-02 22:36:51.064,39368.291,0.017,0.741,-0.671,0.004,0.018,0.007,0.211,-0.07,-0.078,0.025,-0.835,1.165
2024-11-02 22:36:51.074,39368.301,0.016,0.74,-0.673,0.009,0.039,0.014,0.284,-0.091,-0.083,0.023,-0.833,1.164
2024-11-02 22:36:51.084,39368.311,0.015,0.738,-0.675,0.013,0.041,0.015,0.323,-0.059,-0.088,0.022,-0.83,1.162
2024-11-02 22:36:51.094,39368.321,0.014,0.736,-0.677,0.01,0.033,0.022,0.25,-0.002,-0.071,0.02,-0.827,1.161
2024-11-02 22:36:51.104,39368.331,0.014,0.734,-0.679,-0.012,0.039,-0.002,0.199,0.036,-0.038,0.02,-0.824,1.16
2024-11-02 22:36:51.114,39368.341,0.014,0.734,-0.68,-0.02,-0.016,-0.002,0.127,0.073,-0.037,0.02,-0.824,1.16
2024-11-02 22:36:51.124,39368.351,0.014,0.733,-0.68,-0.009,-0.114,0.011,0.062,0.068,0.008,0.021,-0.823,1.159
2024-11-02 22:36:51.134,39368.361,0.015,0.733,-0.681,-0.012,-0.077,-0.003,0.041,0.067,0.004,0.022,-0.822,1.16
2024-11-02 22:36:51.144,39368.371,0.015,0.732,-0.681,-0.003,0.011,-0.014,0.043,0.054,-0.008,0.022,-0.822,1.16
2024-11-02 22:36:51.154,39368.381,0.015,0.732,-0.681,-0.002,-0.009,-0.008,0.074,0.013,-0.004,0.022,-0.821,1.159
2024-11-02 22:36:51.164,39368.391,0.015,0.732,-0.682,0.008,-0.014,0.003,0.098,0.005,-0.008,0.023,-0.821,1.159
2024-11-02 22:36:51.174,39368.401,0.015,0.731,-0.682,0.01,0.026,0.007,0.131,0.003,-0.001,0.023,-0.82,1.159
2024-11-02 22:36:51.184,39368.411,0.015,0.73,-0.683,0.001,0.034,0.009,0.126,0.006,-0.01,0.022,-0.818,1.159
2024-11-02 22:36:51.194,39368.421,0.015,0.729,-0.684,0.003,0.002,0.009,0.104,0.012,-0.017,0.022,-0.817,1.159
2024-11-02 22:36:51.204,39368.431,0.015,0.728,-0.685,0.003,-0.017,0.003,0.081,0.024,-0.033,0.022,-0.816,1.158
2024-11-02 22:36:51.214,39368.441,0.015,0.728,-0.685,0.002,-0.029,-0.002,0.035,0.034,-0.043,0.022,-0.815,1.158
2024-11-02 22:36:51.224,39368.451,0.015,0.728,-0.686,0.002,-0.025,-0.008,-0.011,0.032,-0.042,0.022,-0.815,1.157
2024-11-02 22:36:51.234,39368.461,0.015,0.728,-0.685,-0.004,-0.009,-0.016,-0.029,0.013,-0.041,0.022,-0.815,1.156
2024-11-02 22:36:51.243,39368.471,0.014,0.728,-0.685,-0.003,-0.014,-0.007,-0.025,-0.008,-0.055,0.021,-0.816,1.156
2024-11-02 22:36:51.253,39368.481,0.014,0.728,-0.685,0.006,-0.024,-0.001,-0.022,-0.001,-0.068,0.02,-0.816,1.155
2024-11-02 22:36:51.264,39368.491,0.014,0.729,-0.685,0.007,0.011,0.0,-0.037,-0.002,-0.07,0.02,-0.817,1.154
2024-11-02 22:36:51.274,39368.501,0.013,0.729,-0.684,-0.0,0.016,0.003,-0.052,0.002,-0.06,0.019,-0.817,1.153
2024-11-02 22:36:51.284,39368.511,0.013,0.729,-0.684,-0.005,-0.024,0.005,-0.038,-0.007,-0.056,0.019,-0.817,1.152
2024-11-02 22:36:51.294,39368.521,0.012,0.729,-0.684,0.003,-0.042,0.01,-0.049,-0.012,-0.047,0.018,-0.817,1.152
2024-11-02 22:36:51.303,39368.531,0.012,0.73,-0.684,0.007,-0.021,0.004,-0.057,-0.028,-0.044,0.017,-0.818,1.151
2024-11-02 22:36:51.314,39368.541,0.011,0.73,-0.684,0.005,0.002,0.003,-0.038,-0.022,-0.054,0.017,-0.818,1.15
2024-11-02 22:36:51.323,39368.551,0.011,0.73,-0.683,0.006,-0.007,-0.002,-0.101,-0.033,-0.039,0.016,-0.818,1.15
2024-11-02 22:36:51.334,39368.561,0.01,0.73,-0.683,0.001,-0.006,-0.007,-0.074,-0.037,-0.043,0.015,-0.819,1.149
2024-11-02 22:36:51.344,39368.571,0.01,0.731,-0.682,-0.002,-0.001,-0.012,-0.084,-0.032,-0.067,0.015,-0.82,1.149
2024-11-02 22:36:51.353,39368.581,0.009,0.732,-0.681,0.004,-0.018,0.001,-0.115,-0.039,-0.074,0.014,-0.821,1.148
2024-11-02 22:36:51.363,39368.591,0.008,0.733,-0.681,0.003,0.004,0.001,-0.149,-0.047,-0.069,0.012,-0.822,1.147
2024-11-02 22:36:51.373,39368.601,0.008,0.734,-0.68,0.003,-0.015,-0.006,-0.207,-0.035,-0.07,0.011,-0.823,1.146
2024-11-02 22:36:51.383,39368.611,0.007,0.735,-0.678,-0.001,-0.037,-0.008,-0.182,-0.064,-0.055,0.011,-0.825,1.145
2024-11-02 22:36:51.394,39368.621,0.006,0.736,-0.677,-0.003,-0.024,-0.007,-0.176,-0.059,-0.076,0.009,-0.827,1.144
2024-11-02 22:36:51.404,39368.631,0.006,0.737,-0.676,0.008,0.004,0.004,-0.09,-0.032,-0.078,0.008,-0.828,1.143
2024-11-02 22:36:51.413,39368.641,0.005,0.737,-0.676,0.004,0.037,0.011,-0.083,-0.022,-0.063,0.007,-0.829,1.142
2024-11-02 22:36:51.423,39368.651,0.004,0.738,-0.675,-0.004,0.037,0.012,-0.127,-0.072,-0.035,0.006,-0.83,1.142
2024-11-02 22:36:51.433,39368.661,0.004,0.738,-0.675,-0.005,-0.012,-0.005,-0.094,-0.047,-0.034,0.005,-0.83,1.141
2024-11-02 22:36:51.443,39368.671,0.003,0.739,-0.674,0.006,-0.027,-0.015,-0.12,-0.043,-0.024,0.005,-0.831,1.141
2024-11-02 22:36:51.453,39368.681,0.003,0.74,-0.673,-0.001,0.024,0.008,-0.162,-0.02,-0.029,0.004,-0.832,1.141
2024-11-02 22:36:51.463,39368.691,0.003,0.74,-0.672,-0.009,-0.006,-0.006,-0.204,0.022,-0.025,0.004,-0.834,1.14
2024-11-02 22:36:51.473,39368.701,0.003,0.742,-0.671,-0.007,-0.03,-0.01,-0.185,0.026,-0.015,0.004,-0.835,1.14
2024-11-02 22:36:51.484,39368.711,0.003,0.743,-0.67,-0.01,-0.044,0.007,-0.162,0.056,0.001,0.005,-0.837,1.14
2024-11-02 22:36:51.494,39368.721,0.004,0.744,-0.668,-0.007,-0.033,-0.002,-0.136,0.063,0.045,0.006,-0.839,1.14
2024-11-02 22:36:51.503,39368.731,0.005,0.745,-0.667,-0.007,0.042,0.012,-0.297,0.212,0.19,0.008,-0.841,1.142
2024-11-02 22:36:51.514,39368.741,0.007,0.746,-0.666,0.002,0.032,0.028,0.079,0.009,-0.051,0.01,-0.842,1.143
2024-11-02 22:36:51.525,39368.751,0.007,0.746,-0.666,0.03,-0.008,0.041,-0.048,0.061,-0.009,0.01,-0.841,1.142
2024-11-02 22:36:51.533,39368.761,0.009,0.747,-0.664,-0.003,0.06,-0.024,-0.229,0.196,0.186,0.014,-0.844,1.145
2024-11-02 22:36:51.543,39368.77,0.01,0.747,-0.664,0.009,0.055,0.035,0.132,0.011,-0.139,0.014,-0.844,1.145
2024-11-02 22:36:51.552,39368.78,0.009,0.747,-0.665,0.037,-0.101,0.049,0.003,0.058,-0.03,0.014,-0.843,1.143
2024-11-02 22:36:51.562,39368.79,0.011,0.748,-0.663,-0.032,0.031,-0.049,-0.189,0.217,0.158,0.017,-0.845,1.145
2024-11-02 22:36:51.572,39368.8,0.012,0.748,-0.664,-0.008,0.064,0.029,0.173,0.033,-0.126,0.017,-0.845,1.145
2024-11-02 22:36:51.583,39368.81,0.011,0.747,-0.665,0.017,-0.098,0.048,0.136,0.069,-0.039,0.017,-0.843,1.144
2024-11-02 22:36:51.594,39368.82,0.012,0.746,-0.666,-0.036,0.019,-0.048,0.123,0.091,-0.016,0.018,-0.842,1.143
2024-11-02 22:36:51.603,39368.83,0.012,0.745,-0.667,-0.025,0.058,0.003,0.125,0.09,0.001,0.018,-0.841,1.143
2024-11-02 22:36:51.613,39368.84,0.013,0.745,-0.667,-0.014,-0.031,0.005,0.125,0.12,0.021,0.02,-0.84,1.143
2024-11-02 22:36:51.623,39368.85,0.014,0.744,-0.668,-0.003,-0.018,-0.001,0.06,0.127,0.019,0.021,-0.839,1.144
2024-11-02 22:36:51.633,39368.86,0.015,0.743,-0.669,-0.014,0.003,0.008,0.168,0.12,0.019,0.023,-0.837,1.144
2024-11-02 22:36:51.643,39368.87,0.016,0.742,-0.671,-0.008,-0.003,0.02,0.151,0.157,-0.006,0.024,-0.836,1.144
2024-11-02 22:36:51.654,39368.88,0.017,0.741,-0.671,0.006,0.017,0.006,0.161,0.12,0.022,0.025,-0.834,1.144
2024-11-02 22:36:51.663,39368.89,0.018,0.74,-0.672,-0.01,0.002,0.011,0.088,0.137,-0.025,0.027,-0.833,1.144
2024-11-02 22:36:51.673,39368.9,0.018,0.74,-0.673,-0.005,-0.055,-0.002,-0.0,0.086,-0.015,0.027,-0.833,1.143
2024-11-02 22:36:51.683,39368.91,0.019,0.74,-0.673,0.003,-0.039,-0.005,0.05,0.036,-0.009,0.028,-0.833,1.143
2024-11-02 22:36:51.694,39368.92,0.019,0.739,-0.673,0.014,-0.032,-0.015,0.021,0.075,-0.025,0.028,-0.832,1.143
2024-11-02 22:36:51.703,39368.93,0.019,0.739,-0.673,0.006,0.041,0.005,0.028,0.036,-0.015,0.028,-0.832,1.142
2024-11-02 22:36:51.713,39368.94,0.019,0.739,-0.673,-0.005,-0.009,0.025,-0.04,0.046,-0.019,0.028,-0.832,1.142
2024-11-02 22:36:51.723,39368.95,0.019,0.74,-0.673,0.011,-0.062,-0.013,-0.033,0.067,-0.008,0.029,-0.832,1.142
2024-11-02 22:36:51.733,39368.96,0.02,0.74,-0.673,-0.006,0.016,-0.008,-0.03,0.093,-0.029,0.029,-0.833,1.142
2024-11-02 22:36:51.743,39368.97,0.02,0.74,-0.672,-0.015,0.009,0.002,-0.014,0.043,-0.028,0.03,-0.833,1.141
2024-11-02 22:36:51.753,39368.98,0.02,0.74,-0.672,0.005,-0.011,0.006,-0.035,0.076,-0.045,0.03,-0.833,1.141
2024-11-02 22:36:51.763,39368.99,0.02,0.74,-0.672,0.006,0.025,-0.009,0.008,-0.013,-0.022,0.03,-0.833,1.14
2024-11-02 22:36:51.773,39369.0,0.02,0.74,-0.672,-0.005,0.009,0.015,-0.011,-0.022,-0.037,0.029,-0.833,1.14
2024-11-02 22:36:51.783,39369.01,0.019,0.74,-0.672,0.015,-0.015,-0.014,0.012,-0.05,-0.005,0.029,-0.833,1.139
2024-11-02 22:36:51.794,39369.02,0.019,0.74,-0.672,0.001,0.063,0.007,-0.002,-0.043,-0.023,0.028,-0.833,1.139
2024-11-02 22:36:51.803,39369.03,0.019,0.74,-0.672,-0.007,-0.011,0.007,-0.039,-0.044,-0.035,0.028,-0.833,1.139
2024-11-02 22:36:51.813,39369.04,0.018,0.74,-0.672,0.007,-0.025,0.001,-0.093,-0.041,-0.059,0.027,-0.834,1.138
2024-11-02 22:36:51.823,39369.05,0.017,0.741,-0.671,0.003,-0.014,-0.005,-0.128,-0.05,-0.083,0.025,-0.835,1.137
2024-11-02 22:36:51.833,39369.06,0.016,0.742,-0.67,0.002,-0.019,-0.011,-0.166,-0.058,-0.112,0.024,-0.836,1.136
2024-11-02 22:36:51.843,39369.07,0.015,0.743,-0.669,0.006,-0.027,-0.006,-0.213,-0.056,-0.141,0.022,-0.838,1.134
2024-11-02 22:36:51.853,39369.08,0.013,0.745,-0.667,0.001,-0.012,-0.002,-0.252,-0.072,-0.133,0.02,-0.841,1.132
2024-11-02 22:36:51.863,39369.09,0.012,0.747,-0.665,-0.003,-0.013,-0.011,-0.281,-0.073,-0.138,0.018,-0.843,1.13
2024-11-02 22:36:51.873,39369.1,0.014,0.752,-0.659,0.006,-0.015,-0.017,-0.932,0.266,0.385,0.021,-0.85,1.132
2024-11-02 22:36:51.883,39369.11,0.016,0.756,-0.655,0.011,-0.002,0.006,-0.579,0.012,0.016,0.024,-0.857,1.135
2024-11-02 22:36:51.893,39369.12,0.016,0.759,-0.65,0.093,-0.066,0.069,-0.573,0.053,0.092,0.025,-0.862,1.136
2024-11-02 22:36:51.903,39369.13,0.018,0.763,-0.647,0.005,-0.011,-0.041,-0.457,0.106,0.145,0.028,-0.867,1.139
2024-11-02 22:36:51.913,39369.14,0.019,0.765,-0.644,-0.008,0.089,-0.013,-0.371,0.102,0.126,0.03,-0.871,1.141
2024-11-02 22:36:51.923,39369.15,0.021,0.767,-0.641,0.026,-0.003,0.006,-0.213,0.06,0.119,0.032,-0.874,1.143
2024-11-02 22:36:51.932,39369.16,0.022,0.768,-0.64,0.006,-0.005,-0.016,-0.148,0.046,0.079,0.034,-0.876,1.145
2024-11-02 22:36:51.942,39369.17,0.023,0.769,-0.639,-0.014,0.018,-0.005,-0.091,0.038,0.005,0.035,-0.877,1.145
2024-11-02 22:36:51.952,39369.18,0.023,0.769,-0.638,-0.035,0.036,0.014,-0.077,0.072,0.046,0.036,-0.878,1.146
2024-11-02 22:36:51.962,39369.19,0.024,0.77,-0.638,-0.031,0.009,0.039,-0.018,0.019,0.003,0.037,-0.878,1.146
2024-11-02 22:36:51.973,39369.2,0.024,0.77,-0.638,-0.02,0.011,0.022,0.038,0.028,0.017,0.037,-0.878,1.146
2024-11-02 22:36:51.983,39369.21,0.024,0.769,-0.638,-0.04,-0.004,0.012,0.033,0.053,0.002,0.038,-0.878,1.146
2024-11-02 22:36:51.993,39369.22,0.024,0.769,-0.638,-0.03,-0.032,0.021,-0.056,0.061,-0.019,0.038,-0.878,1.146
2024-11-02 22:36:52.003,39369.23,0.025,0.77,-0.638,-0.015,-0.031,0.045,0.027,0.079,0.023,0.039,-0.878,1.146
2024-11-02 22:36:52.013,39369.24,0.026,0.769,-0.639,-0.031,-0.043,0.041,0.076,0.134,0.154,0.041,-0.877,1.148
2024-11-02 22:36:52.022,39369.25,0.028,0.769,-0.639,-0.027,-0.048,-0.011,-0.032,0.118,0.134,0.044,-0.877,1.15
2024-11-02 22:36:52.033,39369.26,0.03,0.77,-0.638,0.016,0.019,-0.044,-0.192,0.146,0.141,0.047,-0.878,1.152
2024-11-02 22:36:52.043,39369.27,0.032,0.771,-0.636,-0.011,0.022,-0.022,-0.384,0.167,0.118,0.05,-0.881,1.154
2024-11-02 22:36:52.053,39369.28,0.034,0.775,-0.631,-0.03,-0.075,-0.038,-0.636,0.204,0.121,0.054,-0.886,1.156
2024-11-02 22:36:52.063,39369.29,0.036,0.779,-0.626,-0.012,-0.129,-0.052,-0.859,0.274,0.08,0.058,-0.894,1.158
2024-11-02 22:36:52.073,39369.3,0.038,0.785,-0.618,-0.011,-0.104,-0.048,-1.156,0.356,0.042,0.062,-0.903,1.16
2024-11-02 22:36:52.082,39369.31,0.041,0.793,-0.608,-0.038,-0.062,-0.091,-1.352,0.433,0.02,0.068,-0.916,1.162
2024-11-02 22:36:52.092,39369.32,0.044,0.802,-0.596,-0.061,-0.045,-0.096,-1.482,0.476,-0.015,0.073,-0.93,1.164
2024-11-02 22:36:52.102,39369.33,0.042,0.813,-0.58,-0.042,-0.11,-0.069,-2.362,0.124,-0.774,0.072,-0.95,1.159
2024-11-02 22:36:52.112,39369.34,0.039,0.826,-0.562,-0.053,-0.106,-0.034,-2.012,0.448,-0.329,0.069,-0.972,1.152
2024-11-02 22:36:52.122,39369.35,0.04,0.836,-0.547,-0.222,-0.182,0.058,-1.416,0.405,0.051,0.074,-0.99,1.152
2024-11-02 22:36:52.132,39369.36,0.043,0.842,-0.538,-0.001,-0.029,-0.097,-0.879,0.383,-0.0,0.079,-1.001,1.154
2024-11-02 22:36:52.142,39369.369,0.045,0.846,-0.531,0.193,0.289,-0.109,-0.694,0.421,-0.008,0.084,-1.009,1.155
2024-11-02 22:36:52.152,39369.379,0.047,0.849,-0.526,-0.008,0.21,-0.058,-0.357,0.422,-0.114,0.088,-1.014,1.155
2024-11-02 22:36:52.163,39369.389,0.048,0.85,-0.525,-0.1,0.006,-0.046,0.039,0.504,-0.155,0.091,-1.016,1.152
2024-11-02 22:36:52.172,39369.399,0.049,0.849,-0.526,-0.09,-0.097,-0.09,0.217,0.529,-0.114,0.094,-1.014,1.15
2024-11-02 22:36:52.182,39369.409,0.051,0.848,-0.528,-0.073,-0.06,-0.107,0.434,0.502,-0.215,0.096,-1.011,1.146
2024-11-02 22:36:52.192,39369.419,0.051,0.845,-0.532,-0.029,-0.059,-0.071,0.624,0.476,-0.228,0.096,-1.006,1.141
2024-11-02 22:36:52.202,39369.429,0.052,0.841,-0.538,-0.047,-0.059,-0.055,0.837,0.467,-0.265,0.096,-0.999,1.135
2024-11-02 22:36:52.212,39369.439,0.052,0.836,-0.547,-0.041,-0.009,0.009,1.193,0.412,-0.326,0.094,-0.99,1.128
2024-11-02 22:36:52.222,39369.449,0.051,0.829,-0.557,-0.028,-0.001,0.03,1.448,0.317,-0.286,0.092,-0.977,1.12
2024-11-02 22:36:52.232,39369.459,0.051,0.82,-0.57,-0.019,0.015,0.045,1.585,0.257,-0.271,0.088,-0.962,1.113
2024-11-02 22:36:52.242,39369.469,0.05,0.812,-0.582,0.011,0.084,0.103,1.365,0.217,-0.176,0.086,-0.947,1.107
2024-11-02 22:36:52.252,39369.479,0.05,0.805,-0.591,0.021,0.127,0.127,0.74,0.117,-0.101,0.084,-0.936,1.103
2024-11-02 22:36:52.262,39369.489,0.05,0.803,-0.593,0.044,0.104,0.147,-0.031,0.059,-0.028,0.084,-0.933,1.101
2024-11-02 22:36:52.272,39369.499,0.05,0.805,-0.591,0.078,0.012,0.189,-0.391,-0.074,-0.003,0.084,-0.935,1.101
2024-11-02 22:36:52.282,39369.509,0.049,0.807,-0.588,0.114,-0.005,0.206,-0.27,-0.139,-0.071,0.083,-0.939,1.101
2024-11-02 22:36:52.293,39369.519,0.048,0.807,-0.588,0.124,0.126,0.167,0.21,-0.053,0.011,0.081,-0.939,1.101
2024-11-02 22:36:52.303,39369.529,0.048,0.805,-0.591,0.084,0.196,0.081,0.49,-0.082,0.035,0.081,-0.936,1.101
2024-11-02 22:36:52.312,39369.539,0.047,0.802,-0.595,0.099,0.114,0.026,0.461,-0.143,-0.097,0.079,-0.931,1.1
2024-11-02 22:36:52.322,39369.549,0.045,0.799,-0.599,0.108,-0.007,0.044,0.465,-0.156,-0.162,0.075,-0.926,1.097
2024-11-02 22:36:52.332,39369.559,0.042,0.797,-0.602,0.057,-0.101,0.043,0.299,-0.179,-0.21,0.07,-0.923,1.093
2024-11-02 22:36:52.342,39369.569,0.04,0.796,-0.604,0.035,-0.063,-0.012,0.155,-0.169,-0.217,0.066,-0.921,1.089
2024-11-02 22:36:52.352,39369.579,0.037,0.796,-0.605,0.017,0.006,-0.019,0.003,-0.156,-0.223,0.061,-0.92,1.086
2024-11-02 22:36:52.362,39369.589,0.034,0.796,-0.604,-0.008,-0.021,-0.028,-0.126,-0.158,-0.225,0.057,-0.921,1.082
2024-11-02 22:36:52.372,39369.599,0.031,0.797,-0.603,-0.009,-0.051,-0.037,-0.221,-0.173,-0.194,0.052,-0.923,1.079
2024-11-02 22:36:52.382,39369.609,0.029,0.799,-0.601,-0.001,-0.061,-0.032,-0.255,-0.182,-0.154,0.048,-0.925,1.076
2024-11-02 22:36:52.392,39369.619,0.027,0.8,-0.599,0.0,-0.053,-0.014,-0.187,-0.179,-0.12,0.045,-0.927,1.074
2024-11-02 22:36:52.402,39369.629,0.025,0.801,-0.598,-0.006,-0.035,0.005,-0.115,-0.139,-0.087,0.042,-0.929,1.072
2024-11-02 22:36:52.412,39369.639,0.024,0.802,-0.597,-0.013,0.011,0.016,-0.086,-0.103,-0.062,0.04,-0.93,1.071
2024-11-02 22:36:52.422,39369.649,0.023,0.802,-0.597,-0.018,0.07,0.016,-0.047,-0.1,-0.031,0.038,-0.931,1.07
2024-11-02 22:36:52.432,39369.659,0.022,0.802,-0.597,-0.013,0.052,0.003,0.011,-0.077,-0.025,0.037,-0.931,1.07
2024-11-02 22:36:52.442,39369.669,0.021,0.802,-0.597,-0.003,0.014,0.003,0.057,-0.029,-0.033,0.036,-0.93,1.069
2024-11-02 22:36:52.452,39369.679,0.021,0.801,-0.598,-0.004,0.034,0.016,0.092,0.002,-0.045,0.035,-0.93,1.069
2024-11-02 22:36:52.461,39369.689,0.021,0.801,-0.598,-0.012,0.041,0.018,0.103,0.009,-0.059,0.035,-0.929,1.068
2024-11-02 22:36:52.472,39369.699,0.02,0.8,-0.599,-0.007,0.0,0.014,0.077,-0.005,-0.06,0.034,-0.928,1.067
2024-11-02 22:36:52.482,39369.709,0.02,0.8,-0.6,0.003,-0.029,0.006,0.047,-0.022,-0.062,0.033,-0.927,1.066
2024-11-02 22:36:52.492,39369.719,0.019,0.8,-0.6,0.008,-0.026,0.0,0.044,-0.042,-0.058,0.032,-0.927,1.065
2024-11-02 22:36:52.502,39369.729,0.018,0.8,-0.6,0.007,-0.01,-0.002,0.067,-0.05,-0.056,0.03,-0.927,1.064
2024-11-02 22:36:52.512,39369.739,0.017,0.799,-0.601,0.006,0.01,0.003,0.096,-0.061,-0.054,0.029,-0.926,1.063
2024-11-02 22:36:52.522,39369.749,0.017,0.799,-0.602,0.008,0.02,0.01,0.122,-0.057,-0.053,0.028,-0.925,1.062
2024-11-02 22:36:52.532,39369.759,0.016,0.798,-0.603,0.005,0.019,0.012,0.149,-0.038,-0.053,0.026,-0.924,1.061
2024-11-02 22:36:52.542,39369.769,0.015,0.797,-0.604,-0.0,0.012,0.015,0.148,0.0,-0.048,0.025,-0.922,1.06
2024-11-02 22:36:52.552,39369.779,0.015,0.796,-0.605,-0.007,-0.003,0.009,0.129,0.03,-0.036,0.025,-0.921,1.059
2024-11-02 22:36:52.562,39369.789,0.015,0.796,-0.606,-0.012,-0.01,0.006,0.109,0.047,-0.036,0.025,-0.92,1.059
2024-11-02 22:36:52.572,39369.799,0.015,0.795,-0.606,-0.011,-0.012,0.007,0.055,0.037,-0.034,0.025,-0.919,1.058
2024-11-02 22:36:52.581,39369.809,0.015,0.795,-0.607,-0.007,-0.021,-0.0,0.015,0.014,-0.026,0.025,-0.919,1.058
2024-11-02 22:36:52.592,39369.819,0.015,0.795,-0.607,0.001,-0.022,-0.008,0.012,-0.012,-0.036,0.025,-0.919,1.057
2024-11-02 22:36:52.602,39369.829,0.015,0.795,-0.607,0.007,-0.012,-0.009,0.053,-0.032,-0.05,0.024,-0.919,1.057
2024-11-02 22:36:52.611,39369.839,0.014,0.795,-0.607,0.009,0.01,0.003,0.114,-0.049,-0.062,0.023,-0.918,1.056
2024-11-02 22:36:52.622,39369.849,0.013,0.794,-0.608,0.01,0.024,0.017,0.151,-0.059,-0.068,0.022,-0.917,1.055
2024-11-02 22:36:52.631,39369.859,0.012,0.793,-0.609,0.009,0.027,0.016,0.181,-0.068,-0.077,0.02,-0.916,1.054
2024-11-02 22:36:52.641,39369.869,0.011,0.792,-0.61,0.007,0.02,0.011,0.214,-0.06,-0.082,0.018,-0.914,1.052
2024-11-02 22:36:52.651,39369.879,0.01,0.791,-0.612,0.008,0.009,0.01,0.232,-0.039,-0.098,0.016,-0.912,1.05
2024-11-02 22:36:52.662,39369.889,0.009,0.789,-0.614,0.004,0.012,0.012,0.219,-0.015,-0.093,0.015,-0.91,1.049
2024-11-02 22:36:52.671,39369.899,0.009,0.788,-0.615,-0.003,0.016,0.009,0.102,0.121,0.022,0.014,-0.908,1.048
2024-11-02 22:36:52.681,39369.909,0.013,0.788,-0.616,-0.011,0.003,-0.003,0.089,0.12,0.312,0.021,-0.907,1.053
2024-11-02 22:36:52.692,39369.919,0.013,0.787,-0.617,0.035,-0.005,-0.005,0.135,-0.089,-0.145,0.021,-0.906,1.054
2024-11-02 22:36:52.702,39369.929,0.013,0.787,-0.617,0.076,-0.037,0.011,0.065,0.187,0.158,0.021,-0.906,1.053
2024-11-02 22:36:52.712,39369.939,0.015,0.786,-0.617,-0.078,-0.016,-0.0,0.089,0.033,0.127,0.025,-0.905,1.056
2024-11-02 22:36:52.721,39369.949,0.016,0.786,-0.618,-0.015,0.034,0.002,0.073,0.023,0.041,0.026,-0.904,1.057
2024-11-02 22:36:52.732,39369.959,0.017,0.786,-0.618,0.036,-0.008,0.012,0.077,0.02,0.081,0.027,-0.904,1.058
2024-11-02 22:36:52.741,39369.968,0.017,0.785,-0.619,-0.013,-0.024,-0.005,0.058,0.014,0.077,0.028,-0.903,1.059
2024-11-02 22:36:52.751,39369.978,0.018,0.785,-0.619,-0.017,-0.02,-0.004,0.042,0.074,0.155,0.03,-0.903,1.061
2024-11-02 22:36:52.761,39369.988,0.02,0.785,-0.619,-0.009,0.006,-0.009,0.041,0.038,0.143,0.032,-0.902,1.064
2024-11-02 22:36:52.771,39369.998,0.021,0.785,-0.62,0.013,0.027,-0.024,0.02,0.016,0.1,0.034,-0.902,1.066
2024-11-02 22:36:52.781,39370.008,0.022,0.784,-0.62,0.014,0.01,-0.032,-0.025,-0.002,0.067,0.036,-0.902,1.067
2024-11-02 22:36:52.791,39370.018,0.022,0.785,-0.619,0.002,-0.019,-0.034,-0.087,-0.016,0.07,0.036,-0.902,1.068
2024-11-02 22:36:52.801,39370.028,0.023,0.785,-0.619,0.003,-0.033,-0.031,-0.046,-0.011,0.061,0.037,-0.903,1.069
2024-11-02 22:36:52.811,39370.038,0.023,0.786,-0.618,0.002,-0.036,-0.025,-0.121,-0.007,0.074,0.038,-0.904,1.07
2024-11-02 22:36:52.821,39370.048,0.024,0.787,-0.617,-0.0,-0.045,-0.026,-0.159,-0.062,0.089,0.038,-0.905,1.072
2024-11-02 22:36:52.831,39370.058,0.024,0.787,-0.616,-0.011,-0.029,-0.016,-0.055,-0.012,0.051,0.038,-0.906,1.073
2024-11-02 22:36:52.841,39370.068,0.024,0.787,-0.616,-0.03,-0.03,0.017,-0.024,-0.008,0.112,0.039,-0.906,1.074
2024-11-02 22:36:52.851,39370.078,0.025,0.788,-0.615,-0.027,-0.03,0.019,-0.125,-0.036,0.078,0.04,-0.907,1.076
2024-11-02 22:36:52.862,39370.088,0.025,0.788,-0.615,0.006,0.015,0.02,-0.044,-0.02,0.047,0.041,-0.908,1.077
2024-11-02 22:36:52.871,39370.098,0.026,0.788,-0.615,-0.02,0.037,0.049,0.045,0.027,0.043,0.041,-0.907,1.077
2024-11-02 22:36:52.881,39370.108,0.026,0.787,-0.616,-0.048,0.027,0.047,0.067,0.003,0.048,0.042,-0.906,1.078
2024-11-02 22:36:52.891,39370.118,0.026,0.787,-0.617,-0.012,0.019,0.026,0.06,-0.008,0.019,0.043,-0.906,1.079
2024-11-02 22:36:52.901,39370.128,0.026,0.786,-0.617,0.027,-0.006,0.017,0.035,-0.005,0.002,0.043,-0.905,1.079
2024-11-02 22:36:52.911,39370.138,0.026,0.786,-0.618,0.017,-0.013,0.009,0.0,0.011,-0.009,0.042,-0.904,1.078
2024-11-02 22:36:52.921,39370.148,0.026,0.786,-0.617,-0.0,-0.015,-0.007,-0.03,0.021,-0.015,0.042,-0.905,1.078
2024-11-02 22:36:52.931,39370.158,0.026,0.786,-0.617,-0.004,-0.014,-0.007,-0.042,0.022,-0.025,0.042,-0.905,1.077
2024-11-02 22:36:52.941,39370.168,0.026,0.787,-0.617,-0.0,-0.012,-0.004,-0.029,0.022,-0.022,0.042,-0.905,1.077
2024-11-02 22:36:52.951,39370.178,0.026,0.787,-0.616,0.004,-0.011,0.005,-0.026,0.029,-0.016,0.042,-0.906,1.077
2024-11-02 22:36:52.961,39370.188,0.025,0.788,-0.615,0.002,0.0,0.011,-0.015,0.04,-0.022,0.041,-0.907,1.076
2024-11-02 22:36:52.971,39370.198,0.025,0.788,-0.615,-0.006,0.007,0.033,0.023,0.024,-0.016,0.041,-0.907,1.075
2024-11-02 22:36:52.981,39370.208,0.025,0.788,-0.616,-0.015,-0.013,0.044,0.081,-0.007,0.001,0.041,-0.907,1.075
2024-11-02 22:36:52.991,39370.218,0.025,0.787,-0.616,-0.013,-0.032,0.026,0.099,-0.028,0.017,0.041,-0.906,1.076
2024-11-02 22:36:53.001,39370.228,0.026,0.786,-0.617,-0.011,-0.003,-0.003,0.137,-0.033,0.046,0.041,-0.905,1.076
2024-11-02 22:36:53.011,39370.238,0.026,0.785,-0.619,-0.01,0.041,-0.032,0.124,-0.034,0.053,0.042,-0.903,1.077
2024-11-02 22:36:53.021,39370.248,0.026,0.785,-0.619,-0.002,0.022,-0.037,0.009,-0.041,0.044,0.042,-0.902,1.078
2024-11-02 22:36:53.031,39370.258,0.026,0.785,-0.619,0.012,-0.015,-0.016,-0.046,-0.055,0.034,0.042,-0.903,1.078
2024-11-02 22:36:53.041,39370.268,0.026,0.785,-0.619,0.011,-0.015,-0.001,0.037,0.007,0.007,0.042,-0.903,1.079
2024-11-02 22:36:53.051,39370.278,0.026,0.785,-0.619,-0.011,0.009,0.016,0.061,0.047,0.025,0.042,-0.903,1.079
2024-11-02 22:36:53.062,39370.288,0.026,0.785,-0.619,-0.015,0.012,0.004,0.012,0.028,-0.013,0.042,-0.903,1.079
2024-11-02 22:36:53.071,39370.298,0.026,0.785,-0.619,0.019,-0.008,0.012,-0.034,0.036,-0.03,0.042,-0.903,1.078
2024-11-02 22:36:53.081,39370.308,0.026,0.785,-0.619,0.023,-0.04,0.045,-0.027,0.028,-0.018,0.042,-0.903,1.078
2024-11-02 22:36:53.091,39370.318,0.026,0.785,-0.618,-0.0,-0.039,0.028,-0.036,0.028,0.012,0.042,-0.903,1.077
2024-11-02 22:36:53.101,39370.328,0.026,0.786,-0.618,-0.009,-0.003,0.017,-0.031,0.007,0.008,0.042,-0.904,1.078
2024-11-02 22:36:53.111,39370.338,0.026,0.786,-0.618,-0.012,0.001,0.005,-0.094,-0.004,0.005,0.043,-0.904,1.078
2024-11-02 22:36:53.121,39370.348,0.026,0.786,-0.617,-0.01,-0.018,0.002,-0.065,-0.023,0.008,0.043,-0.905,1.078
2024-11-02 22:36:53.131,39370.358,0.026,0.787,-0.617,-0.002,-0.028,0.0,-0.029,-0.022,0.009,0.043,-0.905,1.078
2024-11-02 22:36:53.141,39370.368,0.026,0.787,-0.617,0.006,-0.027,-0.011,-0.013,-0.045,0.016,0.042,-0.906,1.078
2024-11-02 22:36:53.151,39370.378,0.026,0.787,-0.617,0.005,0.004,-0.008,-0.006,-0.043,0.014,0.042,-0.906,1.079
2024-11-02 22:36:53.161,39370.388,0.026,0.787,-0.617,-0.006,0.028,-0.003,0.07,-0.065,0.02,0.042,-0.906,1.079
2024-11-02 22:36:53.171,39370.398,0.026,0.786,-0.618,-0.012,0.035,-0.009,0.177,-0.017,0.037,0.042,-0.904,1.08
2024-11-02 22:36:53.181,39370.408,0.026,0.785,-0.619,0.002,0.037,-0.007,0.146,-0.041,0.016,0.042,-0.903,1.08
2024-11-02 22:36:53.191,39370.418,0.026,0.784,-0.62,0.016,0.025,-0.013,0.116,-0.037,-0.002,0.041,-0.901,1.08
2024-11-02 22:36:53.200,39370.428,0.025,0.784,-0.621,0.017,0.001,-0.013,0.074,-0.027,0.01,0.041,-0.9,1.08
2024-11-02 22:36:53.210,39370.438,0.025,0.783,-0.621,0.011,-0.011,-0.021,0.057,-0.013,-0.001,0.041,-0.9,1.08
2024-11-02 22:36:53.221,39370.448,0.025,0.783,-0.622,0.016,0.009,-0.014,0.065,-0.01,-0.01,0.041,-0.899,1.08
2024-11-02 22:36:53.231,39370.458,0.025,0.782,-0.623,0.016,0.013,0.004,0.078,-0.003,0.004,0.041,-0.898,1.08
2024-11-02 22:36:53.240,39370.468,0.025,0.782,-0.623,0.012,0.005,0.008,0.065,0.008,-0.008,0.041,-0.898,1.079
2024-11-02 22:36:53.251,39370.478,0.025,0.782,-0.623,0.014,0.0,0.008,0.049,0.03,-0.025,0.04,-0.897,1.079
2024-11-02 22:36:53.260,39370.488,0.025,0.782,-0.623,0.007,-0.003,0.009,0.025,0.051,-0.027,0.04,-0.897,1.079
2024-11-02 22:36:53.270,39370.498,0.025,0.782,-0.623,-0.005,-0.023,0.013,-0.024,0.04,-0.037,0.041,-0.897,1.078
2024-11-02 22:36:53.280,39370.508,0.025,0.782,-0.623,-0.012,-0.046,0.017,-0.046,0.012,-0.019,0.041,-0.898,1.078
2024-11-02 22:36:53.291,39370.518,0.025,0.782,-0.623,-0.019,-0.055,0.007,-0.04,-0.013,0.011,0.041,-0.898,1.078
2024-11-02 22:36:53.300,39370.528,0.026,0.782,-0.622,-0.021,-0.05,-0.022,-0.058,-0.013,0.028,0.041,-0.898,1.078
2024-11-02 22:36:53.310,39370.538,0.026,0.783,-0.622,-0.009,-0.009,-0.038,-0.073,-0.0,0.02,0.042,-0.899,1.079
2024-11-02 22:36:53.321,39370.548,0.026,0.783,-0.621,0.002,0.03,-0.017,-0.066,0.006,0.003,0.042,-0.9,1.079
2024-11-02 22:36:53.330,39370.558,0.026,0.784,-0.621,0.007,0.019,0.01,-0.04,-0.005,0.01,0.042,-0.9,1.08
2024-11-02 22:36:53.340,39370.567,0.026,0.784,-0.621,0.011,0.001,0.01,0.034,0.032,0.015,0.042,-0.9,1.08
2024-11-02 22:36:53.350,39370.577,0.027,0.783,-0.621,0.006,0.017,0.021,0.029,0.038,-0.011,0.043,-0.9,1.08
2024-11-02 22:36:53.360,39370.587,0.027,0.783,-0.621,-0.006,0.015,0.027,0.027,0.044,-0.024,0.043,-0.9,1.079
2024-11-02 22:36:53.370,39370.597,0.026,0.783,-0.621,-0.009,-0.019,0.04,-0.029,0.019,-0.031,0.043,-0.899,1.079
2024-11-02 22:36:53.381,39370.607,0.026,0.783,-0.621,-0.004,-0.053,0.031,-0.084,0.012,-0.002,0.042,-0.9,1.078
2024-11-02 22:36:53.390,39370.617,0.026,0.784,-0.62,-0.007,-0.033,0.01,-0.145,0.011,0.022,0.043,-0.901,1.079
2024-11-02 22:36:53.400,39370.627,0.027,0.785,-0.619,-0.02,-0.022,-0.013,-0.229,0.016,0.006,0.043,-0.903,1.079
2024-11-02 22:36:53.410,39370.637,0.027,0.787,-0.617,-0.022,-0.051,-0.022,-0.321,0.033,-0.008,0.043,-0.905,1.079
2024-11-02 22:36:53.420,39370.647,0.027,0.789,-0.614,-0.014,-0.059,-0.013,-0.308,0.058,-0.01,0.044,-0.909,1.079
2024-11-02 22:36:53.430,39370.657,0.027,0.79,-0.612,-0.01,-0.027,0.007,-0.18,0.087,0.006,0.045,-0.911,1.079
2024-11-02 22:36:53.440,39370.667,0.028,0.791,-0.611,-0.004,0.006,0.024,0.042,0.167,0.044,0.046,-0.912,1.08
2024-11-02 22:36:53.450,39370.677,0.03,0.79,-0.612,0.004,0.036,0.041,0.177,0.212,0.1,0.049,-0.911,1.081
2024-11-02 22:36:53.460,39370.687,0.032,0.789,-0.614,0.012,0.048,0.026,0.221,0.165,0.096,0.052,-0.909,1.082
2024-11-02 22:36:53.470,39370.697,0.034,0.787,-0.616,0.026,0.016,-0.012,0.285,0.192,0.102,0.055,-0.906,1.084
2024-11-02 22:36:53.480,39370.707,0.036,0.785,-0.618,0.008,-0.004,0.016,0.308,0.206,0.098,0.058,-0.903,1.085
2024-11-02 22:36:53.490,39370.717,0.038,0.783,-0.621,-0.016,-0.023,0.032,0.27,0.196,0.093,0.06,-0.9,1.086
2024-11-02 22:36:53.500,39370.727,0.039,0.781,-0.623,-0.01,-0.015,0.009,0.248,0.209,0.099,0.063,-0.897,1.087
2024-11-02 22:36:53.510,39370.737,0.042,0.78,-0.624,-0.006,0.013,-0.008,0.152,0.246,0.1,0.066,-0.895,1.088
2024-11-02 22:36:53.520,39370.747,0.044,0.78,-0.625,-0.015,0.024,-0.02,0.025,0.245,0.103,0.07,-0.894,1.09
2024-11-02 22:36:53.530,39370.757,0.046,0.78,-0.624,-0.021,0.03,-0.037,-0.138,0.199,0.079,0.073,-0.895,1.091
2024-11-02 22:36:53.540,39370.767,0.047,0.781,-0.622,-0.008,-0.02,-0.046,-0.249,0.113,-0.025,0.076,-0.897,1.092
2024-11-02 22:36:53.550,39370.777,0.047,0.783,-0.62,0.009,-0.106,-0.05,-0.345,0.001,-0.061,0.076,-0.9,1.092
2024-11-02 22:36:53.560,39370.787,0.046,0.785,-0.617,0.022,-0.156,-0.044,-0.335,-0.076,-0.078,0.075,-0.903,1.091
2024-11-02 22:36:53.570,39370.797,0.045,0.787,-0.615,0.042,-0.024,-0.009,-0.241,-0.072,-0.084,0.073,-0.906,1.09
2024-11-02 22:36:53.579,39370.807,0.044,0.788,-0.614,0.026,0.094,0.014,-0.098,-0.124,-0.042,0.072,-0.908,1.089
2024-11-02 22:36:53.589,39370.817,0.043,0.789,-0.613,0.008,0.098,0.028,-0.005,-0.147,-0.041,0.07,-0.909,1.089
2024-11-02 22:36:53.599,39370.827,0.042,0.788,-0.614,0.015,0.088,0.038,0.148,-0.169,-0.069,0.068,-0.908,1.088
2024-11-02 22:36:53.609,39370.837,0.04,0.787,-0.615,0.015,0.064,0.035,0.208,-0.17,-0.111,0.065,-0.906,1.086
2024-11-02 22:36:53.619,39370.847,0.038,0.786,-0.617,0.02,0.021,0.028,0.154,-0.165,-0.139,0.061,-0.905,1.084
2024-11-02 22:36:53.629,39370.857,0.036,0.786,-0.618,0.014,0.018,0.016,0.048,-0.166,-0.135,0.058,-0.904,1.081
2024-11-02 22:36:53.639,39370.867,0.034,0.786,-0.618,0.004,-0.016,-0.019,-0.088,-0.137,-0.125,0.054,-0.904,1.079
2024-11-02 22:36:53.650,39370.877,0.032,0.787,-0.617,-0.003,-0.04,-0.04,-0.217,-0.096,-0.119,0.052,-0.905,1.077
2024-11-02 22:36:53.660,39370.887,0.031,0.788,-0.615,-0.007,-0.032,-0.036,-0.308,-0.081,-0.115,0.05,-0.908,1.076
2024-11-02 22:36:53.670,39370.897,0.029,0.79,-0.612,-0.009,-0.056,-0.025,-0.356,-0.073,-0.089,0.048,-0.911,1.074
2024-11-02 22:36:53.680,39370.907,0.028,0.792,-0.609,-0.004,-0.07,-0.021,-0.311,-0.044,-0.063,0.046,-0.915,1.073
2024-11-02 22:36:53.690,39370.917,0.028,0.794,-0.607,-0.003,-0.022,-0.008,-0.236,-0.01,-0.042,0.046,-0.918,1.073
2024-11-02 22:36:53.700,39370.927,0.027,0.795,-0.606,-0.01,0.024,0.012,-0.154,0.001,-0.015,0.045,-0.919,1.072
2024-11-02 22:36:53.710,39370.937,0.027,0.796,-0.605,-0.012,0.029,0.022,-0.076,-0.009,0.006,0.045,-0.921,1.072
2024-11-02 22:36:53.720,39370.947,0.027,0.796,-0.604,-0.004,0.007,0.021,-0.028,-0.017,0.016,0.045,-0.921,1.073
2024-11-02 22:36:53.730,39370.957,0.028,0.796,-0.604,0.003,0.0,0.016,0.013,-0.015,0.028,0.046,-0.921,1.073
2024-11-02 22:36:53.740,39370.967,0.028,0.796,-0.605,0.003,0.009,0.013,0.067,-0.0,0.025,0.046,-0.92,1.074
2024-11-02 22:36:53.750,39370.977,0.028,0.795,-0.606,-0.0,0.018,0.015,0.067,0.01,0.019,0.046,-0.919,1.074
2024-11-02 22:36:53.759,39370.987,0.028,0.795,-0.606,-0.0,0.019,0.015,0.013,0.003,0.014,0.046,-0.919,1.074
2024-11-02 22:36:53.770,39370.997,0.028,0.795,-0.606,-0.0,0.003,0.004,-0.049,-0.017,0.007,0.046,-0.919,1.074
2024-11-02 22:36:53.780,39371.007,0.028,0.795,-0.606,0.003,-0.035,-0.01,-0.07,-0.014,-0.001,0.046,-0.92,1.074
2024-11-02 22:36:53.790,39371.017,0.028,0.796,-0.605,0.007,-0.045,-0.013,-0.076,0.015,-0.007,0.046,-0.92,1.074
2024-11-02 22:36:53.799,39371.027,0.028,0.796,-0.604,-0.0,-0.01,-0.003,-0.053,0.024,-0.008,0.046,-0.921,1.074
2024-11-02 22:36:53.809,39371.037,0.028,0.797,-0.604,-0.005,0.012,0.002,-0.023,0.014,-0.012,0.046,-0.922,1.074
2024-11-02 22:36:53.819,39371.047,0.028,0.797,-0.604,-0.0,0.002,0.004,0.032,0.011,-0.014,0.046,-0.922,1.074
2024-11-02 22:36:53.842,39371.057,0.028,0.796,-0.604,0.006,0.004,0.007,0.072,-0.002,-0.02,0.046,-0.921,1.073
2024-11-02 22:36:53.848,39371.067,0.028,0.796,-0.605,0.005,0.012,0.012,0.095,-0.014,-0.017,0.046,-0.921,1.073
2024-11-02 22:36:53.853,39371.077,0.027,0.796,-0.605,0.005,0.016,0.009,0.12,-0.014,-0.016,0.045,-0.92,1.073
2024-11-02 22:36:53.859,39371.087,0.027,0.795,-0.607,0.005,0.016,0.008,0.116,-0.023,-0.023,0.045,-0.918,1.072
2024-11-02 22:36:53.869,39371.097,0.027,0.794,-0.608,0.002,0.005,0.01,0.1,-0.039,-0.029,0.044,-0.917,1.072
2024-11-02 22:36:53.880,39371.107,0.026,0.793,-0.609,0.005,-0.004,0.0,0.097,-0.065,-0.03,0.043,-0.916,1.071
2024-11-02 22:36:53.889,39371.117,0.026,0.793,-0.609,0.007,-0.003,-0.0,0.11,-0.087,-0.039,0.042,-0.915,1.071
2024-11-02 22:36:53.899,39371.127,0.025,0.792,-0.61,0.006,-0.009,0.004,0.156,-0.105,-0.042,0.041,-0.914,1.07
2024-11-02 22:36:53.909,39371.137,0.024,0.791,-0.612,0.01,-0.001,0.005,0.213,-0.095,-0.053,0.039,-0.912,1.069
2024-11-02 22:36:53.919,39371.147,0.023,0.79,-0.613,0.009,0.031,0.017,0.23,-0.042,-0.053,0.038,-0.91,1.068
2024-11-02 22:36:53.930,39371.157,0.023,0.789,-0.614,-0.0,0.042,0.017,0.159,0.0,-0.049,0.037,-0.909,1.068
2024-11-02 22:36:53.939,39371.166,0.022,0.788,-0.615,-0.015,0.035,-0.01,0.173,0.018,-0.061,0.036,-0.907,1.067
2024-11-02 22:36:53.949,39371.176,0.022,0.787,-0.617,-0.012,-0.006,-0.009,0.142,0.034,-0.07,0.036,-0.906,1.066
2024-11-02 22:36:53.959,39371.186,0.022,0.786,-0.617,-0.001,-0.051,0.003,0.123,0.046,-0.063,0.036,-0.905,1.065
2024-11-02 22:36:53.969,39371.196,0.022,0.785,-0.618,-0.003,-0.004,-0.004,0.15,0.036,-0.06,0.035,-0.903,1.064
2024-11-02 22:36:53.979,39371.206,0.022,0.785,-0.62,-0.003,0.013,0.002,0.167,0.017,-0.056,0.035,-0.902,1.063
2024-11-02 22:36:53.989,39371.216,0.021,0.783,-0.621,-0.0,-0.003,0.005,0.198,-0.005,-0.057,0.034,-0.9,1.062
2024-11-02 22:36:53.999,39371.226,0.021,0.782,-0.622,0.007,0.01,0.008,0.232,-0.021,-0.049,0.034,-0.898,1.061
2024-11-02 22:36:54.009,39371.236,0.02,0.781,-0.624,0.009,0.013,0.011,0.239,-0.023,-0.049,0.033,-0.897,1.06
2024-11-02 22:36:54.019,39371.246,0.02,0.78,-0.626,0.007,0.009,0.012,0.249,-0.001,-0.044,0.032,-0.894,1.059
2024-11-02 22:36:54.029,39371.256,0.02,0.778,-0.628,0.003,0.001,0.013,0.241,0.041,-0.049,0.031,-0.892,1.058
2024-11-02 22:36:54.039,39371.266,0.02,0.777,-0.629,-0.002,-0.01,0.014,0.19,0.081,-0.048,0.031,-0.89,1.057
2024-11-02 22:36:54.049,39371.276,0.02,0.776,-0.631,-0.011,-0.014,0.005,0.14,0.097,-0.048,0.031,-0.888,1.057
2024-11-02 22:36:54.059,39371.286,0.02,0.775,-0.631,-0.014,-0.038,-0.003,0.137,0.096,-0.036,0.032,-0.887,1.056
2024-11-02 22:36:54.069,39371.296,0.02,0.775,-0.632,-0.006,-0.048,-0.003,0.033,0.101,-0.041,0.032,-0.886,1.055
2024-11-02 22:36:54.079,39371.306,0.021,0.775,-0.632,-0.003,-0.029,-0.009,-0.066,0.102,-0.031,0.033,-0.886,1.055
2024-11-02 22:36:54.089,39371.316,0.021,0.775,-0.631,-0.01,-0.025,-0.021,-0.024,0.029,0.02,0.033,-0.887,1.055
2024-11-02 22:36:54.099,39371.326,0.021,0.775,-0.631,-0.002,-0.042,-0.018,0.057,0.031,-0.045,0.034,-0.887,1.055
2024-11-02 22:36:54.109,39371.336,0.021,0.775,-0.631,0.021,0.003,0.008,0.013,0.028,-0.047,0.033,-0.887,1.054
2024-11-02 22:36:54.119,39371.346,0.021,0.775,-0.632,0.014,0.048,0.014,0.083,0.029,-0.026,0.033,-0.887,1.053
2024-11-02 22:36:54.129,39371.356,0.021,0.774,-0.632,-0.002,0.001,0.006,0.112,0.02,-0.038,0.033,-0.886,1.053
2024-11-02 22:36:54.139,39371.366,0.021,0.774,-0.633,0.006,-0.035,0.013,0.121,0.035,-0.038,0.033,-0.884,1.052
2024-11-02 22:36:54.149,39371.376,0.021,0.772,-0.635,0.007,0.022,0.011,0.168,0.053,-0.029,0.033,-0.883,1.051
2024-11-02 22:36:54.159,39371.386,0.021,0.771,-0.636,-0.004,0.028,0.013,0.137,0.047,-0.016,0.033,-0.881,1.051
2024-11-02 22:36:54.169,39371.396,0.021,0.771,-0.637,-0.011,0.015,0.004,0.095,0.09,0.012,0.033,-0.88,1.051
2024-11-02 22:36:54.179,39371.406,0.023,0.77,-0.638,-0.001,0.008,-0.007,0.026,0.144,0.103,0.035,-0.879,1.052
2024-11-02 22:36:54.189,39371.416,0.023,0.77,-0.638,0.014,-0.011,-0.008,-0.029,0.082,-0.056,0.037,-0.879,1.052
2024-11-02 22:36:54.199,39371.426,0.024,0.771,-0.637,0.02,-0.034,-0.009,-0.128,0.109,0.081,0.038,-0.88,1.052
2024-11-02 22:36:54.209,39371.436,0.026,0.771,-0.636,-0.018,-0.048,-0.023,-0.083,0.087,0.136,0.041,-0.881,1.055
2024-11-02 22:36:54.219,39371.446,0.027,0.772,-0.635,0.027,-0.023,-0.004,-0.029,0.066,0.031,0.042,-0.882,1.056
2024-11-02 22:36:54.229,39371.456,0.027,0.772,-0.635,0.062,0.028,0.035,0.067,0.044,-0.025,0.043,-0.882,1.056
2024-11-02 22:36:54.239,39371.466,0.027,0.771,-0.636,0.009,0.037,0.027,0.066,0.049,-0.034,0.043,-0.881,1.055
2024-11-02 22:36:54.249,39371.476,0.027,0.771,-0.636,-0.025,-0.021,-0.0,-0.035,0.026,-0.002,0.043,-0.881,1.055
2024-11-02 22:36:54.259,39371.486,0.027,0.772,-0.636,-0.03,-0.035,-0.026,-0.035,0.028,0.003,0.043,-0.881,1.055
2024-11-02 22:36:54.269,39371.496,0.028,0.772,-0.635,-0.021,-0.041,-0.021,-0.057,0.05,0.017,0.044,-0.882,1.055
2024-11-02 22:36:54.279,39371.506,0.028,0.772,-0.635,-0.014,-0.035,-0.011,-0.097,0.061,0.026,0.045,-0.882,1.055
2024-11-02 22:36:54.289,39371.516,0.029,0.773,-0.634,-0.015,0.009,-0.018,-0.099,0.038,0.038,0.045,-0.883,1.056
2024-11-02 22:36:54.299,39371.526,0.029,0.773,-0.634,-0.016,-0.009,-0.018,-0.068,0.061,0.025,0.047,-0.884,1.057
2024-11-02 22:36:54.309,39371.536,0.03,0.774,-0.633,-0.001,-0.038,-0.001,-0.076,0.056,0.016,0.048,-0.885,1.057
2024-11-02 22:36:54.319,39371.546,0.031,0.774,-0.632,0.008,0.007,0.007,-0.042,0.056,-0.014,0.049,-0.886,1.057
2024-11-02 22:36:54.329,39371.556,0.031,0.774,-0.632,-0.007,0.008,0.016,-0.029,0.045,-0.009,0.049,-0.886,1.057
2024-11-02 22:36:54.339,39371.566,0.031,0.775,-0.632,-0.014,-0.04,0.015,-0.066,0.026,-0.002,0.049,-0.886,1.057
2024-11-02 22:36:54.349,39371.576,0.031,0.775,-0.632,-0.001,-0.003,0.002,-0.048,0.021,0.019,0.049,-0.886,1.057
2024-11-02 22:36:54.359,39371.586,0.031,0.775,-0.631,-0.006,0.008,-0.002,-0.094,-0.011,0.01,0.049,-0.887,1.057
2024-11-02 22:36:54.369,39371.596,0.031,0.775,-0.631,0.003,-0.018,-0.008,-0.026,-0.024,0.028,0.049,-0.887,1.057
2024-11-02 22:36:54.379,39371.606,0.031,0.775,-0.631,0.013,0.009,-0.01,0.023,-0.014,0.033,0.049,-0.887,1.057
2024-11-02 22:36:54.389,39371.616,0.031,0.775,-0.631,0.026,-0.005,-0.013,-0.01,0.007,0.022,0.049,-0.887,1.058
2024-11-02 22:36:54.399,39371.626,0.031,0.775,-0.631,0.03,0.006,-0.014,-0.071,0.023,0.026,0.049,-0.887,1.058
2024-11-02 22:36:54.409,39371.636,0.031,0.776,-0.63,0.004,-0.006,-0.005,-0.085,0.01,0.003,0.05,-0.888,1.059
2024-11-02 22:36:54.418,39371.646,0.031,0.776,-0.629,-0.01,-0.036,0.003,-0.1,0.022,0.006,0.05,-0.889,1.059
2024-11-02 22:36:54.429,39371.656,0.032,0.777,-0.629,-0.005,-0.026,0.012,-0.084,0.024,0.022,0.05,-0.89,1.059
2024-11-02 22:36:54.438,39371.666,0.032,0.778,-0.628,-0.006,0.005,0.006,-0.073,0.008,0.02,0.051,-0.891,1.059
2024-11-02 22:36:54.448,39371.676,0.032,0.778,-0.628,-0.02,0.006,0.004,-0.048,-0.007,0.036,0.051,-0.891,1.06
2024-11-02 22:36:54.458,39371.686,0.032,0.778,-0.628,-0.019,-0.012,0.01,-0.008,-0.007,0.041,0.052,-0.891,1.06
2024-11-02 22:36:54.469,39371.696,0.033,0.778,-0.628,0.008,-0.012,0.003,-0.023,-0.021,0.061,0.053,-0.891,1.062
2024-11-02 22:36:54.478,39371.706,0.034,0.778,-0.628,0.007,0.032,-0.014,0.081,0.007,0.056,0.054,-0.891,1.063
2024-11-02 22:36:54.489,39371.716,0.034,0.777,-0.628,-0.019,0.029,-0.006,-0.044,0.015,0.032,0.054,-0.891,1.064
2024-11-02 22:36:54.498,39371.726,0.034,0.778,-0.628,-0.008,-0.042,0.016,-0.059,0.018,0.032,0.055,-0.891,1.064
2024-11-02 22:36:54.508,39371.736,0.035,0.778,-0.628,0.015,-0.024,0.024,-0.041,0.027,0.037,0.055,-0.891,1.064
2024-11-02 22:36:54.528,39371.746,0.035,0.778,-0.627,-0.006,-0.003,0.002,-0.07,0.011,0.048,0.056,-0.892,1.065
2024-11-02 22:36:54.533,39371.756,0.035,0.778,-0.627,-0.013,-0.005,-0.007,-0.014,0.006,0.025,0.056,-0.892,1.065
2024-11-02 22:36:54.538,39371.765,0.035,0.779,-0.627,0.001,0.005,-0.004,-0.036,0.006,0.017,0.056,-0.892,1.066
2024-11-02 22:36:54.547,39371.775,0.035,0.779,-0.626,0.004,-0.018,0.005,-0.052,-0.011,0.03,0.056,-0.893,1.066
2024-11-02 22:36:54.557,39371.785,0.036,0.779,-0.626,0.012,-0.01,0.01,-0.018,-0.004,0.051,0.057,-0.893,1.067
2024-11-02 22:36:54.567,39371.795,0.036,0.779,-0.626,0.003,-0.007,0.006,0.003,-0.006,0.059,0.057,-0.893,1.067
2024-11-02 22:36:54.577,39371.805,0.036,0.779,-0.626,-0.003,-0.019,0.014,0.001,-0.009,0.069,0.058,-0.893,1.068
2024-11-02 22:36:54.587,39371.815,0.037,0.779,-0.626,0.004,0.012,0.008,0.017,-0.002,0.095,0.059,-0.893,1.07
2024-11-02 22:36:54.597,39371.825,0.038,0.779,-0.626,-0.004,0.035,-0.002,0.021,0.006,0.085,0.06,-0.893,1.071
2024-11-02 22:36:54.607,39371.835,0.038,0.779,-0.626,-0.012,0.029,0.001,0.026,-0.016,0.126,0.061,-0.892,1.073
2024-11-02 22:36:54.618,39371.845,0.039,0.778,-0.627,-0.005,-0.007,0.004,0.066,0.012,0.114,0.062,-0.892,1.074
2024-11-02 22:36:54.628,39371.855,0.04,0.778,-0.627,0.008,0.001,0.003,0.024,0.014,0.083,0.064,-0.891,1.076
2024-11-02 22:36:54.638,39371.865,0.041,0.778,-0.627,-0.012,-0.002,0.01,0.039,-0.001,0.089,0.065,-0.891,1.078
2024-11-02 22:36:54.648,39371.875,0.041,0.778,-0.627,-0.002,-0.028,-0.005,-0.052,0.018,0.022,0.066,-0.891,1.078
2024-11-02 22:36:54.658,39371.885,0.042,0.778,-0.627,0.011,-0.01,-0.011,-0.065,0.015,0.03,0.066,-0.892,1.079
2024-11-02 22:36:54.668,39371.895,0.042,0.779,-0.626,-0.009,-0.017,-0.018,-0.082,-0.006,0.007,0.067,-0.892,1.079
2024-11-02 22:36:54.678,39371.905,0.041,0.779,-0.625,0.01,-0.037,-0.004,-0.066,-0.079,0.03,0.066,-0.893,1.079
2024-11-02 22:36:54.687,39371.915,0.041,0.779,-0.626,0.016,-0.005,0.001,0.147,-0.074,0.03,0.066,-0.893,1.08
