Date,TimeStamp,GravityX,GravityY,GravityZ,UserAccelerationX,UserAccelerationY,UserAccelerationZ,RotationRateX,RotationRateY,RotationRateZ,AttitudeRoll,AttitudePitch,AttitudeYaw
2024-10-23 22:22:59.010,20902.533,0.568,0.054,-0.821,-0.001,0.002,0.002,0.02,0.004,-0.0,0.605,-0.054,1.308
2024-10-23 22:22:59.022,20902.543,0.568,0.054,-0.821,0.004,-0.008,0.005,0.021,0.014,-0.0,0.606,-0.054,1.308
2024-10-23 22:22:59.025,20902.552,0.568,0.054,-0.821,-0.006,-0.001,0.007,0.011,0.005,-0.013,0.606,-0.054,1.308
2024-10-23 22:22:59.027,20902.562,0.569,0.054,-0.821,-0.009,0.001,0.007,0.001,0.003,-0.009,0.606,-0.054,1.308
2024-10-23 22:22:59.034,20902.572,0.569,0.054,-0.821,-0.002,-0.005,0.007,-0.001,0.01,-0.001,0.606,-0.054,1.308
2024-10-23 22:22:59.045,20902.582,0.569,0.054,-0.821,-0.003,-0.007,0.005,-0.002,0.007,-0.012,0.606,-0.054,1.308
2024-10-23 22:22:59.055,20902.592,0.569,0.054,-0.821,-0.008,-0.001,0.003,-0.007,0.003,-0.001,0.606,-0.054,1.308
2024-10-23 22:22:59.065,20902.602,0.569,0.054,-0.821,-0.007,0.004,0.002,0.004,0.014,0.005,0.606,-0.054,1.308
2024-10-23 22:22:59.075,20902.612,0.569,0.054,-0.821,-0.006,0.005,0.002,0.006,0.019,0.01,0.606,-0.054,1.308
2024-10-23 22:22:59.085,20902.622,0.569,0.054,-0.821,-0.011,0.008,0.004,-0.002,0.012,0.012,0.606,-0.054,1.308
2024-10-23 22:22:59.096,20902.632,0.569,0.054,-0.82,-0.008,0.006,0.008,-0.008,0.011,0.016,0.606,-0.054,1.308
2024-10-23 22:22:59.105,20902.642,0.569,0.054,-0.82,-0.004,0.0,0.008,-0.004,0.014,0.014,0.607,-0.054,1.308
2024-10-23 22:22:59.115,20902.652,0.569,0.054,-0.82,-0.004,-0.0,0.009,-0.008,0.005,0.012,0.607,-0.054,1.308
2024-10-23 22:22:59.126,20902.662,0.569,0.054,-0.82,-0.004,-0.002,0.009,-0.004,0.003,0.007,0.607,-0.054,1.309
2024-10-23 22:22:59.135,20902.672,0.569,0.054,-0.82,0.001,-0.003,0.012,0.005,0.001,0.015,0.607,-0.054,1.309
2024-10-23 22:22:59.145,20902.682,0.569,0.054,-0.82,0.0,-0.004,0.013,0.01,0.003,0.012,0.607,-0.054,1.309
2024-10-23 22:22:59.155,20902.692,0.569,0.054,-0.82,-0.002,-0.001,0.015,0.009,-0.007,0.015,0.607,-0.054,1.309
2024-10-23 22:22:59.165,20902.702,0.569,0.054,-0.82,-0.007,0.001,0.016,0.003,-0.014,0.005,0.607,-0.054,1.309
2024-10-23 22:22:59.175,20902.712,0.569,0.054,-0.821,-0.005,-0.001,0.014,0.004,-0.019,-0.008,0.606,-0.054,1.309
2024-10-23 22:22:59.185,20902.722,0.569,0.054,-0.821,-0.0,0.001,0.013,0.009,-0.014,-0.004,0.606,-0.054,1.309
2024-10-23 22:22:59.195,20902.732,0.569,0.053,-0.821,-0.004,0.002,0.011,0.017,-0.02,0.002,0.606,-0.053,1.309
2024-10-23 22:22:59.204,20902.742,0.569,0.053,-0.821,-0.007,0.005,0.01,0.017,-0.021,0.014,0.606,-0.053,1.309
2024-10-23 22:22:59.215,20902.752,0.569,0.053,-0.821,-0.009,0.007,0.008,0.016,-0.013,0.015,0.606,-0.053,1.309
2024-10-23 22:22:59.225,20902.762,0.568,0.053,-0.821,-0.005,0.007,0.009,0.005,-0.027,0.022,0.606,-0.053,1.309
2024-10-23 22:22:59.234,20902.772,0.568,0.053,-0.821,-0.006,0.004,0.013,-0.015,-0.043,0.01,0.605,-0.053,1.309
2024-10-23 22:22:59.245,20902.782,0.568,0.053,-0.821,-0.003,-0.004,0.017,-0.016,-0.052,0.005,0.605,-0.053,1.309
2024-10-23 22:22:59.254,20902.792,0.567,0.053,-0.822,0.002,-0.007,0.017,-0.002,-0.048,0.011,0.604,-0.053,1.309
2024-10-23 22:22:59.265,20902.802,0.567,0.053,-0.822,0.0,-0.003,0.014,0.023,-0.035,0.018,0.604,-0.053,1.309
2024-10-23 22:22:59.275,20902.812,0.567,0.052,-0.822,-0.004,0.007,0.012,0.034,-0.025,0.039,0.604,-0.052,1.309
2024-10-23 22:22:59.284,20902.822,0.567,0.052,-0.822,-0.011,0.015,0.008,0.03,-0.036,0.032,0.603,-0.052,1.309
2024-10-23 22:22:59.295,20902.832,0.567,0.051,-0.822,-0.01,0.017,0.007,0.032,-0.026,0.041,0.603,-0.052,1.309
2024-10-23 22:22:59.304,20902.842,0.566,0.051,-0.823,-0.004,0.012,0.009,0.02,-0.029,0.04,0.603,-0.051,1.31
2024-10-23 22:22:59.314,20902.852,0.566,0.051,-0.823,-0.007,0.01,0.007,0.005,-0.041,0.042,0.603,-0.051,1.31
2024-10-23 22:22:59.327,20902.862,0.566,0.051,-0.823,-0.006,0.006,0.009,-0.007,-0.045,0.037,0.602,-0.051,1.31
2024-10-23 22:22:59.334,20902.872,0.565,0.05,-0.823,0.002,0.001,0.009,-0.008,-0.04,0.039,0.602,-0.05,1.311
2024-10-23 22:22:59.345,20902.882,0.565,0.05,-0.823,-0.001,0.0,0.006,-0.008,-0.041,0.033,0.602,-0.05,1.311
2024-10-23 22:22:59.355,20902.892,0.565,0.05,-0.824,-0.004,-0.001,0.007,-0.007,-0.058,0.035,0.601,-0.05,1.311
2024-10-23 22:22:59.365,20902.902,0.564,0.05,-0.824,-0.003,-0.006,0.009,-0.003,-0.06,0.031,0.601,-0.05,1.312
2024-10-23 22:22:59.380,20902.912,0.564,0.05,-0.824,-0.002,-0.005,0.011,-0.005,-0.066,0.031,0.6,-0.05,1.312
2024-10-23 22:22:59.389,20902.922,0.563,0.05,-0.825,-0.003,-0.001,0.012,-0.014,-0.074,0.03,0.599,-0.05,1.312
2024-10-23 22:22:59.394,20902.932,0.563,0.05,-0.825,-0.006,-0.001,0.016,-0.018,-0.07,0.03,0.599,-0.05,1.312
2024-10-23 22:22:59.404,20902.942,0.562,0.05,-0.825,-0.003,-0.002,0.015,-0.009,-0.067,0.034,0.598,-0.05,1.313
2024-10-23 22:22:59.414,20902.952,0.562,0.05,-0.826,-0.006,0.001,0.01,-0.009,-0.063,0.03,0.597,-0.05,1.313
2024-10-23 22:22:59.424,20902.962,0.561,0.05,-0.826,-0.008,0.001,0.007,0.006,-0.057,0.029,0.597,-0.05,1.313
2024-10-23 22:22:59.434,20902.972,0.561,0.05,-0.826,-0.003,-0.0,0.007,0.015,-0.048,0.029,0.596,-0.05,1.314
2024-10-23 22:22:59.444,20902.982,0.561,0.049,-0.827,-0.005,-0.001,0.005,0.022,-0.042,0.031,0.596,-0.049,1.314
2024-10-23 22:22:59.454,20902.992,0.56,0.049,-0.827,-0.005,-0.004,0.006,0.025,-0.046,0.026,0.596,-0.049,1.314
2024-10-23 22:22:59.464,20903.002,0.56,0.049,-0.827,-0.005,-0.006,0.009,0.013,-0.047,0.016,0.595,-0.049,1.314
2024-10-23 22:22:59.474,20903.012,0.56,0.048,-0.827,-0.002,-0.006,0.01,0.009,-0.052,0.004,0.595,-0.048,1.314
2024-10-23 22:22:59.484,20903.022,0.559,0.048,-0.828,0.0,-0.008,0.009,0.005,-0.046,0.005,0.594,-0.048,1.314
2024-10-23 22:22:59.494,20903.032,0.559,0.048,-0.828,-0.0,-0.014,0.008,0.011,-0.041,-0.007,0.594,-0.048,1.314
2024-10-23 22:22:59.504,20903.042,0.559,0.048,-0.828,-0.0,-0.009,0.009,-0.001,-0.044,-0.014,0.593,-0.048,1.314
2024-10-23 22:22:59.514,20903.052,0.558,0.048,-0.828,-0.003,-0.008,0.01,0.0,-0.053,-0.017,0.593,-0.048,1.314
2024-10-23 22:22:59.531,20903.062,0.558,0.048,-0.829,-0.003,-0.011,0.01,0.011,-0.055,-0.003,0.592,-0.048,1.314
2024-10-23 22:22:59.537,20903.072,0.557,0.048,-0.829,-0.002,-0.008,0.006,0.02,-0.044,0.006,0.592,-0.048,1.313
2024-10-23 22:22:59.545,20903.082,0.557,0.048,-0.829,-0.006,0.003,0.004,0.018,-0.047,0.007,0.591,-0.048,1.313
2024-10-23 22:22:59.554,20903.092,0.557,0.048,-0.829,-0.014,0.005,0.002,0.019,-0.041,0.012,0.591,-0.048,1.313
2024-10-23 22:22:59.564,20903.102,0.556,0.048,-0.83,-0.013,0.003,0.001,0.018,-0.039,0.013,0.591,-0.048,1.313
2024-10-23 22:22:59.574,20903.112,0.556,0.047,-0.83,-0.008,0.004,0.003,0.025,-0.039,0.005,0.59,-0.047,1.313
2024-10-23 22:22:59.584,20903.122,0.556,0.047,-0.83,-0.008,0.004,0.002,0.019,-0.04,-0.001,0.59,-0.047,1.313
2024-10-23 22:22:59.594,20903.132,0.555,0.047,-0.83,-0.01,0.003,0.001,0.018,-0.04,0.002,0.59,-0.047,1.313
2024-10-23 22:22:59.604,20903.141,0.555,0.047,-0.83,-0.007,-0.001,0.005,0.029,-0.036,-0.005,0.589,-0.047,1.313
2024-10-23 22:22:59.614,20903.151,0.555,0.046,-0.831,-0.007,-0.001,0.006,0.021,-0.038,-0.002,0.589,-0.046,1.313
2024-10-23 22:22:59.624,20903.161,0.555,0.046,-0.831,-0.009,0.001,0.005,0.011,-0.045,-0.003,0.589,-0.046,1.313
2024-10-23 22:22:59.634,20903.171,0.554,0.046,-0.831,-0.008,-0.003,0.007,0.018,-0.047,-0.01,0.588,-0.046,1.313
2024-10-23 22:22:59.644,20903.181,0.554,0.046,-0.831,-0.005,-0.006,0.008,0.021,-0.042,0.001,0.587,-0.046,1.312
2024-10-23 22:22:59.654,20903.191,0.553,0.046,-0.832,-0.003,-0.004,0.006,0.019,-0.034,0.003,0.587,-0.046,1.312
2024-10-23 22:22:59.664,20903.201,0.553,0.046,-0.832,-0.009,0.003,0.003,0.01,-0.035,0.008,0.587,-0.046,1.312
2024-10-23 22:22:59.674,20903.211,0.553,0.046,-0.832,-0.009,0.003,0.001,0.002,-0.047,0.007,0.586,-0.046,1.312
2024-10-23 22:22:59.684,20903.221,0.552,0.046,-0.832,-0.006,-0.001,0.003,0.003,-0.045,0.005,0.586,-0.046,1.312
2024-10-23 22:22:59.694,20903.231,0.552,0.046,-0.833,-0.004,-0.003,0.004,0.013,-0.042,0.014,0.585,-0.046,1.312
2024-10-23 22:22:59.704,20903.241,0.552,0.045,-0.833,-0.005,0.001,0.002,0.021,-0.027,0.012,0.585,-0.046,1.312
2024-10-23 22:22:59.714,20903.251,0.551,0.045,-0.833,-0.011,0.004,-0.0,0.025,-0.027,0.016,0.585,-0.045,1.312
2024-10-23 22:22:59.724,20903.261,0.551,0.045,-0.833,-0.014,0.007,0.001,0.027,-0.02,0.014,0.585,-0.045,1.312
2024-10-23 22:22:59.734,20903.271,0.551,0.045,-0.833,-0.011,0.004,0.003,0.035,-0.018,0.006,0.584,-0.045,1.312
2024-10-23 22:22:59.744,20903.281,0.551,0.044,-0.833,-0.009,0.002,0.003,0.027,-0.017,0.005,0.584,-0.044,1.312
2024-10-23 22:22:59.754,20903.291,0.551,0.044,-0.833,-0.009,0.003,0.003,0.018,-0.022,0.009,0.584,-0.044,1.312
2024-10-23 22:22:59.764,20903.301,0.551,0.044,-0.834,-0.009,-0.001,0.004,0.011,-0.029,0.003,0.584,-0.044,1.312
2024-10-23 22:22:59.774,20903.311,0.55,0.044,-0.834,-0.008,-0.006,0.005,0.014,-0.029,-0.002,0.583,-0.044,1.312
2024-10-23 22:22:59.784,20903.321,0.55,0.044,-0.834,-0.006,-0.003,0.003,0.011,-0.024,0.001,0.583,-0.044,1.312
2024-10-23 22:22:59.794,20903.331,0.55,0.044,-0.834,-0.007,0.003,0.002,0.005,-0.023,0.004,0.583,-0.044,1.312
2024-10-23 22:22:59.804,20903.341,0.55,0.044,-0.834,-0.012,0.004,-0.001,0.006,-0.023,0.006,0.583,-0.044,1.312
2024-10-23 22:22:59.814,20903.351,0.549,0.044,-0.834,-0.009,0.001,0.002,0.003,-0.018,0.005,0.582,-0.044,1.312
2024-10-23 22:22:59.824,20903.361,0.549,0.044,-0.835,-0.008,0.004,0.004,0.002,-0.022,0.003,0.582,-0.044,1.312
2024-10-23 22:22:59.834,20903.371,0.549,0.044,-0.835,-0.009,0.005,0.004,0.011,-0.023,0.002,0.582,-0.044,1.312
2024-10-23 22:22:59.844,20903.381,0.549,0.043,-0.835,-0.01,0.005,0.004,0.025,-0.007,-0.0,0.582,-0.043,1.312
2024-10-23 22:22:59.854,20903.391,0.549,0.043,-0.835,-0.004,0.008,0.007,0.029,-0.006,0.008,0.582,-0.043,1.312
2024-10-23 22:22:59.864,20903.401,0.549,0.043,-0.835,-0.006,0.009,0.008,0.017,-0.016,0.01,0.582,-0.043,1.312
2024-10-23 22:22:59.873,20903.411,0.549,0.043,-0.835,-0.007,0.003,0.011,0.009,-0.021,0.014,0.581,-0.043,1.312
2024-10-23 22:22:59.883,20903.421,0.548,0.043,-0.835,0.0,0.0,0.015,0.005,-0.02,0.013,0.581,-0.043,1.312
2024-10-23 22:22:59.893,20903.431,0.548,0.043,-0.835,0.002,-0.003,0.014,0.002,-0.026,0.011,0.581,-0.043,1.312
2024-10-23 22:22:59.904,20903.441,0.548,0.043,-0.835,-0.001,-0.005,0.011,-0.016,-0.04,0.014,0.58,-0.043,1.312
2024-10-23 22:22:59.914,20903.451,0.548,0.043,-0.836,-0.0,-0.007,0.008,-0.042,-0.06,0.033,0.58,-0.043,1.312
2024-10-23 22:22:59.923,20903.461,0.547,0.043,-0.836,0.003,-0.006,0.008,-0.035,-0.051,0.02,0.579,-0.043,1.313
2024-10-23 22:22:59.934,20903.471,0.547,0.043,-0.836,-0.002,-0.005,0.006,-0.015,-0.046,0.017,0.579,-0.043,1.313
2024-10-23 22:22:59.943,20903.481,0.546,0.043,-0.836,-0.006,-0.003,0.007,-0.005,-0.028,0.023,0.579,-0.043,1.313
2024-10-23 22:22:59.954,20903.491,0.546,0.043,-0.837,-0.006,0.009,0.007,-0.01,-0.034,0.035,0.578,-0.043,1.314
2024-10-23 22:22:59.964,20903.501,0.546,0.043,-0.837,-0.012,0.009,0.006,-0.015,-0.038,0.021,0.578,-0.043,1.314
2024-10-23 22:22:59.974,20903.511,0.546,0.043,-0.837,-0.011,-0.001,0.006,-0.01,-0.031,0.018,0.578,-0.043,1.314
2024-10-23 22:22:59.984,20903.521,0.545,0.043,-0.837,-0.004,-0.0,0.007,-0.005,-0.025,0.014,0.578,-0.043,1.314
2024-10-23 22:22:59.994,20903.531,0.545,0.043,-0.837,-0.007,-0.0,0.006,-0.011,-0.029,0.013,0.577,-0.043,1.314
2024-10-23 22:23:00.004,20903.541,0.545,0.043,-0.837,-0.01,-0.007,0.007,-0.011,-0.034,0.004,0.577,-0.043,1.315
2024-10-23 22:23:00.013,20903.551,0.545,0.043,-0.837,-0.006,-0.007,0.007,-0.014,-0.03,0.008,0.577,-0.043,1.315
2024-10-23 22:23:00.023,20903.561,0.545,0.043,-0.838,-0.004,-0.006,0.007,-0.017,-0.024,0.018,0.577,-0.043,1.315
2024-10-23 22:23:00.034,20903.571,0.544,0.043,-0.838,-0.004,-0.004,0.007,-0.021,-0.025,0.018,0.576,-0.043,1.315
2024-10-23 22:23:00.043,20903.581,0.544,0.043,-0.838,-0.006,-0.003,0.007,-0.035,-0.026,0.017,0.576,-0.043,1.315
2024-10-23 22:23:00.053,20903.591,0.544,0.043,-0.838,-0.005,-0.007,0.007,-0.028,-0.027,0.005,0.576,-0.043,1.316
2024-10-23 22:23:00.063,20903.601,0.544,0.044,-0.838,-0.005,-0.012,0.007,-0.022,-0.034,-0.008,0.575,-0.044,1.316
2024-10-23 22:23:00.073,20903.611,0.543,0.044,-0.838,-0.006,-0.015,0.005,-0.007,-0.031,-0.016,0.575,-0.044,1.316
2024-10-23 22:23:00.083,20903.621,0.543,0.044,-0.838,-0.005,-0.012,0.003,0.003,-0.03,-0.022,0.575,-0.044,1.316
2024-10-23 22:23:00.093,20903.631,0.543,0.044,-0.839,-0.012,-0.011,0.002,0.012,-0.026,-0.025,0.575,-0.044,1.315
2024-10-23 22:23:00.103,20903.641,0.543,0.044,-0.839,-0.011,-0.006,0.003,0.004,-0.018,-0.025,0.574,-0.044,1.315
2024-10-23 22:23:00.113,20903.651,0.543,0.044,-0.839,-0.01,-0.004,0.005,0.006,-0.019,-0.027,0.574,-0.044,1.315
2024-10-23 22:23:00.123,20903.661,0.542,0.044,-0.839,-0.012,-0.004,0.004,0.009,-0.015,-0.035,0.574,-0.044,1.315
2024-10-23 22:23:00.133,20903.671,0.542,0.044,-0.839,-0.011,-0.004,0.006,-0.004,-0.014,-0.035,0.574,-0.044,1.314
2024-10-23 22:23:00.143,20903.681,0.542,0.044,-0.839,-0.008,-0.008,0.007,-0.024,-0.019,-0.037,0.574,-0.044,1.314
2024-10-23 22:23:00.153,20903.691,0.542,0.045,-0.839,-0.009,-0.019,0.008,-0.045,-0.027,-0.046,0.573,-0.045,1.314
2024-10-23 22:23:00.164,20903.701,0.542,0.045,-0.839,-0.006,-0.025,0.011,-0.06,-0.024,-0.046,0.573,-0.046,1.314
2024-10-23 22:23:00.173,20903.711,0.541,0.046,-0.839,-0.004,-0.028,0.012,-0.092,-0.025,-0.052,0.573,-0.046,1.314
2024-10-23 22:23:00.183,20903.721,0.541,0.048,-0.84,-0.004,-0.028,0.016,-0.13,-0.035,-0.064,0.573,-0.048,1.314
2024-10-23 22:23:00.193,20903.731,0.541,0.049,-0.84,-0.004,-0.03,0.019,-0.166,-0.042,-0.042,0.572,-0.049,1.314
2024-10-23 22:23:00.203,20903.74,0.54,0.051,-0.84,-0.001,-0.029,0.025,-0.219,-0.052,-0.059,0.572,-0.051,1.315
2024-10-23 22:23:00.213,20903.75,0.54,0.053,-0.84,0.001,-0.028,0.029,-0.272,-0.043,-0.048,0.571,-0.053,1.316
2024-10-23 22:23:00.223,20903.76,0.54,0.056,-0.84,0.002,-0.026,0.026,-0.333,-0.044,-0.026,0.571,-0.056,1.317
2024-10-23 22:23:00.233,20903.77,0.539,0.059,-0.84,-0.004,-0.029,0.02,-0.395,-0.067,-0.031,0.571,-0.059,1.319
2024-10-23 22:23:00.243,20903.78,0.538,0.062,-0.84,-0.003,-0.03,0.019,-0.419,-0.076,-0.048,0.57,-0.062,1.321
2024-10-23 22:23:00.253,20903.79,0.538,0.066,-0.84,0.007,-0.037,0.017,-0.423,-0.072,-0.038,0.569,-0.066,1.323
2024-10-23 22:23:00.263,20903.8,0.537,0.07,-0.841,0.011,-0.02,0.018,-0.424,-0.067,-0.027,0.569,-0.07,1.325
2024-10-23 22:23:00.273,20903.81,0.537,0.073,-0.841,0.002,-0.003,0.012,-0.443,-0.077,-0.025,0.568,-0.073,1.327
2024-10-23 22:23:00.284,20903.82,0.536,0.077,-0.841,-0.006,-0.005,0.01,-0.445,-0.1,-0.026,0.568,-0.077,1.329
2024-10-23 22:23:00.293,20903.83,0.535,0.08,-0.841,0.002,0.001,0.012,-0.416,-0.089,-0.018,0.567,-0.08,1.331
2024-10-23 22:23:00.302,20903.84,0.535,0.084,-0.841,0.005,0.015,0.009,-0.391,-0.072,-0.009,0.566,-0.084,1.333
2024-10-23 22:23:00.312,20903.85,0.534,0.087,-0.841,-0.006,0.029,0.007,-0.366,-0.066,0.005,0.566,-0.087,1.335
2024-10-23 22:23:00.323,20903.86,0.533,0.09,-0.841,-0.011,0.039,0.003,-0.338,-0.077,0.006,0.565,-0.09,1.337
2024-10-23 22:23:00.333,20903.87,0.533,0.093,-0.841,-0.006,0.04,0.002,-0.334,-0.065,0.015,0.565,-0.093,1.339
2024-10-23 22:23:00.343,20903.88,0.532,0.095,-0.841,0.001,0.043,0.005,-0.315,-0.052,0.023,0.564,-0.095,1.341
2024-10-23 22:23:00.353,20903.89,0.532,0.098,-0.841,-0.001,0.043,0.008,-0.294,-0.051,0.029,0.564,-0.098,1.343
2024-10-23 22:23:00.363,20903.9,0.531,0.1,-0.841,-0.005,0.039,0.014,-0.284,-0.065,0.027,0.563,-0.1,1.344
2024-10-23 22:23:00.373,20903.91,0.531,0.102,-0.841,-0.001,0.033,0.019,-0.281,-0.067,0.029,0.563,-0.102,1.346
2024-10-23 22:23:00.383,20903.92,0.53,0.104,-0.841,0.006,0.024,0.023,-0.28,-0.083,0.038,0.562,-0.105,1.348
2024-10-23 22:23:00.393,20903.93,0.53,0.107,-0.841,0.004,0.015,0.032,-0.291,-0.087,0.047,0.562,-0.107,1.35
2024-10-23 22:23:00.403,20903.94,0.529,0.109,-0.842,0.006,0.012,0.037,-0.31,-0.105,0.052,0.561,-0.109,1.352
2024-10-23 22:23:00.413,20903.95,0.528,0.111,-0.842,0.011,0.008,0.041,-0.334,-0.12,0.045,0.56,-0.112,1.354
2024-10-23 22:23:00.423,20903.96,0.527,0.114,-0.842,0.011,-0.003,0.042,-0.354,-0.13,0.052,0.559,-0.114,1.356
2024-10-23 22:23:00.433,20903.97,0.526,0.117,-0.842,0.011,-0.005,0.04,-0.442,-0.127,0.075,0.558,-0.117,1.359
2024-10-23 22:23:00.443,20903.98,0.525,0.121,-0.843,0.006,-0.016,0.039,-0.525,-0.159,0.085,0.557,-0.121,1.362
2024-10-23 22:23:00.453,20903.99,0.524,0.125,-0.843,0.003,-0.029,0.044,-0.617,-0.173,0.095,0.556,-0.125,1.366
2024-10-23 22:23:00.463,20904.0,0.522,0.13,-0.843,0.009,-0.038,0.045,-0.692,-0.195,0.108,0.555,-0.13,1.37
2024-10-23 22:23:00.473,20904.01,0.521,0.135,-0.843,0.017,-0.031,0.052,-0.766,-0.218,0.108,0.553,-0.136,1.375
2024-10-23 22:23:00.483,20904.02,0.519,0.142,-0.843,0.011,-0.039,0.052,-0.864,-0.216,0.121,0.552,-0.142,1.38
2024-10-23 22:23:00.493,20904.03,0.517,0.149,-0.843,0.008,-0.044,0.051,-1.009,-0.217,0.149,0.55,-0.149,1.386
2024-10-23 22:23:00.503,20904.04,0.516,0.157,-0.842,0.01,-0.047,0.059,-1.166,-0.247,0.163,0.549,-0.158,1.393
2024-10-23 22:23:00.513,20904.05,0.513,0.167,-0.842,0.005,-0.063,0.061,-1.279,-0.293,0.152,0.548,-0.167,1.401
2024-10-23 22:23:00.523,20904.06,0.511,0.177,-0.841,0.01,-0.072,0.065,-1.33,-0.306,0.145,0.546,-0.178,1.409
2024-10-23 22:23:00.533,20904.07,0.509,0.187,-0.84,0.019,-0.062,0.065,-1.366,-0.319,0.148,0.545,-0.189,1.418
2024-10-23 22:23:00.543,20904.08,0.506,0.198,-0.839,0.019,-0.048,0.069,-1.424,-0.342,0.155,0.543,-0.2,1.426
2024-10-23 22:23:00.553,20904.09,0.504,0.21,-0.838,0.017,-0.047,0.066,-1.489,-0.352,0.156,0.541,-0.211,1.435
2024-10-23 22:23:00.563,20904.1,0.501,0.222,-0.836,0.018,-0.052,0.061,-1.584,-0.327,0.182,0.54,-0.224,1.445
2024-10-23 22:23:00.572,20904.11,0.499,0.234,-0.834,0.011,-0.053,0.067,-1.715,-0.312,0.218,0.539,-0.237,1.455
2024-10-23 22:23:00.583,20904.12,0.497,0.248,-0.831,0.008,-0.05,0.078,-1.877,-0.316,0.229,0.539,-0.251,1.467
2024-10-23 22:23:00.593,20904.13,0.495,0.263,-0.828,0.008,-0.065,0.091,-2.005,-0.342,0.213,0.539,-0.266,1.479
2024-10-23 22:23:00.603,20904.14,0.493,0.279,-0.824,0.007,-0.086,0.09,-2.134,-0.301,0.223,0.539,-0.283,1.491
2024-10-23 22:23:00.612,20904.15,0.491,0.296,-0.819,0.017,-0.078,0.096,-2.346,-0.261,0.231,0.54,-0.301,1.505
2024-10-23 22:23:00.622,20904.16,0.49,0.315,-0.813,0.013,-0.074,0.099,-2.542,-0.238,0.247,0.542,-0.321,1.52
2024-10-23 22:23:00.632,20904.17,0.489,0.335,-0.805,0.0,-0.101,0.104,-2.737,-0.219,0.213,0.545,-0.342,1.537
2024-10-23 22:23:00.642,20904.18,0.488,0.357,-0.797,0.004,-0.127,0.104,-2.828,-0.208,0.181,0.549,-0.365,1.554
2024-10-23 22:23:00.653,20904.19,0.487,0.379,-0.787,0.011,-0.117,0.095,-2.911,-0.159,0.15,0.554,-0.388,1.571
2024-10-23 22:23:00.662,20904.2,0.486,0.401,-0.776,0.008,-0.11,0.084,-2.983,-0.115,0.127,0.56,-0.413,1.589
2024-10-23 22:23:00.673,20904.21,0.486,0.424,-0.764,-0.002,-0.112,0.08,-3.138,-0.107,0.1,0.566,-0.438,1.608
2024-10-23 22:23:00.682,20904.22,0.486,0.448,-0.751,-0.011,-0.116,0.075,-3.262,-0.033,0.065,0.574,-0.464,1.627
2024-10-23 22:23:00.692,20904.23,0.486,0.472,-0.736,-0.014,-0.107,0.072,-3.372,-0.005,0.034,0.584,-0.492,1.648
2024-10-23 22:23:00.702,20904.24,0.486,0.497,-0.719,-0.022,-0.093,0.064,-3.483,0.05,0.012,0.595,-0.52,1.669
2024-10-23 22:23:00.712,20904.25,0.487,0.522,-0.7,-0.031,-0.105,0.045,-3.656,0.101,-0.039,0.607,-0.549,1.692
2024-10-23 22:23:00.722,20904.26,0.487,0.548,-0.68,-0.032,-0.1,0.04,-3.779,0.105,-0.101,0.621,-0.58,1.716
2024-10-23 22:23:00.732,20904.27,0.487,0.575,-0.658,-0.034,-0.086,0.036,-3.973,0.091,-0.168,0.637,-0.612,1.742
2024-10-23 22:23:00.742,20904.28,0.486,0.602,-0.634,-0.029,-0.103,0.021,-4.116,0.064,-0.235,0.654,-0.646,1.77
2024-10-23 22:23:00.752,20904.29,0.485,0.629,-0.608,-0.022,-0.1,0.027,-4.189,0.023,-0.278,0.673,-0.68,1.799
2024-10-23 22:23:00.762,20904.3,0.483,0.655,-0.581,-0.018,-0.083,0.045,-4.204,-0.046,-0.305,0.693,-0.714,1.83
2024-10-23 22:23:00.772,20904.31,0.48,0.681,-0.553,-0.017,-0.069,0.048,-4.255,-0.033,-0.338,0.715,-0.749,1.863
2024-10-23 22:23:00.782,20904.32,0.478,0.705,-0.524,-0.012,-0.034,0.016,-4.26,-0.013,-0.363,0.74,-0.783,1.898
2024-10-23 22:23:00.792,20904.33,0.475,0.729,-0.493,-0.019,-0.012,-0.007,-4.297,-0.015,-0.414,0.767,-0.817,1.935
2024-10-23 22:23:00.802,20904.339,0.472,0.751,-0.461,-0.031,-0.029,-0.029,-4.314,-0.006,-0.465,0.797,-0.85,1.974
2024-10-23 22:23:00.811,20904.349,0.468,0.773,-0.429,-0.015,-0.023,-0.041,-4.307,-0.017,-0.503,0.829,-0.883,2.017
2024-10-23 22:23:00.821,20904.359,0.464,0.793,-0.395,0.001,0.015,-0.038,-4.297,-0.005,-0.561,0.865,-0.916,2.062
2024-10-23 22:23:00.832,20904.369,0.459,0.812,-0.361,-0.008,0.042,-0.046,-4.217,0.009,-0.573,0.905,-0.947,2.11
2024-10-23 22:23:00.841,20904.379,0.455,0.829,-0.327,-0.019,0.037,-0.031,-4.142,-0.002,-0.569,0.948,-0.977,2.161
2024-10-23 22:23:00.852,20904.389,0.45,0.844,-0.293,-0.016,0.017,-0.017,-4.023,0.004,-0.588,0.994,-1.004,2.216
2024-10-23 22:23:00.862,20904.399,0.445,0.857,-0.259,-0.013,0.024,-0.036,-3.8,0.014,-0.6,1.043,-1.03,2.272
2024-10-23 22:23:00.872,20904.409,0.44,0.869,-0.228,-0.02,0.041,-0.059,-3.524,0.037,-0.603,1.093,-1.053,2.329
2024-10-23 22:23:00.882,20904.419,0.435,0.879,-0.198,-0.023,0.056,-0.084,-3.306,0.074,-0.586,1.144,-1.073,2.385
2024-10-23 22:23:00.892,20904.429,0.43,0.887,-0.169,-0.016,0.092,-0.101,-3.18,0.112,-0.563,1.197,-1.091,2.444
2024-10-23 22:23:00.902,20904.439,0.425,0.894,-0.14,-0.014,0.112,-0.099,-3.092,0.095,-0.552,1.252,-1.107,2.504
2024-10-23 22:23:00.912,20904.449,0.42,0.9,-0.113,-0.018,0.078,-0.094,-2.979,0.075,-0.549,1.309,-1.121,2.566
2024-10-23 22:23:00.923,20904.459,0.415,0.906,-0.086,-0.017,0.031,-0.103,-2.81,0.048,-0.567,1.366,-1.133,2.629
2024-10-23 22:23:00.932,20904.469,0.41,0.91,-0.062,-0.018,0.027,-0.125,-2.571,0.059,-0.539,1.422,-1.143,2.69
2024-10-23 22:23:00.942,20904.479,0.405,0.913,-0.039,-0.023,0.06,-0.134,-2.337,0.059,-0.526,1.475,-1.151,2.747
2024-10-23 22:23:00.952,20904.489,0.401,0.916,-0.018,-0.017,0.078,-0.134,-2.204,0.058,-0.497,1.525,-1.158,2.802
2024-10-23 22:23:00.962,20904.499,0.396,0.918,0.002,-0.01,0.086,-0.128,-2.128,0.046,-0.469,1.575,-1.163,2.856
2024-10-23 22:23:00.972,20904.509,0.392,0.92,0.021,-0.015,0.084,-0.104,-2.033,0.017,-0.48,1.624,-1.167,2.909
2024-10-23 22:23:00.982,20904.519,0.387,0.921,0.039,-0.024,0.061,-0.084,-1.903,0.01,-0.487,1.672,-1.171,2.96
2024-10-23 22:23:00.992,20904.529,0.383,0.922,0.056,-0.026,0.05,-0.069,-1.717,-0.003,-0.485,1.716,-1.173,3.008
2024-10-23 22:23:01.002,20904.539,0.379,0.923,0.071,-0.026,0.071,-0.061,-1.618,-0.007,-0.452,1.757,-1.175,3.053
2024-10-23 22:23:01.012,20904.549,0.375,0.923,0.086,-0.02,0.102,-0.06,-1.568,-0.041,-0.428,1.796,-1.176,3.095
2024-10-23 22:23:01.022,20904.559,0.371,0.923,0.1,-0.016,0.111,-0.051,-1.584,-0.073,-0.409,1.834,-1.177,3.138
2024-10-23 22:23:01.031,20904.569,0.367,0.923,0.114,-0.014,0.089,-0.048,-1.509,-0.103,-0.395,1.872,-1.176,-3.104
2024-10-23 22:23:01.042,20904.579,0.364,0.923,0.127,-0.014,0.077,-0.05,-1.38,-0.139,-0.369,1.906,-1.175,-3.065
2024-10-23 22:23:01.052,20904.589,0.361,0.922,0.138,-0.008,0.086,-0.058,-1.184,-0.161,-0.38,1.937,-1.174,-3.031
2024-10-23 22:23:01.062,20904.599,0.357,0.922,0.148,0.003,0.102,-0.051,-0.97,-0.16,-0.365,1.962,-1.174,-3.001
2024-10-23 22:23:01.071,20904.609,0.354,0.922,0.155,-0.001,0.107,-0.031,-0.772,-0.18,-0.348,1.983,-1.174,-2.977
2024-10-23 22:23:01.082,20904.619,0.352,0.922,0.161,-0.012,0.095,-0.025,-0.636,-0.194,-0.332,2.0,-1.174,-2.957
2024-10-23 22:23:01.092,20904.629,0.349,0.922,0.166,-0.015,0.094,-0.02,-0.565,-0.217,-0.312,2.014,-1.174,-2.939
2024-10-23 22:23:01.102,20904.639,0.347,0.923,0.17,-0.018,0.091,-0.009,-0.472,-0.243,-0.279,2.026,-1.175,-2.924
2024-10-23 22:23:01.112,20904.649,0.344,0.923,0.172,-0.023,0.082,0.0,-0.315,-0.257,-0.297,2.035,-1.175,-2.912
2024-10-23 22:23:01.122,20904.659,0.342,0.924,0.174,-0.024,0.071,0.018,-0.206,-0.256,-0.324,2.041,-1.177,-2.902
2024-10-23 22:23:01.132,20904.669,0.339,0.924,0.175,-0.026,0.069,0.031,-0.158,-0.268,-0.32,2.046,-1.179,-2.894
2024-10-23 22:23:01.142,20904.679,0.337,0.925,0.175,-0.023,0.077,0.04,-0.143,-0.275,-0.319,2.05,-1.181,-2.887
2024-10-23 22:23:01.152,20904.689,0.334,0.926,0.176,-0.01,0.061,0.049,-0.172,-0.275,-0.34,2.054,-1.183,-2.879
2024-10-23 22:23:01.162,20904.699,0.332,0.927,0.177,-0.005,0.026,0.056,-0.279,-0.279,-0.346,2.06,-1.185,-2.87
2024-10-23 22:23:01.172,20904.709,0.329,0.927,0.179,-0.006,0.003,0.056,-0.415,-0.292,-0.333,2.069,-1.187,-2.857
2024-10-23 22:23:01.182,20904.719,0.326,0.927,0.182,-0.005,-0.007,0.05,-0.495,-0.304,-0.356,2.08,-1.188,-2.842
2024-10-23 22:23:01.192,20904.729,0.324,0.928,0.186,-0.003,-0.015,0.043,-0.547,-0.293,-0.349,2.092,-1.188,-2.825
2024-10-23 22:23:01.202,20904.739,0.321,0.928,0.19,-0.007,-0.014,0.039,-0.515,-0.247,-0.315,2.105,-1.188,-2.808
2024-10-23 22:23:01.211,20904.749,0.319,0.928,0.194,-0.008,0.003,0.048,-0.467,-0.179,-0.276,2.117,-1.188,-2.793
2024-10-23 22:23:01.222,20904.759,0.317,0.928,0.198,-0.001,0.0,0.059,-0.452,-0.12,-0.203,2.129,-1.188,-2.779
2024-10-23 22:23:01.232,20904.769,0.315,0.927,0.202,-0.005,-0.025,0.048,-0.431,-0.046,-0.148,2.139,-1.187,-2.767
2024-10-23 22:23:01.242,20904.779,0.314,0.927,0.206,-0.008,-0.03,0.028,-0.442,0.021,-0.137,2.15,-1.186,-2.755
2024-10-23 22:23:01.252,20904.789,0.313,0.926,0.209,-0.017,-0.028,-0.026,-0.374,0.049,-0.165,2.161,-1.185,-2.744
2024-10-23 22:23:01.262,20904.799,0.311,0.926,0.213,-0.019,-0.003,-0.085,-0.315,0.044,-0.21,2.171,-1.185,-2.733
2024-10-23 22:23:01.271,20904.809,0.309,0.926,0.215,-0.008,0.029,-0.123,-0.226,0.038,-0.262,2.18,-1.185,-2.724
2024-10-23 22:23:01.281,20904.819,0.306,0.927,0.217,0.012,0.052,-0.122,-0.134,0.061,-0.287,2.188,-1.186,-2.716
2024-10-23 22:23:01.291,20904.829,0.303,0.928,0.218,0.016,0.053,-0.093,-0.08,0.052,-0.285,2.195,-1.188,-2.709
2024-10-23 22:23:01.301,20904.839,0.3,0.928,0.219,0.012,0.031,-0.078,-0.002,0.017,-0.29,2.2,-1.19,-2.704
2024-10-23 22:23:01.312,20904.849,0.298,0.929,0.218,0.023,0.022,-0.053,0.118,0.017,-0.277,2.204,-1.193,-2.7
2024-10-23 22:23:01.321,20904.859,0.295,0.931,0.217,0.015,0.023,-0.033,0.313,0.042,-0.248,2.204,-1.196,-2.701
2024-10-23 22:23:01.331,20904.869,0.293,0.932,0.213,-0.011,0.025,-0.024,0.524,0.026,-0.22,2.199,-1.2,-2.706
2024-10-23 22:23:01.341,20904.879,0.291,0.934,0.207,-0.024,0.019,-0.012,0.759,0.006,-0.185,2.189,-1.206,-2.717
2024-10-23 22:23:01.351,20904.889,0.29,0.936,0.198,-0.016,0.011,0.023,1.016,-0.044,-0.152,2.172,-1.212,-2.735
2024-10-23 22:23:01.361,20904.899,0.288,0.939,0.188,-0.004,0.005,0.052,1.211,-0.053,-0.105,2.148,-1.219,-2.76
2024-10-23 22:23:01.371,20904.909,0.288,0.941,0.176,-0.006,0.003,0.091,1.262,-0.033,-0.042,2.12,-1.227,-2.79
2024-10-23 22:23:01.381,20904.919,0.288,0.944,0.164,-0.001,0.034,0.122,1.229,-0.002,-0.006,2.089,-1.233,-2.822
2024-10-23 22:23:01.391,20904.928,0.288,0.945,0.153,-0.002,0.05,0.123,1.068,-0.016,0.02,2.06,-1.239,-2.852
2024-10-23 22:23:01.401,20904.938,0.288,0.947,0.144,-0.007,0.013,0.112,0.9,-0.035,0.01,2.034,-1.243,-2.879
2024-10-23 22:23:01.411,20904.948,0.288,0.948,0.136,-0.001,-0.019,0.117,0.711,-0.034,0.021,2.013,-1.246,-2.902
2024-10-23 22:23:01.421,20904.958,0.288,0.949,0.13,0.007,-0.03,0.122,0.678,-0.048,-0.022,1.994,-1.249,-2.922
2024-10-23 22:23:01.431,20904.968,0.288,0.95,0.123,0.004,-0.039,0.107,0.747,-0.131,-0.055,1.974,-1.252,-2.942
2024-10-23 22:23:01.441,20904.978,0.287,0.951,0.114,-0.005,-0.042,0.083,1.029,-0.136,-0.083,1.948,-1.256,-2.967
2024-10-23 22:23:01.451,20904.988,0.287,0.953,0.102,0.005,-0.006,0.062,1.494,-0.116,-0.095,1.912,-1.262,-3.004
2024-10-23 22:23:01.461,20904.998,0.286,0.954,0.085,-0.003,0.01,0.029,1.908,-0.053,-0.078,1.86,-1.268,-3.057
2024-10-23 22:23:01.471,20905.008,0.286,0.956,0.065,-0.031,0.022,-0.003,2.26,-0.062,0.046,1.795,-1.273,-3.125
2024-10-23 22:23:01.481,20905.018,0.287,0.957,0.042,-0.04,0.068,-0.013,2.516,-0.092,0.095,1.716,-1.277,3.076
2024-10-23 22:23:01.491,20905.028,0.287,0.958,0.018,-0.039,0.064,-0.033,2.342,-0.108,0.028,1.634,-1.279,2.992
2024-10-23 22:23:01.501,20905.038,0.287,0.958,-0.003,-0.031,0.027,-0.012,2.119,-0.107,0.033,1.559,-1.279,2.915
2024-10-23 22:23:01.511,20905.048,0.288,0.957,-0.022,-0.045,-0.028,0.03,1.673,-0.149,0.064,1.495,-1.278,2.849
2024-10-23 22:23:01.521,20905.058,0.289,0.957,-0.036,-0.053,-0.129,0.029,1.253,-0.205,0.072,1.445,-1.276,2.799
2024-10-23 22:23:01.531,20905.068,0.289,0.956,-0.047,-0.033,-0.147,0.043,0.821,-0.24,0.062,1.409,-1.274,2.764
2024-10-23 22:23:01.541,20905.078,0.29,0.956,-0.054,0.005,-0.122,0.061,0.483,-0.197,0.055,1.387,-1.272,2.743
2024-10-23 22:23:01.551,20905.088,0.289,0.955,-0.058,0.017,-0.072,0.066,0.335,-0.174,-0.065,1.373,-1.271,2.73
2024-10-23 22:23:01.561,20905.098,0.288,0.956,-0.062,0.02,-0.0,0.062,0.46,-0.146,-0.159,1.358,-1.272,2.716
2024-10-23 22:23:01.571,20905.108,0.286,0.956,-0.068,0.014,0.029,0.046,0.749,-0.187,-0.189,1.337,-1.272,2.695
2024-10-23 22:23:01.581,20905.118,0.284,0.956,-0.077,0.01,0.029,0.022,0.882,-0.073,-0.193,1.307,-1.272,2.666
2024-10-23 22:23:01.591,20905.128,0.283,0.955,-0.085,0.015,0.039,0.024,0.788,0.028,-0.124,1.28,-1.271,2.637
2024-10-23 22:23:01.601,20905.138,0.282,0.955,-0.092,-0.009,0.065,0.031,0.669,-0.029,-0.067,1.256,-1.27,2.613
2024-10-23 22:23:01.611,20905.148,0.282,0.955,-0.098,-0.037,0.051,0.006,0.6,-0.062,-0.039,1.236,-1.268,2.593
2024-10-23 22:23:01.621,20905.158,0.281,0.954,-0.104,-0.026,-0.003,-0.004,0.599,-0.045,-0.017,1.218,-1.266,2.573
2024-10-23 22:23:01.631,20905.168,0.281,0.953,-0.109,-0.012,-0.014,-0.033,0.564,-0.023,0.035,1.2,-1.264,2.555
2024-10-23 22:23:01.641,20905.178,0.282,0.953,-0.114,-0.016,0.015,-0.06,0.492,-0.015,0.034,1.185,-1.262,2.54
2024-10-23 22:23:01.651,20905.188,0.282,0.952,-0.119,-0.018,0.046,-0.063,0.41,0.002,0.011,1.172,-1.26,2.526
2024-10-23 22:23:01.661,20905.198,0.282,0.952,-0.122,-0.025,0.045,-0.042,0.299,0.007,0.004,1.162,-1.259,2.516
2024-10-23 22:23:01.671,20905.208,0.282,0.951,-0.124,-0.026,0.028,-0.025,0.2,0.002,-0.015,1.155,-1.258,2.508
2024-10-23 22:23:01.681,20905.218,0.282,0.951,-0.126,-0.01,0.023,-0.012,0.104,0.001,-0.04,1.15,-1.257,2.503
2024-10-23 22:23:01.692,20905.228,0.281,0.951,-0.127,-0.002,0.015,-0.002,0.039,0.02,-0.056,1.148,-1.257,2.501
2024-10-23 22:23:01.701,20905.238,0.281,0.951,-0.127,-0.004,0.021,0.009,-0.018,0.055,-0.059,1.147,-1.258,2.499
2024-10-23 22:23:01.711,20905.248,0.28,0.952,-0.126,-0.008,0.027,0.004,-0.09,0.05,-0.044,1.148,-1.259,2.5
2024-10-23 22:23:01.721,20905.258,0.28,0.952,-0.125,-0.009,0.025,-0.007,-0.14,0.058,-0.038,1.152,-1.259,2.503
2024-10-23 22:23:01.731,20905.268,0.28,0.952,-0.123,0.001,0.017,-0.015,-0.114,0.069,-0.018,1.156,-1.26,2.507
2024-10-23 22:23:01.741,20905.278,0.28,0.952,-0.122,0.009,0.006,-0.016,-0.084,0.12,0.014,1.16,-1.261,2.51
2024-10-23 22:23:01.751,20905.288,0.28,0.952,-0.121,-0.0,0.011,-0.026,0.057,0.133,-0.008,1.162,-1.261,2.511
2024-10-23 22:23:01.761,20905.298,0.28,0.952,-0.123,-0.001,0.018,-0.016,0.262,0.13,0.096,1.159,-1.26,2.506
2024-10-23 22:23:01.771,20905.308,0.282,0.951,-0.125,0.001,0.001,-0.011,0.33,0.075,0.145,1.153,-1.257,2.499
2024-10-23 22:23:01.781,20905.318,0.283,0.95,-0.129,0.021,-0.001,0.004,0.465,0.028,0.087,1.144,-1.255,2.489
2024-10-23 22:23:01.790,20905.328,0.284,0.95,-0.134,0.021,0.058,0.014,0.631,-0.024,0.103,1.13,-1.252,2.474
2024-10-23 22:23:01.800,20905.338,0.285,0.948,-0.14,-0.005,0.098,-0.001,0.714,0.017,0.083,1.113,-1.248,2.456
2024-10-23 22:23:01.811,20905.348,0.285,0.947,-0.147,0.01,0.128,0.03,0.704,-0.003,0.074,1.095,-1.244,2.437
2024-10-23 22:23:01.821,20905.358,0.286,0.946,-0.153,0.001,0.124,0.037,0.56,-0.054,0.053,1.079,-1.241,2.421
2024-10-23 22:23:01.831,20905.368,0.286,0.945,-0.158,-0.008,0.073,0.034,0.525,-0.135,0.039,1.065,-1.238,2.407
2024-10-23 22:23:01.840,20905.378,0.286,0.944,-0.163,0.014,0.031,0.03,0.458,-0.141,0.082,1.052,-1.235,2.395
2024-10-23 22:23:01.851,20905.388,0.287,0.943,-0.168,0.031,-0.004,0.019,0.407,-0.136,0.133,1.042,-1.232,2.385
2024-10-23 22:23:01.861,20905.398,0.289,0.942,-0.172,0.021,0.021,0.015,0.352,-0.11,0.174,1.034,-1.228,2.378
2024-10-23 22:23:01.870,20905.408,0.29,0.941,-0.175,-0.013,0.031,0.021,0.264,-0.127,0.211,1.028,-1.225,2.373
2024-10-23 22:23:01.880,20905.418,0.292,0.94,-0.178,-0.014,-0.009,0.031,0.291,-0.134,0.225,1.023,-1.222,2.369
2024-10-23 22:23:01.890,20905.428,0.294,0.938,-0.181,0.009,-0.025,0.038,0.375,-0.132,0.223,1.017,-1.218,2.364
2024-10-23 22:23:01.901,20905.438,0.296,0.937,-0.186,0.016,-0.038,0.026,0.477,-0.117,0.205,1.01,-1.214,2.357
2024-10-23 22:23:01.910,20905.448,0.297,0.936,-0.191,0.008,-0.017,0.014,0.514,-0.088,0.206,1.0,-1.21,2.348
2024-10-23 22:23:01.920,20905.458,0.299,0.934,-0.196,-0.004,0.013,0.016,0.463,-0.047,0.169,0.991,-1.205,2.34
2024-10-23 22:23:01.930,20905.468,0.3,0.933,-0.2,-0.018,0.013,0.018,0.325,-0.059,0.158,0.984,-1.202,2.333
2024-10-23 22:23:01.940,20905.478,0.302,0.932,-0.202,-0.018,-0.017,0.031,0.149,-0.077,0.15,0.981,-1.199,2.33
2024-10-23 22:23:01.950,20905.488,0.303,0.931,-0.203,-0.009,-0.06,0.039,-0.01,-0.104,0.131,0.98,-1.198,2.33
2024-10-23 22:23:01.960,20905.498,0.304,0.931,-0.203,0.003,-0.077,0.049,-0.12,-0.093,0.118,0.983,-1.197,2.334
2024-10-23 22:23:01.970,20905.508,0.305,0.931,-0.202,0.004,-0.067,0.059,-0.142,-0.105,0.093,0.986,-1.197,2.339
2024-10-23 22:23:01.980,20905.518,0.305,0.931,-0.201,0.001,-0.049,0.055,-0.139,-0.123,0.086,0.989,-1.197,2.343
2024-10-23 22:23:01.990,20905.527,0.306,0.931,-0.2,0.006,-0.042,0.042,-0.076,-0.078,0.079,0.991,-1.197,2.347
2024-10-23 22:23:02.000,20905.537,0.306,0.931,-0.198,0.009,-0.032,0.017,-0.276,0.017,0.08,0.996,-1.197,2.352
2024-10-23 22:23:02.010,20905.547,0.307,0.931,-0.196,-0.002,-0.001,0.011,-0.242,-0.095,0.084,1.002,-1.198,2.359
2024-10-23 22:23:02.020,20905.557,0.307,0.932,-0.195,-0.026,0.007,0.004,-0.185,-0.156,0.025,1.006,-1.199,2.365
2024-10-23 22:23:02.030,20905.567,0.307,0.932,-0.194,-0.016,-0.045,-0.036,-0.082,-0.113,0.029,1.008,-1.199,2.368
2024-10-23 22:23:02.040,20905.577,0.308,0.932,-0.194,0.024,0.01,-0.022,0.008,-0.039,0.075,1.009,-1.199,2.37
2024-10-23 22:23:02.050,20905.587,0.308,0.931,-0.194,0.005,0.053,-0.003,0.003,-0.054,0.053,1.009,-1.198,2.371
2024-10-23 22:23:02.060,20905.597,0.308,0.931,-0.194,-0.036,-0.007,-0.017,-0.009,-0.075,0.052,1.009,-1.198,2.372
2024-10-23 22:23:02.070,20905.607,0.309,0.931,-0.194,-0.03,-0.037,-0.015,-0.043,-0.086,0.034,1.01,-1.198,2.373
2024-10-23 22:23:02.080,20905.617,0.309,0.931,-0.194,-0.008,-0.036,-0.017,-0.052,-0.088,-0.002,1.01,-1.198,2.375
2024-10-23 22:23:02.090,20905.627,0.308,0.931,-0.193,-0.002,-0.015,-0.018,-0.056,-0.079,-0.027,1.011,-1.198,2.376
2024-10-23 22:23:02.100,20905.637,0.308,0.932,-0.193,-0.007,-0.007,-0.013,-0.069,-0.075,-0.044,1.011,-1.199,2.376
2024-10-23 22:23:02.110,20905.647,0.307,0.932,-0.193,-0.008,-0.01,-0.01,-0.113,-0.059,-0.042,1.011,-1.2,2.377
2024-10-23 22:23:02.120,20905.657,0.307,0.932,-0.192,-0.003,-0.018,0.001,-0.156,-0.038,-0.013,1.013,-1.2,2.38
2024-10-23 22:23:02.130,20905.667,0.307,0.933,-0.19,0.0,-0.03,0.008,-0.198,-0.051,0.004,1.016,-1.202,2.384
2024-10-23 22:23:02.140,20905.677,0.307,0.933,-0.188,0.003,-0.052,0.005,-0.24,-0.067,-0.003,1.02,-1.203,2.389
2024-10-23 22:23:02.150,20905.687,0.306,0.933,-0.187,0.01,-0.061,0.004,-0.224,-0.064,0.0,1.024,-1.204,2.394
2024-10-23 22:23:02.160,20905.697,0.306,0.934,-0.185,0.014,-0.029,0.014,-0.182,-0.052,0.002,1.027,-1.205,2.398
2024-10-23 22:23:02.170,20905.707,0.306,0.934,-0.184,0.007,0.007,0.021,-0.123,-0.038,-0.002,1.03,-1.206,2.401
2024-10-23 22:23:02.180,20905.717,0.306,0.934,-0.183,-0.004,0.028,0.022,-0.092,-0.047,-0.008,1.031,-1.206,2.404
2024-10-23 22:23:02.190,20905.727,0.306,0.934,-0.183,-0.006,0.027,0.015,-0.077,-0.058,-0.006,1.032,-1.207,2.405
2024-10-23 22:23:02.200,20905.737,0.306,0.934,-0.182,0.001,0.021,0.007,-0.027,-0.057,0.001,1.033,-1.207,2.406
2024-10-23 22:23:02.210,20905.747,0.306,0.934,-0.183,0.005,0.021,0.002,0.004,-0.038,0.006,1.033,-1.207,2.407
2024-10-23 22:23:02.220,20905.757,0.306,0.934,-0.183,0.003,0.02,-0.004,0.013,-0.023,0.02,1.032,-1.206,2.407
2024-10-23 22:23:02.230,20905.767,0.306,0.934,-0.183,0.001,0.026,0.0,0.002,-0.017,0.018,1.032,-1.206,2.407
2024-10-23 22:23:02.240,20905.777,0.306,0.934,-0.183,0.003,0.029,0.012,-0.007,-0.02,0.006,1.032,-1.206,2.407
2024-10-23 22:23:02.250,20905.787,0.306,0.934,-0.183,0.001,0.022,0.02,-0.012,-0.016,0.001,1.033,-1.206,2.408
2024-10-23 22:23:02.260,20905.797,0.306,0.934,-0.183,0.003,0.015,0.027,-0.012,-0.019,-0.0,1.033,-1.206,2.408
2024-10-23 22:23:02.270,20905.807,0.306,0.934,-0.182,0.004,0.015,0.028,-0.016,-0.018,-0.002,1.033,-1.206,2.409
2024-10-23 22:23:02.280,20905.817,0.306,0.934,-0.182,0.005,0.016,0.026,-0.009,-0.017,0.003,1.034,-1.206,2.409
2024-10-23 22:23:02.289,20905.827,0.306,0.934,-0.182,0.003,0.021,0.019,-0.005,-0.025,0.009,1.034,-1.206,2.409
2024-10-23 22:23:02.299,20905.837,0.306,0.934,-0.182,-0.003,0.02,0.014,-0.001,-0.032,0.018,1.034,-1.206,2.41
2024-10-23 22:23:02.309,20905.847,0.306,0.934,-0.182,-0.007,0.007,0.014,0.006,-0.033,0.038,1.034,-1.206,2.41
2024-10-23 22:23:02.320,20905.857,0.307,0.934,-0.183,-0.009,-0.005,0.013,-0.002,-0.034,0.053,1.034,-1.206,2.411
2024-10-23 22:23:02.330,20905.867,0.307,0.934,-0.182,-0.011,-0.017,0.012,-0.009,-0.029,0.059,1.035,-1.206,2.412
2024-10-23 22:23:02.340,20905.877,0.308,0.934,-0.182,-0.015,-0.031,0.013,-0.026,-0.033,0.059,1.037,-1.205,2.414
2024-10-23 22:23:02.349,20905.887,0.308,0.934,-0.181,-0.019,-0.033,0.013,-0.048,-0.066,0.051,1.038,-1.205,2.416
2024-10-23 22:23:02.358,20905.897,0.308,0.934,-0.181,-0.019,-0.024,0.016,-0.039,-0.051,0.051,1.04,-1.205,2.419
2024-10-23 22:23:02.369,20905.907,0.309,0.934,-0.181,-0.019,-0.02,0.03,-0.007,-0.024,0.05,1.041,-1.205,2.42
2024-10-23 22:23:02.379,20905.917,0.309,0.934,-0.181,-0.025,-0.022,0.03,0.02,-0.024,0.044,1.042,-1.205,2.421
2024-10-23 22:23:02.389,20905.927,0.309,0.934,-0.181,-0.029,-0.008,0.007,-0.007,-0.052,0.048,1.042,-1.204,2.422
2024-10-23 22:23:02.399,20905.937,0.31,0.934,-0.181,-0.019,0.004,-0.016,-0.03,-0.082,0.049,1.042,-1.204,2.423
2024-10-23 22:23:02.409,20905.947,0.31,0.933,-0.181,-0.008,-0.006,-0.017,-0.025,-0.057,0.059,1.043,-1.204,2.424
2024-10-23 22:23:02.420,20905.957,0.31,0.933,-0.181,-0.008,-0.02,-0.004,-0.01,-0.024,0.066,1.044,-1.204,2.426
2024-10-23 22:23:02.430,20905.967,0.311,0.933,-0.181,-0.017,-0.008,-0.004,0.016,0.002,0.064,1.045,-1.203,2.427
2024-10-23 22:23:02.440,20905.977,0.311,0.933,-0.181,-0.023,0.021,-0.009,0.023,0.013,0.071,1.045,-1.203,2.427
2024-10-23 22:23:02.450,20905.987,0.312,0.933,-0.18,-0.018,0.024,-0.016,-0.017,0.01,0.06,1.046,-1.202,2.428
2024-10-23 22:23:02.460,20905.997,0.312,0.933,-0.18,-0.011,0.009,-0.011,-0.057,0.015,0.05,1.048,-1.202,2.43
2024-10-23 22:23:02.470,20906.007,0.313,0.933,-0.179,-0.011,0.003,-0.001,-0.092,0.036,0.057,1.051,-1.202,2.432
2024-10-23 22:23:02.479,20906.017,0.313,0.933,-0.178,-0.019,-0.003,-0.004,-0.128,0.027,0.051,1.054,-1.202,2.435
2024-10-23 22:23:02.489,20906.027,0.313,0.933,-0.177,-0.021,-0.001,-0.012,-0.138,0.047,0.037,1.057,-1.203,2.439
2024-10-23 22:23:02.499,20906.037,0.314,0.933,-0.175,-0.015,0.015,-0.018,-0.148,0.057,0.05,1.061,-1.203,2.442
2024-10-23 22:23:02.509,20906.047,0.314,0.933,-0.174,-0.015,0.021,-0.023,-0.171,0.097,0.042,1.066,-1.203,2.446
2024-10-23 22:23:02.519,20906.057,0.315,0.934,-0.172,-0.013,0.018,-0.02,-0.211,0.084,0.039,1.071,-1.204,2.451
2024-10-23 22:23:02.529,20906.067,0.315,0.934,-0.17,-0.01,0.027,-0.02,-0.203,0.127,0.021,1.076,-1.205,2.456
2024-10-23 22:23:02.539,20906.077,0.315,0.934,-0.168,-0.01,0.027,-0.009,-0.168,0.08,0.008,1.081,-1.206,2.46
2024-10-23 22:23:02.549,20906.087,0.315,0.934,-0.166,-0.006,0.025,-0.008,-0.17,0.09,-0.006,1.085,-1.207,2.464
2024-10-23 22:23:02.559,20906.097,0.315,0.935,-0.165,-0.005,0.031,0.012,-0.092,0.085,-0.016,1.088,-1.208,2.466
2024-10-23 22:23:02.569,20906.107,0.315,0.935,-0.164,-0.017,0.014,0.023,-0.038,0.103,0.016,1.09,-1.208,2.467
2024-10-23 22:23:02.579,20906.116,0.315,0.935,-0.164,-0.021,-0.008,0.015,-0.007,0.108,0.04,1.091,-1.208,2.467
2024-10-23 22:23:02.589,20906.126,0.315,0.935,-0.164,-0.018,0.001,0.017,0.05,0.105,0.038,1.091,-1.207,2.466
2024-10-23 22:23:02.599,20906.136,0.316,0.934,-0.165,-0.031,-0.002,0.009,0.101,0.084,0.057,1.09,-1.207,2.464
2024-10-23 22:23:02.609,20906.146,0.316,0.934,-0.166,-0.027,-0.011,0.003,0.117,0.072,0.082,1.088,-1.206,2.462
2024-10-23 22:23:02.619,20906.156,0.317,0.934,-0.167,0.002,0.008,0.006,0.104,0.059,0.078,1.087,-1.204,2.46
2024-10-23 22:23:02.629,20906.166,0.318,0.933,-0.167,0.012,0.024,0.026,0.087,0.053,0.072,1.086,-1.203,2.458
2024-10-23 22:23:02.639,20906.176,0.318,0.933,-0.168,-0.006,0.006,0.034,0.06,0.029,0.056,1.086,-1.203,2.457
2024-10-23 22:23:02.649,20906.186,0.319,0.933,-0.168,-0.014,-0.01,0.025,0.061,0.03,0.052,1.086,-1.202,2.457
2024-10-23 22:23:02.659,20906.196,0.319,0.933,-0.168,-0.005,-0.015,0.027,0.068,0.017,0.037,1.085,-1.202,2.456
2024-10-23 22:23:02.669,20906.206,0.319,0.933,-0.169,-0.001,-0.018,0.017,0.087,0.022,0.032,1.084,-1.201,2.455
2024-10-23 22:23:02.679,20906.216,0.319,0.932,-0.169,-0.003,-0.015,0.006,0.097,0.034,0.027,1.083,-1.201,2.453
2024-10-23 22:23:02.689,20906.226,0.319,0.932,-0.17,-0.004,-0.008,0.001,0.084,0.043,0.025,1.081,-1.201,2.451
2024-10-23 22:23:02.699,20906.236,0.319,0.932,-0.171,-0.001,-0.008,-0.003,0.068,0.028,0.013,1.08,-1.2,2.449
2024-10-23 22:23:02.709,20906.246,0.32,0.932,-0.171,-0.001,-0.003,-0.011,0.025,0.03,-0.008,1.08,-1.2,2.449
2024-10-23 22:23:02.719,20906.256,0.319,0.932,-0.171,0.004,-0.007,-0.011,0.018,0.021,-0.01,1.081,-1.2,2.449
2024-10-23 22:23:02.729,20906.266,0.319,0.932,-0.17,0.005,-0.009,-0.01,0.014,0.032,0.002,1.081,-1.2,2.449
2024-10-23 22:23:02.739,20906.276,0.319,0.932,-0.17,0.004,-0.014,-0.009,0.01,0.026,0.01,1.081,-1.2,2.449
2024-10-23 22:23:02.749,20906.286,0.32,0.932,-0.17,0.006,-0.021,-0.009,0.029,0.011,0.012,1.082,-1.2,2.449
2024-10-23 22:23:02.759,20906.296,0.32,0.932,-0.17,0.011,-0.019,-0.009,0.074,0.01,-0.0,1.081,-1.2,2.448
2024-10-23 22:23:02.769,20906.306,0.32,0.932,-0.171,0.006,-0.025,-0.003,0.103,0.03,0.003,1.079,-1.2,2.446
2024-10-23 22:23:02.779,20906.316,0.32,0.932,-0.172,0.003,-0.011,-0.002,0.108,0.036,0.008,1.077,-1.199,2.443
2024-10-23 22:23:02.789,20906.326,0.32,0.931,-0.173,0.004,0.005,0.003,0.083,0.016,0.008,1.075,-1.198,2.441
2024-10-23 22:23:02.799,20906.336,0.32,0.931,-0.174,0.001,-0.015,0.0,0.075,0.002,-0.007,1.073,-1.198,2.439
2024-10-23 22:23:02.809,20906.346,0.32,0.931,-0.175,0.001,-0.04,0.003,0.073,0.005,-0.01,1.071,-1.198,2.437
2024-10-23 22:23:02.819,20906.356,0.32,0.931,-0.175,0.008,-0.035,0.002,0.073,0.013,-0.009,1.07,-1.197,2.435
2024-10-23 22:23:02.829,20906.366,0.32,0.931,-0.176,0.008,-0.018,-0.001,0.062,0.012,-0.024,1.068,-1.197,2.433
2024-10-23 22:23:02.839,20906.376,0.32,0.931,-0.176,0.008,-0.011,0.002,0.033,0.004,-0.03,1.067,-1.197,2.432
2024-10-23 22:23:02.849,20906.386,0.32,0.931,-0.177,0.009,-0.014,0.004,0.012,-0.002,-0.036,1.066,-1.197,2.431
2024-10-23 22:23:02.859,20906.396,0.319,0.931,-0.177,0.014,-0.02,0.01,0.002,0.001,-0.039,1.065,-1.197,2.43
2024-10-23 22:23:02.869,20906.406,0.319,0.931,-0.177,0.017,-0.018,0.01,0.014,0.004,-0.021,1.065,-1.198,2.43
2024-10-23 22:23:02.879,20906.416,0.319,0.931,-0.177,0.02,-0.007,0.005,0.013,0.002,-0.02,1.065,-1.198,2.429
2024-10-23 22:23:02.889,20906.426,0.319,0.931,-0.177,0.023,-0.003,0.004,-0.008,-0.004,-0.012,1.064,-1.198,2.429
2024-10-23 22:23:02.899,20906.436,0.319,0.931,-0.177,0.023,-0.004,0.004,-0.019,-0.008,-0.007,1.065,-1.198,2.429
2024-10-23 22:23:02.909,20906.446,0.319,0.931,-0.176,0.02,-0.006,0.008,-0.042,-0.017,-0.013,1.065,-1.198,2.43
2024-10-23 22:23:02.919,20906.456,0.319,0.931,-0.176,0.02,-0.008,0.014,-0.04,-0.031,-0.009,1.066,-1.198,2.431
2024-10-23 22:23:02.929,20906.466,0.319,0.931,-0.176,0.02,-0.008,0.015,-0.033,-0.044,-0.011,1.066,-1.198,2.432
2024-10-23 22:23:02.939,20906.476,0.319,0.931,-0.176,0.018,-0.005,0.018,-0.031,-0.057,-0.019,1.067,-1.198,2.433
2024-10-23 22:23:02.949,20906.486,0.319,0.931,-0.176,0.015,-0.002,0.021,-0.038,-0.071,-0.009,1.067,-1.199,2.434
2024-10-23 22:23:02.959,20906.496,0.319,0.932,-0.175,0.011,-0.003,0.018,-0.026,-0.078,-0.003,1.067,-1.199,2.435
2024-10-23 22:23:02.968,20906.506,0.319,0.932,-0.175,0.01,-0.011,0.016,-0.028,-0.09,-0.005,1.067,-1.199,2.436
2024-10-23 22:23:02.978,20906.516,0.319,0.932,-0.176,0.012,-0.016,0.012,-0.019,-0.082,-0.006,1.067,-1.199,2.436
2024-10-23 22:23:02.988,20906.526,0.318,0.932,-0.176,0.012,-0.009,0.011,-0.017,-0.085,-0.006,1.067,-1.199,2.437
2024-10-23 22:23:02.998,20906.536,0.318,0.932,-0.176,0.009,-0.009,0.009,-0.036,-0.083,-0.011,1.067,-1.199,2.438
2024-10-23 22:23:03.008,20906.546,0.318,0.932,-0.175,0.01,-0.013,0.009,-0.041,-0.08,-0.019,1.067,-1.199,2.439
2024-10-23 22:23:03.018,20906.556,0.318,0.932,-0.175,0.013,-0.013,0.014,-0.07,-0.085,-0.029,1.068,-1.199,2.441
2024-10-23 22:23:03.028,20906.566,0.318,0.932,-0.174,0.014,-0.016,0.013,-0.082,-0.085,-0.037,1.069,-1.2,2.443
2024-10-23 22:23:03.038,20906.576,0.317,0.932,-0.174,0.012,-0.016,0.015,-0.066,-0.079,-0.031,1.07,-1.201,2.444
2024-10-23 22:23:03.048,20906.586,0.317,0.932,-0.173,0.01,-0.012,0.015,-0.055,-0.076,-0.027,1.071,-1.201,2.446
2024-10-23 22:23:03.058,20906.596,0.317,0.933,-0.173,0.011,-0.0,0.007,-0.05,-0.076,-0.027,1.071,-1.201,2.447
2024-10-23 22:23:03.068,20906.606,0.317,0.933,-0.173,0.012,0.004,0.008,-0.053,-0.081,-0.02,1.071,-1.202,2.448
2024-10-23 22:23:03.078,20906.616,0.316,0.933,-0.173,0.009,-0.003,0.008,-0.046,-0.088,-0.01,1.072,-1.202,2.449
2024-10-23 22:23:03.088,20906.626,0.316,0.933,-0.172,0.009,-0.003,0.008,-0.044,-0.094,0.0,1.072,-1.202,2.451
2024-10-23 22:23:03.099,20906.636,0.316,0.933,-0.172,0.011,0.001,0.008,-0.051,-0.105,0.002,1.072,-1.202,2.452
2024-10-23 22:23:03.109,20906.646,0.316,0.933,-0.172,0.011,0.005,0.011,-0.039,-0.113,0.0,1.073,-1.202,2.454
2024-10-23 22:23:03.118,20906.656,0.316,0.933,-0.172,0.011,0.013,0.014,-0.041,-0.117,0.009,1.073,-1.203,2.455
2024-10-23 22:23:03.128,20906.666,0.316,0.933,-0.172,0.009,0.01,0.015,-0.072,-0.119,0.01,1.074,-1.203,2.457
2024-10-23 22:23:03.138,20906.676,0.316,0.933,-0.171,0.008,0.011,0.015,-0.105,-0.106,0.003,1.075,-1.203,2.459
2024-10-23 22:23:03.148,20906.686,0.316,0.933,-0.17,0.003,0.009,0.014,-0.182,-0.074,-0.016,1.077,-1.204,2.463
2024-10-23 22:23:03.158,20906.696,0.316,0.934,-0.168,-0.004,-0.001,0.009,-0.252,-0.055,-0.039,1.081,-1.205,2.468
2024-10-23 22:23:03.168,20906.706,0.315,0.934,-0.166,-0.009,-0.016,-0.003,-0.295,-0.052,-0.044,1.087,-1.206,2.474
2024-10-23 22:23:03.178,20906.715,0.315,0.935,-0.163,-0.018,-0.038,-0.026,-0.356,-0.098,-0.007,1.094,-1.208,2.482
2024-10-23 22:23:03.188,20906.725,0.315,0.936,-0.16,-0.011,-0.046,-0.041,-0.385,-0.148,0.006,1.101,-1.21,2.492
2024-10-23 22:23:03.198,20906.735,0.315,0.936,-0.157,0.017,-0.027,-0.027,-0.333,-0.131,-0.01,1.109,-1.211,2.501
2024-10-23 22:23:03.208,20906.745,0.315,0.936,-0.155,0.038,0.004,0.009,-0.2,-0.07,0.015,1.114,-1.212,2.508
2024-10-23 22:23:03.218,20906.755,0.315,0.937,-0.153,0.019,0.021,0.032,-0.118,-0.056,0.048,1.117,-1.213,2.512
2024-10-23 22:23:03.228,20906.765,0.315,0.937,-0.153,-0.018,0.02,0.013,-0.106,-0.118,0.052,1.12,-1.213,2.516
2024-10-23 22:23:03.238,20906.775,0.316,0.937,-0.152,-0.007,0.017,0.0,-0.086,-0.155,0.051,1.121,-1.213,2.519
2024-10-23 22:23:03.248,20906.785,0.316,0.936,-0.152,0.025,0.014,0.019,-0.027,-0.134,0.058,1.121,-1.212,2.521
2024-10-23 22:23:03.258,20906.795,0.316,0.936,-0.153,0.017,0.017,0.038,0.012,-0.13,0.085,1.12,-1.212,2.521
2024-10-23 22:23:03.268,20906.805,0.317,0.936,-0.154,-0.012,0.027,0.035,0.005,-0.171,0.105,1.119,-1.211,2.521
2024-10-23 22:23:03.278,20906.815,0.318,0.935,-0.155,-0.01,0.022,0.031,-0.002,-0.211,0.098,1.118,-1.21,2.522
2024-10-23 22:23:03.288,20906.825,0.318,0.935,-0.155,0.009,0.009,0.039,-0.002,-0.228,0.097,1.117,-1.209,2.524
2024-10-23 22:23:03.298,20906.835,0.319,0.935,-0.156,0.009,0.002,0.038,0.008,-0.233,0.087,1.116,-1.208,2.525
2024-10-23 22:23:03.308,20906.845,0.319,0.935,-0.157,-0.005,0.009,0.035,0.024,-0.232,0.086,1.115,-1.207,2.526
2024-10-23 22:23:03.318,20906.855,0.32,0.934,-0.158,-0.015,0.015,0.03,0.008,-0.226,0.086,1.113,-1.206,2.527
2024-10-23 22:23:03.328,20906.865,0.32,0.934,-0.158,-0.014,0.006,0.02,-0.011,-0.205,0.062,1.112,-1.206,2.528
2024-10-23 22:23:03.338,20906.875,0.32,0.934,-0.158,-0.008,0.004,0.012,0.002,-0.177,0.047,1.112,-1.205,2.529
2024-10-23 22:23:03.348,20906.885,0.321,0.934,-0.159,-0.015,0.002,0.002,-0.001,-0.162,0.056,1.111,-1.205,2.53
2024-10-23 22:23:03.358,20906.895,0.321,0.934,-0.159,-0.03,-0.011,-0.012,-0.015,-0.175,0.058,1.111,-1.205,2.532
2024-10-23 22:23:03.368,20906.905,0.321,0.934,-0.159,-0.028,-0.018,-0.017,-0.024,-0.177,0.038,1.111,-1.205,2.534
2024-10-23 22:23:03.378,20906.915,0.321,0.934,-0.159,-0.015,-0.01,-0.008,-0.001,-0.167,0.041,1.111,-1.204,2.535
2024-10-23 22:23:03.388,20906.925,0.321,0.934,-0.159,-0.013,0.009,0.011,-0.0,-0.168,0.042,1.11,-1.204,2.536
2024-10-23 22:23:03.398,20906.935,0.321,0.933,-0.16,-0.024,0.012,0.006,-0.003,-0.171,0.038,1.109,-1.204,2.537
2024-10-23 22:23:03.408,20906.945,0.321,0.933,-0.16,-0.021,0.002,0.007,-0.012,-0.173,0.035,1.108,-1.204,2.538
2024-10-23 22:23:03.418,20906.955,0.321,0.933,-0.16,-0.016,-0.012,0.008,-0.006,-0.169,0.026,1.107,-1.204,2.539
2024-10-23 22:23:03.428,20906.965,0.321,0.933,-0.161,-0.02,-0.016,0.006,0.006,-0.151,0.026,1.106,-1.204,2.539
2024-10-23 22:23:03.438,20906.975,0.321,0.933,-0.162,-0.025,-0.013,0.001,0.033,-0.15,0.011,1.104,-1.204,2.538
2024-10-23 22:23:03.448,20906.985,0.32,0.933,-0.163,-0.026,-0.01,-0.004,0.03,-0.139,0.032,1.101,-1.203,2.537
2024-10-23 22:23:03.458,20906.995,0.32,0.933,-0.163,-0.024,-0.007,-0.005,0.051,-0.137,0.034,1.099,-1.203,2.537
2024-10-23 22:23:03.468,20907.005,0.32,0.933,-0.164,-0.024,-0.007,-0.0,0.037,-0.129,0.014,1.097,-1.203,2.536
2024-10-23 22:23:03.478,20907.015,0.32,0.933,-0.165,-0.02,0.005,0.002,0.022,-0.114,0.021,1.096,-1.202,2.535
2024-10-23 22:23:03.488,20907.025,0.32,0.933,-0.165,-0.031,0.011,0.003,0.006,-0.101,0.013,1.094,-1.202,2.535
2024-10-23 22:23:03.498,20907.035,0.32,0.933,-0.165,-0.035,0.009,-0.004,-0.011,-0.096,0.015,1.094,-1.202,2.536
2024-10-23 22:23:03.508,20907.045,0.32,0.933,-0.166,-0.04,0.008,-0.014,-0.015,-0.083,0.018,1.093,-1.202,2.536
2024-10-23 22:23:03.517,20907.055,0.32,0.933,-0.166,-0.039,0.011,-0.013,0.002,-0.076,0.001,1.093,-1.202,2.536
2024-10-23 22:23:03.527,20907.065,0.319,0.933,-0.166,-0.038,0.014,-0.018,-0.009,-0.07,-0.004,1.092,-1.203,2.536
2024-10-23 22:23:03.537,20907.075,0.319,0.933,-0.166,-0.031,0.015,-0.012,-0.02,-0.051,0.01,1.091,-1.203,2.536
2024-10-23 22:23:03.548,20907.085,0.319,0.933,-0.166,-0.025,0.013,-0.007,-0.021,-0.021,0.014,1.091,-1.203,2.537
2024-10-23 22:23:03.557,20907.095,0.319,0.933,-0.166,-0.04,0.002,-0.009,0.003,-0.006,-0.002,1.091,-1.203,2.537
2024-10-23 22:23:03.567,20907.105,0.319,0.933,-0.166,-0.056,-0.008,0.0,0.029,-0.024,-0.012,1.091,-1.203,2.536
2024-10-23 22:23:03.577,20907.115,0.318,0.933,-0.166,-0.026,0.003,0.001,0.034,-0.004,-0.007,1.089,-1.203,2.535
2024-10-23 22:23:03.587,20907.125,0.318,0.933,-0.167,0.0,0.015,-0.015,0.033,0.019,-0.006,1.088,-1.203,2.534
2024-10-23 22:23:03.597,20907.135,0.318,0.933,-0.167,-0.029,0.007,-0.029,0.047,0.036,-0.002,1.087,-1.203,2.532
2024-10-23 22:23:03.607,20907.145,0.318,0.933,-0.168,-0.048,0.009,-0.029,0.066,0.045,0.007,1.085,-1.203,2.53
2024-10-23 22:23:03.618,20907.155,0.318,0.933,-0.168,-0.029,0.025,-0.028,0.077,0.054,0.021,1.084,-1.203,2.528
2024-10-23 22:23:03.627,20907.165,0.318,0.933,-0.169,-0.011,0.033,-0.025,0.087,0.055,0.021,1.082,-1.203,2.526
2024-10-23 22:23:03.637,20907.175,0.318,0.933,-0.17,-0.014,0.028,-0.029,0.106,0.063,0.019,1.08,-1.202,2.524
2024-10-23 22:23:03.647,20907.185,0.318,0.933,-0.17,-0.018,0.026,-0.03,0.125,0.084,0.018,1.078,-1.202,2.521
2024-10-23 22:23:03.657,20907.195,0.318,0.932,-0.171,-0.019,0.028,-0.03,0.134,0.097,0.029,1.076,-1.201,2.518
2024-10-23 22:23:03.667,20907.205,0.318,0.932,-0.172,-0.021,0.025,-0.03,0.117,0.116,0.024,1.075,-1.2,2.515
2024-10-23 22:23:03.677,20907.215,0.319,0.932,-0.173,-0.021,0.016,-0.023,0.112,0.118,0.024,1.073,-1.2,2.512
2024-10-23 22:23:03.687,20907.225,0.319,0.932,-0.174,-0.019,0.007,-0.012,0.087,0.138,0.018,1.071,-1.199,2.509
2024-10-23 22:23:03.697,20907.235,0.319,0.932,-0.174,-0.016,-0.001,-0.007,0.057,0.153,0.02,1.071,-1.199,2.507
2024-10-23 22:23:03.707,20907.245,0.319,0.932,-0.174,-0.014,-0.004,-0.001,0.031,0.145,0.006,1.071,-1.199,2.505
2024-10-23 22:23:03.717,20907.255,0.319,0.932,-0.174,-0.019,-0.008,0.0,0.042,0.148,-0.008,1.071,-1.199,2.504
2024-10-23 22:23:03.727,20907.265,0.319,0.931,-0.174,-0.017,-0.016,0.002,0.06,0.154,-0.006,1.071,-1.198,2.502
2024-10-23 22:23:03.737,20907.275,0.319,0.931,-0.175,-0.01,-0.014,0.001,0.059,0.158,-0.004,1.07,-1.198,2.5
2024-10-23 22:23:03.748,20907.285,0.319,0.931,-0.175,-0.004,-0.004,0.005,0.046,0.16,-0.006,1.07,-1.198,2.498
2024-10-23 22:23:03.757,20907.295,0.319,0.931,-0.175,0.0,-0.002,0.016,0.048,0.147,-0.002,1.07,-1.198,2.497
2024-10-23 22:23:03.767,20907.305,0.32,0.931,-0.175,0.004,-0.005,0.017,0.041,0.137,0.001,1.07,-1.198,2.495
2024-10-23 22:23:03.777,20907.314,0.32,0.931,-0.175,0.007,-0.01,0.019,0.047,0.139,0.004,1.07,-1.198,2.494
2024-10-23 22:23:03.787,20907.324,0.32,0.931,-0.175,0.007,-0.005,0.028,0.047,0.125,0.009,1.071,-1.198,2.493
2024-10-23 22:23:03.797,20907.334,0.32,0.931,-0.175,0.002,-0.004,0.029,0.056,0.11,0.005,1.07,-1.197,2.491
2024-10-23 22:23:03.807,20907.344,0.32,0.931,-0.175,0.003,-0.011,0.03,0.076,0.107,0.002,1.07,-1.197,2.49
2024-10-23 22:23:03.817,20907.354,0.32,0.931,-0.176,0.005,-0.017,0.027,0.085,0.104,-0.003,1.069,-1.197,2.488
2024-10-23 22:23:03.827,20907.364,0.32,0.931,-0.176,0.005,-0.014,0.022,0.085,0.109,-0.009,1.068,-1.196,2.486
2024-10-23 22:23:03.837,20907.374,0.321,0.931,-0.176,0.002,-0.012,0.02,0.088,0.122,-0.017,1.068,-1.196,2.484
2024-10-23 22:23:03.847,20907.384,0.321,0.931,-0.177,0.001,-0.014,0.017,0.084,0.139,-0.035,1.067,-1.196,2.481
2024-10-23 22:23:03.857,20907.394,0.321,0.931,-0.177,0.003,-0.013,0.018,0.066,0.145,-0.039,1.067,-1.196,2.479
2024-10-23 22:23:03.868,20907.404,0.32,0.931,-0.177,0.002,-0.01,0.02,0.055,0.148,-0.048,1.067,-1.196,2.478
2024-10-23 22:23:03.877,20907.414,0.32,0.931,-0.177,-0.001,-0.008,0.02,0.043,0.147,-0.044,1.067,-1.196,2.476
2024-10-23 22:23:03.887,20907.424,0.32,0.931,-0.176,-0.001,-0.009,0.018,0.023,0.142,-0.045,1.067,-1.197,2.475
2024-10-23 22:23:03.897,20907.434,0.32,0.931,-0.176,-0.004,-0.011,0.01,0.023,0.137,-0.057,1.068,-1.197,2.475
2024-10-23 22:23:03.907,20907.444,0.32,0.931,-0.176,-0.009,-0.018,-0.001,0.017,0.136,-0.055,1.069,-1.197,2.474
2024-10-23 22:23:03.917,20907.454,0.32,0.931,-0.175,-0.014,-0.026,-0.012,0.0,0.148,-0.049,1.069,-1.198,2.473
2024-10-23 22:23:03.927,20907.464,0.319,0.931,-0.175,-0.013,-0.026,-0.019,-0.023,0.151,-0.054,1.071,-1.198,2.473
2024-10-23 22:23:03.937,20907.474,0.319,0.932,-0.174,-0.016,-0.027,-0.021,-0.03,0.171,-0.062,1.072,-1.199,2.473
2024-10-23 22:23:03.947,20907.484,0.319,0.932,-0.173,-0.017,-0.027,-0.017,-0.046,0.183,-0.074,1.074,-1.2,2.473
2024-10-23 22:23:03.957,20907.494,0.319,0.932,-0.172,-0.015,-0.015,-0.017,-0.063,0.203,-0.078,1.077,-1.201,2.473
2024-10-23 22:23:03.967,20907.504,0.318,0.933,-0.17,-0.016,-0.006,-0.013,-0.099,0.216,-0.085,1.08,-1.202,2.474
2024-10-23 22:23:03.977,20907.514,0.318,0.933,-0.168,-0.017,-0.009,-0.014,-0.122,0.224,-0.093,1.083,-1.203,2.476
2024-10-23 22:23:03.987,20907.524,0.317,0.934,-0.167,-0.012,-0.011,-0.011,-0.136,0.239,-0.084,1.087,-1.204,2.478
2024-10-23 22:23:03.997,20907.534,0.317,0.934,-0.164,-0.007,-0.004,-0.008,-0.151,0.259,-0.074,1.092,-1.206,2.48
2024-10-23 22:23:04.007,20907.544,0.317,0.935,-0.162,-0.003,0.006,-0.002,-0.183,0.254,-0.08,1.097,-1.207,2.483
2024-10-23 22:23:04.017,20907.554,0.316,0.935,-0.16,-0.002,0.009,0.003,-0.211,0.248,-0.073,1.103,-1.209,2.487
2024-10-23 22:23:04.027,20907.564,0.316,0.936,-0.157,0.003,0.007,0.009,-0.213,0.237,-0.069,1.109,-1.21,2.491
2024-10-23 22:23:04.037,20907.574,0.316,0.936,-0.155,0.009,0.004,0.012,-0.214,0.217,-0.067,1.115,-1.212,2.495
2024-10-23 22:23:04.047,20907.584,0.315,0.937,-0.152,0.009,0.005,0.011,-0.185,0.215,-0.058,1.121,-1.213,2.499
2024-10-23 22:23:04.057,20907.594,0.315,0.937,-0.15,0.007,0.011,0.01,-0.151,0.211,-0.05,1.126,-1.214,2.502
2024-10-23 22:23:04.067,20907.604,0.315,0.937,-0.149,0.008,0.011,0.005,-0.108,0.203,-0.038,1.13,-1.215,2.504
2024-10-23 22:23:04.076,20907.614,0.315,0.938,-0.147,0.009,0.013,0.002,-0.073,0.201,-0.027,1.133,-1.216,2.506
2024-10-23 22:23:04.086,20907.624,0.315,0.938,-0.146,0.008,0.02,0.003,-0.051,0.194,-0.023,1.136,-1.216,2.507
2024-10-23 22:23:04.097,20907.634,0.315,0.938,-0.145,0.006,0.024,0.007,-0.03,0.181,-0.022,1.139,-1.217,2.507
2024-10-23 22:23:04.106,20907.644,0.315,0.938,-0.145,0.003,0.023,0.013,0.007,0.173,-0.016,1.141,-1.217,2.508
2024-10-23 22:23:04.116,20907.654,0.315,0.938,-0.144,0.002,0.018,0.016,0.031,0.163,-0.013,1.142,-1.217,2.507
2024-10-23 22:23:04.127,20907.664,0.315,0.938,-0.144,0.002,0.015,0.013,0.065,0.16,-0.003,1.142,-1.217,2.506
2024-10-23 22:23:04.137,20907.674,0.316,0.938,-0.144,0.002,0.016,0.012,0.087,0.153,0.006,1.142,-1.216,2.504
2024-10-23 22:23:04.147,20907.684,0.316,0.938,-0.145,0.003,0.011,0.011,0.1,0.152,0.006,1.141,-1.216,2.501
2024-10-23 22:23:04.157,20907.694,0.316,0.938,-0.145,0.001,0.006,0.008,0.109,0.152,0.008,1.14,-1.215,2.499
2024-10-23 22:23:04.166,20907.704,0.317,0.937,-0.146,0.0,0.001,0.005,0.106,0.156,0.007,1.139,-1.215,2.496
2024-10-23 22:23:04.177,20907.714,0.317,0.937,-0.146,0.001,-0.002,0.004,0.101,0.157,-0.0,1.139,-1.214,2.494
2024-10-23 22:23:04.187,20907.724,0.317,0.937,-0.146,0.003,-0.004,0.004,0.097,0.164,-0.001,1.138,-1.214,2.491
2024-10-23 22:23:04.197,20907.734,0.317,0.937,-0.147,0.003,-0.004,0.002,0.09,0.168,-0.004,1.138,-1.214,2.489
2024-10-23 22:23:04.206,20907.744,0.317,0.937,-0.147,0.004,-0.004,0.002,0.082,0.168,-0.009,1.138,-1.214,2.487
2024-10-23 22:23:04.217,20907.754,0.317,0.937,-0.147,0.002,-0.002,0.004,0.082,0.17,-0.006,1.137,-1.213,2.485
2024-10-23 22:23:04.226,20907.764,0.318,0.937,-0.147,-0.002,-0.002,0.009,0.074,0.157,-0.006,1.137,-1.213,2.483
2024-10-23 22:23:04.237,20907.774,0.318,0.937,-0.147,-0.003,-0.006,0.011,0.086,0.148,-0.008,1.137,-1.213,2.481
2024-10-23 22:23:04.246,20907.784,0.318,0.937,-0.148,-0.003,-0.009,0.012,0.098,0.145,-0.006,1.136,-1.213,2.479
2024-10-23 22:23:04.256,20907.794,0.318,0.936,-0.148,-0.002,-0.012,0.011,0.122,0.143,-0.007,1.135,-1.212,2.476
2024-10-23 22:23:04.266,20907.804,0.318,0.936,-0.149,-0.002,-0.006,0.012,0.134,0.139,-0.007,1.133,-1.212,2.473
2024-10-23 22:23:04.276,20907.814,0.318,0.936,-0.15,0.0,-0.002,0.012,0.145,0.146,-0.007,1.131,-1.211,2.469
2024-10-23 22:23:04.286,20907.824,0.319,0.936,-0.151,0.004,-0.0,0.009,0.141,0.142,-0.011,1.129,-1.211,2.465
2024-10-23 22:23:04.296,20907.834,0.319,0.936,-0.151,0.006,-0.001,0.009,0.125,0.151,-0.01,1.128,-1.21,2.462
2024-10-23 22:23:04.306,20907.844,0.319,0.936,-0.152,0.008,-0.004,0.009,0.106,0.156,-0.013,1.127,-1.21,2.459
2024-10-23 22:23:04.317,20907.854,0.319,0.935,-0.152,0.01,-0.005,0.015,0.094,0.15,-0.017,1.126,-1.21,2.457
2024-10-23 22:23:04.326,20907.864,0.319,0.935,-0.152,0.013,-0.005,0.017,0.08,0.143,-0.015,1.125,-1.209,2.454
2024-10-23 22:23:04.336,20907.874,0.319,0.935,-0.153,0.014,-0.007,0.015,0.073,0.136,-0.012,1.125,-1.209,2.452
2024-10-23 22:23:04.347,20907.884,0.319,0.935,-0.153,0.011,-0.008,0.018,0.082,0.13,-0.016,1.124,-1.209,2.451
2024-10-23 22:23:04.356,20907.894,0.319,0.935,-0.153,0.008,-0.008,0.016,0.096,0.127,-0.015,1.124,-1.209,2.448
2024-10-23 22:23:04.366,20907.903,0.319,0.935,-0.154,0.005,-0.008,0.009,0.106,0.127,-0.012,1.123,-1.209,2.446
2024-10-23 22:23:04.376,20907.913,0.319,0.935,-0.154,0.003,-0.004,0.004,0.124,0.13,-0.013,1.121,-1.208,2.443
2024-10-23 22:23:04.386,20907.923,0.32,0.935,-0.155,0.004,-0.002,0.004,0.122,0.133,-0.012,1.12,-1.208,2.44
2024-10-23 22:23:04.395,20907.933,0.32,0.935,-0.155,0.005,-0.004,0.002,0.118,0.14,-0.017,1.118,-1.207,2.437
2024-10-23 22:23:04.405,20907.943,0.32,0.935,-0.156,0.004,-0.001,0.002,0.117,0.148,-0.012,1.117,-1.207,2.434
2024-10-23 22:23:04.415,20907.953,0.32,0.934,-0.156,0.001,0.003,0.001,0.094,0.147,-0.005,1.117,-1.207,2.432
2024-10-23 22:23:04.425,20907.963,0.32,0.934,-0.157,0.002,0.003,-0.0,0.089,0.144,-0.002,1.116,-1.206,2.43
2024-10-23 22:23:04.436,20907.973,0.321,0.934,-0.157,0.004,-0.002,0.003,0.079,0.138,0.002,1.116,-1.206,2.428
2024-10-23 22:23:04.446,20907.983,0.321,0.934,-0.157,0.004,-0.01,0.003,0.095,0.143,0.004,1.116,-1.205,2.426
2024-10-23 22:23:04.456,20907.993,0.321,0.934,-0.157,0.003,-0.007,0.004,0.106,0.141,0.005,1.115,-1.205,2.424
2024-10-23 22:23:04.466,20908.003,0.322,0.934,-0.158,-0.002,0.001,0.005,0.115,0.139,0.008,1.114,-1.204,2.421
2024-10-23 22:23:04.476,20908.013,0.322,0.933,-0.159,-0.001,-0.001,0.002,0.121,0.127,0.003,1.113,-1.204,2.418
2024-10-23 22:23:04.486,20908.023,0.322,0.933,-0.159,0.001,-0.01,-0.002,0.119,0.136,-0.003,1.111,-1.203,2.416
2024-10-23 22:23:04.496,20908.033,0.322,0.933,-0.16,0.002,-0.008,-0.002,0.113,0.141,-0.004,1.11,-1.203,2.413
2024-10-23 22:23:04.507,20908.043,0.322,0.933,-0.16,-0.0,0.001,-0.002,0.102,0.142,-0.008,1.109,-1.202,2.41
2024-10-23 22:23:04.516,20908.053,0.323,0.933,-0.161,0.001,0.001,-0.002,0.086,0.144,-0.012,1.108,-1.202,2.408
2024-10-23 22:23:04.526,20908.063,0.323,0.933,-0.161,0.003,-0.006,-0.002,0.077,0.147,-0.016,1.108,-1.202,2.406
2024-10-23 22:23:04.536,20908.073,0.323,0.933,-0.161,0.006,-0.01,-0.0,0.065,0.143,-0.021,1.108,-1.202,2.404
2024-10-23 22:23:04.546,20908.083,0.323,0.933,-0.161,0.006,-0.009,0.002,0.067,0.154,-0.021,1.107,-1.202,2.402
2024-10-23 22:23:04.556,20908.093,0.323,0.933,-0.161,0.006,-0.013,0.002,0.059,0.144,-0.023,1.107,-1.202,2.4
2024-10-23 22:23:04.566,20908.103,0.323,0.933,-0.161,0.006,-0.017,-0.0,0.06,0.141,-0.032,1.107,-1.202,2.398
2024-10-23 22:23:04.576,20908.113,0.323,0.933,-0.162,0.005,-0.018,0.004,0.053,0.138,-0.032,1.107,-1.202,2.397
2024-10-23 22:23:04.586,20908.123,0.323,0.933,-0.162,0.001,-0.018,0.005,0.06,0.145,-0.028,1.106,-1.202,2.395
2024-10-23 22:23:04.596,20908.133,0.323,0.933,-0.162,-0.002,-0.012,0.004,0.058,0.138,-0.024,1.106,-1.202,2.393
2024-10-23 22:23:04.606,20908.143,0.323,0.933,-0.162,-0.001,-0.012,0.001,0.053,0.135,-0.036,1.106,-1.201,2.391
2024-10-23 22:23:04.616,20908.153,0.323,0.933,-0.162,0.002,-0.015,0.002,0.048,0.136,-0.03,1.106,-1.202,2.39
2024-10-23 22:23:04.626,20908.163,0.323,0.933,-0.162,0.002,-0.013,0.002,0.038,0.132,-0.031,1.106,-1.202,2.388
2024-10-23 22:23:04.636,20908.173,0.323,0.933,-0.162,0.002,-0.011,0.003,0.029,0.129,-0.037,1.106,-1.202,2.387
2024-10-23 22:23:04.646,20908.183,0.322,0.933,-0.162,0.004,-0.016,0.004,0.029,0.126,-0.043,1.106,-1.202,2.386
2024-10-23 22:23:04.656,20908.193,0.322,0.933,-0.161,0.005,-0.017,0.007,0.035,0.132,-0.041,1.106,-1.202,2.385
2024-10-23 22:23:04.666,20908.203,0.322,0.933,-0.161,0.005,-0.011,0.008,0.037,0.14,-0.039,1.107,-1.202,2.383
2024-10-23 22:23:04.676,20908.213,0.322,0.933,-0.161,0.005,-0.007,0.007,0.036,0.138,-0.036,1.107,-1.202,2.382
2024-10-23 22:23:04.686,20908.223,0.322,0.933,-0.161,0.006,-0.007,0.004,0.037,0.137,-0.038,1.107,-1.202,2.381
2024-10-23 22:23:04.696,20908.233,0.322,0.933,-0.161,0.006,-0.007,0.003,0.037,0.138,-0.04,1.107,-1.203,2.379
2024-10-23 22:23:04.706,20908.243,0.322,0.933,-0.161,0.006,-0.004,0.001,0.031,0.143,-0.034,1.107,-1.203,2.378
2024-10-23 22:23:04.716,20908.253,0.322,0.933,-0.161,0.004,-0.003,-0.001,0.025,0.136,-0.038,1.107,-1.203,2.377
2024-10-23 22:23:04.726,20908.263,0.322,0.933,-0.16,0.006,-0.006,-0.002,0.018,0.134,-0.035,1.108,-1.203,2.376
2024-10-23 22:23:04.736,20908.273,0.322,0.933,-0.16,0.007,-0.006,-0.001,0.014,0.134,-0.037,1.109,-1.203,2.375
2024-10-23 22:23:04.746,20908.283,0.322,0.933,-0.16,0.007,-0.005,0.001,0.021,0.136,-0.035,1.109,-1.203,2.375
2024-10-23 22:23:04.756,20908.293,0.322,0.933,-0.16,0.009,-0.004,0.003,0.018,0.132,-0.031,1.11,-1.204,2.374
2024-10-23 22:23:04.766,20908.303,0.321,0.933,-0.159,0.009,-0.002,0.002,0.017,0.125,-0.035,1.111,-1.204,2.373
2024-10-23 22:23:04.776,20908.313,0.321,0.933,-0.159,0.011,-0.001,0.002,0.036,0.128,-0.033,1.111,-1.204,2.372
2024-10-23 22:23:04.786,20908.323,0.321,0.934,-0.159,0.01,-0.004,-0.0,0.032,0.145,-0.043,1.111,-1.204,2.371
2024-10-23 22:23:04.795,20908.333,0.321,0.934,-0.159,0.008,-0.004,-0.012,-0.052,0.202,-0.065,1.112,-1.205,2.37
2024-10-23 22:23:04.805,20908.343,0.321,0.934,-0.157,-0.004,0.0,-0.015,-0.185,0.245,-0.085,1.116,-1.206,2.372
2024-10-23 22:23:04.815,20908.353,0.32,0.935,-0.154,-0.025,-0.015,-0.018,-0.295,0.198,-0.062,1.123,-1.207,2.377
2024-10-23 22:23:04.825,20908.363,0.32,0.935,-0.151,-0.022,-0.054,-0.047,-0.304,0.108,-0.065,1.131,-1.209,2.384
2024-10-23 22:23:04.835,20908.373,0.32,0.936,-0.147,0.025,-0.077,-0.058,-0.292,0.147,-0.081,1.139,-1.211,2.391
2024-10-23 22:23:04.845,20908.383,0.32,0.937,-0.145,0.061,-0.038,-0.024,-0.207,0.219,-0.041,1.146,-1.213,2.397
2024-10-23 22:23:04.855,20908.393,0.32,0.937,-0.142,0.02,0.02,0.034,-0.158,0.182,-0.035,1.152,-1.214,2.401
2024-10-23 22:23:04.865,20908.403,0.319,0.937,-0.141,-0.023,0.02,0.009,-0.123,0.117,-0.024,1.156,-1.214,2.404
2024-10-23 22:23:04.875,20908.413,0.32,0.937,-0.139,0.022,0.008,0.001,-0.065,0.092,-0.012,1.159,-1.215,2.406
2024-10-23 22:23:04.885,20908.423,0.32,0.937,-0.139,0.067,0.022,0.025,0.028,0.094,-0.0,1.16,-1.215,2.406
2024-10-23 22:23:04.896,20908.433,0.32,0.937,-0.139,0.037,0.035,0.023,0.09,0.096,0.019,1.159,-1.214,2.404
2024-10-23 22:23:04.905,20908.443,0.32,0.937,-0.14,0.002,0.045,0.019,0.095,0.082,0.028,1.158,-1.214,2.402
2024-10-23 22:23:04.915,20908.453,0.321,0.937,-0.141,0.01,0.049,0.025,0.091,0.052,0.024,1.156,-1.213,2.399
2024-10-23 22:23:04.925,20908.463,0.321,0.936,-0.142,0.023,0.021,0.031,0.06,0.012,0.024,1.155,-1.212,2.398
2024-10-23 22:23:04.935,20908.473,0.321,0.936,-0.142,0.028,-0.009,0.033,0.054,-0.008,0.026,1.154,-1.212,2.397
2024-10-23 22:23:04.945,20908.483,0.321,0.936,-0.143,0.025,-0.016,0.036,0.053,-0.03,0.026,1.153,-1.211,2.395
2024-10-23 22:23:04.955,20908.493,0.322,0.936,-0.143,0.017,-0.024,0.042,0.06,-0.05,0.014,1.151,-1.211,2.394
2024-10-23 22:23:04.965,20908.502,0.322,0.936,-0.144,0.014,-0.024,0.049,0.06,-0.059,0.015,1.15,-1.211,2.393
2024-10-23 22:23:04.975,20908.512,0.322,0.936,-0.145,0.013,-0.018,0.052,0.06,-0.077,0.011,1.148,-1.21,2.392
2024-10-23 22:23:04.985,20908.522,0.322,0.936,-0.146,0.013,-0.023,0.042,0.109,-0.088,-0.004,1.145,-1.21,2.39
2024-10-23 22:23:04.995,20908.532,0.321,0.935,-0.147,0.013,-0.019,0.033,0.175,-0.082,0.003,1.141,-1.209,2.387
2024-10-23 22:23:05.005,20908.542,0.321,0.935,-0.149,0.006,-0.011,0.022,0.208,-0.071,0.004,1.137,-1.209,2.382
2024-10-23 22:23:05.015,20908.552,0.321,0.935,-0.151,-0.001,-0.002,0.012,0.199,-0.046,-0.017,1.132,-1.208,2.377
2024-10-23 22:23:05.025,20908.562,0.321,0.935,-0.153,-0.003,0.005,0.01,0.133,-0.036,0.006,1.128,-1.207,2.374
2024-10-23 22:23:05.035,20908.572,0.321,0.934,-0.153,-0.008,-0.013,0.01,0.055,-0.063,-0.011,1.126,-1.207,2.372
2024-10-23 22:23:05.045,20908.582,0.321,0.934,-0.154,-0.007,-0.032,-0.001,-0.024,-0.062,-0.015,1.125,-1.207,2.372
2024-10-23 22:23:05.055,20908.592,0.321,0.935,-0.153,0.009,-0.028,0.008,-0.057,-0.036,-0.018,1.126,-1.207,2.374
2024-10-23 22:23:05.065,20908.602,0.321,0.935,-0.152,0.012,-0.016,0.019,-0.082,-0.033,-0.029,1.128,-1.208,2.376
2024-10-23 22:23:05.075,20908.612,0.321,0.935,-0.151,-0.003,-0.022,0.005,-0.088,-0.033,-0.027,1.13,-1.208,2.378
2024-10-23 22:23:05.085,20908.622,0.321,0.935,-0.151,-0.0,-0.019,-0.01,-0.074,-0.038,-0.016,1.132,-1.209,2.38
2024-10-23 22:23:05.095,20908.632,0.32,0.935,-0.15,0.01,-0.014,-0.016,-0.055,-0.037,-0.01,1.133,-1.209,2.382
2024-10-23 22:23:05.105,20908.642,0.32,0.935,-0.15,0.009,-0.01,-0.013,-0.034,-0.034,-0.005,1.134,-1.209,2.383
2024-10-23 22:23:05.115,20908.652,0.32,0.935,-0.15,0.001,0.005,-0.007,-0.011,-0.033,-0.002,1.134,-1.21,2.384
2024-10-23 22:23:05.125,20908.662,0.32,0.935,-0.15,-0.001,0.017,-0.002,0.011,-0.035,0.008,1.133,-1.209,2.384
2024-10-23 22:23:05.135,20908.672,0.32,0.935,-0.15,0.002,0.016,-0.0,0.014,-0.047,0.01,1.133,-1.209,2.383
2024-10-23 22:23:05.145,20908.682,0.321,0.935,-0.15,0.006,0.014,0.001,0.009,-0.056,0.013,1.133,-1.209,2.384
2024-10-23 22:23:05.155,20908.692,0.321,0.935,-0.15,0.008,0.012,0.008,0.007,-0.057,0.014,1.132,-1.209,2.384
2024-10-23 22:23:05.165,20908.702,0.321,0.935,-0.151,0.006,0.013,0.011,-0.003,-0.054,0.023,1.131,-1.209,2.384
2024-10-23 22:23:05.175,20908.712,0.321,0.935,-0.151,0.005,0.012,0.007,-0.01,-0.053,0.024,1.131,-1.208,2.384
2024-10-23 22:23:05.185,20908.722,0.321,0.935,-0.151,0.006,0.01,0.007,-0.011,-0.056,0.027,1.131,-1.208,2.384
2024-10-23 22:23:05.195,20908.732,0.321,0.935,-0.151,0.006,0.007,0.009,-0.011,-0.053,0.028,1.131,-1.208,2.385
2024-10-23 22:23:05.205,20908.742,0.321,0.935,-0.151,0.008,0.001,0.007,-0.007,-0.053,0.026,1.131,-1.208,2.385
2024-10-23 22:23:05.215,20908.752,0.322,0.935,-0.151,0.006,-0.003,0.006,-0.004,-0.055,0.024,1.131,-1.207,2.386
2024-10-23 22:23:05.225,20908.762,0.322,0.935,-0.152,0.006,-0.006,0.007,-0.004,-0.061,0.02,1.131,-1.207,2.386
2024-10-23 22:23:05.235,20908.772,0.322,0.935,-0.152,0.005,-0.01,0.006,-0.004,-0.067,0.013,1.13,-1.207,2.387
2024-10-23 22:23:05.245,20908.782,0.322,0.935,-0.152,0.006,-0.011,0.008,-0.018,-0.067,0.012,1.13,-1.207,2.387
2024-10-23 22:23:05.255,20908.792,0.322,0.935,-0.152,0.007,-0.007,0.011,-0.036,-0.069,0.008,1.13,-1.207,2.388
2024-10-23 22:23:05.265,20908.802,0.322,0.935,-0.151,0.007,-0.007,0.008,-0.025,-0.072,0.008,1.131,-1.207,2.389
2024-10-23 22:23:05.275,20908.812,0.322,0.935,-0.151,0.004,-0.01,0.006,-0.006,-0.072,0.011,1.131,-1.207,2.39
2024-10-23 22:23:05.285,20908.822,0.322,0.935,-0.152,0.001,-0.01,-0.004,0.004,-0.075,0.017,1.13,-1.207,2.39
2024-10-23 22:23:05.295,20908.832,0.322,0.935,-0.152,0.001,-0.001,-0.008,0.007,-0.077,0.02,1.13,-1.207,2.39
2024-10-23 22:23:05.304,20908.842,0.322,0.934,-0.152,0.005,0.005,-0.007,0.0,-0.078,0.026,1.129,-1.207,2.391
2024-10-23 22:23:05.315,20908.852,0.322,0.934,-0.152,0.01,0.001,-0.001,-0.005,-0.083,0.024,1.129,-1.206,2.391
2024-10-23 22:23:05.325,20908.862,0.322,0.934,-0.153,0.014,-0.006,0.003,0.001,-0.08,0.025,1.129,-1.206,2.392
2024-10-23 22:23:05.335,20908.872,0.323,0.934,-0.153,0.013,-0.008,0.007,0.006,-0.079,0.025,1.128,-1.206,2.392
2024-10-23 22:23:05.345,20908.882,0.323,0.934,-0.153,0.012,-0.002,0.008,0.017,-0.067,0.023,1.128,-1.206,2.392
2024-10-23 22:23:05.355,20908.892,0.323,0.934,-0.153,0.009,-0.002,0.009,0.011,-0.077,0.025,1.127,-1.205,2.393
2024-10-23 22:23:05.364,20908.902,0.323,0.934,-0.154,0.006,-0.007,0.009,0.015,-0.088,0.026,1.126,-1.205,2.392
2024-10-23 22:23:05.374,20908.912,0.323,0.934,-0.154,0.007,-0.008,0.01,0.003,-0.096,0.024,1.125,-1.205,2.392
2024-10-23 22:23:05.384,20908.922,0.323,0.934,-0.155,0.007,-0.007,0.015,-0.001,-0.093,0.026,1.125,-1.204,2.393
2024-10-23 22:23:05.394,20908.932,0.323,0.934,-0.155,0.005,-0.008,0.017,-0.01,-0.101,0.021,1.124,-1.204,2.393
2024-10-23 22:23:05.405,20908.942,0.323,0.933,-0.155,0.005,-0.013,0.015,-0.011,-0.108,0.015,1.124,-1.204,2.394
2024-10-23 22:23:05.415,20908.952,0.323,0.933,-0.155,0.003,-0.014,0.016,-0.018,-0.111,0.013,1.123,-1.204,2.395
2024-10-23 22:23:05.424,20908.962,0.323,0.933,-0.155,0.003,-0.008,0.014,-0.022,-0.108,0.013,1.123,-1.204,2.395
2024-10-23 22:23:05.434,20908.972,0.323,0.933,-0.155,0.0,-0.003,0.012,-0.018,-0.11,0.012,1.123,-1.204,2.396
2024-10-23 22:23:05.445,20908.982,0.323,0.933,-0.156,-0.004,-0.009,0.013,-0.02,-0.11,0.017,1.122,-1.204,2.397
2024-10-23 22:23:05.454,20908.992,0.323,0.933,-0.156,-0.004,-0.015,0.009,-0.022,-0.109,0.021,1.122,-1.204,2.398
2024-10-23 22:23:05.464,20909.002,0.324,0.933,-0.156,-0.001,-0.009,0.01,-0.026,-0.111,0.024,1.122,-1.203,2.399
2024-10-23 22:23:05.474,20909.012,0.324,0.933,-0.156,-0.004,-0.002,0.008,-0.03,-0.122,0.026,1.122,-1.203,2.401
2024-10-23 22:23:05.484,20909.022,0.324,0.933,-0.156,-0.005,-0.006,0.006,-0.036,-0.126,0.02,1.123,-1.203,2.402
2024-10-23 22:23:05.494,20909.032,0.324,0.933,-0.156,-0.0,-0.006,0.002,-0.043,-0.123,0.015,1.123,-1.203,2.403
2024-10-23 22:23:05.504,20909.042,0.324,0.933,-0.156,0.002,-0.003,-0.0,-0.04,-0.12,0.019,1.123,-1.203,2.405
2024-10-23 22:23:05.514,20909.052,0.324,0.933,-0.156,-0.002,-0.0,-0.002,-0.031,-0.111,0.023,1.123,-1.203,2.406
2024-10-23 22:23:05.524,20909.062,0.324,0.933,-0.156,-0.004,0.003,-0.007,-0.035,-0.108,0.025,1.123,-1.203,2.407
2024-10-23 22:23:05.535,20909.072,0.324,0.933,-0.155,-0.001,0.008,-0.011,-0.041,-0.103,0.029,1.123,-1.203,2.409
2024-10-23 22:23:05.544,20909.082,0.324,0.933,-0.155,-0.005,0.008,-0.011,-0.053,-0.106,0.027,1.124,-1.203,2.41
2024-10-23 22:23:05.554,20909.092,0.324,0.933,-0.155,-0.01,0.004,-0.012,-0.056,-0.101,0.027,1.124,-1.203,2.412
2024-10-23 22:23:05.564,20909.101,0.324,0.933,-0.155,-0.011,0.003,-0.01,-0.054,-0.077,0.032,1.125,-1.203,2.414
2024-10-23 22:23:05.574,20909.111,0.324,0.933,-0.155,-0.01,0.005,-0.008,-0.046,-0.088,0.04,1.126,-1.203,2.416
2024-10-23 22:23:05.584,20909.121,0.325,0.933,-0.154,-0.011,0.003,-0.008,-0.054,-0.09,0.033,1.127,-1.203,2.417
2024-10-23 22:23:05.594,20909.131,0.325,0.933,-0.154,-0.008,-0.0,-0.007,-0.055,-0.093,0.027,1.127,-1.203,2.419
2024-10-23 22:23:05.604,20909.141,0.325,0.933,-0.154,-0.006,0.002,-0.003,-0.051,-0.087,0.028,1.128,-1.203,2.421
2024-10-23 22:23:05.614,20909.151,0.325,0.933,-0.154,-0.01,0.004,-0.002,-0.056,-0.093,0.03,1.128,-1.203,2.422
2024-10-23 22:23:05.624,20909.161,0.325,0.933,-0.154,-0.009,-0.0,-0.001,-0.05,-0.091,0.033,1.129,-1.203,2.424
2024-10-23 22:23:05.634,20909.171,0.325,0.933,-0.154,-0.005,-0.004,0.0,-0.033,-0.091,0.034,1.129,-1.203,2.425
2024-10-23 22:23:05.644,20909.181,0.325,0.933,-0.154,-0.004,-0.002,0.001,-0.033,-0.094,0.032,1.129,-1.203,2.426
2024-10-23 22:23:05.654,20909.191,0.325,0.933,-0.154,-0.004,0.002,0.0,-0.031,-0.092,0.029,1.129,-1.203,2.427
2024-10-23 22:23:05.664,20909.201,0.325,0.933,-0.154,-0.003,0.006,0.002,-0.034,-0.096,0.028,1.129,-1.202,2.427
2024-10-23 22:23:05.674,20909.211,0.325,0.933,-0.154,-0.004,0.002,0.003,-0.02,-0.093,0.034,1.128,-1.202,2.428
2024-10-23 22:23:05.684,20909.221,0.326,0.933,-0.154,-0.004,-0.006,0.002,-0.022,-0.099,0.033,1.128,-1.202,2.429
2024-10-23 22:23:05.694,20909.231,0.326,0.933,-0.154,-0.002,-0.004,0.003,-0.018,-0.096,0.034,1.128,-1.202,2.43
2024-10-23 22:23:05.704,20909.241,0.326,0.933,-0.155,-0.003,0.002,0.006,-0.022,-0.103,0.033,1.128,-1.202,2.431
2024-10-23 22:23:05.714,20909.251,0.326,0.933,-0.155,-0.003,-0.004,0.004,-0.037,-0.102,0.032,1.128,-1.202,2.432
2024-10-23 22:23:05.724,20909.261,0.326,0.933,-0.155,0.001,-0.01,0.003,-0.036,-0.097,0.035,1.128,-1.202,2.433
2024-10-23 22:23:05.734,20909.271,0.326,0.933,-0.155,-0.002,-0.01,0.007,-0.032,-0.095,0.038,1.128,-1.201,2.434
2024-10-23 22:23:05.744,20909.281,0.326,0.933,-0.155,-0.006,-0.011,0.006,-0.027,-0.099,0.03,1.128,-1.201,2.436
2024-10-23 22:23:05.754,20909.291,0.326,0.932,-0.155,-0.005,-0.012,0.001,-0.013,-0.096,0.026,1.128,-1.201,2.436
2024-10-23 22:23:05.764,20909.301,0.327,0.932,-0.155,-0.007,-0.011,-0.001,0.001,-0.088,0.034,1.128,-1.201,2.437
2024-10-23 22:23:05.774,20909.311,0.327,0.932,-0.155,-0.009,-0.004,-0.003,0.004,-0.089,0.04,1.127,-1.201,2.437
2024-10-23 22:23:05.784,20909.321,0.327,0.932,-0.156,-0.01,0.002,-0.003,-0.016,-0.087,0.038,1.127,-1.2,2.438
2024-10-23 22:23:05.794,20909.331,0.327,0.932,-0.156,-0.008,0.007,-0.001,-0.006,-0.087,0.034,1.127,-1.2,2.439
2024-10-23 22:23:05.804,20909.341,0.327,0.932,-0.156,-0.009,0.019,0.003,0.03,-0.097,0.028,1.126,-1.2,2.439
2024-10-23 22:23:05.814,20909.351,0.327,0.932,-0.157,-0.011,0.018,-0.004,0.058,-0.11,0.019,1.124,-1.199,2.438
2024-10-23 22:23:05.824,20909.361,0.327,0.932,-0.158,-0.005,0.01,0.002,0.109,-0.129,0.001,1.121,-1.199,2.436
2024-10-23 22:23:05.834,20909.371,0.327,0.932,-0.159,0.002,0.001,0.025,0.13,-0.148,-0.022,1.117,-1.199,2.433
2024-10-23 22:23:05.844,20909.381,0.326,0.931,-0.162,-0.003,-0.016,0.042,0.288,-0.155,-0.058,1.11,-1.198,2.428
2024-10-23 22:23:05.854,20909.391,0.325,0.931,-0.166,-0.003,-0.021,0.057,0.499,-0.198,-0.032,1.099,-1.197,2.418
2024-10-23 22:23:05.864,20909.401,0.325,0.93,-0.172,-0.005,-0.029,0.059,0.646,-0.241,-0.013,1.084,-1.194,2.403
2024-10-23 22:23:05.874,20909.411,0.324,0.929,-0.179,0.001,-0.025,0.055,0.607,-0.237,-0.043,1.067,-1.192,2.388
2024-10-23 22:23:05.884,20909.421,0.323,0.928,-0.184,0.007,0.014,0.065,0.536,-0.161,-0.093,1.052,-1.19,2.374
2024-10-23 22:23:05.894,20909.431,0.322,0.928,-0.189,-0.03,0.049,0.072,0.334,-0.149,-0.096,1.04,-1.188,2.363
2024-10-23 22:23:05.904,20909.441,0.32,0.928,-0.192,-0.064,0.005,0.031,0.152,-0.188,-0.143,1.032,-1.188,2.356
2024-10-23 22:23:05.914,20909.451,0.319,0.928,-0.193,-0.023,-0.068,0.001,-0.034,-0.133,-0.203,1.027,-1.189,2.352
2024-10-23 22:23:05.924,20909.461,0.316,0.929,-0.192,0.016,-0.101,-0.008,-0.185,-0.028,-0.243,1.025,-1.192,2.351
2024-10-23 22:23:05.934,20909.471,0.314,0.93,-0.189,-0.011,-0.089,-0.005,-0.361,-0.008,-0.226,1.028,-1.195,2.354
2024-10-23 22:23:05.944,20909.481,0.312,0.932,-0.185,-0.058,-0.095,-0.035,-0.542,-0.072,-0.224,1.035,-1.2,2.362
2024-10-23 22:23:05.954,20909.491,0.31,0.934,-0.18,-0.019,-0.12,-0.071,-0.567,-0.098,-0.193,1.044,-1.204,2.372
2024-10-23 22:23:05.963,20909.501,0.308,0.935,-0.176,0.039,-0.119,-0.04,-0.466,-0.105,-0.137,1.052,-1.208,2.383
2024-10-23 22:23:05.973,20909.511,0.307,0.936,-0.172,0.028,-0.084,-0.025,-0.312,-0.111,-0.085,1.059,-1.211,2.391
2024-10-23 22:23:05.984,20909.521,0.306,0.937,-0.171,0.013,0.002,-0.022,-0.115,-0.122,-0.047,1.062,-1.213,2.395
2024-10-23 22:23:05.993,20909.531,0.306,0.937,-0.171,0.027,0.088,-0.012,0.096,-0.105,-0.017,1.061,-1.213,2.395
2024-10-23 22:23:06.003,20909.541,0.305,0.936,-0.173,0.031,0.139,0.001,0.23,-0.084,0.026,1.056,-1.212,2.391
2024-10-23 22:23:06.013,20909.551,0.306,0.936,-0.176,0.018,0.156,0.007,0.299,-0.068,0.066,1.049,-1.21,2.385
2024-10-23 22:23:06.024,20909.561,0.306,0.935,-0.179,0.002,0.149,0.01,0.287,-0.054,0.102,1.043,-1.208,2.379
2024-10-23 22:23:06.033,20909.571,0.307,0.934,-0.181,-0.005,0.118,-0.002,0.254,-0.041,0.119,1.038,-1.206,2.374
2024-10-23 22:23:06.044,20909.581,0.309,0.933,-0.184,-0.011,0.098,-0.022,0.246,-0.026,0.13,1.034,-1.204,2.37
2024-10-23 22:23:06.054,20909.591,0.31,0.932,-0.186,-0.023,0.09,-0.044,0.254,-0.01,0.134,1.03,-1.201,2.366
2024-10-23 22:23:06.063,20909.601,0.311,0.932,-0.188,-0.031,0.077,-0.057,0.248,0.001,0.132,1.026,-1.199,2.362
2024-10-23 22:23:06.073,20909.611,0.312,0.931,-0.191,-0.029,0.06,-0.055,0.211,0.016,0.133,1.023,-1.196,2.358
2024-10-23 22:23:06.083,20909.621,0.313,0.93,-0.192,-0.029,0.035,-0.04,0.14,0.02,0.135,1.021,-1.194,2.356
2024-10-23 22:23:06.093,20909.631,0.315,0.929,-0.193,-0.033,0.006,-0.031,0.057,0.009,0.099,1.02,-1.193,2.355
2024-10-23 22:23:06.103,20909.641,0.315,0.929,-0.193,-0.019,-0.015,-0.024,0.019,0.036,0.08,1.021,-1.192,2.356
2024-10-23 22:23:06.113,20909.651,0.316,0.929,-0.193,-0.007,-0.031,0.005,0.005,0.072,0.058,1.022,-1.191,2.356
2024-10-23 22:23:06.123,20909.661,0.317,0.929,-0.193,-0.019,-0.043,0.013,0.011,0.098,0.041,1.024,-1.191,2.357
2024-10-23 22:23:06.133,20909.671,0.317,0.929,-0.193,-0.028,-0.045,0.006,-0.012,0.089,0.032,1.025,-1.19,2.357
2024-10-23 22:23:06.143,20909.681,0.318,0.929,-0.192,-0.016,-0.055,-0.002,-0.045,0.077,0.017,1.027,-1.19,2.358
2024-10-23 22:23:06.153,20909.69,0.318,0.929,-0.191,-0.003,-0.062,0.001,-0.077,0.079,0.012,1.029,-1.191,2.36
2024-10-23 22:23:06.163,20909.7,0.318,0.929,-0.19,-0.006,-0.057,0.008,-0.104,0.069,0.004,1.032,-1.191,2.362
2024-10-23 22:23:06.173,20909.71,0.318,0.929,-0.189,-0.013,-0.048,0.012,-0.13,0.063,0.001,1.035,-1.192,2.365
2024-10-23 22:23:06.183,20909.72,0.318,0.929,-0.188,-0.01,-0.033,0.018,-0.152,0.057,-0.001,1.038,-1.192,2.368
2024-10-23 22:23:06.193,20909.73,0.318,0.93,-0.186,-0.003,-0.02,0.017,-0.175,0.041,-0.004,1.042,-1.193,2.372
2024-10-23 22:23:06.203,20909.74,0.318,0.93,-0.184,0.004,-0.018,0.012,-0.192,0.037,-0.006,1.047,-1.194,2.376
2024-10-23 22:23:06.213,20909.75,0.318,0.93,-0.182,0.009,-0.02,0.013,-0.208,0.022,-0.008,1.051,-1.195,2.38
2024-10-23 22:23:06.223,20909.76,0.318,0.931,-0.18,0.012,-0.015,0.011,-0.24,0.02,-0.008,1.056,-1.196,2.385
2024-10-23 22:23:06.233,20909.77,0.318,0.931,-0.178,0.01,-0.005,0.008,-0.237,0.009,-0.012,1.061,-1.198,2.391
2024-10-23 22:23:06.243,20909.78,0.318,0.932,-0.176,0.007,-0.002,0.009,-0.225,0.022,0.002,1.066,-1.199,2.396
2024-10-23 22:23:06.253,20909.79,0.318,0.932,-0.174,0.006,-0.008,0.006,-0.227,-0.003,0.009,1.072,-1.2,2.402
2024-10-23 22:23:06.263,20909.8,0.318,0.932,-0.172,0.009,-0.007,0.002,-0.21,-0.005,0.004,1.077,-1.201,2.407
2024-10-23 22:23:06.273,20909.81,0.318,0.933,-0.17,0.01,-0.001,0.007,-0.181,-0.004,0.005,1.081,-1.202,2.412
2024-10-23 22:23:06.283,20909.82,0.319,0.933,-0.168,0.004,0.001,0.004,-0.163,0.001,0.007,1.085,-1.202,2.416
2024-10-23 22:23:06.293,20909.83,0.319,0.933,-0.167,-0.004,0.009,0.001,-0.157,0.005,0.019,1.089,-1.203,2.421
2024-10-23 22:23:06.303,20909.84,0.319,0.933,-0.165,-0.01,0.008,-0.001,-0.153,0.001,0.026,1.093,-1.203,2.425
2024-10-23 22:23:06.313,20909.85,0.319,0.933,-0.164,-0.013,0.001,-0.005,-0.14,-0.008,0.011,1.097,-1.204,2.429
2024-10-23 22:23:06.323,20909.86,0.319,0.934,-0.163,-0.01,0.001,-0.008,-0.111,0.017,0.01,1.1,-1.204,2.432
2024-10-23 22:23:06.333,20909.87,0.32,0.934,-0.162,-0.011,0.008,-0.01,-0.142,0.026,0.011,1.103,-1.205,2.435
2024-10-23 22:23:06.343,20909.88,0.32,0.934,-0.16,-0.012,0.002,-0.009,-0.213,0.037,0.005,1.107,-1.205,2.439
2024-10-23 22:23:06.353,20909.89,0.32,0.934,-0.158,-0.013,-0.004,-0.008,-0.279,0.042,-0.006,1.113,-1.206,2.446
2024-10-23 22:23:06.363,20909.9,0.32,0.935,-0.155,-0.017,-0.011,-0.006,-0.325,0.042,-0.018,1.121,-1.208,2.453
2024-10-23 22:23:06.373,20909.91,0.32,0.935,-0.151,-0.019,-0.016,-0.01,-0.331,0.06,-0.013,1.129,-1.209,2.461
2024-10-23 22:23:06.383,20909.92,0.32,0.936,-0.148,-0.014,-0.013,-0.011,-0.293,0.066,-0.016,1.136,-1.211,2.469
2024-10-23 22:23:06.393,20909.93,0.319,0.936,-0.146,-0.009,-0.007,-0.011,-0.239,0.078,-0.033,1.143,-1.212,2.475
2024-10-23 22:23:06.403,20909.94,0.319,0.937,-0.144,-0.009,-0.0,-0.013,-0.189,0.103,-0.047,1.148,-1.213,2.479
2024-10-23 22:23:06.413,20909.95,0.319,0.937,-0.142,-0.01,0.005,-0.012,-0.139,0.128,-0.06,1.152,-1.214,2.482
2024-10-23 22:23:06.423,20909.96,0.318,0.938,-0.141,-0.012,0.016,-0.01,-0.106,0.135,-0.07,1.155,-1.215,2.484
2024-10-23 22:23:06.433,20909.97,0.318,0.938,-0.139,-0.01,0.016,-0.006,-0.126,0.125,-0.065,1.157,-1.217,2.486
2024-10-23 22:23:06.443,20909.98,0.317,0.938,-0.138,-0.006,0.01,-0.006,-0.141,0.127,-0.067,1.161,-1.218,2.488
2024-10-23 22:23:06.453,20909.99,0.317,0.939,-0.136,0.0,-0.002,-0.005,-0.157,0.093,-0.048,1.164,-1.219,2.491
2024-10-23 22:23:06.463,20910.0,0.316,0.939,-0.135,0.005,-0.023,-0.007,-0.144,0.061,-0.026,1.168,-1.22,2.494
2024-10-23 22:23:06.473,20910.01,0.316,0.939,-0.134,0.012,-0.021,-0.006,-0.111,0.047,-0.015,1.171,-1.22,2.497
2024-10-23 22:23:06.482,20910.02,0.316,0.939,-0.133,0.015,-0.005,-0.002,-0.069,0.029,0.014,1.173,-1.221,2.499
2024-10-23 22:23:06.493,20910.03,0.316,0.939,-0.133,0.004,-0.002,-0.004,-0.011,0.023,0.024,1.174,-1.221,2.5
2024-10-23 22:23:06.503,20910.04,0.317,0.939,-0.133,0.002,-0.001,0.004,0.048,0.032,0.037,1.174,-1.22,2.499
2024-10-23 22:23:06.512,20910.05,0.317,0.939,-0.133,0.007,0.003,0.011,0.105,0.025,0.047,1.172,-1.22,2.497
2024-10-23 22:23:06.522,20910.06,0.317,0.939,-0.135,0.008,0.01,0.009,0.153,0.015,0.035,1.169,-1.219,2.494
2024-10-23 22:23:06.532,20910.07,0.318,0.938,-0.136,0.009,0.027,0.016,0.115,0.02,0.026,1.166,-1.218,2.49
2024-10-23 22:23:06.542,20910.08,0.318,0.938,-0.137,0.01,0.029,0.023,0.09,0.015,0.018,1.164,-1.217,2.488
2024-10-23 22:23:06.552,20910.09,0.318,0.938,-0.138,0.006,0.014,0.027,0.064,-0.006,0.008,1.162,-1.217,2.486
2024-10-23 22:23:06.563,20910.1,0.318,0.938,-0.138,0.008,-0.015,0.023,0.067,-0.008,0.016,1.161,-1.216,2.485
2024-10-23 22:23:06.572,20910.11,0.319,0.938,-0.139,0.011,-0.019,0.015,0.044,-0.006,0.019,1.16,-1.216,2.484
2024-10-23 22:23:06.582,20910.12,0.319,0.938,-0.139,0.011,-0.001,0.012,0.003,-0.007,0.015,1.16,-1.216,2.483
2024-10-23 22:23:06.592,20910.13,0.319,0.938,-0.139,0.004,-0.007,0.007,-0.013,-0.045,0.029,1.16,-1.216,2.484
2024-10-23 22:23:06.602,20910.14,0.319,0.937,-0.139,0.001,-0.031,0.007,0.023,-0.034,0.015,1.16,-1.215,2.485
2024-10-23 22:23:06.612,20910.15,0.319,0.937,-0.139,0.002,-0.036,0.011,0.075,-0.025,0.051,1.16,-1.215,2.484
2024-10-23 22:23:06.622,20910.16,0.32,0.937,-0.14,-0.006,-0.011,0.01,0.17,-0.005,0.046,1.158,-1.214,2.482
2024-10-23 22:23:06.632,20910.17,0.32,0.937,-0.142,-0.009,0.016,0.008,0.196,-0.029,0.058,1.154,-1.213,2.478
2024-10-23 22:23:06.642,20910.18,0.321,0.936,-0.143,-0.007,-0.0,0.001,0.164,-0.023,0.048,1.15,-1.212,2.474
2024-10-23 22:23:06.653,20910.19,0.321,0.936,-0.145,0.006,-0.016,0.009,0.118,-0.046,0.035,1.147,-1.211,2.472
2024-10-23 22:23:06.662,20910.2,0.322,0.936,-0.146,0.014,-0.006,0.017,0.077,-0.037,0.034,1.145,-1.21,2.47
2024-10-23 22:23:06.672,20910.21,0.322,0.935,-0.146,0.012,0.002,0.016,0.045,-0.02,0.024,1.144,-1.209,2.469
2024-10-23 22:23:06.683,20910.22,0.322,0.935,-0.147,0.005,0.005,0.017,0.008,-0.019,0.024,1.144,-1.209,2.469
2024-10-23 22:23:06.692,20910.23,0.322,0.935,-0.146,0.001,0.006,0.007,-0.062,-0.023,0.03,1.145,-1.209,2.47
2024-10-23 22:23:06.702,20910.24,0.323,0.935,-0.146,0.006,0.006,0.002,-0.09,-0.034,0.032,1.147,-1.209,2.472
2024-10-23 22:23:06.712,20910.25,0.323,0.935,-0.145,0.009,0.008,-0.0,-0.035,-0.034,0.052,1.149,-1.209,2.475
2024-10-23 22:23:06.722,20910.26,0.323,0.935,-0.145,0.005,0.009,-0.015,-0.002,-0.023,0.074,1.149,-1.209,2.476
2024-10-23 22:23:06.732,20910.27,0.324,0.935,-0.145,0.002,-0.001,-0.023,-0.037,-0.018,0.079,1.151,-1.208,2.477
2024-10-23 22:23:06.742,20910.28,0.325,0.935,-0.145,-0.004,-0.005,-0.017,0.003,-0.031,0.088,1.152,-1.207,2.479
2024-10-23 22:23:06.752,20910.289,0.326,0.934,-0.145,-0.011,-0.0,-0.005,0.017,-0.04,0.105,1.153,-1.206,2.48
2024-10-23 22:23:06.762,20910.299,0.327,0.934,-0.145,-0.015,-0.013,-0.014,0.039,-0.04,0.079,1.153,-1.205,2.481
2024-10-23 22:23:06.772,20910.309,0.327,0.934,-0.145,-0.009,0.004,-0.006,0.042,-0.039,0.07,1.152,-1.205,2.481
2024-10-23 22:23:06.782,20910.319,0.328,0.933,-0.146,-0.013,0.027,0.006,0.025,-0.031,0.048,1.152,-1.204,2.481
2024-10-23 22:23:06.792,20910.329,0.328,0.933,-0.146,-0.016,0.015,0.006,-0.032,-0.008,0.021,1.152,-1.204,2.481
2024-10-23 22:23:06.802,20910.339,0.328,0.933,-0.146,-0.014,-0.007,0.008,-0.07,-0.017,-0.007,1.153,-1.204,2.482
2024-10-23 22:23:06.812,20910.349,0.328,0.934,-0.145,-0.005,-0.02,0.01,-0.061,-0.009,-0.021,1.154,-1.204,2.483
2024-10-23 22:23:06.822,20910.359,0.328,0.934,-0.145,0.0,-0.02,0.004,-0.007,0.006,-0.001,1.154,-1.204,2.484
2024-10-23 22:23:06.832,20910.369,0.328,0.934,-0.145,-0.005,-0.0,-0.008,0.026,0.006,0.009,1.154,-1.204,2.484
2024-10-23 22:23:06.842,20910.379,0.328,0.934,-0.145,-0.006,0.021,-0.015,0.011,-0.003,0.0,1.153,-1.204,2.483
2024-10-23 22:23:06.852,20910.389,0.328,0.934,-0.145,-0.002,0.016,-0.011,-0.025,0.014,0.003,1.153,-1.204,2.483
2024-10-23 22:23:06.862,20910.399,0.327,0.934,-0.145,-0.002,0.006,-0.0,-0.044,0.008,-0.004,1.154,-1.205,2.484
2024-10-23 22:23:06.872,20910.409,0.327,0.934,-0.144,-0.001,0.001,0.002,-0.029,0.003,0.015,1.155,-1.205,2.485
2024-10-23 22:23:06.882,20910.419,0.328,0.934,-0.144,-0.001,-0.004,-0.002,0.014,0.007,0.021,1.156,-1.205,2.485
2024-10-23 22:23:06.892,20910.429,0.328,0.934,-0.144,-0.001,-0.011,-0.002,-0.013,0.008,0.031,1.156,-1.205,2.486
2024-10-23 22:23:06.902,20910.439,0.328,0.934,-0.144,-0.007,-0.024,-0.001,0.02,0.006,0.027,1.157,-1.204,2.486
2024-10-23 22:23:06.912,20910.449,0.328,0.933,-0.145,-0.008,-0.028,0.015,0.037,-0.023,0.029,1.156,-1.204,2.485
2024-10-23 22:23:06.922,20910.459,0.328,0.933,-0.145,-0.001,-0.026,0.015,0.04,-0.055,0.025,1.155,-1.204,2.484
2024-10-23 22:23:06.932,20910.469,0.329,0.933,-0.146,0.001,-0.015,0.015,0.02,0.004,0.017,1.154,-1.203,2.484
2024-10-23 22:23:06.942,20910.479,0.329,0.933,-0.146,0.002,0.0,0.024,0.005,0.012,0.004,1.154,-1.203,2.483
2024-10-23 22:23:06.952,20910.489,0.329,0.933,-0.146,-0.006,0.006,0.022,-0.033,-0.001,0.003,1.154,-1.203,2.484
2024-10-23 22:23:06.962,20910.499,0.329,0.933,-0.145,-0.011,-0.007,0.008,-0.058,-0.007,0.002,1.155,-1.203,2.485
2024-10-23 22:23:06.972,20910.509,0.329,0.933,-0.145,-0.001,-0.01,0.012,-0.06,-0.014,0.014,1.156,-1.203,2.487
2024-10-23 22:23:06.982,20910.519,0.329,0.933,-0.144,0.001,-0.01,0.008,-0.07,-0.016,0.011,1.158,-1.204,2.488
2024-10-23 22:23:06.992,20910.529,0.329,0.933,-0.143,-0.003,-0.012,0.006,-0.067,-0.018,0.017,1.16,-1.204,2.49
2024-10-23 22:23:07.002,20910.539,0.329,0.933,-0.143,-0.008,-0.015,0.003,-0.064,-0.022,0.021,1.161,-1.204,2.492
2024-10-23 22:23:07.012,20910.549,0.329,0.933,-0.142,-0.008,-0.007,0.001,-0.07,-0.023,0.024,1.163,-1.204,2.494
2024-10-23 22:23:07.022,20910.559,0.329,0.933,-0.141,-0.004,0.005,0.001,-0.074,-0.015,0.023,1.165,-1.204,2.497
2024-10-23 22:23:07.032,20910.569,0.33,0.934,-0.14,-0.006,0.007,-0.002,-0.132,0.012,0.024,1.168,-1.204,2.5
2024-10-23 22:23:07.042,20910.579,0.33,0.934,-0.139,-0.004,-0.003,-0.005,-0.186,0.006,0.015,1.172,-1.205,2.504
2024-10-23 22:23:07.052,20910.589,0.33,0.934,-0.137,-0.002,-0.01,-0.004,-0.175,0.018,0.013,1.177,-1.205,2.509
2024-10-23 22:23:07.062,20910.599,0.33,0.934,-0.136,-0.004,-0.019,-0.008,-0.115,0.031,0.015,1.181,-1.206,2.513
2024-10-23 22:23:07.072,20910.609,0.33,0.934,-0.135,-0.005,-0.016,-0.016,-0.081,0.032,0.014,1.184,-1.206,2.516
2024-10-23 22:23:07.082,20910.619,0.33,0.934,-0.134,-0.008,-0.0,-0.017,-0.06,0.036,0.006,1.186,-1.206,2.517
2024-10-23 22:23:07.092,20910.629,0.331,0.934,-0.133,-0.01,0.01,-0.015,-0.094,0.083,-0.001,1.188,-1.206,2.519
2024-10-23 22:23:07.102,20910.639,0.33,0.935,-0.132,-0.009,0.006,-0.006,-0.18,0.064,-0.029,1.192,-1.207,2.522
2024-10-23 22:23:07.112,20910.649,0.33,0.935,-0.13,-0.003,-0.007,-0.004,-0.115,0.044,-0.056,1.195,-1.208,2.526
2024-10-23 22:23:07.122,20910.659,0.33,0.935,-0.129,0.003,-0.02,-0.011,-0.061,0.07,-0.027,1.197,-1.209,2.527
2024-10-23 22:23:07.132,20910.669,0.33,0.935,-0.128,0.004,-0.019,-0.017,-0.079,0.074,-0.021,1.199,-1.209,2.529
2024-10-23 22:23:07.142,20910.679,0.33,0.936,-0.127,0.007,0.006,-0.011,-0.111,0.068,-0.028,1.202,-1.21,2.531
2024-10-23 22:23:07.152,20910.689,0.329,0.936,-0.126,0.004,-0.014,0.005,-0.106,0.067,-0.027,1.204,-1.21,2.533
2024-10-23 22:23:07.161,20910.699,0.329,0.936,-0.126,0.001,-0.035,0.016,-0.032,0.076,-0.024,1.206,-1.211,2.534
2024-10-23 22:23:07.171,20910.709,0.329,0.936,-0.125,0.007,-0.007,0.021,0.027,0.113,-0.019,1.206,-1.211,2.534
2024-10-23 22:23:07.181,20910.719,0.329,0.936,-0.125,0.004,0.013,0.024,-0.012,0.088,-0.033,1.207,-1.211,2.533
2024-10-23 22:23:07.191,20910.729,0.329,0.936,-0.125,0.004,-0.001,0.038,0.011,0.048,-0.041,1.207,-1.212,2.532
2024-10-23 22:23:07.202,20910.739,0.328,0.936,-0.126,0.01,-0.019,0.043,0.097,0.039,-0.002,1.206,-1.212,2.531
2024-10-23 22:23:07.211,20910.749,0.329,0.936,-0.127,0.004,-0.014,0.035,0.124,0.012,0.032,1.203,-1.211,2.528
2024-10-23 22:23:07.221,20910.759,0.329,0.936,-0.128,0.001,0.011,0.033,0.062,-0.014,0.045,1.201,-1.21,2.525
2024-10-23 22:23:07.231,20910.769,0.329,0.936,-0.127,0.013,0.015,0.041,-0.091,-0.012,0.046,1.202,-1.21,2.526
2024-10-23 22:23:07.241,20910.779,0.33,0.936,-0.126,0.011,-0.003,0.042,-0.132,-0.015,0.03,1.205,-1.21,2.53
2024-10-23 22:23:07.251,20910.789,0.33,0.936,-0.125,-0.006,0.002,0.019,-0.083,-0.015,0.039,1.208,-1.21,2.534
2024-10-23 22:23:07.261,20910.799,0.331,0.936,-0.125,-0.016,0.017,-0.027,-0.019,-0.005,0.036,1.21,-1.21,2.536
2024-10-23 22:23:07.271,20910.809,0.331,0.935,-0.124,-0.011,0.036,-0.053,-0.033,0.029,0.032,1.211,-1.209,2.537
2024-10-23 22:23:07.281,20910.819,0.331,0.935,-0.123,-0.008,0.051,-0.045,-0.102,0.036,-0.0,1.214,-1.21,2.539
2024-10-23 22:23:07.291,20910.829,0.331,0.936,-0.122,-0.01,0.043,-0.025,-0.139,0.069,-0.033,1.218,-1.21,2.542
2024-10-23 22:23:07.301,20910.839,0.331,0.936,-0.12,-0.004,0.016,-0.001,-0.173,0.086,-0.058,1.222,-1.211,2.546
2024-10-23 22:23:07.311,20910.849,0.33,0.936,-0.118,0.006,-0.015,0.005,-0.219,0.113,-0.06,1.228,-1.212,2.551
2024-10-23 22:23:07.321,20910.859,0.33,0.937,-0.116,0.01,-0.021,0.007,-0.188,0.123,-0.022,1.234,-1.214,2.557
2024-10-23 22:23:07.331,20910.869,0.33,0.937,-0.114,0.003,-0.033,-0.001,-0.041,0.012,-0.007,1.238,-1.214,2.56
2024-10-23 22:23:07.341,20910.879,0.33,0.937,-0.114,0.001,-0.088,-0.028,0.002,0.006,-0.021,1.238,-1.214,2.56
2024-10-23 22:23:07.351,20910.888,0.33,0.937,-0.114,0.014,-0.094,-0.036,0.074,0.051,-0.014,1.237,-1.214,2.558
2024-10-23 22:23:07.361,20910.898,0.33,0.937,-0.115,0.012,0.02,0.015,0.09,0.046,0.021,1.235,-1.214,2.556
2024-10-23 22:23:07.371,20910.908,0.33,0.937,-0.116,-0.032,0.044,0.021,0.091,-0.004,0.007,1.233,-1.214,2.554
2024-10-23 22:23:07.381,20910.918,0.33,0.937,-0.117,-0.023,-0.01,0.03,0.142,-0.012,0.008,1.23,-1.213,2.55
2024-10-23 22:23:07.391,20910.928,0.33,0.937,-0.119,0.015,-0.011,0.037,0.148,-0.011,0.002,1.226,-1.213,2.546
2024-10-23 22:23:07.401,20910.938,0.33,0.936,-0.12,0.018,0.001,0.026,0.121,-0.002,-0.011,1.222,-1.212,2.543
2024-10-23 22:23:07.411,20910.948,0.33,0.936,-0.121,0.002,0.011,0.02,0.074,-0.004,-0.004,1.22,-1.212,2.54
2024-10-23 22:23:07.421,20910.958,0.33,0.936,-0.121,-0.008,-0.002,0.017,0.015,0.017,-0.006,1.219,-1.212,2.539
2024-10-23 22:23:07.431,20910.968,0.33,0.936,-0.121,0.003,-0.01,0.014,-0.022,-0.002,-0.011,1.219,-1.212,2.539
2024-10-23 22:23:07.441,20910.978,0.33,0.936,-0.121,0.009,-0.042,0.006,0.029,0.0,-0.015,1.219,-1.212,2.539
2024-10-23 22:23:07.452,20910.988,0.33,0.936,-0.122,0.011,-0.051,-0.004,0.086,0.026,-0.03,1.217,-1.212,2.537
2024-10-23 22:23:07.461,20910.998,0.329,0.936,-0.122,0.006,-0.007,0.0,0.101,0.038,-0.034,1.215,-1.212,2.534
2024-10-23 22:23:07.471,20911.008,0.329,0.936,-0.123,-0.008,0.04,0.0,0.053,0.021,-0.029,1.213,-1.212,2.532
2024-10-23 22:23:07.481,20911.018,0.329,0.936,-0.123,-0.004,0.03,0.009,-0.017,0.011,-0.051,1.213,-1.212,2.532
2024-10-23 22:23:07.491,20911.028,0.328,0.937,-0.123,0.013,-0.016,0.018,-0.014,0.036,-0.062,1.213,-1.213,2.532
2024-10-23 22:23:07.501,20911.038,0.328,0.937,-0.122,0.015,-0.036,0.02,0.007,0.084,-0.087,1.213,-1.213,2.531
2024-10-23 22:23:07.511,20911.048,0.327,0.937,-0.123,0.005,-0.006,-0.006,0.244,0.088,-0.096,1.21,-1.214,2.527
2024-10-23 22:23:07.521,20911.058,0.326,0.937,-0.125,-0.008,0.052,-0.037,0.218,0.063,-0.205,1.204,-1.214,2.519
2024-10-23 22:23:07.531,20911.068,0.323,0.938,-0.127,0.004,0.085,-0.081,0.26,0.099,-0.282,1.196,-1.216,2.51
2024-10-23 22:23:07.541,20911.078,0.321,0.938,-0.129,0.009,0.15,-0.08,0.097,0.124,-0.201,1.19,-1.217,2.502
2024-10-23 22:23:07.551,20911.088,0.32,0.939,-0.129,-0.027,0.094,-0.031,0.026,0.134,-0.19,1.188,-1.219,2.499
2024-10-23 22:23:07.561,20911.098,0.318,0.939,-0.129,-0.008,-0.023,-0.001,0.079,0.12,-0.155,1.186,-1.22,2.496
2024-10-23 22:23:07.571,20911.108,0.317,0.939,-0.13,0.0,-0.08,0.029,0.186,0.118,-0.123,1.183,-1.221,2.491
2024-10-23 22:23:07.581,20911.118,0.316,0.939,-0.132,0.006,-0.079,0.024,0.334,0.119,-0.08,1.176,-1.221,2.482
2024-10-23 22:23:07.591,20911.128,0.316,0.939,-0.135,-0.01,-0.031,0.033,0.384,0.084,-0.064,1.168,-1.22,2.472
2024-10-23 22:23:07.601,20911.138,0.315,0.939,-0.138,-0.028,-0.037,0.039,0.437,0.072,-0.081,1.157,-1.219,2.46
2024-10-23 22:23:07.611,20911.148,0.315,0.938,-0.142,-0.017,-0.033,0.066,0.432,0.052,-0.064,1.146,-1.218,2.448
2024-10-23 22:23:07.621,20911.158,0.314,0.938,-0.146,-0.01,-0.015,0.077,0.361,0.057,-0.055,1.136,-1.217,2.437
2024-10-23 22:23:07.630,20911.168,0.314,0.938,-0.149,-0.006,0.001,0.073,0.282,0.052,-0.045,1.128,-1.216,2.428
2024-10-23 22:23:07.641,20911.178,0.313,0.938,-0.151,-0.008,-0.005,0.067,0.186,0.035,-0.031,1.122,-1.215,2.421
2024-10-23 22:23:07.651,20911.188,0.313,0.937,-0.152,0.004,-0.021,0.056,0.082,0.021,-0.011,1.119,-1.215,2.417
2024-10-23 22:23:07.661,20911.198,0.313,0.937,-0.152,0.024,-0.012,0.039,-0.027,-0.015,-0.005,1.119,-1.215,2.417
2024-10-23 22:23:07.671,20911.208,0.313,0.937,-0.152,0.032,-0.001,0.028,-0.086,-0.069,0.037,1.12,-1.215,2.418
2024-10-23 22:23:07.681,20911.218,0.314,0.937,-0.151,0.028,-0.009,0.021,-0.192,-0.083,0.012,1.122,-1.215,2.422
2024-10-23 22:23:07.691,20911.228,0.313,0.938,-0.15,0.025,-0.009,-0.003,-0.061,-0.135,0.005,1.125,-1.216,2.426
2024-10-23 22:23:07.701,20911.238,0.313,0.938,-0.15,0.005,0.04,-0.024,0.084,-0.153,0.07,1.124,-1.216,2.426
2024-10-23 22:23:07.711,20911.248,0.314,0.937,-0.151,-0.005,0.02,-0.019,0.12,-0.095,0.031,1.121,-1.215,2.425
2024-10-23 22:23:07.720,20911.258,0.314,0.937,-0.153,0.015,0.021,-0.021,0.073,-0.088,0.067,1.119,-1.214,2.423
2024-10-23 22:23:07.730,20911.268,0.315,0.937,-0.153,-0.02,0.113,-0.016,-0.035,-0.116,0.05,1.118,-1.214,2.424
2024-10-23 22:23:07.740,20911.278,0.315,0.937,-0.153,-0.022,0.025,-0.025,-0.091,-0.142,0.04,1.119,-1.213,2.426
2024-10-23 22:23:07.751,20911.288,0.315,0.937,-0.152,-0.008,-0.061,-0.028,-0.04,-0.133,0.042,1.12,-1.213,2.429
2024-10-23 22:23:07.760,20911.298,0.315,0.937,-0.153,-0.005,-0.024,-0.034,0.01,-0.109,0.048,1.12,-1.213,2.43
2024-10-23 22:23:07.770,20911.308,0.316,0.936,-0.153,-0.019,0.015,-0.035,0.032,-0.102,0.051,1.119,-1.212,2.43
2024-10-23 22:23:07.780,20911.318,0.316,0.936,-0.154,-0.03,0.009,-0.024,0.031,-0.109,0.034,1.118,-1.212,2.429
2024-10-23 22:23:07.790,20911.328,0.316,0.936,-0.154,-0.018,-0.011,-0.003,0.036,-0.099,0.02,1.116,-1.212,2.429
2024-10-23 22:23:07.800,20911.338,0.316,0.936,-0.155,-0.001,-0.023,0.011,0.03,-0.088,0.018,1.114,-1.211,2.428
2024-10-23 22:23:07.811,20911.348,0.316,0.936,-0.156,0.001,-0.013,0.011,0.04,-0.083,0.017,1.113,-1.211,2.427
2024-10-23 22:23:07.821,20911.358,0.316,0.936,-0.156,-0.001,-0.006,0.006,0.053,-0.11,0.018,1.111,-1.211,2.426
2024-10-23 22:23:07.830,20911.368,0.316,0.936,-0.157,0.0,-0.019,0.005,0.03,-0.084,0.041,1.109,-1.21,2.425
2024-10-23 22:23:07.841,20911.378,0.316,0.936,-0.158,0.006,-0.023,0.015,0.065,-0.034,-0.007,1.107,-1.21,2.424
2024-10-23 22:23:07.850,20911.388,0.316,0.936,-0.158,0.006,-0.016,0.016,-0.066,-0.054,0.001,1.107,-1.21,2.424
2024-10-23 22:23:07.860,20911.398,0.316,0.936,-0.157,0.005,-0.017,-0.011,-0.138,-0.065,-0.027,1.108,-1.21,2.426
2024-10-23 22:23:07.870,20911.408,0.315,0.936,-0.156,0.016,-0.026,-0.0,-0.129,-0.079,-0.034,1.11,-1.211,2.429
2024-10-23 22:23:07.880,20911.418,0.315,0.936,-0.156,0.013,-0.043,-0.004,-0.073,-0.073,-0.01,1.112,-1.212,2.432
2024-10-23 22:23:07.890,20911.428,0.315,0.936,-0.155,0.008,-0.013,-0.014,-0.038,-0.075,-0.008,1.112,-1.212,2.433
2024-10-23 22:23:07.900,20911.438,0.314,0.937,-0.155,0.012,0.031,-0.005,-0.037,-0.072,-0.016,1.112,-1.213,2.434
2024-10-23 22:23:07.910,20911.448,0.314,0.937,-0.155,0.004,0.017,0.01,-0.051,-0.096,-0.017,1.113,-1.213,2.435
2024-10-23 22:23:07.920,20911.458,0.314,0.937,-0.155,0.001,-0.018,0.024,-0.078,-0.083,-0.013,1.113,-1.213,2.437
2024-10-23 22:23:07.930,20911.468,0.314,0.937,-0.154,0.005,-0.02,0.027,-0.053,-0.056,-0.011,1.115,-1.214,2.438
2024-10-23 22:23:07.940,20911.478,0.314,0.937,-0.154,0.002,0.006,0.033,-0.062,-0.043,-0.02,1.115,-1.214,2.439
2024-10-23 22:23:07.950,20911.487,0.314,0.937,-0.153,-0.005,0.009,0.029,-0.097,-0.032,-0.037,1.116,-1.214,2.441
2024-10-23 22:23:07.960,20911.497,0.313,0.937,-0.152,-0.007,0.007,0.012,-0.105,-0.057,-0.055,1.118,-1.215,2.443
2024-10-23 22:23:07.970,20911.507,0.313,0.938,-0.152,0.002,-0.0,0.01,-0.033,-0.073,-0.079,1.118,-1.216,2.444
2024-10-23 22:23:07.980,20911.517,0.312,0.938,-0.152,0.004,-0.011,0.009,-0.001,-0.051,-0.077,1.117,-1.216,2.444
2024-10-23 22:23:07.990,20911.527,0.311,0.938,-0.152,-0.005,0.002,0.004,0.028,-0.066,-0.082,1.115,-1.217,2.442
2024-10-23 22:23:08.000,20911.537,0.31,0.938,-0.153,-0.008,0.011,0.0,0.04,-0.061,-0.073,1.113,-1.218,2.441
2024-10-23 22:23:08.010,20911.547,0.31,0.938,-0.153,-0.005,-0.014,0.005,-0.004,-0.072,-0.063,1.112,-1.218,2.44
2024-10-23 22:23:08.020,20911.557,0.309,0.939,-0.153,-0.004,-0.02,-0.006,-0.064,-0.075,-0.061,1.112,-1.219,2.441
2024-10-23 22:23:08.030,20911.567,0.308,0.939,-0.152,-0.002,-0.008,-0.02,-0.082,-0.062,-0.059,1.113,-1.22,2.442
2024-10-23 22:23:08.040,20911.577,0.308,0.939,-0.151,-0.01,-0.001,-0.029,-0.056,-0.05,-0.044,1.113,-1.221,2.444
2024-10-23 22:23:08.050,20911.587,0.308,0.939,-0.151,-0.008,0.016,-0.028,-0.022,-0.036,-0.005,1.114,-1.221,2.445
2024-10-23 22:23:08.060,20911.597,0.308,0.939,-0.151,0.001,0.026,-0.024,0.025,-0.03,0.026,1.114,-1.221,2.445
2024-10-23 22:23:08.070,20911.607,0.308,0.939,-0.152,0.003,0.01,-0.016,0.029,-0.032,0.048,1.114,-1.22,2.445
2024-10-23 22:23:08.080,20911.617,0.308,0.939,-0.152,0.001,-0.016,0.001,0.075,-0.011,0.046,1.112,-1.22,2.444
2024-10-23 22:23:08.090,20911.627,0.309,0.939,-0.153,0.001,-0.004,0.026,0.013,-0.031,0.051,1.112,-1.219,2.444
2024-10-23 22:23:08.100,20911.637,0.309,0.939,-0.153,0.001,0.007,0.047,-0.044,-0.063,0.058,1.112,-1.219,2.445
2024-10-23 22:23:08.109,20911.647,0.31,0.939,-0.152,0.007,-0.003,0.061,-0.072,-0.066,0.063,1.114,-1.218,2.447
2024-10-23 22:23:08.119,20911.657,0.31,0.939,-0.152,0.004,-0.015,0.054,-0.108,-0.06,0.058,1.115,-1.218,2.449
2024-10-23 22:23:08.129,20911.667,0.31,0.939,-0.151,-0.011,-0.014,0.024,-0.153,-0.066,0.061,1.118,-1.218,2.453
2024-10-23 22:23:08.139,20911.677,0.311,0.939,-0.15,-0.012,-0.016,0.012,-0.193,-0.081,0.053,1.122,-1.219,2.458
2024-10-23 22:23:08.150,20911.687,0.311,0.939,-0.148,-0.003,-0.018,0.005,-0.229,-0.072,0.045,1.127,-1.219,2.464
2024-10-23 22:23:08.160,20911.697,0.311,0.939,-0.146,-0.0,-0.017,-0.026,-0.31,-0.063,0.033,1.133,-1.22,2.472
2024-10-23 22:23:08.170,20911.707,0.312,0.939,-0.143,-0.009,-0.013,-0.053,-0.253,-0.051,0.011,1.14,-1.221,2.48
2024-10-23 22:23:08.180,20911.717,0.312,0.94,-0.141,-0.018,-0.004,-0.051,-0.143,-0.062,-0.001,1.145,-1.222,2.485
2024-10-23 22:23:08.190,20911.727,0.311,0.94,-0.14,-0.009,0.008,-0.043,-0.034,-0.064,-0.005,1.147,-1.222,2.488
2024-10-23 22:23:08.200,20911.737,0.311,0.94,-0.14,0.01,0.001,-0.022,-0.023,-0.036,-0.025,1.147,-1.222,2.489
2024-10-23 22:23:08.210,20911.747,0.311,0.94,-0.14,0.022,0.006,0.007,-0.076,0.005,-0.062,1.148,-1.223,2.49
2024-10-23 22:23:08.220,20911.757,0.31,0.94,-0.139,0.002,0.029,0.021,-0.097,0.026,-0.1,1.149,-1.224,2.491
2024-10-23 22:23:08.230,20911.767,0.309,0.941,-0.138,-0.01,0.039,0.023,-0.068,0.028,-0.101,1.151,-1.225,2.492
2024-10-23 22:23:08.240,20911.777,0.308,0.941,-0.138,-0.002,0.014,0.012,-0.039,0.015,-0.076,1.151,-1.226,2.492
2024-10-23 22:23:08.250,20911.787,0.308,0.941,-0.138,0.014,-0.02,0.01,-0.032,0.0,-0.05,1.151,-1.227,2.492
2024-10-23 22:23:08.259,20911.797,0.307,0.942,-0.138,0.017,-0.05,0.009,-0.007,-0.002,-0.038,1.15,-1.227,2.491
2024-10-23 22:23:08.269,20911.807,0.307,0.942,-0.138,0.008,-0.048,0.016,-0.013,0.012,-0.034,1.149,-1.228,2.491
2024-10-23 22:23:08.279,20911.817,0.307,0.942,-0.137,-0.002,-0.017,0.022,-0.039,0.006,-0.033,1.15,-1.228,2.491
2024-10-23 22:23:08.290,20911.827,0.306,0.942,-0.137,-0.007,-0.001,0.015,-0.032,-0.007,-0.044,1.15,-1.228,2.491
2024-10-23 22:23:08.299,20911.837,0.306,0.942,-0.137,-0.005,-0.009,0.008,-0.019,-0.007,-0.053,1.151,-1.229,2.492
2024-10-23 22:23:08.309,20911.847,0.305,0.942,-0.137,-0.001,-0.016,0.002,0.012,-0.009,-0.05,1.15,-1.23,2.491
2024-10-23 22:23:08.320,20911.857,0.305,0.942,-0.137,0.001,0.0,-0.005,0.045,0.003,-0.041,1.149,-1.23,2.49
2024-10-23 22:23:08.330,20911.867,0.305,0.942,-0.137,-0.002,0.011,-0.002,0.058,-0.01,-0.038,1.148,-1.23,2.489
2024-10-23 22:23:08.340,20911.877,0.305,0.942,-0.138,-0.007,0.003,0.0,0.051,-0.011,-0.029,1.146,-1.23,2.487
2024-10-23 22:23:08.350,20911.887,0.305,0.942,-0.138,-0.003,-0.002,0.005,0.025,-0.018,-0.014,1.145,-1.23,2.486
2024-10-23 22:23:08.359,20911.897,0.305,0.942,-0.138,0.002,-0.003,0.013,-0.005,-0.012,0.0,1.145,-1.23,2.486
2024-10-23 22:23:08.370,20911.907,0.304,0.942,-0.138,0.002,-0.001,0.016,-0.002,-0.012,-0.011,1.145,-1.23,2.486
2024-10-23 22:23:08.380,20911.917,0.304,0.942,-0.138,0.001,0.005,0.011,0.004,-0.008,-0.005,1.145,-1.23,2.486
2024-10-23 22:23:08.389,20911.927,0.304,0.942,-0.138,0.002,0.007,0.002,0.002,-0.0,-0.01,1.145,-1.23,2.486
2024-10-23 22:23:08.399,20911.937,0.304,0.943,-0.138,0.003,0.008,0.003,0.011,-0.005,-0.01,1.145,-1.23,2.486
2024-10-23 22:23:08.410,20911.947,0.304,0.943,-0.138,0.001,0.007,0.001,0.035,-0.005,0.001,1.144,-1.23,2.485
2024-10-23 22:23:08.419,20911.957,0.304,0.942,-0.139,-0.004,-0.003,-0.005,0.026,-0.002,0.001,1.143,-1.23,2.484
2024-10-23 22:23:08.429,20911.967,0.304,0.942,-0.139,-0.004,0.0,-0.003,-0.02,0.016,0.015,1.143,-1.23,2.484
2024-10-23 22:23:08.439,20911.977,0.304,0.943,-0.138,-0.005,0.007,0.001,-0.077,0.006,-0.005,1.145,-1.23,2.486
2024-10-23 22:23:08.449,20911.987,0.304,0.943,-0.137,-0.004,-0.002,-0.002,-0.004,-0.003,-0.035,1.146,-1.23,2.488
2024-10-23 22:23:08.459,20911.997,0.304,0.943,-0.138,0.003,-0.021,-0.016,0.033,0.012,-0.018,1.146,-1.231,2.487
2024-10-23 22:23:08.469,20912.007,0.304,0.943,-0.138,0.006,-0.029,-0.035,-0.038,0.049,-0.067,1.145,-1.231,2.486
2024-10-23 22:23:08.480,20912.017,0.303,0.943,-0.137,0.012,0.018,-0.038,0.069,0.091,-0.099,1.145,-1.232,2.485
2024-10-23 22:23:08.489,20912.027,0.302,0.943,-0.138,-0.005,0.053,-0.014,0.084,0.117,-0.09,1.142,-1.232,2.481
2024-10-23 22:23:08.499,20912.037,0.301,0.943,-0.139,-0.023,0.034,-0.015,0.175,0.181,-0.163,1.139,-1.233,2.477
2024-10-23 22:23:08.509,20912.047,0.3,0.944,-0.14,-0.013,0.067,0.001,0.204,0.222,-0.125,1.134,-1.233,2.469
2024-10-23 22:23:08.519,20912.057,0.299,0.944,-0.141,-0.017,0.085,0.006,0.166,0.19,-0.093,1.13,-1.234,2.463
2024-10-23 22:23:08.529,20912.067,0.299,0.944,-0.142,-0.002,0.017,0.015,0.128,0.143,-0.059,1.127,-1.234,2.458
2024-10-23 22:23:08.539,20912.076,0.299,0.944,-0.143,0.006,-0.03,0.037,0.103,0.071,-0.022,1.125,-1.234,2.454
2024-10-23 22:23:08.549,20912.086,0.299,0.943,-0.144,0.009,-0.076,0.049,0.13,0.023,0.004,1.122,-1.233,2.451
2024-10-23 22:23:08.559,20912.096,0.299,0.943,-0.145,0.011,-0.079,0.054,0.16,0.021,0.014,1.119,-1.232,2.447
2024-10-23 22:23:08.569,20912.106,0.299,0.943,-0.147,-0.004,-0.06,0.043,0.179,0.02,0.02,1.115,-1.231,2.443
2024-10-23 22:23:08.579,20912.116,0.299,0.943,-0.148,-0.024,-0.042,0.033,0.185,0.014,0.003,1.111,-1.231,2.438
2024-10-23 22:23:08.589,20912.126,0.299,0.942,-0.15,-0.028,-0.031,0.029,0.201,-0.013,-0.018,1.106,-1.23,2.432
2024-10-23 22:23:08.599,20912.136,0.299,0.942,-0.152,-0.017,-0.02,0.025,0.194,-0.006,-0.01,1.1,-1.229,2.427
2024-10-23 22:23:08.609,20912.146,0.299,0.942,-0.154,-0.007,0.004,0.023,0.174,0.001,-0.003,1.096,-1.228,2.422
2024-10-23 22:23:08.619,20912.156,0.299,0.942,-0.155,-0.002,0.015,0.014,0.104,-0.036,0.043,1.093,-1.228,2.419
2024-10-23 22:23:08.629,20912.166,0.299,0.941,-0.156,0.002,-0.007,0.009,-0.0,-0.036,0.038,1.091,-1.227,2.418
2024-10-23 22:23:08.639,20912.176,0.299,0.941,-0.155,0.018,-0.018,0.003,-0.042,-0.029,-0.019,1.092,-1.227,2.419
2024-10-23 22:23:08.649,20912.186,0.299,0.941,-0.156,0.019,0.013,0.004,0.035,-0.104,0.06,1.092,-1.227,2.419
2024-10-23 22:23:08.659,20912.196,0.3,0.941,-0.156,0.011,0.001,0.004,0.024,-0.061,0.028,1.091,-1.226,2.42
2024-10-23 22:23:08.669,20912.206,0.3,0.941,-0.156,0.025,-0.017,-0.014,0.053,-0.026,0.038,1.09,-1.226,2.419
2024-10-23 22:23:08.679,20912.216,0.3,0.941,-0.157,0.004,0.067,-0.0,-0.023,-0.062,0.04,1.09,-1.225,2.419
2024-10-23 22:23:08.689,20912.226,0.3,0.941,-0.157,-0.008,0.054,-0.015,-0.036,-0.092,0.031,1.09,-1.225,2.421
2024-10-23 22:23:08.699,20912.236,0.3,0.941,-0.157,0.005,-0.007,-0.019,-0.005,-0.074,0.037,1.091,-1.225,2.422
2024-10-23 22:23:08.709,20912.246,0.301,0.941,-0.157,0.004,-0.006,-0.027,0.051,-0.036,0.031,1.09,-1.225,2.422
2024-10-23 22:23:08.719,20912.256,0.301,0.94,-0.158,-0.006,0.036,-0.028,0.083,-0.026,0.034,1.088,-1.224,2.42
2024-10-23 22:23:08.729,20912.266,0.301,0.94,-0.158,-0.021,0.048,-0.021,0.035,-0.013,0.031,1.087,-1.223,2.419
2024-10-23 22:23:08.739,20912.276,0.302,0.94,-0.158,-0.019,0.019,-0.014,-0.013,-0.032,0.027,1.087,-1.223,2.42
2024-10-23 22:23:08.748,20912.286,0.302,0.94,-0.158,-0.01,-0.019,-0.007,-0.008,-0.067,0.042,1.088,-1.223,2.42
2024-10-23 22:23:08.758,20912.296,0.302,0.94,-0.159,-0.008,-0.047,-0.013,0.033,-0.035,0.031,1.087,-1.222,2.421
2024-10-23 22:23:08.769,20912.306,0.302,0.94,-0.159,-0.007,-0.023,-0.006,0.085,-0.009,0.018,1.086,-1.222,2.419
2024-10-23 22:23:08.779,20912.316,0.302,0.94,-0.16,-0.014,0.026,0.003,0.103,-0.006,0.009,1.084,-1.221,2.417
2024-10-23 22:23:08.789,20912.326,0.303,0.939,-0.161,-0.02,0.026,0.009,0.102,-0.016,0.003,1.081,-1.221,2.414
2024-10-23 22:23:08.799,20912.336,0.302,0.939,-0.162,-0.009,-0.001,0.017,0.11,-0.02,-0.0,1.078,-1.22,2.411
2024-10-23 22:23:08.809,20912.346,0.302,0.939,-0.164,0.003,-0.011,0.023,0.104,-0.02,-0.005,1.075,-1.22,2.408
2024-10-23 22:23:08.818,20912.356,0.302,0.939,-0.165,0.005,-0.008,0.016,0.078,-0.009,-0.014,1.072,-1.22,2.406
2024-10-23 22:23:08.829,20912.366,0.302,0.939,-0.165,0.002,-0.001,0.013,0.038,-0.004,-0.008,1.071,-1.219,2.404
2024-10-23 22:23:08.839,20912.376,0.302,0.939,-0.165,-0.002,-0.007,0.006,0.022,-0.028,0.019,1.07,-1.219,2.403
2024-10-23 22:23:08.849,20912.386,0.302,0.939,-0.166,-0.002,-0.031,-0.005,0.058,-0.058,0.043,1.069,-1.219,2.403
2024-10-23 22:23:08.860,20912.396,0.302,0.938,-0.167,0.008,-0.034,-0.015,0.126,-0.059,0.046,1.067,-1.218,2.401
2024-10-23 22:23:08.869,20912.406,0.303,0.938,-0.168,0.01,-0.009,-0.015,0.188,-0.039,0.059,1.063,-1.217,2.398
2024-10-23 22:23:08.878,20912.416,0.303,0.938,-0.17,-0.003,0.02,0.001,0.226,-0.034,0.06,1.059,-1.216,2.394
2024-10-23 22:23:08.888,20912.426,0.304,0.937,-0.172,-0.007,0.029,0.02,0.201,-0.036,0.049,1.055,-1.214,2.39
2024-10-23 22:23:08.899,20912.436,0.304,0.937,-0.174,-0.001,0.008,0.03,0.104,-0.021,0.049,1.052,-1.213,2.387
2024-10-23 22:23:08.908,20912.446,0.304,0.936,-0.174,0.006,-0.009,0.036,0.024,-0.021,0.029,1.051,-1.212,2.386
2024-10-23 22:23:08.919,20912.456,0.305,0.936,-0.174,0.01,-0.013,0.031,-0.034,-0.024,0.012,1.051,-1.212,2.387
2024-10-23 22:23:08.929,20912.466,0.305,0.936,-0.174,0.004,-0.02,0.013,-0.025,-0.026,0.001,1.052,-1.212,2.388
2024-10-23 22:23:08.939,20912.476,0.305,0.936,-0.174,0.002,-0.02,0.001,-0.0,-0.007,-0.008,1.052,-1.212,2.388
2024-10-23 22:23:08.949,20912.486,0.305,0.936,-0.174,0.001,-0.008,-0.005,0.022,0.013,-0.006,1.052,-1.212,2.388
2024-10-23 22:23:08.958,20912.496,0.305,0.936,-0.174,-0.004,0.008,-0.005,0.018,0.011,-0.008,1.051,-1.212,2.387
2024-10-23 22:23:08.968,20912.506,0.304,0.936,-0.174,-0.008,0.01,-0.005,0.004,0.002,-0.009,1.051,-1.212,2.387
2024-10-23 22:23:08.978,20912.516,0.304,0.937,-0.174,-0.006,-0.005,-0.001,-0.002,-0.005,0.005,1.052,-1.213,2.387
2024-10-23 22:23:08.998,20912.526,0.305,0.937,-0.174,-0.004,-0.015,0.004,-0.006,-0.005,0.012,1.053,-1.213,2.388
2024-10-23 22:23:09.003,20912.536,0.305,0.937,-0.173,-0.004,-0.018,0.006,-0.049,-0.015,0.025,1.054,-1.213,2.39
2024-10-23 22:23:09.009,20912.546,0.305,0.937,-0.173,-0.005,-0.024,0.007,-0.034,-0.023,0.018,1.056,-1.213,2.391
2024-10-23 22:23:09.018,20912.556,0.305,0.937,-0.173,-0.006,-0.025,0.003,-0.009,-0.038,0.014,1.056,-1.213,2.392
2024-10-23 22:23:09.028,20912.566,0.305,0.936,-0.173,-0.005,-0.034,-0.005,0.028,-0.023,0.011,1.055,-1.212,2.392
2024-10-23 22:23:09.038,20912.576,0.305,0.936,-0.173,-0.003,-0.004,-0.002,0.048,-0.006,0.012,1.054,-1.212,2.391
2024-10-23 22:23:09.048,20912.586,0.305,0.936,-0.174,-0.006,0.026,-0.002,0.027,-0.014,0.004,1.053,-1.212,2.39
2024-10-23 22:23:09.058,20912.596,0.305,0.936,-0.174,-0.008,0.018,-0.001,0.001,-0.02,-0.002,1.053,-1.212,2.389
2024-10-23 22:23:09.068,20912.606,0.305,0.936,-0.174,0.0,-0.002,-0.001,-0.029,-0.025,0.004,1.053,-1.212,2.39
2024-10-23 22:23:09.078,20912.616,0.305,0.936,-0.174,0.009,-0.011,-0.003,-0.018,-0.025,0.004,1.053,-1.212,2.391
2024-10-23 22:23:09.089,20912.626,0.305,0.936,-0.174,0.008,-0.007,-0.004,-0.006,0.0,0.002,1.053,-1.212,2.391
2024-10-23 22:23:09.098,20912.636,0.305,0.936,-0.174,0.004,-0.002,-0.006,-0.013,0.013,-0.003,1.054,-1.212,2.391
2024-10-23 22:23:09.108,20912.646,0.305,0.936,-0.173,-0.001,0.008,-0.003,-0.011,0.003,-0.009,1.054,-1.212,2.391
2024-10-23 22:23:09.119,20912.656,0.305,0.936,-0.173,-0.0,0.013,0.002,0.006,-0.011,-0.01,1.054,-1.212,2.391
2024-10-23 22:23:09.128,20912.666,0.305,0.936,-0.174,0.001,0.005,-0.003,0.046,-0.018,-0.005,1.053,-1.212,2.39
2024-10-23 22:23:09.138,20912.675,0.305,0.936,-0.174,0.002,0.007,-0.004,0.064,-0.01,0.001,1.051,-1.212,2.389
2024-10-23 22:23:09.148,20912.685,0.305,0.936,-0.175,-0.006,0.012,-0.001,0.054,-0.007,0.01,1.05,-1.212,2.388
2024-10-23 22:23:09.158,20912.695,0.305,0.936,-0.175,-0.013,0.007,0.005,0.014,-0.022,0.021,1.049,-1.211,2.387
2024-10-23 22:23:09.168,20912.705,0.305,0.936,-0.175,-0.013,-0.015,0.006,-0.048,-0.04,0.023,1.05,-1.211,2.388
2024-10-23 22:23:09.178,20912.715,0.305,0.936,-0.175,-0.005,-0.029,0.007,-0.071,-0.02,0.012,1.051,-1.211,2.389
2024-10-23 22:23:09.188,20912.725,0.305,0.936,-0.174,0.005,-0.019,0.008,-0.082,-0.015,-0.002,1.053,-1.212,2.391
2024-10-23 22:23:09.199,20912.735,0.305,0.936,-0.174,0.0,-0.009,-0.001,-0.019,-0.02,-0.004,1.054,-1.212,2.393
2024-10-23 22:23:09.208,20912.745,0.305,0.936,-0.174,-0.003,-0.001,-0.002,0.033,0.008,-0.01,1.053,-1.212,2.392
2024-10-23 22:23:09.218,20912.755,0.305,0.936,-0.174,0.002,0.01,0.003,0.064,0.017,-0.006,1.052,-1.212,2.391
2024-10-23 22:23:09.228,20912.765,0.305,0.936,-0.175,0.001,0.02,0.009,0.037,0.003,0.005,1.051,-1.212,2.389
2024-10-23 22:23:09.238,20912.775,0.305,0.936,-0.175,-0.002,0.0,0.008,-0.001,-0.007,0.001,1.05,-1.212,2.389
2024-10-23 22:23:09.248,20912.785,0.305,0.936,-0.175,0.001,-0.029,0.011,-0.025,-0.006,-0.002,1.051,-1.212,2.389
2024-10-23 22:23:09.257,20912.795,0.305,0.936,-0.174,0.001,-0.021,0.015,-0.033,0.008,-0.008,1.051,-1.212,2.39
2024-10-23 22:23:09.268,20912.805,0.305,0.936,-0.174,0.001,-0.001,0.012,-0.025,0.027,-0.022,1.052,-1.212,2.391
2024-10-23 22:23:09.278,20912.815,0.305,0.936,-0.174,-0.004,0.007,0.01,-0.018,0.029,-0.025,1.053,-1.212,2.391
2024-10-23 22:23:09.288,20912.825,0.305,0.937,-0.174,-0.004,0.001,0.006,-0.013,0.034,-0.028,1.053,-1.213,2.391
2024-10-23 22:23:09.298,20912.835,0.304,0.937,-0.173,-0.0,-0.002,0.009,-0.018,0.036,-0.031,1.053,-1.213,2.391
2024-10-23 22:23:09.308,20912.845,0.304,0.937,-0.173,0.0,0.001,0.012,-0.02,0.025,-0.032,1.054,-1.213,2.391
2024-10-23 22:23:09.318,20912.855,0.304,0.937,-0.173,0.0,-0.002,0.01,-0.013,0.012,-0.025,1.054,-1.214,2.391
2024-10-23 22:23:09.328,20912.865,0.304,0.937,-0.173,-0.0,-0.014,0.007,-0.02,0.01,-0.023,1.054,-1.214,2.391
2024-10-23 22:23:09.338,20912.875,0.303,0.937,-0.172,-0.002,-0.017,0.002,-0.024,-0.009,-0.043,1.054,-1.214,2.391
2024-10-23 22:23:09.348,20912.885,0.303,0.937,-0.172,-0.005,-0.005,0.003,0.014,0.005,-0.001,1.055,-1.215,2.392
2024-10-23 22:23:09.358,20912.895,0.303,0.937,-0.172,-0.009,-0.005,-0.0,0.015,-0.01,-0.026,1.054,-1.215,2.391
2024-10-23 22:23:09.368,20912.905,0.303,0.937,-0.172,-0.008,-0.014,0.001,0.017,-0.021,-0.012,1.053,-1.215,2.39
2024-10-23 22:23:09.378,20912.915,0.303,0.937,-0.173,-0.002,-0.016,-0.002,0.021,-0.02,0.003,1.053,-1.215,2.39
2024-10-23 22:23:09.388,20912.925,0.303,0.937,-0.173,0.001,-0.007,0.003,0.006,-0.019,0.007,1.052,-1.215,2.39
2024-10-23 22:23:09.398,20912.935,0.303,0.937,-0.173,-0.002,-0.001,0.001,-0.006,-0.016,0.008,1.052,-1.215,2.39
2024-10-23 22:23:09.408,20912.945,0.303,0.937,-0.173,-0.006,0.0,0.002,-0.029,-0.011,0.009,1.053,-1.215,2.391
2024-10-23 22:23:09.418,20912.955,0.303,0.937,-0.172,0.001,-0.002,0.002,-0.011,-0.0,0.009,1.054,-1.215,2.392
2024-10-23 22:23:09.428,20912.965,0.303,0.937,-0.172,0.007,0.0,0.005,-0.013,0.0,0.016,1.054,-1.215,2.392
2024-10-23 22:23:09.438,20912.975,0.303,0.937,-0.172,0.004,0.002,0.006,-0.022,-0.005,0.025,1.055,-1.215,2.393
2024-10-23 22:23:09.448,20912.985,0.304,0.937,-0.172,0.003,0.01,0.005,-0.034,-0.013,0.028,1.055,-1.214,2.394
2024-10-23 22:23:09.458,20912.995,0.304,0.937,-0.172,0.003,0.011,0.002,-0.043,-0.021,0.026,1.056,-1.214,2.395
2024-10-23 22:23:09.467,20913.005,0.304,0.937,-0.171,0.0,0.003,0.001,-0.042,-0.017,0.024,1.058,-1.214,2.396
2024-10-23 22:23:09.478,20913.015,0.304,0.937,-0.171,-0.002,-0.002,-0.001,0.002,-0.014,0.014,1.058,-1.214,2.397
2024-10-23 22:23:09.488,20913.025,0.304,0.937,-0.171,-0.005,0.0,-0.002,0.043,0.004,0.028,1.058,-1.214,2.397
2024-10-23 22:23:09.499,20913.035,0.305,0.937,-0.171,-0.009,-0.005,0.003,-0.033,-0.016,0.037,1.058,-1.214,2.397
2024-10-23 22:23:09.508,20913.045,0.305,0.937,-0.171,-0.006,-0.013,0.017,-0.088,-0.032,0.029,1.06,-1.214,2.399
2024-10-23 22:23:09.517,20913.055,0.305,0.937,-0.17,-0.005,-0.009,0.02,-0.151,-0.023,0.033,1.063,-1.214,2.403
2024-10-23 22:23:09.527,20913.065,0.305,0.937,-0.168,-0.007,-0.023,0.004,-0.238,-0.016,0.031,1.068,-1.215,2.408
2024-10-23 22:23:09.537,20913.075,0.305,0.938,-0.166,-0.004,-0.02,-0.01,-0.264,-0.01,0.007,1.074,-1.216,2.415
2024-10-23 22:23:09.547,20913.085,0.305,0.938,-0.163,-0.002,-0.005,-0.023,-0.227,0.017,-0.017,1.08,-1.217,2.421
2024-10-23 22:23:09.557,20913.095,0.305,0.938,-0.162,-0.004,-0.003,-0.034,-0.116,0.025,-0.057,1.083,-1.218,2.425
2024-10-23 22:23:09.567,20913.105,0.305,0.939,-0.161,-0.004,0.01,-0.027,0.002,0.044,-0.081,1.084,-1.219,2.425
2024-10-23 22:23:09.577,20913.115,0.304,0.939,-0.161,-0.003,0.03,-0.013,0.052,0.064,-0.093,1.082,-1.22,2.423
2024-10-23 22:23:09.587,20913.125,0.303,0.939,-0.162,0.004,0.038,0.007,0.033,0.07,-0.104,1.081,-1.22,2.42
2024-10-23 22:23:09.597,20913.135,0.302,0.94,-0.161,0.006,0.019,0.021,-0.01,0.049,-0.102,1.08,-1.221,2.419
2024-10-23 22:23:09.607,20913.145,0.301,0.94,-0.161,0.004,-0.01,0.021,-0.049,0.025,-0.071,1.08,-1.222,2.418
2024-10-23 22:23:09.617,20913.155,0.301,0.94,-0.16,0.006,-0.038,0.015,-0.12,-0.021,-0.023,1.081,-1.223,2.42
2024-10-23 22:23:09.628,20913.165,0.301,0.94,-0.159,0.009,-0.072,0.002,-0.148,-0.06,0.003,1.084,-1.223,2.423
2024-10-23 22:23:09.638,20913.175,0.301,0.94,-0.158,0.008,-0.082,-0.007,-0.113,-0.034,-0.008,1.086,-1.224,2.426
2024-10-23 22:23:09.647,20913.185,0.301,0.941,-0.158,-0.001,-0.04,-0.006,-0.037,0.005,-0.024,1.087,-1.225,2.428
2024-10-23 22:23:09.657,20913.195,0.3,0.941,-0.158,-0.017,0.03,-0.001,0.004,0.014,-0.021,1.087,-1.225,2.427
2024-10-23 22:23:09.667,20913.205,0.3,0.941,-0.158,-0.019,0.052,-0.003,0.008,-0.002,-0.02,1.087,-1.225,2.427
2024-10-23 22:23:09.677,20913.215,0.3,0.941,-0.158,-0.006,0.029,-0.001,-0.007,-0.019,-0.011,1.087,-1.225,2.427
2024-10-23 22:23:09.687,20913.225,0.3,0.941,-0.158,0.008,0.004,0.001,-0.003,-0.008,-0.013,1.087,-1.225,2.427
2024-10-23 22:23:09.697,20913.235,0.3,0.941,-0.158,0.008,0.009,-0.002,0.015,0.006,-0.018,1.087,-1.225,2.427
2024-10-23 22:23:09.707,20913.245,0.3,0.941,-0.158,-0.001,0.022,-0.005,0.04,0.022,-0.015,1.086,-1.225,2.426
2024-10-23 22:23:09.717,20913.255,0.3,0.941,-0.158,-0.003,0.023,-0.002,0.032,0.017,-0.001,1.085,-1.225,2.425
2024-10-23 22:23:09.727,20913.265,0.3,0.941,-0.158,0.004,0.008,0.01,-0.062,0.003,0.033,1.085,-1.225,2.425
2024-10-23 22:23:09.737,20913.274,0.3,0.941,-0.157,0.012,-0.018,0.02,-0.144,-0.03,0.02,1.088,-1.225,2.428
2024-10-23 22:23:09.747,20913.284,0.3,0.941,-0.156,0.013,-0.031,0.011,-0.097,-0.027,-0.007,1.091,-1.226,2.432
2024-10-23 22:23:09.757,20913.294,0.3,0.941,-0.156,-0.0,-0.021,-0.005,-0.017,0.004,-0.009,1.092,-1.226,2.433
2024-10-23 22:23:09.767,20913.304,0.3,0.941,-0.156,-0.012,0.007,-0.013,0.025,0.026,-0.014,1.092,-1.226,2.433
2024-10-23 22:23:09.777,20913.314,0.3,0.941,-0.156,-0.012,0.029,-0.007,0.033,0.019,-0.007,1.091,-1.226,2.432
2024-10-23 22:23:09.787,20913.324,0.3,0.941,-0.156,-0.012,0.016,-0.0,0.025,0.014,-0.011,1.091,-1.226,2.431
2024-10-23 22:23:09.797,20913.334,0.299,0.941,-0.156,-0.007,-0.006,0.0,0.037,0.012,-0.019,1.09,-1.226,2.43
2024-10-23 22:23:09.807,20913.344,0.299,0.941,-0.156,-0.001,-0.004,-0.003,0.032,0.019,-0.024,1.089,-1.226,2.429
2024-10-23 22:23:09.817,20913.354,0.299,0.941,-0.157,-0.004,0.004,-0.002,0.022,0.026,-0.024,1.089,-1.226,2.428
2024-10-23 22:23:09.827,20913.364,0.299,0.941,-0.156,-0.006,0.006,0.005,-0.015,0.014,-0.008,1.089,-1.226,2.428
2024-10-23 22:23:09.837,20913.374,0.299,0.941,-0.156,-0.003,-0.009,0.012,-0.017,-0.009,0.009,1.089,-1.226,2.428
2024-10-23 22:23:09.847,20913.384,0.299,0.941,-0.156,0.002,-0.025,0.012,-0.021,-0.012,0.005,1.09,-1.226,2.429
2024-10-23 22:23:09.857,20913.394,0.299,0.941,-0.156,0.005,-0.04,0.008,-0.005,-0.017,-0.011,1.09,-1.227,2.429
2024-10-23 22:23:09.867,20913.404,0.299,0.941,-0.156,0.002,-0.026,0.004,0.01,0.012,-0.024,1.089,-1.227,2.428
2024-10-23 22:23:09.877,20913.414,0.299,0.941,-0.156,-0.005,0.003,0.0,0.026,0.015,-0.025,1.088,-1.227,2.428
2024-10-23 22:23:09.887,20913.424,0.298,0.941,-0.157,-0.01,0.008,-0.003,0.019,0.012,-0.025,1.088,-1.227,2.427
