Date,TimeStamp,GravityX,GravityY,GravityZ,UserAccelerationX,UserAccelerationY,UserAccelerationZ,RotationRateX,RotationRateY,RotationRateZ,AttitudeRoll,AttitudePitch,AttitudeYaw
2024-10-23 22:01:45.794,19629.353,0.481,0.158,-0.862,-0.022,0.006,-0.007,0.011,-0.005,-0.036,0.509,-0.159,1.195
2024-10-23 22:01:45.808,19629.363,0.481,0.158,-0.862,-0.017,-0.008,-0.003,0.003,0.007,-0.027,0.509,-0.159,1.195
2024-10-23 22:01:45.811,19629.373,0.481,0.158,-0.862,-0.015,-0.02,-0.005,-0.042,-0.005,-0.02,0.509,-0.159,1.195
2024-10-23 22:01:45.817,19629.383,0.481,0.159,-0.862,-0.019,-0.014,-0.011,-0.061,0.013,-0.049,0.509,-0.16,1.195
2024-10-23 22:01:45.827,19629.393,0.481,0.16,-0.862,-0.021,-0.024,-0.016,-0.089,0.015,-0.049,0.509,-0.16,1.194
2024-10-23 22:01:45.836,19629.403,0.481,0.161,-0.862,-0.017,-0.029,-0.019,-0.124,0.016,-0.047,0.509,-0.162,1.195
2024-10-23 22:01:45.847,19629.413,0.481,0.162,-0.861,-0.022,-0.02,-0.022,-0.141,0.016,-0.06,0.509,-0.163,1.195
2024-10-23 22:01:45.857,19629.423,0.481,0.164,-0.861,-0.023,-0.023,-0.021,-0.124,0.021,-0.068,0.51,-0.165,1.195
2024-10-23 22:01:45.867,19629.433,0.481,0.165,-0.861,-0.024,-0.026,-0.017,-0.103,0.031,-0.067,0.51,-0.166,1.195
2024-10-23 22:01:45.878,19629.443,0.481,0.166,-0.861,-0.024,-0.021,-0.011,-0.093,0.03,-0.064,0.51,-0.167,1.195
2024-10-23 22:01:45.888,19629.453,0.482,0.167,-0.86,-0.027,-0.014,-0.003,-0.053,0.034,-0.073,0.51,-0.168,1.194
2024-10-23 22:01:45.898,19629.463,0.482,0.168,-0.86,-0.026,-0.012,0.002,0.001,0.04,-0.075,0.51,-0.168,1.194
2024-10-23 22:01:45.908,19629.473,0.482,0.168,-0.86,-0.023,-0.001,0.002,0.05,0.044,-0.083,0.511,-0.168,1.193
2024-10-23 22:01:45.917,19629.483,0.482,0.167,-0.86,-0.023,0.007,0.003,0.088,0.055,-0.082,0.511,-0.168,1.192
2024-10-23 22:01:45.928,19629.493,0.482,0.167,-0.86,-0.018,0.006,0.005,0.094,0.055,-0.081,0.511,-0.168,1.191
2024-10-23 22:01:45.937,19629.503,0.483,0.166,-0.86,-0.015,0.008,0.01,0.088,0.048,-0.087,0.511,-0.167,1.19
2024-10-23 22:01:45.948,19629.513,0.483,0.166,-0.86,-0.008,0.005,0.014,0.083,0.039,-0.096,0.511,-0.167,1.188
2024-10-23 22:01:45.957,19629.523,0.483,0.166,-0.86,-0.001,-0.002,0.014,0.065,0.031,-0.102,0.512,-0.167,1.187
2024-10-23 22:01:45.967,19629.533,0.483,0.166,-0.86,0.001,-0.006,0.012,0.033,0.017,-0.105,0.512,-0.167,1.186
2024-10-23 22:01:45.978,19629.543,0.483,0.166,-0.86,0.006,-0.013,0.012,0.007,0.009,-0.113,0.511,-0.167,1.185
2024-10-23 22:01:45.987,19629.553,0.482,0.167,-0.86,0.012,-0.018,0.015,-0.012,0.001,-0.115,0.511,-0.168,1.184
2024-10-23 22:01:45.997,19629.563,0.482,0.167,-0.86,0.012,-0.023,0.016,-0.01,0.001,-0.116,0.511,-0.168,1.183
2024-10-23 22:01:46.007,19629.573,0.482,0.168,-0.86,0.013,-0.018,0.014,-0.022,0.002,-0.11,0.511,-0.169,1.182
2024-10-23 22:01:46.017,19629.583,0.482,0.169,-0.86,0.009,-0.008,0.017,-0.042,-0.003,-0.095,0.511,-0.17,1.181
2024-10-23 22:01:46.028,19629.593,0.482,0.17,-0.86,0.007,-0.006,0.022,-0.064,-0.004,-0.085,0.511,-0.171,1.181
2024-10-23 22:01:46.037,19629.603,0.481,0.171,-0.86,0.007,-0.007,0.025,-0.086,-0.011,-0.081,0.51,-0.172,1.18
2024-10-23 22:01:46.047,19629.613,0.481,0.172,-0.86,0.006,-0.004,0.029,-0.115,-0.02,-0.066,0.51,-0.173,1.18
2024-10-23 22:01:46.057,19629.623,0.481,0.173,-0.859,0.002,-0.004,0.027,-0.156,-0.023,-0.059,0.51,-0.174,1.18
2024-10-23 22:01:46.067,19629.633,0.481,0.175,-0.859,-0.001,-0.006,0.026,-0.201,-0.033,-0.046,0.51,-0.176,1.181
2024-10-23 22:01:46.078,19629.643,0.48,0.177,-0.859,0.001,-0.008,0.026,-0.268,-0.043,-0.039,0.51,-0.178,1.181
2024-10-23 22:01:46.086,19629.653,0.48,0.18,-0.859,-0.001,-0.012,0.026,-0.354,-0.06,-0.027,0.509,-0.181,1.183
2024-10-23 22:01:46.097,19629.663,0.479,0.184,-0.858,-0.0,-0.022,0.027,-0.453,-0.077,-0.02,0.509,-0.185,1.184
2024-10-23 22:01:46.107,19629.673,0.478,0.188,-0.858,0.001,-0.032,0.031,-0.55,-0.097,-0.01,0.509,-0.189,1.187
2024-10-23 22:01:46.117,19629.683,0.478,0.193,-0.857,0.002,-0.04,0.036,-0.635,-0.115,0.006,0.508,-0.194,1.19
2024-10-23 22:01:46.128,19629.693,0.476,0.199,-0.856,0.004,-0.044,0.04,-0.709,-0.142,0.018,0.508,-0.2,1.193
2024-10-23 22:01:46.136,19629.702,0.475,0.205,-0.856,0.004,-0.043,0.047,-0.783,-0.159,0.034,0.507,-0.206,1.197
2024-10-23 22:01:46.150,19629.712,0.474,0.212,-0.855,0.005,-0.039,0.054,-0.851,-0.165,0.057,0.506,-0.213,1.202
2024-10-23 22:01:46.164,19629.722,0.473,0.219,-0.854,0.002,-0.036,0.054,-0.941,-0.171,0.086,0.506,-0.221,1.207
2024-10-23 22:01:46.169,19629.732,0.471,0.227,-0.852,-0.001,-0.033,0.057,-1.032,-0.193,0.107,0.505,-0.229,1.212
2024-10-23 22:01:46.176,19629.742,0.47,0.235,-0.851,0.0,-0.031,0.06,-1.066,-0.203,0.097,0.505,-0.238,1.219
2024-10-23 22:01:46.186,19629.752,0.468,0.244,-0.849,-0.0,-0.036,0.054,-1.049,-0.206,0.083,0.504,-0.247,1.225
2024-10-23 22:01:46.196,19629.762,0.467,0.252,-0.848,-0.001,-0.036,0.045,-1.012,-0.194,0.075,0.503,-0.255,1.23
2024-10-23 22:01:46.206,19629.772,0.465,0.261,-0.846,-0.004,-0.02,0.033,-1.028,-0.191,0.096,0.503,-0.264,1.236
2024-10-23 22:01:46.216,19629.782,0.464,0.269,-0.844,-0.006,-0.008,0.028,-1.081,-0.19,0.102,0.503,-0.272,1.242
2024-10-23 22:01:46.226,19629.792,0.463,0.278,-0.842,-0.001,-0.013,0.029,-1.211,-0.188,0.135,0.503,-0.282,1.249
2024-10-23 22:01:46.236,19629.802,0.462,0.288,-0.839,0.004,-0.022,0.033,-1.476,-0.202,0.185,0.503,-0.293,1.257
2024-10-23 22:01:46.246,19629.812,0.46,0.301,-0.835,0.006,-0.034,0.047,-1.745,-0.232,0.186,0.504,-0.306,1.267
2024-10-23 22:01:46.256,19629.822,0.459,0.316,-0.83,0.016,-0.071,0.064,-1.915,-0.23,0.175,0.505,-0.321,1.28
2024-10-23 22:01:46.266,19629.832,0.458,0.331,-0.825,0.02,-0.099,0.06,-2.047,-0.227,0.164,0.506,-0.338,1.292
2024-10-23 22:01:46.277,19629.842,0.456,0.348,-0.819,0.015,-0.093,0.054,-2.136,-0.216,0.146,0.508,-0.355,1.304
2024-10-23 22:01:46.286,19629.852,0.455,0.365,-0.812,0.016,-0.094,0.056,-2.2,-0.174,0.145,0.511,-0.373,1.317
2024-10-23 22:01:46.296,19629.862,0.455,0.382,-0.805,0.015,-0.104,0.052,-2.257,-0.136,0.175,0.514,-0.392,1.33
2024-10-23 22:01:46.306,19629.872,0.454,0.399,-0.796,0.008,-0.089,0.053,-2.298,-0.104,0.188,0.519,-0.411,1.344
2024-10-23 22:01:46.317,19629.882,0.455,0.417,-0.787,0.001,-0.073,0.065,-2.295,-0.06,0.202,0.524,-0.43,1.358
2024-10-23 22:01:46.327,19629.892,0.455,0.434,-0.778,-0.001,-0.058,0.068,-2.343,-0.01,0.223,0.53,-0.449,1.373
2024-10-23 22:01:46.336,19629.902,0.456,0.451,-0.767,-0.007,-0.042,0.066,-2.458,0.017,0.25,0.537,-0.468,1.389
2024-10-23 22:01:46.346,19629.912,0.458,0.469,-0.755,-0.006,-0.046,0.067,-2.6,0.035,0.251,0.545,-0.488,1.406
2024-10-23 22:01:46.356,19629.922,0.459,0.488,-0.742,-0.004,-0.067,0.059,-2.751,0.066,0.239,0.554,-0.51,1.424
2024-10-23 22:01:46.366,19629.932,0.461,0.508,-0.728,-0.002,-0.08,0.043,-2.936,0.095,0.22,0.565,-0.533,1.444
2024-10-23 22:01:46.376,19629.942,0.463,0.529,-0.712,-0.002,-0.081,0.029,-3.144,0.121,0.207,0.577,-0.557,1.465
2024-10-23 22:01:46.387,19629.952,0.465,0.55,-0.694,-0.005,-0.095,0.026,-3.296,0.164,0.184,0.59,-0.583,1.488
2024-10-23 22:01:46.397,19629.962,0.467,0.573,-0.674,-0.007,-0.106,0.033,-3.436,0.224,0.163,0.606,-0.61,1.513
2024-10-23 22:01:46.406,19629.972,0.47,0.595,-0.652,-0.012,-0.099,0.028,-3.59,0.23,0.122,0.624,-0.637,1.539
2024-10-23 22:01:46.416,19629.982,0.472,0.618,-0.629,-0.022,-0.079,0.016,-3.722,0.282,0.061,0.643,-0.666,1.567
2024-10-23 22:01:46.426,19629.992,0.474,0.641,-0.604,-0.02,-0.075,0.005,-3.806,0.326,-0.001,0.665,-0.696,1.597
2024-10-23 22:01:46.436,19630.002,0.476,0.664,-0.577,-0.014,-0.061,-0.0,-3.793,0.363,-0.054,0.689,-0.726,1.628
2024-10-23 22:01:46.446,19630.012,0.477,0.685,-0.55,-0.02,-0.053,-0.002,-3.747,0.393,-0.102,0.714,-0.755,1.66
2024-10-23 22:01:46.456,19630.022,0.478,0.706,-0.522,-0.017,-0.035,-0.018,-3.774,0.371,-0.161,0.741,-0.784,1.694
2024-10-23 22:01:46.466,19630.032,0.479,0.726,-0.493,-0.019,-0.007,-0.034,-3.825,0.374,-0.238,0.77,-0.813,1.729
2024-10-23 22:01:46.476,19630.042,0.479,0.746,-0.463,-0.022,-0.002,-0.043,-3.975,0.373,-0.293,0.802,-0.842,1.767
2024-10-23 22:01:46.486,19630.052,0.478,0.766,-0.431,-0.016,0.011,-0.05,-4.093,0.347,-0.355,0.837,-0.872,1.808
2024-10-23 22:01:46.496,19630.062,0.476,0.785,-0.397,-0.02,0.015,-0.05,-4.156,0.494,-0.475,0.876,-0.902,1.853
2024-10-23 22:01:46.506,19630.072,0.474,0.803,-0.362,-0.01,-0.001,-0.047,-4.134,0.443,-0.544,0.919,-0.932,1.902
2024-10-23 22:01:46.516,19630.082,0.471,0.819,-0.327,-0.016,0.008,-0.061,-4.136,0.235,-0.484,0.964,-0.96,1.954
2024-10-23 22:01:46.527,19630.092,0.467,0.834,-0.292,-0.039,0.058,-0.093,-3.988,0.176,-0.576,1.012,-0.987,2.009
2024-10-23 22:01:46.536,19630.102,0.463,0.848,-0.259,-0.003,-0.017,-0.093,-3.836,0.15,-0.585,1.061,-1.012,2.066
2024-10-23 22:01:46.546,19630.112,0.458,0.86,-0.226,0.034,-0.026,-0.059,-3.635,0.131,-0.607,1.112,-1.035,2.124
2024-10-23 22:01:46.556,19630.122,0.453,0.87,-0.195,0.017,0.02,-0.027,-3.439,0.101,-0.588,1.164,-1.055,2.183
2024-10-23 22:01:46.566,19630.132,0.448,0.878,-0.165,0.01,0.071,-0.037,-3.322,0.064,-0.569,1.218,-1.073,2.243
2024-10-23 22:01:46.576,19630.142,0.443,0.886,-0.136,0.009,0.077,-0.052,-3.28,-0.008,-0.543,1.273,-1.088,2.305
2024-10-23 22:01:46.586,19630.152,0.439,0.892,-0.107,0.017,0.08,-0.049,-3.3,-0.111,-0.476,1.331,-1.102,2.371
2024-10-23 22:01:46.596,19630.162,0.435,0.897,-0.078,0.014,0.08,-0.038,-3.373,-0.171,-0.353,1.393,-1.113,2.442
2024-10-23 22:01:46.606,19630.172,0.433,0.9,-0.049,0.007,0.064,-0.01,-3.305,-0.385,-0.2,1.457,-1.12,2.517
2024-10-23 22:01:46.616,19630.182,0.43,0.902,-0.022,0.02,0.063,-0.013,-3.084,-0.265,-0.305,1.519,-1.125,2.589
2024-10-23 22:01:46.626,19630.192,0.427,0.904,0.003,0.006,0.134,-0.035,-2.829,-0.265,-0.347,1.579,-1.13,2.658
2024-10-23 22:01:46.636,19630.202,0.424,0.905,0.027,-0.015,0.185,-0.048,-2.607,-0.351,-0.288,1.633,-1.132,2.722
2024-10-23 22:01:46.646,19630.212,0.422,0.905,0.047,0.041,0.147,-0.059,-2.288,-0.412,-0.205,1.682,-1.132,2.78
2024-10-23 22:01:46.656,19630.222,0.421,0.905,0.064,0.014,0.049,-0.085,-1.909,-0.388,-0.124,1.723,-1.131,2.83
2024-10-23 22:01:46.666,19630.232,0.42,0.904,0.078,0.011,0.077,-0.054,-1.534,-0.419,-0.087,1.755,-1.129,2.87
2024-10-23 22:01:46.676,19630.242,0.42,0.903,0.089,-0.013,0.113,-0.044,-1.256,-0.442,-0.075,1.779,-1.127,2.902
2024-10-23 22:01:46.686,19630.252,0.42,0.902,0.098,-0.022,0.16,-0.037,-1.007,-0.403,-0.061,1.799,-1.125,2.928
2024-10-23 22:01:46.696,19630.262,0.42,0.902,0.103,-0.036,0.157,-0.036,-0.635,-0.33,0.006,1.812,-1.124,2.946
2024-10-23 22:01:46.706,19630.272,0.42,0.901,0.107,-0.041,0.123,-0.077,-0.387,-0.29,0.001,1.819,-1.122,2.958
2024-10-23 22:01:46.716,19630.282,0.421,0.901,0.108,-0.042,0.154,-0.164,-0.242,-0.305,0.01,1.822,-1.121,2.965
2024-10-23 22:01:46.726,19630.291,0.421,0.9,0.109,-0.058,0.171,-0.173,-0.24,-0.367,0.014,1.823,-1.121,2.97
2024-10-23 22:01:46.736,19630.301,0.422,0.9,0.109,-0.058,0.098,-0.171,-0.223,-0.371,0.024,1.824,-1.12,2.975
2024-10-23 22:01:46.746,19630.311,0.422,0.9,0.11,-0.025,0.038,-0.136,-0.188,-0.309,0.02,1.825,-1.119,2.979
2024-10-23 22:01:46.756,19630.321,0.423,0.9,0.11,-0.019,0.014,-0.076,-0.195,-0.232,-0.013,1.826,-1.119,2.983
2024-10-23 22:01:46.766,19630.331,0.423,0.899,0.111,-0.03,0.045,-0.032,-0.22,-0.209,-0.055,1.828,-1.118,2.988
2024-10-23 22:01:46.776,19630.341,0.422,0.9,0.112,-0.038,0.05,0.022,-0.156,-0.196,-0.081,1.83,-1.119,2.993
2024-10-23 22:01:46.786,19630.351,0.422,0.9,0.112,-0.025,0.026,0.055,-0.094,-0.203,-0.1,1.831,-1.119,2.996
2024-10-23 22:01:46.796,19630.361,0.421,0.9,0.112,-0.021,0.017,0.048,-0.003,-0.246,-0.126,1.831,-1.12,2.998
2024-10-23 22:01:46.806,19630.371,0.42,0.901,0.11,-0.02,0.004,0.032,0.127,-0.268,-0.14,1.828,-1.122,2.997
2024-10-23 22:01:46.816,19630.381,0.419,0.902,0.107,-0.008,-0.015,0.013,0.267,-0.306,-0.151,1.822,-1.123,2.994
2024-10-23 22:01:46.826,19630.391,0.418,0.903,0.103,0.001,-0.017,-0.001,0.346,-0.365,-0.151,1.813,-1.126,2.988
2024-10-23 22:01:46.836,19630.401,0.417,0.904,0.098,-0.002,-0.025,-0.014,0.387,-0.286,-0.125,1.802,-1.128,2.98
2024-10-23 22:01:46.846,19630.411,0.417,0.904,0.094,0.008,-0.024,-0.028,0.324,-0.212,-0.047,1.793,-1.13,2.972
2024-10-23 22:01:46.855,19630.421,0.416,0.905,0.091,-0.003,-0.043,-0.019,0.147,-0.167,-0.057,1.786,-1.131,2.967
2024-10-23 22:01:46.865,19630.431,0.416,0.905,0.09,-0.016,-0.063,0.011,-0.118,-0.144,-0.071,1.785,-1.131,2.967
2024-10-23 22:01:46.875,19630.441,0.415,0.905,0.092,-0.001,-0.052,0.028,-0.275,-0.113,-0.097,1.788,-1.132,2.972
2024-10-23 22:01:46.885,19630.451,0.414,0.905,0.094,0.005,-0.053,0.027,-0.388,-0.096,-0.117,1.795,-1.132,2.981
2024-10-23 22:01:46.895,19630.461,0.413,0.905,0.097,-0.003,-0.043,-0.016,-0.293,-0.072,-0.131,1.801,-1.132,2.989
2024-10-23 22:01:46.905,19630.471,0.412,0.906,0.099,-0.006,-0.005,-0.055,-0.284,-0.046,-0.137,1.808,-1.133,2.996
2024-10-23 22:01:46.916,19630.481,0.411,0.906,0.102,0.012,-0.002,-0.087,-0.228,-0.038,-0.136,1.813,-1.134,3.003
2024-10-23 22:01:46.926,19630.491,0.41,0.906,0.103,-0.003,-0.012,-0.081,-0.18,-0.051,-0.135,1.818,-1.135,3.008
2024-10-23 22:01:46.936,19630.501,0.409,0.907,0.104,-0.014,-0.026,-0.085,-0.137,-0.074,-0.128,1.821,-1.135,3.013
2024-10-23 22:01:46.945,19630.511,0.408,0.907,0.105,-0.009,-0.021,-0.091,-0.094,-0.106,-0.117,1.823,-1.136,3.016
2024-10-23 22:01:46.955,19630.521,0.407,0.907,0.105,-0.001,-0.011,-0.079,-0.058,-0.15,-0.103,1.824,-1.137,3.019
2024-10-23 22:01:46.965,19630.531,0.406,0.908,0.105,0.003,-0.003,-0.065,-0.034,-0.167,-0.052,1.824,-1.138,3.02
2024-10-23 22:01:46.975,19630.541,0.406,0.908,0.104,0.013,-0.002,-0.042,0.107,-0.178,-0.047,1.822,-1.138,3.02
2024-10-23 22:01:46.985,19630.551,0.406,0.908,0.102,0.018,0.009,-0.021,0.162,-0.184,-0.037,1.817,-1.139,3.017
2024-10-23 22:01:46.995,19630.561,0.406,0.909,0.099,0.025,0.023,-0.013,0.231,-0.197,-0.037,1.811,-1.14,3.012
2024-10-23 22:01:47.006,19630.571,0.405,0.909,0.096,0.02,0.023,0.02,0.308,-0.21,-0.05,1.804,-1.141,3.006
2024-10-23 22:01:47.015,19630.581,0.405,0.91,0.092,0.018,0.017,0.033,0.336,-0.225,-0.043,1.795,-1.142,2.999
2024-10-23 22:01:47.025,19630.591,0.405,0.91,0.089,0.013,0.014,0.027,0.267,-0.233,-0.039,1.786,-1.143,2.992
2024-10-23 22:01:47.035,19630.601,0.405,0.91,0.086,0.011,0.004,0.016,0.162,-0.263,-0.038,1.779,-1.144,2.987
2024-10-23 22:01:47.046,19630.611,0.405,0.911,0.084,0.004,-0.003,0.013,0.042,-0.301,-0.027,1.775,-1.145,2.985
2024-10-23 22:01:47.055,19630.621,0.405,0.911,0.082,-0.0,-0.012,-0.001,-0.027,-0.322,-0.015,1.772,-1.145,2.985
2024-10-23 22:01:47.065,19630.631,0.405,0.911,0.081,-0.0,-0.014,-0.017,-0.062,-0.312,0.001,1.769,-1.145,2.986
2024-10-23 22:01:47.075,19630.641,0.405,0.911,0.081,-0.004,-0.016,-0.038,-0.08,-0.265,0.005,1.768,-1.145,2.988
2024-10-23 22:01:47.085,19630.651,0.406,0.911,0.081,-0.009,0.01,-0.045,-0.069,-0.217,0.004,1.767,-1.145,2.99
2024-10-23 22:01:47.095,19630.661,0.406,0.91,0.08,-0.021,0.033,-0.033,-0.037,-0.166,-0.004,1.766,-1.144,2.991
2024-10-23 22:01:47.105,19630.671,0.406,0.91,0.08,-0.031,0.046,-0.013,-0.011,-0.15,-0.002,1.765,-1.144,2.991
2024-10-23 22:01:47.115,19630.681,0.406,0.91,0.079,-0.029,0.056,-0.005,-0.004,-0.153,0.008,1.764,-1.144,2.992
2024-10-23 22:01:47.125,19630.691,0.406,0.91,0.079,-0.026,0.041,-0.009,-0.03,-0.185,0.017,1.763,-1.144,2.992
2024-10-23 22:01:47.135,19630.701,0.406,0.91,0.078,-0.018,0.024,-0.011,-0.063,-0.258,0.009,1.761,-1.144,2.993
2024-10-23 22:01:47.145,19630.711,0.407,0.91,0.078,-0.018,0.0,0.0,-0.012,-0.203,0.024,1.76,-1.144,2.994
2024-10-23 22:01:47.155,19630.721,0.407,0.91,0.077,-0.013,-0.008,0.011,0.008,-0.184,0.036,1.758,-1.143,2.994
2024-10-23 22:01:47.165,19630.731,0.408,0.91,0.077,-0.014,-0.01,-0.001,-0.116,-0.235,0.019,1.757,-1.143,2.995
2024-10-23 22:01:47.175,19630.741,0.408,0.91,0.077,-0.017,-0.019,-0.001,-0.134,-0.219,0.023,1.757,-1.143,2.998
2024-10-23 22:01:47.185,19630.751,0.408,0.91,0.077,-0.004,-0.014,0.032,-0.116,-0.182,0.0,1.758,-1.143,3.0
2024-10-23 22:01:47.195,19630.761,0.408,0.91,0.077,-0.012,0.007,0.029,-0.112,-0.164,-0.002,1.758,-1.142,3.003
2024-10-23 22:01:47.205,19630.771,0.408,0.91,0.078,-0.023,0.025,0.011,-0.115,-0.151,0.005,1.759,-1.142,3.006
2024-10-23 22:01:47.215,19630.781,0.408,0.91,0.078,-0.014,0.007,0.009,-0.144,-0.142,0.011,1.76,-1.142,3.009
2024-10-23 22:01:47.225,19630.791,0.408,0.909,0.079,-0.005,-0.018,0.003,-0.13,-0.134,0.012,1.762,-1.142,3.012
2024-10-23 22:01:47.235,19630.801,0.409,0.909,0.08,-0.008,-0.023,0.003,-0.113,-0.11,0.011,1.763,-1.141,3.015
2024-10-23 22:01:47.245,19630.811,0.409,0.909,0.08,-0.012,-0.02,-0.005,-0.075,-0.094,-0.009,1.764,-1.141,3.017
2024-10-23 22:01:47.255,19630.821,0.409,0.909,0.08,-0.018,-0.009,-0.013,-0.012,-0.084,-0.023,1.765,-1.141,3.018
2024-10-23 22:01:47.265,19630.831,0.408,0.909,0.08,-0.024,0.001,-0.024,0.019,-0.086,-0.034,1.764,-1.142,3.018
2024-10-23 22:01:47.275,19630.841,0.408,0.91,0.079,-0.018,-0.005,-0.045,0.062,-0.092,-0.046,1.763,-1.142,3.018
2024-10-23 22:01:47.285,19630.851,0.408,0.91,0.078,-0.013,-0.012,-0.059,0.126,-0.068,-0.056,1.76,-1.143,3.016
2024-10-23 22:01:47.295,19630.861,0.407,0.91,0.077,-0.014,-0.004,-0.061,0.147,-0.052,-0.055,1.757,-1.144,3.013
2024-10-23 22:01:47.305,19630.871,0.407,0.91,0.075,-0.018,-0.004,-0.056,0.127,-0.033,-0.048,1.754,-1.144,3.01
2024-10-23 22:01:47.315,19630.88,0.406,0.911,0.074,-0.01,-0.022,-0.032,0.148,-0.017,-0.035,1.751,-1.145,3.007
2024-10-23 22:01:47.325,19630.89,0.406,0.911,0.072,-0.003,-0.035,-0.0,0.189,0.013,-0.024,1.747,-1.146,3.003
2024-10-23 22:01:47.335,19630.9,0.406,0.911,0.071,-0.006,-0.04,0.008,0.151,0.008,-0.033,1.744,-1.146,2.999
2024-10-23 22:01:47.345,19630.91,0.405,0.911,0.07,-0.005,-0.031,0.004,0.104,-0.008,-0.042,1.741,-1.147,2.996
2024-10-23 22:01:47.355,19630.92,0.405,0.912,0.069,-0.002,-0.019,-0.001,0.062,-0.031,-0.064,1.739,-1.148,2.994
2024-10-23 22:01:47.365,19630.93,0.404,0.912,0.068,-0.001,-0.022,-0.008,0.017,-0.046,-0.085,1.738,-1.148,2.994
2024-10-23 22:01:47.374,19630.94,0.403,0.912,0.068,0.007,-0.012,-0.016,-0.058,-0.06,-0.098,1.738,-1.149,2.994
2024-10-23 22:01:47.385,19630.95,0.403,0.913,0.069,0.011,-0.011,-0.008,-0.124,-0.059,-0.104,1.74,-1.15,2.997
2024-10-23 22:01:47.394,19630.96,0.402,0.913,0.07,0.011,-0.021,0.008,-0.169,-0.044,-0.093,1.742,-1.151,3.001
2024-10-23 22:01:47.404,19630.97,0.401,0.913,0.071,0.013,-0.034,0.017,-0.215,-0.021,-0.129,1.747,-1.152,3.006
2024-10-23 22:01:47.415,19630.98,0.4,0.914,0.073,0.019,-0.036,0.016,-0.251,-0.041,-0.113,1.752,-1.152,3.012
2024-10-23 22:01:47.425,19630.99,0.399,0.914,0.076,0.017,-0.036,0.009,-0.293,-0.087,-0.089,1.758,-1.153,3.019
2024-10-23 22:01:47.435,19631.0,0.398,0.914,0.078,0.015,-0.051,-0.007,-0.185,-0.032,-0.103,1.763,-1.153,3.026
2024-10-23 22:01:47.445,19631.01,0.397,0.914,0.079,0.01,-0.003,0.004,-0.175,-0.042,-0.089,1.767,-1.154,3.03
2024-10-23 22:01:47.454,19631.02,0.396,0.915,0.08,-0.007,0.02,-0.019,-0.154,-0.091,-0.082,1.77,-1.154,3.035
2024-10-23 22:01:47.465,19631.03,0.396,0.915,0.081,0.008,-0.013,-0.03,-0.082,-0.044,-0.068,1.773,-1.155,3.038
2024-10-23 22:01:47.475,19631.04,0.395,0.915,0.082,0.007,0.02,-0.003,-0.082,-0.06,-0.07,1.774,-1.155,3.04
2024-10-23 22:01:47.485,19631.05,0.395,0.915,0.082,-0.018,0.034,-0.004,-0.036,-0.071,-0.067,1.775,-1.156,3.042
2024-10-23 22:01:47.495,19631.06,0.395,0.915,0.082,-0.009,0.018,-0.005,-0.039,-0.086,-0.045,1.775,-1.156,3.043
2024-10-23 22:01:47.505,19631.07,0.394,0.915,0.082,0.003,0.01,-0.006,-0.069,-0.09,-0.038,1.776,-1.156,3.044
2024-10-23 22:01:47.515,19631.08,0.394,0.915,0.082,0.009,0.02,0.005,-0.05,-0.065,-0.016,1.777,-1.156,3.046
2024-10-23 22:01:47.524,19631.09,0.394,0.915,0.083,0.003,0.038,0.018,-0.067,-0.043,-0.001,1.777,-1.156,3.047
2024-10-23 22:01:47.534,19631.1,0.394,0.915,0.083,0.0,0.05,0.011,-0.085,-0.027,0.011,1.779,-1.156,3.049
2024-10-23 22:01:47.544,19631.11,0.394,0.915,0.084,0.006,0.058,0.005,-0.088,-0.017,0.027,1.78,-1.156,3.051
2024-10-23 22:01:47.555,19631.12,0.395,0.915,0.084,0.012,0.048,-0.009,-0.081,-0.009,0.036,1.782,-1.155,3.053
2024-10-23 22:01:47.564,19631.13,0.395,0.915,0.085,0.02,0.05,-0.032,-0.086,-0.006,0.059,1.783,-1.155,3.055
2024-10-23 22:01:47.574,19631.14,0.396,0.914,0.086,0.016,0.059,-0.048,-0.084,-0.002,0.085,1.785,-1.154,3.056
2024-10-23 22:01:47.584,19631.15,0.397,0.914,0.087,0.011,0.057,-0.046,-0.071,0.004,0.123,1.786,-1.153,3.058
2024-10-23 22:01:47.594,19631.16,0.398,0.913,0.087,0.001,0.054,-0.033,-0.058,0.005,0.145,1.787,-1.151,3.058
2024-10-23 22:01:47.604,19631.17,0.399,0.913,0.088,-0.013,0.05,-0.023,-0.033,0.013,0.166,1.787,-1.15,3.059
2024-10-23 22:01:47.614,19631.18,0.401,0.912,0.088,-0.028,0.058,-0.032,0.024,0.059,0.18,1.787,-1.148,3.058
2024-10-23 22:01:47.624,19631.19,0.402,0.911,0.088,-0.043,0.064,-0.038,0.133,0.13,0.199,1.785,-1.146,3.055
2024-10-23 22:01:47.634,19631.2,0.404,0.91,0.087,-0.053,0.068,-0.05,0.177,0.158,0.238,1.782,-1.144,3.05
2024-10-23 22:01:47.644,19631.21,0.406,0.91,0.086,-0.049,0.055,-0.07,0.121,0.145,0.23,1.779,-1.142,3.046
2024-10-23 22:01:47.654,19631.22,0.408,0.909,0.086,-0.026,0.049,-0.075,0.073,0.152,0.229,1.778,-1.14,3.042
2024-10-23 22:01:47.664,19631.23,0.41,0.908,0.086,-0.015,0.043,-0.049,0.019,0.165,0.224,1.777,-1.138,3.04
2024-10-23 22:01:47.674,19631.24,0.412,0.907,0.087,-0.008,0.037,-0.021,-0.043,0.163,0.222,1.778,-1.136,3.039
2024-10-23 22:01:47.684,19631.25,0.414,0.906,0.088,0.001,0.036,-0.001,-0.124,0.157,0.223,1.78,-1.134,3.04
2024-10-23 22:01:47.694,19631.26,0.416,0.905,0.09,0.012,0.024,0.012,-0.187,0.187,0.235,1.784,-1.131,3.042
2024-10-23 22:01:47.704,19631.27,0.418,0.904,0.093,0.007,0.018,0.022,-0.212,0.21,0.239,1.789,-1.129,3.046
2024-10-23 22:01:47.714,19631.28,0.42,0.903,0.095,-0.01,0.012,0.028,-0.187,0.222,0.23,1.794,-1.126,3.049
2024-10-23 22:01:47.724,19631.29,0.421,0.902,0.098,-0.019,0.001,0.042,-0.092,0.203,0.212,1.798,-1.124,3.051
2024-10-23 22:01:47.734,19631.3,0.423,0.901,0.099,-0.013,0.005,0.05,0.03,0.193,0.19,1.8,-1.121,3.051
2024-10-23 22:01:47.744,19631.31,0.424,0.9,0.099,-0.02,0.005,0.059,0.135,0.189,0.137,1.799,-1.12,3.048
2024-10-23 22:01:47.754,19631.32,0.425,0.9,0.098,-0.03,0.008,0.073,0.226,0.18,0.071,1.797,-1.119,3.043
2024-10-23 22:01:47.764,19631.33,0.425,0.9,0.096,-0.04,-0.011,0.066,0.207,0.116,0.049,1.794,-1.119,3.038
2024-10-23 22:01:47.774,19631.34,0.426,0.9,0.095,-0.032,-0.066,0.058,0.199,0.05,0.03,1.79,-1.119,3.033
2024-10-23 22:01:47.784,19631.35,0.426,0.9,0.093,-0.019,-0.095,0.047,0.264,0.072,0.011,1.786,-1.12,3.028
2024-10-23 22:01:47.794,19631.36,0.426,0.9,0.091,-0.035,-0.044,0.053,0.372,0.078,-0.015,1.781,-1.12,3.021
2024-10-23 22:01:47.804,19631.37,0.425,0.901,0.088,-0.061,-0.021,0.033,0.289,0.055,-0.08,1.775,-1.122,3.014
2024-10-23 22:01:47.814,19631.38,0.424,0.901,0.086,-0.039,-0.038,0.01,0.339,0.111,-0.099,1.77,-1.123,3.007
2024-10-23 22:01:47.823,19631.39,0.423,0.902,0.083,-0.036,-0.043,0.019,0.365,0.178,-0.114,1.764,-1.125,3.0
2024-10-23 22:01:47.833,19631.4,0.422,0.903,0.081,-0.062,-0.01,-0.007,0.314,0.166,-0.162,1.76,-1.127,2.992
2024-10-23 22:01:47.843,19631.41,0.42,0.904,0.079,-0.058,-0.024,-0.044,0.229,0.149,-0.175,1.756,-1.129,2.987
2024-10-23 22:01:47.853,19631.42,0.419,0.905,0.078,-0.04,-0.072,-0.038,0.089,0.081,-0.176,1.755,-1.131,2.984
2024-10-23 22:01:47.863,19631.43,0.417,0.906,0.078,-0.039,-0.085,-0.026,-0.04,-0.013,-0.206,1.755,-1.133,2.984
2024-10-23 22:01:47.873,19631.44,0.415,0.906,0.079,-0.022,-0.091,-0.007,-0.161,-0.071,-0.21,1.758,-1.135,2.987
2024-10-23 22:01:47.884,19631.45,0.413,0.907,0.08,-0.001,-0.108,0.023,-0.299,-0.141,-0.256,1.763,-1.137,2.994
2024-10-23 22:01:47.894,19631.46,0.411,0.908,0.083,0.011,-0.088,0.05,-0.387,-0.191,-0.258,1.769,-1.139,3.003
2024-10-23 22:01:47.904,19631.469,0.409,0.909,0.086,0.009,-0.07,0.074,-0.436,-0.232,-0.266,1.777,-1.14,3.014
2024-10-23 22:01:47.914,19631.479,0.406,0.909,0.088,0.015,-0.066,0.092,-0.406,-0.266,-0.288,1.785,-1.142,3.025
2024-10-23 22:01:47.924,19631.489,0.404,0.91,0.091,0.033,-0.053,0.096,-0.31,-0.268,-0.28,1.791,-1.144,3.035
2024-10-23 22:01:47.935,19631.499,0.402,0.911,0.092,0.035,-0.044,0.079,-0.203,-0.274,-0.263,1.795,-1.146,3.043
2024-10-23 22:01:47.944,19631.509,0.4,0.912,0.092,0.031,-0.039,0.052,-0.109,-0.282,-0.251,1.797,-1.148,3.048
2024-10-23 22:01:47.953,19631.519,0.398,0.913,0.092,0.028,-0.025,0.047,-0.025,-0.28,-0.245,1.797,-1.151,3.051
2024-10-23 22:01:47.963,19631.529,0.396,0.914,0.091,0.024,-0.004,0.049,-0.002,-0.302,-0.229,1.796,-1.153,3.052
2024-10-23 22:01:47.973,19631.539,0.394,0.915,0.089,0.021,-0.004,0.045,0.015,-0.317,-0.218,1.793,-1.155,3.053
2024-10-23 22:01:47.983,19631.549,0.392,0.916,0.088,0.02,-0.017,0.038,0.029,-0.33,-0.206,1.791,-1.157,3.054
2024-10-23 22:01:47.993,19631.559,0.391,0.917,0.086,0.021,-0.018,0.027,0.035,-0.328,-0.207,1.788,-1.159,3.054
2024-10-23 22:01:48.004,19631.569,0.389,0.917,0.085,0.018,-0.004,0.014,0.048,-0.304,-0.203,1.785,-1.161,3.054
2024-10-23 22:01:48.014,19631.579,0.388,0.918,0.083,0.006,0.009,0.001,0.03,-0.286,-0.182,1.782,-1.163,3.054
2024-10-23 22:01:48.024,19631.589,0.386,0.919,0.082,-0.006,0.019,-0.025,0.02,-0.266,-0.157,1.779,-1.165,3.055
2024-10-23 22:01:48.034,19631.599,0.385,0.919,0.081,-0.012,0.021,-0.045,-0.056,-0.249,-0.135,1.778,-1.166,3.056
2024-10-23 22:01:48.043,19631.609,0.384,0.92,0.081,-0.015,0.015,-0.056,-0.102,-0.232,-0.131,1.778,-1.168,3.059
2024-10-23 22:01:48.053,19631.619,0.383,0.92,0.081,-0.02,0.027,-0.051,-0.119,-0.196,-0.104,1.779,-1.169,3.062
2024-10-23 22:01:48.064,19631.629,0.382,0.92,0.081,-0.03,0.037,-0.051,-0.126,-0.167,-0.086,1.78,-1.169,3.066
2024-10-23 22:01:48.074,19631.639,0.382,0.921,0.082,-0.03,0.044,-0.052,-0.112,-0.134,-0.073,1.782,-1.17,3.069
2024-10-23 22:01:48.083,19631.649,0.381,0.921,0.082,-0.03,0.053,-0.044,-0.091,-0.106,-0.061,1.784,-1.17,3.072
2024-10-23 22:01:48.093,19631.659,0.381,0.921,0.083,-0.032,0.056,-0.044,-0.082,-0.081,-0.046,1.785,-1.171,3.075
2024-10-23 22:01:48.104,19631.669,0.38,0.921,0.083,-0.032,0.057,-0.041,-0.056,-0.053,-0.032,1.786,-1.171,3.076
2024-10-23 22:01:48.114,19631.679,0.38,0.921,0.084,-0.029,0.057,-0.034,-0.072,-0.045,-0.013,1.787,-1.171,3.078
2024-10-23 22:01:48.124,19631.689,0.38,0.921,0.084,-0.025,0.055,-0.035,-0.086,-0.051,-0.001,1.789,-1.171,3.08
2024-10-23 22:01:48.134,19631.699,0.38,0.921,0.085,-0.025,0.052,-0.037,-0.072,-0.026,0.029,1.79,-1.171,3.082
2024-10-23 22:01:48.143,19631.709,0.381,0.921,0.085,-0.026,0.044,-0.041,-0.083,-0.018,0.051,1.791,-1.17,3.083
2024-10-23 22:01:48.153,19631.719,0.381,0.921,0.086,-0.028,0.05,-0.047,-0.077,-0.015,0.062,1.792,-1.169,3.085
2024-10-23 22:01:48.163,19631.729,0.382,0.92,0.086,-0.026,0.049,-0.042,-0.062,-0.01,0.067,1.793,-1.169,3.086
2024-10-23 22:01:48.173,19631.739,0.382,0.92,0.087,-0.019,0.039,-0.039,-0.006,0.011,0.078,1.794,-1.168,3.087
2024-10-23 22:01:48.183,19631.749,0.383,0.92,0.087,-0.012,0.045,-0.028,-0.003,0.043,0.084,1.793,-1.167,3.086
2024-10-23 22:01:48.194,19631.759,0.384,0.919,0.087,-0.015,0.046,-0.02,-0.01,0.051,0.084,1.793,-1.166,3.086
2024-10-23 22:01:48.203,19631.769,0.384,0.919,0.087,-0.017,0.043,-0.006,-0.015,0.039,0.082,1.794,-1.166,3.085
2024-10-23 22:01:48.213,19631.779,0.385,0.919,0.087,-0.013,0.029,0.003,-0.016,0.022,0.079,1.794,-1.165,3.085
2024-10-23 22:01:48.223,19631.789,0.386,0.918,0.087,-0.007,0.007,0.001,0.009,0.027,0.065,1.794,-1.164,3.085
2024-10-23 22:01:48.233,19631.799,0.386,0.918,0.087,-0.003,0.004,-0.002,-0.003,0.021,0.064,1.793,-1.164,3.084
2024-10-23 22:01:48.243,19631.809,0.387,0.918,0.088,-0.005,0.008,-0.006,-0.016,0.015,0.054,1.794,-1.163,3.084
2024-10-23 22:01:48.253,19631.819,0.387,0.918,0.088,-0.002,0.006,0.001,0.014,0.023,0.062,1.793,-1.163,3.084
2024-10-23 22:01:48.263,19631.829,0.388,0.918,0.088,0.001,-0.007,0.002,-0.011,0.014,0.055,1.793,-1.162,3.083
2024-10-23 22:01:48.273,19631.839,0.388,0.917,0.088,0.008,-0.018,-0.0,-0.039,0.002,0.045,1.793,-1.162,3.084
2024-10-23 22:01:48.283,19631.849,0.388,0.917,0.088,0.01,-0.019,0.01,-0.052,0.015,0.045,1.794,-1.161,3.085
2024-10-23 22:01:48.293,19631.859,0.389,0.917,0.089,0.003,-0.037,0.015,-0.055,0.033,0.031,1.796,-1.161,3.086
2024-10-23 22:01:48.303,19631.869,0.389,0.917,0.089,-0.002,-0.043,0.014,-0.047,0.03,0.018,1.797,-1.16,3.087
2024-10-23 22:01:48.313,19631.879,0.389,0.917,0.09,-0.004,-0.036,0.019,-0.04,0.021,-0.014,1.798,-1.16,3.088
2024-10-23 22:01:48.323,19631.889,0.389,0.917,0.09,-0.004,-0.041,0.024,-0.016,0.014,-0.025,1.799,-1.16,3.089
2024-10-23 22:01:48.333,19631.899,0.388,0.917,0.09,-0.003,-0.044,0.02,-0.02,0.006,-0.034,1.8,-1.161,3.089
2024-10-23 22:01:48.343,19631.909,0.388,0.917,0.091,-0.004,-0.038,0.009,-0.017,-0.011,-0.029,1.8,-1.161,3.09
2024-10-23 22:01:48.353,19631.919,0.388,0.917,0.091,-0.007,-0.038,0.001,-0.031,-0.027,-0.026,1.801,-1.161,3.091
2024-10-23 22:01:48.363,19631.929,0.388,0.917,0.091,-0.007,-0.046,-0.012,-0.035,-0.032,-0.04,1.801,-1.161,3.092
2024-10-23 22:01:48.373,19631.939,0.387,0.917,0.091,-0.003,-0.04,-0.02,-0.048,-0.031,-0.048,1.802,-1.162,3.093
2024-10-23 22:01:48.383,19631.949,0.387,0.918,0.092,-0.003,-0.027,-0.022,-0.039,-0.02,-0.054,1.803,-1.162,3.094
2024-10-23 22:01:48.393,19631.959,0.386,0.918,0.092,-0.004,-0.021,-0.016,-0.05,-0.024,-0.06,1.804,-1.162,3.096
2024-10-23 22:01:48.403,19631.969,0.386,0.918,0.092,-0.002,-0.015,-0.013,-0.065,-0.024,-0.07,1.806,-1.163,3.098
2024-10-23 22:01:48.413,19631.979,0.385,0.918,0.093,0.001,-0.011,-0.014,-0.073,-0.015,-0.072,1.808,-1.163,3.1
2024-10-23 22:01:48.423,19631.989,0.385,0.918,0.094,-0.006,-0.007,-0.012,-0.069,-0.014,-0.071,1.809,-1.164,3.102
2024-10-23 22:01:48.433,19631.999,0.384,0.919,0.094,-0.009,-0.004,-0.013,-0.081,-0.011,-0.071,1.811,-1.164,3.104
2024-10-23 22:01:48.443,19632.009,0.383,0.919,0.095,-0.007,0.003,-0.011,-0.071,-0.012,-0.074,1.813,-1.165,3.107
2024-10-23 22:01:48.453,19632.019,0.383,0.919,0.095,-0.006,0.012,-0.006,-0.067,-0.004,-0.058,1.815,-1.165,3.109
2024-10-23 22:01:48.463,19632.029,0.382,0.919,0.096,-0.008,0.01,-0.006,-0.062,-0.009,-0.05,1.817,-1.166,3.11
2024-10-23 22:01:48.473,19632.039,0.382,0.919,0.096,-0.005,0.009,-0.008,-0.051,-0.004,-0.039,1.818,-1.166,3.112
2024-10-23 22:01:48.483,19632.049,0.382,0.919,0.097,-0.003,0.014,-0.006,-0.041,-0.012,-0.027,1.819,-1.166,3.113
2024-10-23 22:01:48.493,19632.058,0.381,0.919,0.097,-0.005,0.018,-0.003,-0.024,-0.018,-0.018,1.82,-1.166,3.114
2024-10-23 22:01:48.503,19632.068,0.381,0.919,0.097,-0.005,0.024,0.003,-0.017,-0.021,-0.005,1.82,-1.166,3.115
2024-10-23 22:01:48.513,19632.078,0.381,0.919,0.097,-0.004,0.024,0.006,-0.006,-0.027,0.004,1.82,-1.166,3.115
2024-10-23 22:01:48.523,19632.088,0.381,0.919,0.097,-0.004,0.025,0.01,0.039,-0.022,0.001,1.819,-1.167,3.114
2024-10-23 22:01:48.533,19632.098,0.381,0.919,0.096,-0.006,0.033,0.01,0.057,-0.024,0.005,1.818,-1.167,3.113
2024-10-23 22:01:48.543,19632.108,0.381,0.919,0.095,-0.008,0.034,0.006,0.056,-0.028,0.003,1.816,-1.167,3.111
2024-10-23 22:01:48.553,19632.118,0.381,0.92,0.095,-0.006,0.027,0.011,0.052,-0.023,0.01,1.814,-1.167,3.11
2024-10-23 22:01:48.563,19632.128,0.381,0.92,0.094,-0.006,0.018,0.013,0.044,-0.015,0.01,1.813,-1.167,3.109
2024-10-23 22:01:48.573,19632.138,0.382,0.92,0.094,-0.006,0.008,0.01,0.029,-0.012,0.01,1.812,-1.167,3.108
2024-10-23 22:01:48.583,19632.148,0.382,0.92,0.094,-0.007,0.005,0.005,0.025,-0.012,0.008,1.811,-1.167,3.107
2024-10-23 22:01:48.593,19632.158,0.382,0.92,0.093,-0.007,0.0,0.003,0.016,-0.017,0.006,1.811,-1.167,3.107
2024-10-23 22:01:48.603,19632.168,0.382,0.92,0.093,-0.005,-0.005,0.0,-0.003,-0.027,0.002,1.811,-1.167,3.107
2024-10-23 22:01:48.613,19632.178,0.382,0.92,0.093,-0.003,-0.011,-0.003,-0.004,-0.03,-0.005,1.81,-1.167,3.107
2024-10-23 22:01:48.623,19632.188,0.382,0.92,0.093,-0.001,-0.013,-0.003,0.002,-0.025,-0.013,1.81,-1.167,3.107
2024-10-23 22:01:48.633,19632.198,0.381,0.92,0.093,-0.002,-0.013,-0.001,0.004,-0.023,-0.02,1.81,-1.167,3.107
2024-10-23 22:01:48.643,19632.208,0.381,0.92,0.093,-0.005,-0.012,-0.003,0.007,-0.027,-0.027,1.81,-1.168,3.107
2024-10-23 22:01:48.652,19632.218,0.381,0.92,0.093,-0.002,-0.02,-0.004,0.006,-0.03,-0.025,1.81,-1.168,3.107
2024-10-23 22:01:48.663,19632.228,0.381,0.92,0.093,0.001,-0.026,-0.004,-0.003,-0.027,-0.034,1.81,-1.168,3.107
2024-10-23 22:01:48.673,19632.238,0.38,0.92,0.093,-0.001,-0.024,-0.005,-0.027,-0.015,-0.04,1.81,-1.169,3.108
2024-10-23 22:01:48.682,19632.248,0.38,0.92,0.093,-0.007,-0.015,0.0,-0.046,-0.019,-0.04,1.811,-1.169,3.109
2024-10-23 22:01:48.692,19632.258,0.379,0.92,0.093,-0.012,-0.01,-0.004,-0.041,-0.01,-0.042,1.812,-1.169,3.11
2024-10-23 22:01:48.703,19632.268,0.379,0.921,0.094,-0.011,-0.016,0.002,-0.046,-0.007,-0.042,1.813,-1.17,3.112
2024-10-23 22:01:48.713,19632.278,0.379,0.921,0.094,-0.009,-0.017,-0.002,-0.052,-0.008,-0.043,1.814,-1.17,3.113
2024-10-23 22:01:48.722,19632.288,0.378,0.921,0.095,-0.01,-0.006,-0.01,-0.042,-0.007,-0.046,1.816,-1.17,3.115
2024-10-23 22:01:48.732,19632.298,0.378,0.921,0.095,-0.009,-0.001,-0.014,-0.028,-0.001,-0.045,1.817,-1.171,3.116
2024-10-23 22:01:48.742,19632.308,0.378,0.921,0.095,-0.01,0.003,-0.016,-0.031,0.01,-0.05,1.817,-1.171,3.117
2024-10-23 22:01:48.753,19632.318,0.377,0.921,0.095,-0.009,0.007,-0.016,-0.034,0.015,-0.051,1.819,-1.171,3.118
2024-10-23 22:01:48.762,19632.328,0.377,0.921,0.096,-0.011,0.007,-0.014,-0.03,0.026,-0.05,1.82,-1.172,3.119
2024-10-23 22:01:48.773,19632.338,0.376,0.922,0.096,-0.012,0.007,-0.014,-0.021,0.026,-0.045,1.821,-1.172,3.12
2024-10-23 22:01:48.782,19632.348,0.376,0.922,0.096,-0.014,0.005,-0.014,-0.023,0.032,-0.049,1.822,-1.172,3.121
2024-10-23 22:01:48.792,19632.358,0.375,0.922,0.097,-0.01,0.006,-0.012,-0.025,0.036,-0.046,1.823,-1.173,3.122
2024-10-23 22:01:48.802,19632.368,0.375,0.922,0.097,-0.008,0.004,-0.008,-0.028,0.043,-0.046,1.824,-1.173,3.122
2024-10-23 22:01:48.812,19632.378,0.374,0.922,0.098,-0.009,0.002,-0.002,-0.032,0.044,-0.046,1.826,-1.174,3.123
2024-10-23 22:01:48.822,19632.388,0.374,0.922,0.098,-0.009,0.003,0.005,-0.041,0.047,-0.039,1.827,-1.174,3.124
2024-10-23 22:01:48.833,19632.398,0.373,0.922,0.098,-0.007,0.0,0.006,-0.036,0.043,-0.044,1.829,-1.174,3.126
2024-10-23 22:01:48.842,19632.408,0.373,0.923,0.099,-0.007,-0.0,0.008,-0.031,0.037,-0.043,1.83,-1.175,3.127
2024-10-23 22:01:48.851,19632.418,0.373,0.923,0.099,-0.006,0.003,0.007,-0.032,0.032,-0.041,1.831,-1.175,3.127
2024-10-23 22:01:48.862,19632.428,0.372,0.923,0.1,-0.004,0.005,0.002,-0.022,0.022,-0.037,1.832,-1.175,3.128
2024-10-23 22:01:48.872,19632.438,0.372,0.923,0.1,-0.002,0.005,0.003,-0.007,0.01,-0.026,1.833,-1.176,3.129
2024-10-23 22:01:48.882,19632.448,0.372,0.923,0.1,0.001,0.006,0.004,0.007,0.012,-0.02,1.833,-1.176,3.129
2024-10-23 22:01:48.892,19632.458,0.371,0.923,0.1,0.004,0.01,0.003,0.025,0.008,-0.013,1.833,-1.176,3.129
2024-10-23 22:01:48.902,19632.468,0.371,0.923,0.099,0.005,0.015,0.004,0.02,-0.005,-0.009,1.832,-1.176,3.128
2024-10-23 22:01:48.912,19632.478,0.371,0.923,0.099,0.006,0.012,0.005,0.014,-0.018,-0.002,1.832,-1.176,3.128
2024-10-23 22:01:48.922,19632.488,0.371,0.923,0.099,0.005,0.007,0.005,0.02,-0.018,-0.001,1.831,-1.177,3.127
2024-10-23 22:01:48.932,19632.498,0.371,0.923,0.099,0.004,0.004,0.006,0.038,-0.017,-0.001,1.831,-1.177,3.127
2024-10-23 22:01:48.942,19632.508,0.371,0.923,0.098,-0.0,0.009,0.006,0.038,-0.021,0.0,1.829,-1.177,3.126
2024-10-23 22:01:48.952,19632.518,0.371,0.923,0.098,-0.006,0.009,0.0,0.039,-0.019,-0.002,1.828,-1.177,3.125
2024-10-23 22:01:48.962,19632.528,0.371,0.923,0.097,-0.006,0.005,-0.0,0.041,-0.018,-0.004,1.827,-1.177,3.124
2024-10-23 22:01:48.972,19632.538,0.371,0.923,0.097,-0.009,-0.001,-0.003,0.035,-0.012,-0.003,1.826,-1.177,3.123
2024-10-23 22:01:48.982,19632.548,0.371,0.924,0.097,-0.01,-0.006,-0.002,0.039,-0.009,-0.009,1.825,-1.177,3.122
2024-10-23 22:01:48.992,19632.558,0.371,0.924,0.096,-0.011,-0.007,-0.002,0.049,-0.019,-0.006,1.824,-1.177,3.121
2024-10-23 22:01:49.002,19632.568,0.371,0.924,0.096,-0.01,-0.01,-0.003,0.058,-0.015,-0.013,1.823,-1.178,3.12
2024-10-23 22:01:49.012,19632.578,0.371,0.924,0.095,-0.007,-0.006,-0.001,0.081,-0.007,-0.01,1.822,-1.178,3.118
2024-10-23 22:01:49.022,19632.588,0.371,0.924,0.094,-0.01,-0.003,-0.0,0.079,-0.014,-0.012,1.82,-1.178,3.116
2024-10-23 22:01:49.032,19632.598,0.371,0.924,0.094,-0.009,-0.007,-0.005,0.069,-0.006,-0.013,1.818,-1.179,3.115
2024-10-23 22:01:49.042,19632.608,0.371,0.924,0.093,-0.006,-0.003,-0.005,0.055,0.0,-0.013,1.816,-1.179,3.113
2024-10-23 22:01:49.052,19632.618,0.37,0.924,0.092,-0.007,-0.0,-0.003,0.042,0.003,-0.019,1.816,-1.179,3.112
2024-10-23 22:01:49.062,19632.628,0.37,0.924,0.092,-0.009,-0.002,-0.004,0.043,0.005,-0.018,1.815,-1.179,3.111
2024-10-23 22:01:49.072,19632.638,0.37,0.925,0.092,-0.008,-0.001,-0.006,0.044,0.006,-0.02,1.814,-1.18,3.11
2024-10-23 22:01:49.082,19632.647,0.37,0.925,0.091,-0.007,-0.003,-0.011,0.048,0.01,-0.023,1.813,-1.18,3.109
2024-10-23 22:01:49.092,19632.657,0.369,0.925,0.091,-0.008,-0.001,-0.01,0.053,0.017,-0.024,1.812,-1.18,3.108
2024-10-23 22:01:49.102,19632.667,0.369,0.925,0.091,-0.008,0.0,-0.007,0.06,0.028,-0.029,1.811,-1.181,3.107
2024-10-23 22:01:49.112,19632.677,0.369,0.925,0.09,-0.01,0.0,-0.011,0.055,0.035,-0.027,1.81,-1.181,3.105
2024-10-23 22:01:49.122,19632.687,0.369,0.925,0.09,-0.012,-0.003,-0.014,0.027,0.027,-0.039,1.81,-1.182,3.105
2024-10-23 22:01:49.132,19632.697,0.368,0.925,0.09,-0.008,-0.007,-0.012,-0.004,0.026,-0.047,1.81,-1.182,3.105
2024-10-23 22:01:49.142,19632.707,0.368,0.926,0.09,-0.003,-0.012,-0.006,-0.032,0.025,-0.051,1.811,-1.183,3.105
2024-10-23 22:01:49.152,19632.717,0.367,0.926,0.091,-0.004,-0.019,-0.002,-0.03,0.026,-0.054,1.812,-1.183,3.107
2024-10-23 22:01:49.162,19632.727,0.367,0.926,0.091,-0.006,-0.019,0.001,-0.002,0.035,-0.052,1.813,-1.184,3.107
2024-10-23 22:01:49.172,19632.737,0.366,0.926,0.091,-0.005,-0.017,0.002,-0.025,0.026,-0.059,1.814,-1.184,3.108
2024-10-23 22:01:49.182,19632.747,0.366,0.926,0.091,-0.005,-0.011,-0.001,-0.021,0.018,-0.053,1.815,-1.185,3.109
2024-10-23 22:01:49.192,19632.757,0.365,0.927,0.091,-0.005,-0.002,0.006,-0.016,0.021,-0.05,1.816,-1.185,3.11
2024-10-23 22:01:49.202,19632.767,0.364,0.927,0.092,-0.005,-0.006,0.004,-0.002,0.026,-0.051,1.817,-1.186,3.11
2024-10-23 22:01:49.212,19632.777,0.364,0.927,0.092,-0.005,0.004,-0.0,0.002,0.022,-0.043,1.817,-1.186,3.11
2024-10-23 22:01:49.222,19632.787,0.364,0.927,0.092,-0.004,0.011,0.002,0.007,0.018,-0.04,1.818,-1.186,3.11
2024-10-23 22:01:49.232,19632.797,0.363,0.927,0.092,0.001,0.009,0.005,0.009,0.013,-0.039,1.818,-1.187,3.11
2024-10-23 22:01:49.242,19632.807,0.363,0.927,0.092,0.003,0.009,0.009,0.012,0.01,-0.034,1.818,-1.187,3.11
2024-10-23 22:01:49.251,19632.817,0.363,0.927,0.091,0.001,0.009,0.01,0.017,0.004,-0.037,1.818,-1.187,3.11
2024-10-23 22:01:49.262,19632.827,0.362,0.928,0.091,-0.0,0.009,0.009,0.021,-0.0,-0.036,1.817,-1.188,3.11
2024-10-23 22:01:49.272,19632.837,0.362,0.928,0.091,-0.001,0.007,0.006,0.044,-0.002,-0.04,1.817,-1.188,3.109
2024-10-23 22:01:49.282,19632.847,0.362,0.928,0.09,-0.002,0.004,0.004,0.067,0.0,-0.04,1.816,-1.189,3.108
2024-10-23 22:01:49.292,19632.857,0.361,0.928,0.09,-0.003,0.006,0.002,0.075,-0.005,-0.038,1.814,-1.189,3.107
2024-10-23 22:01:49.302,19632.867,0.361,0.928,0.089,-0.005,0.004,0.003,0.079,0.001,-0.031,1.813,-1.19,3.105
2024-10-23 22:01:49.311,19632.877,0.361,0.929,0.088,-0.005,-0.001,0.002,0.081,-0.002,-0.027,1.811,-1.19,3.103
2024-10-23 22:01:49.321,19632.887,0.36,0.929,0.088,-0.005,-0.002,-0.001,0.075,-0.005,-0.025,1.809,-1.191,3.101
2024-10-23 22:01:49.331,19632.897,0.36,0.929,0.087,-0.005,-0.004,-0.008,0.07,-0.003,-0.029,1.808,-1.191,3.099
2024-10-23 22:01:49.341,19632.907,0.36,0.929,0.086,-0.007,-0.002,-0.006,0.087,-0.0,-0.027,1.806,-1.192,3.098
2024-10-23 22:01:49.352,19632.917,0.36,0.929,0.085,-0.008,0.003,-0.001,0.081,-0.005,-0.018,1.804,-1.192,3.096
2024-10-23 22:01:49.361,19632.927,0.359,0.929,0.085,-0.006,0.001,-0.001,0.061,-0.013,-0.019,1.803,-1.192,3.094
2024-10-23 22:01:49.371,19632.937,0.359,0.929,0.084,-0.005,0.001,-0.001,0.057,-0.013,-0.018,1.801,-1.193,3.093
2024-10-23 22:01:49.381,19632.947,0.359,0.93,0.084,-0.007,0.001,0.002,0.049,-0.014,-0.019,1.8,-1.193,3.091
2024-10-23 22:01:49.391,19632.957,0.359,0.93,0.083,-0.006,0.006,-0.002,0.049,-0.01,-0.014,1.799,-1.193,3.09
2024-10-23 22:01:49.401,19632.967,0.359,0.93,0.083,-0.007,0.008,-0.0,0.053,-0.015,-0.016,1.797,-1.194,3.089
2024-10-23 22:01:49.411,19632.977,0.359,0.93,0.082,-0.006,0.002,-0.0,0.065,-0.011,-0.012,1.796,-1.194,3.088
2024-10-23 22:01:49.421,19632.987,0.359,0.93,0.081,-0.004,0.001,-0.005,0.079,-0.0,-0.014,1.794,-1.194,3.086
2024-10-23 22:01:49.431,19632.997,0.358,0.93,0.081,-0.003,0.002,-0.003,0.076,-0.002,-0.017,1.792,-1.195,3.084
2024-10-23 22:01:49.441,19633.007,0.358,0.93,0.08,-0.005,0.002,-0.002,0.073,0.001,-0.014,1.791,-1.195,3.082
2024-10-23 22:01:49.451,19633.017,0.358,0.93,0.079,-0.005,0.002,0.001,0.067,-0.001,-0.015,1.789,-1.195,3.08
2024-10-23 22:01:49.461,19633.027,0.358,0.93,0.079,-0.003,-0.001,-0.001,0.073,-0.016,-0.009,1.787,-1.195,3.079
2024-10-23 22:01:49.472,19633.037,0.358,0.93,0.078,-0.003,-0.004,-0.002,0.1,-0.03,-0.001,1.785,-1.196,3.076
2024-10-23 22:01:49.481,19633.047,0.358,0.931,0.077,-0.003,-0.005,0.0,0.153,-0.042,0.014,1.782,-1.196,3.073
2024-10-23 22:01:49.491,19633.057,0.358,0.931,0.075,0.001,0.004,0.004,0.201,-0.042,0.014,1.777,-1.196,3.068
2024-10-23 22:01:49.501,19633.067,0.358,0.931,0.073,-0.001,0.021,0.011,0.243,-0.03,0.021,1.771,-1.196,3.062
2024-10-23 22:01:49.511,19633.077,0.359,0.931,0.07,-0.006,0.033,0.02,0.247,-0.026,0.025,1.764,-1.197,3.056
2024-10-23 22:01:49.521,19633.087,0.359,0.931,0.068,-0.007,0.028,0.022,0.223,-0.028,0.023,1.758,-1.197,3.049
2024-10-23 22:01:49.531,19633.097,0.359,0.931,0.066,-0.009,0.02,0.012,0.178,-0.023,0.03,1.753,-1.197,3.044
2024-10-23 22:01:49.541,19633.107,0.359,0.931,0.065,-0.011,0.011,0.003,0.125,-0.02,0.034,1.749,-1.197,3.04
2024-10-23 22:01:49.551,19633.117,0.36,0.931,0.064,-0.012,-0.002,-0.001,0.09,-0.013,0.035,1.746,-1.197,3.037
2024-10-23 22:01:49.562,19633.127,0.36,0.931,0.063,-0.014,-0.003,-0.003,0.066,-0.014,0.035,1.744,-1.197,3.034
2024-10-23 22:01:49.571,19633.137,0.36,0.931,0.062,-0.017,0.002,-0.009,0.041,-0.012,0.034,1.742,-1.196,3.033
2024-10-23 22:01:49.581,19633.147,0.361,0.931,0.062,-0.014,0.001,-0.01,0.015,-0.006,0.03,1.742,-1.196,3.032
2024-10-23 22:01:49.591,19633.157,0.361,0.931,0.062,-0.01,-0.0,-0.002,-0.006,-0.001,0.021,1.742,-1.196,3.032
2024-10-23 22:01:49.601,19633.167,0.361,0.931,0.062,-0.007,-0.005,0.002,-0.006,-0.003,0.019,1.742,-1.196,3.033
2024-10-23 22:01:49.611,19633.177,0.361,0.93,0.062,-0.008,-0.012,0.001,0.012,-0.001,0.018,1.742,-1.196,3.033
2024-10-23 22:01:49.621,19633.187,0.361,0.93,0.062,-0.007,-0.02,-0.005,0.019,-0.001,0.013,1.741,-1.196,3.032
2024-10-23 22:01:49.631,19633.197,0.361,0.93,0.062,-0.005,-0.019,-0.007,0.033,0.0,0.012,1.741,-1.196,3.031
2024-10-23 22:01:49.641,19633.207,0.361,0.93,0.062,-0.004,-0.012,-0.001,0.035,0.007,0.01,1.74,-1.196,3.03
2024-10-23 22:01:49.651,19633.217,0.361,0.93,0.061,-0.004,-0.014,0.003,0.018,-0.002,0.003,1.739,-1.196,3.029
2024-10-23 22:01:49.661,19633.227,0.361,0.93,0.061,-0.002,-0.013,0.004,0.017,0.002,-0.002,1.739,-1.196,3.029
2024-10-23 22:01:49.671,19633.236,0.361,0.93,0.061,-0.001,-0.011,0.006,0.018,-0.004,-0.004,1.738,-1.196,3.028
2024-10-23 22:01:49.681,19633.246,0.361,0.931,0.061,-0.002,-0.013,-0.0,0.005,-0.001,-0.012,1.738,-1.196,3.028
2024-10-23 22:01:49.691,19633.256,0.361,0.931,0.061,-0.002,-0.013,-0.006,-0.011,0.002,-0.018,1.738,-1.196,3.028
2024-10-23 22:01:49.701,19633.266,0.361,0.931,0.061,-0.003,-0.009,-0.005,-0.019,0.012,-0.017,1.739,-1.196,3.029
2024-10-23 22:01:49.711,19633.276,0.361,0.931,0.061,-0.006,-0.013,-0.009,-0.029,0.013,-0.017,1.739,-1.196,3.03
2024-10-23 22:01:49.721,19633.286,0.361,0.931,0.062,-0.007,-0.015,-0.011,-0.036,0.0,-0.019,1.74,-1.196,3.031
2024-10-23 22:01:49.731,19633.296,0.36,0.931,0.062,-0.002,-0.009,-0.012,-0.025,-0.003,-0.015,1.741,-1.196,3.031
2024-10-23 22:01:49.741,19633.306,0.36,0.931,0.062,0.001,0.001,-0.009,0.002,0.004,-0.013,1.742,-1.197,3.032
2024-10-23 22:01:49.751,19633.316,0.36,0.931,0.062,-0.002,0.007,-0.004,0.02,0.008,-0.005,1.741,-1.197,3.032
2024-10-23 22:01:49.761,19633.326,0.36,0.931,0.062,-0.007,0.013,-0.002,0.022,0.003,-0.002,1.741,-1.197,3.031
2024-10-23 22:01:49.771,19633.336,0.36,0.931,0.062,-0.007,0.015,-0.002,0.035,-0.005,0.01,1.74,-1.197,3.03
2024-10-23 22:01:49.780,19633.346,0.36,0.931,0.061,-0.006,0.01,-0.001,0.033,-0.004,0.014,1.739,-1.197,3.029
2024-10-23 22:01:49.791,19633.356,0.36,0.931,0.061,-0.005,0.007,0.002,0.028,0.001,0.009,1.738,-1.197,3.028
2024-10-23 22:01:49.801,19633.366,0.361,0.931,0.061,-0.007,0.018,0.005,0.017,0.003,0.01,1.737,-1.197,3.027
2024-10-23 22:01:49.811,19633.376,0.361,0.931,0.061,-0.008,0.016,0.007,-0.002,-0.001,0.012,1.737,-1.196,3.027
2024-10-23 22:01:49.821,19633.386,0.361,0.931,0.061,-0.007,0.004,0.005,-0.022,-0.003,0.011,1.737,-1.196,3.027
2024-10-23 22:01:49.831,19633.396,0.361,0.931,0.061,-0.005,-0.005,0.004,-0.019,0.002,0.015,1.738,-1.196,3.028
2024-10-23 22:01:49.841,19633.406,0.361,0.931,0.061,-0.003,-0.005,0.003,-0.0,0.003,0.015,1.738,-1.196,3.028
2024-10-23 22:01:49.851,19633.416,0.361,0.931,0.061,-0.005,-0.002,-0.003,0.005,0.001,0.019,1.738,-1.196,3.028
2024-10-23 22:01:49.861,19633.426,0.361,0.93,0.061,-0.006,-0.003,-0.008,0.02,-0.001,0.017,1.738,-1.196,3.028
2024-10-23 22:01:49.871,19633.436,0.361,0.93,0.061,-0.002,-0.0,-0.002,0.022,0.0,0.021,1.737,-1.196,3.027
2024-10-23 22:01:49.881,19633.446,0.362,0.93,0.06,-0.002,0.001,0.005,0.021,-0.003,0.016,1.736,-1.196,3.026
2024-10-23 22:01:49.891,19633.456,0.362,0.93,0.06,-0.005,0.001,0.003,0.02,-0.008,0.017,1.736,-1.195,3.026
2024-10-23 22:01:49.901,19633.466,0.362,0.93,0.06,-0.004,-0.003,0.001,0.009,-0.011,0.008,1.735,-1.195,3.025
2024-10-23 22:01:49.911,19633.476,0.362,0.93,0.06,-0.001,-0.007,-0.001,0.006,0.001,0.005,1.735,-1.195,3.025
2024-10-23 22:01:49.921,19633.486,0.362,0.93,0.06,-0.001,-0.01,-0.002,0.0,0.001,0.004,1.735,-1.195,3.025
2024-10-23 22:01:49.931,19633.496,0.362,0.93,0.06,-0.003,-0.015,-0.004,-0.01,0.002,-0.003,1.735,-1.195,3.025
2024-10-23 22:01:49.941,19633.506,0.362,0.93,0.06,-0.004,-0.017,-0.004,-0.003,0.004,-0.007,1.735,-1.195,3.025
2024-10-23 22:01:49.950,19633.516,0.362,0.93,0.06,-0.003,-0.021,-0.004,-0.014,0.005,-0.013,1.736,-1.195,3.025
2024-10-23 22:01:49.961,19633.526,0.361,0.93,0.06,-0.004,-0.019,-0.005,-0.017,0.01,-0.017,1.736,-1.196,3.026
2024-10-23 22:01:49.971,19633.536,0.361,0.93,0.061,-0.006,-0.008,-0.003,-0.03,0.003,-0.02,1.737,-1.196,3.027
2024-10-23 22:01:49.980,19633.546,0.361,0.931,0.061,-0.008,-0.01,-0.002,-0.031,0.005,-0.028,1.738,-1.196,3.028
2024-10-23 22:01:49.991,19633.556,0.361,0.931,0.061,-0.005,-0.011,-0.002,-0.024,0.007,-0.029,1.739,-1.196,3.029
2024-10-23 22:01:50.000,19633.566,0.36,0.931,0.061,-0.005,-0.008,-0.004,-0.019,0.013,-0.034,1.74,-1.196,3.029
2024-10-23 22:01:50.010,19633.576,0.36,0.931,0.062,-0.006,-0.007,-0.008,-0.03,0.013,-0.034,1.74,-1.197,3.03
2024-10-23 22:01:50.020,19633.586,0.36,0.931,0.062,-0.005,-0.01,-0.009,-0.037,0.008,-0.036,1.741,-1.197,3.031
2024-10-23 22:01:50.030,19633.596,0.36,0.931,0.062,-0.005,-0.012,-0.006,-0.035,0.01,-0.038,1.743,-1.197,3.032
2024-10-23 22:01:50.040,19633.606,0.359,0.931,0.063,-0.005,-0.009,-0.003,-0.021,0.013,-0.028,1.743,-1.198,3.033
2024-10-23 22:01:50.050,19633.616,0.359,0.931,0.063,-0.005,-0.005,-0.002,-0.032,0.012,-0.036,1.744,-1.198,3.034
2024-10-23 22:01:50.060,19633.626,0.359,0.931,0.063,-0.004,-0.001,-0.005,-0.03,0.01,-0.034,1.745,-1.198,3.035
2024-10-23 22:01:50.070,19633.636,0.358,0.931,0.064,-0.004,0.003,-0.005,-0.024,0.014,-0.034,1.746,-1.198,3.036
2024-10-23 22:01:50.080,19633.646,0.358,0.932,0.064,-0.004,0.0,-0.006,-0.025,0.021,-0.034,1.747,-1.199,3.036
2024-10-23 22:01:50.090,19633.656,0.358,0.932,0.064,-0.003,0.001,-0.008,-0.034,0.014,-0.031,1.748,-1.199,3.037
2024-10-23 22:01:50.100,19633.666,0.357,0.932,0.064,-0.002,0.006,-0.005,-0.041,0.016,-0.025,1.749,-1.199,3.038
2024-10-23 22:01:50.112,19633.676,0.357,0.932,0.065,-0.002,0.006,-0.0,-0.031,0.018,-0.018,1.75,-1.199,3.04
2024-10-23 22:01:50.120,19633.686,0.357,0.932,0.065,-0.001,0.002,-0.001,-0.032,0.007,-0.02,1.751,-1.199,3.04
2024-10-23 22:01:50.130,19633.696,0.357,0.932,0.065,0.002,0.004,-0.003,-0.025,0.007,-0.01,1.752,-1.2,3.041
2024-10-23 22:01:50.140,19633.706,0.357,0.932,0.066,0.002,0.009,0.0,-0.02,0.003,-0.008,1.753,-1.2,3.042
2024-10-23 22:01:50.150,19633.716,0.357,0.932,0.066,-0.001,0.009,0.001,-0.012,0.0,-0.006,1.753,-1.2,3.042
2024-10-23 22:01:50.160,19633.726,0.357,0.932,0.066,-0.001,0.01,0.002,-0.007,0.005,-0.003,1.753,-1.2,3.043
2024-10-23 22:01:50.170,19633.736,0.357,0.932,0.066,-0.004,0.013,0.004,-0.0,0.005,0.001,1.754,-1.2,3.043
2024-10-23 22:01:50.180,19633.746,0.357,0.932,0.066,-0.006,0.012,0.003,-0.006,-0.001,0.002,1.754,-1.2,3.043
2024-10-23 22:01:50.190,19633.756,0.357,0.932,0.066,-0.008,0.005,-0.001,-0.008,-0.002,0.001,1.754,-1.2,3.043
2024-10-23 22:01:50.200,19633.766,0.357,0.932,0.066,-0.005,-0.0,-0.005,-0.006,0.003,-0.002,1.754,-1.2,3.043
2024-10-23 22:01:50.210,19633.776,0.357,0.932,0.066,-0.007,-0.002,-0.007,0.006,0.005,-0.003,1.754,-1.2,3.043
2024-10-23 22:01:50.220,19633.786,0.357,0.932,0.066,-0.01,-0.001,-0.007,-0.01,0.014,0.0,1.754,-1.2,3.043
2024-10-23 22:01:50.230,19633.796,0.356,0.932,0.066,-0.009,-0.0,-0.006,-0.023,0.011,-0.001,1.755,-1.2,3.043
2024-10-23 22:01:50.240,19633.806,0.356,0.932,0.067,-0.007,-0.002,-0.003,-0.025,0.007,-0.002,1.755,-1.2,3.044
2024-10-23 22:01:50.250,19633.816,0.356,0.932,0.067,-0.006,-0.006,0.001,-0.023,0.006,-0.006,1.756,-1.2,3.045
2024-10-23 22:01:50.260,19633.825,0.356,0.932,0.067,-0.005,-0.007,0.0,-0.014,0.004,-0.008,1.757,-1.2,3.045
2024-10-23 22:01:50.270,19633.835,0.356,0.932,0.067,-0.005,-0.006,-0.0,-0.011,0.004,-0.009,1.757,-1.2,3.046
2024-10-23 22:01:50.280,19633.845,0.356,0.932,0.067,-0.006,-0.004,0.002,-0.01,0.002,-0.012,1.757,-1.2,3.046
2024-10-23 22:01:50.290,19633.855,0.356,0.932,0.067,-0.006,-0.003,0.002,-0.017,0.002,-0.014,1.758,-1.2,3.046
2024-10-23 22:01:50.300,19633.865,0.356,0.932,0.067,-0.005,-0.006,0.002,-0.01,0.009,-0.016,1.758,-1.2,3.047
2024-10-23 22:01:50.310,19633.875,0.356,0.932,0.067,-0.005,-0.007,0.001,-0.007,0.013,-0.014,1.758,-1.2,3.047
2024-10-23 22:01:50.320,19633.885,0.355,0.932,0.068,-0.005,-0.004,-0.002,-0.021,0.002,-0.016,1.759,-1.201,3.047
2024-10-23 22:01:50.330,19633.895,0.355,0.932,0.068,-0.003,-0.005,-0.002,-0.022,0.007,-0.021,1.76,-1.201,3.048
2024-10-23 22:01:50.340,19633.905,0.355,0.932,0.068,-0.004,-0.007,0.001,-0.015,0.007,-0.019,1.76,-1.201,3.049
2024-10-23 22:01:50.350,19633.915,0.355,0.932,0.068,-0.003,-0.003,-0.002,-0.013,0.01,-0.02,1.761,-1.201,3.049
2024-10-23 22:01:50.360,19633.925,0.355,0.932,0.068,-0.003,-0.0,-0.003,-0.02,0.005,-0.017,1.761,-1.201,3.05
2024-10-23 22:01:50.370,19633.935,0.355,0.932,0.069,-0.003,0.001,-0.004,-0.02,0.007,-0.013,1.762,-1.201,3.05
2024-10-23 22:01:50.379,19633.945,0.355,0.933,0.069,-0.003,-0.001,-0.002,-0.023,0.002,-0.01,1.763,-1.201,3.051
2024-10-23 22:01:50.389,19633.955,0.354,0.933,0.069,-0.003,-0.003,-0.001,-0.015,0.0,-0.008,1.763,-1.201,3.052
2024-10-23 22:01:50.400,19633.965,0.354,0.933,0.069,-0.003,0.002,0.0,-0.032,0.004,-0.007,1.764,-1.201,3.052
2024-10-23 22:01:50.410,19633.975,0.354,0.933,0.07,-0.005,0.004,0.0,-0.038,-0.002,-0.012,1.765,-1.201,3.053
2024-10-23 22:01:50.419,19633.985,0.354,0.933,0.07,-0.006,0.001,0.0,-0.042,0.002,-0.01,1.766,-1.201,3.054
2024-10-23 22:01:50.430,19633.995,0.354,0.933,0.07,-0.004,-0.002,-0.004,-0.038,0.005,-0.009,1.767,-1.201,3.056
2024-10-23 22:01:50.440,19634.005,0.354,0.933,0.071,-0.006,0.003,-0.003,-0.034,0.007,-0.005,1.768,-1.201,3.057
2024-10-23 22:01:50.449,19634.015,0.354,0.933,0.071,-0.006,0.004,-0.007,-0.038,0.009,-0.004,1.769,-1.201,3.058
2024-10-23 22:01:50.460,19634.025,0.354,0.933,0.071,-0.002,0.001,-0.008,-0.034,0.009,-0.0,1.77,-1.201,3.059
2024-10-23 22:01:50.469,19634.035,0.354,0.933,0.072,-0.004,-0.0,-0.007,-0.033,0.012,-0.003,1.771,-1.201,3.059
2024-10-23 22:01:50.479,19634.045,0.354,0.933,0.072,-0.004,0.001,-0.009,-0.032,0.012,-0.009,1.772,-1.201,3.06
2024-10-23 22:01:50.489,19634.055,0.354,0.933,0.072,-0.004,0.002,-0.007,-0.033,0.01,-0.009,1.773,-1.201,3.061
2024-10-23 22:01:50.500,19634.065,0.354,0.933,0.073,-0.005,-0.001,-0.004,-0.034,0.01,-0.003,1.774,-1.201,3.062
2024-10-23 22:01:50.509,19634.075,0.354,0.933,0.073,-0.006,-0.004,-0.005,-0.046,0.01,-0.008,1.775,-1.201,3.063
2024-10-23 22:01:50.519,19634.085,0.353,0.933,0.074,-0.005,-0.003,-0.005,-0.055,0.009,-0.008,1.776,-1.201,3.065
2024-10-23 22:01:50.529,19634.095,0.353,0.933,0.074,-0.004,-0.003,-0.003,-0.061,0.002,-0.007,1.778,-1.201,3.066
2024-10-23 22:01:50.539,19634.105,0.353,0.933,0.075,-0.005,-0.006,-0.003,-0.066,0.008,-0.007,1.779,-1.201,3.068
2024-10-23 22:01:50.549,19634.115,0.353,0.932,0.075,-0.003,-0.008,-0.003,-0.058,0.009,-0.007,1.781,-1.201,3.069
2024-10-23 22:01:50.559,19634.125,0.353,0.932,0.076,-0.004,-0.007,-0.003,-0.054,0.009,-0.004,1.782,-1.201,3.071
2024-10-23 22:01:50.569,19634.135,0.353,0.932,0.076,-0.004,-0.003,-0.005,-0.051,0.006,-0.007,1.784,-1.201,3.072
2024-10-23 22:01:50.579,19634.145,0.353,0.932,0.077,-0.003,-0.002,-0.004,-0.046,0.004,-0.011,1.785,-1.201,3.074
2024-10-23 22:01:50.589,19634.155,0.353,0.932,0.077,-0.003,-0.003,-0.002,-0.043,0.007,-0.011,1.786,-1.201,3.075
2024-10-23 22:01:50.599,19634.165,0.353,0.932,0.078,-0.002,0.001,-0.001,-0.042,0.007,-0.009,1.787,-1.201,3.076
2024-10-23 22:01:50.609,19634.175,0.353,0.932,0.078,-0.002,-0.001,-0.002,-0.043,0.006,-0.008,1.788,-1.201,3.077
2024-10-23 22:01:50.620,19634.185,0.353,0.932,0.078,-0.002,-0.007,-0.002,-0.04,0.007,-0.006,1.79,-1.201,3.078
2024-10-23 22:01:50.630,19634.195,0.353,0.932,0.079,-0.003,-0.002,-0.001,-0.036,0.005,-0.005,1.791,-1.201,3.079
2024-10-23 22:01:50.638,19634.205,0.352,0.932,0.079,-0.005,0.001,-0.001,-0.038,0.005,-0.008,1.792,-1.201,3.08
2024-10-23 22:01:50.648,19634.215,0.352,0.932,0.079,-0.005,0.001,-0.001,-0.039,0.003,-0.005,1.793,-1.201,3.081
2024-10-23 22:01:50.659,19634.225,0.352,0.932,0.08,-0.004,-0.001,0.001,-0.042,-0.004,-0.008,1.794,-1.201,3.082
2024-10-23 22:01:50.669,19634.235,0.352,0.932,0.08,-0.005,-0.002,0.002,-0.032,-0.007,-0.001,1.794,-1.201,3.083
2024-10-23 22:01:50.679,19634.245,0.352,0.932,0.08,-0.006,-0.002,0.001,-0.026,-0.009,0.001,1.795,-1.201,3.084
2024-10-23 22:01:50.689,19634.255,0.352,0.932,0.08,-0.005,-0.005,0.001,-0.011,-0.007,-0.002,1.795,-1.201,3.085
2024-10-23 22:01:50.699,19634.265,0.352,0.932,0.081,-0.003,0.001,0.004,-0.014,-0.004,0.001,1.796,-1.201,3.085
2024-10-23 22:01:50.709,19634.275,0.352,0.932,0.081,-0.005,0.009,0.003,-0.017,-0.011,0.004,1.796,-1.201,3.085
2024-10-23 22:01:50.719,19634.285,0.352,0.932,0.081,-0.006,0.004,0.002,-0.017,-0.009,0.004,1.796,-1.201,3.086
2024-10-23 22:01:50.729,19634.295,0.352,0.932,0.081,-0.003,-0.005,0.001,-0.013,-0.009,0.012,1.796,-1.201,3.086
2024-10-23 22:01:50.739,19634.305,0.353,0.932,0.081,-0.002,-0.008,-0.003,-0.009,-0.01,0.012,1.797,-1.201,3.086
2024-10-23 22:01:50.749,19634.315,0.353,0.932,0.081,-0.004,-0.004,-0.003,-0.006,-0.007,0.0,1.797,-1.201,3.087
2024-10-23 22:01:50.759,19634.325,0.353,0.932,0.081,-0.004,0.003,-0.001,-0.009,-0.003,-0.007,1.797,-1.201,3.087
2024-10-23 22:01:50.769,19634.335,0.353,0.932,0.081,-0.005,0.008,0.001,-0.016,-0.003,-0.008,1.797,-1.201,3.087
2024-10-23 22:01:50.779,19634.345,0.352,0.932,0.081,-0.005,0.0,0.001,-0.02,-0.004,-0.01,1.798,-1.201,3.088
2024-10-23 22:01:50.789,19634.355,0.352,0.932,0.082,-0.001,-0.002,0.0,-0.017,0.0,-0.006,1.798,-1.201,3.088
2024-10-23 22:01:50.799,19634.365,0.352,0.932,0.082,-0.0,-0.003,-0.004,-0.017,-0.003,-0.004,1.799,-1.201,3.089
2024-10-23 22:01:50.809,19634.375,0.352,0.932,0.082,-0.002,-0.002,-0.007,-0.012,0.003,-0.006,1.799,-1.201,3.089
2024-10-23 22:01:50.819,19634.385,0.352,0.932,0.082,-0.004,0.004,-0.006,-0.005,0.003,-0.01,1.799,-1.201,3.089
2024-10-23 22:01:50.829,19634.395,0.352,0.932,0.082,-0.006,0.005,-0.007,-0.012,0.004,-0.01,1.8,-1.201,3.09
2024-10-23 22:01:50.839,19634.405,0.352,0.932,0.082,-0.006,0.002,-0.006,-0.017,0.009,-0.006,1.8,-1.201,3.09
2024-10-23 22:01:50.849,19634.415,0.352,0.932,0.082,-0.007,0.002,-0.001,-0.03,0.002,-0.005,1.801,-1.201,3.091
2024-10-23 22:01:50.859,19634.424,0.352,0.932,0.083,-0.007,-0.004,-0.0,-0.034,-0.001,0.0,1.802,-1.201,3.092
2024-10-23 22:01:50.869,19634.434,0.352,0.932,0.083,-0.007,-0.008,-0.0,-0.033,-0.005,0.003,1.802,-1.201,3.093
2024-10-23 22:01:50.879,19634.444,0.352,0.932,0.083,-0.006,-0.007,0.002,-0.024,-0.004,0.001,1.803,-1.201,3.093
2024-10-23 22:01:50.889,19634.454,0.352,0.932,0.083,-0.006,-0.004,0.003,-0.013,0.0,0.001,1.803,-1.201,3.094
2024-10-23 22:01:50.899,19634.464,0.352,0.932,0.083,-0.008,0.002,0.002,-0.011,-0.002,-0.002,1.804,-1.201,3.094
2024-10-23 22:01:50.909,19634.474,0.352,0.932,0.084,-0.006,0.002,0.001,-0.008,0.001,-0.003,1.804,-1.201,3.094
2024-10-23 22:01:50.919,19634.484,0.352,0.932,0.084,-0.004,0.003,0.002,-0.011,0.005,-0.001,1.804,-1.201,3.095
2024-10-23 22:01:50.929,19634.494,0.352,0.932,0.084,-0.001,0.001,0.001,-0.01,-0.004,-0.002,1.804,-1.201,3.095
2024-10-23 22:01:50.939,19634.504,0.352,0.932,0.084,-0.002,-0.0,-0.002,-0.009,-0.005,0.007,1.805,-1.201,3.095
2024-10-23 22:01:50.949,19634.514,0.352,0.932,0.084,-0.002,0.003,-0.002,-0.01,-0.009,0.009,1.805,-1.201,3.095
2024-10-23 22:01:50.959,19634.524,0.352,0.932,0.084,-0.0,0.003,-0.001,-0.013,-0.013,0.015,1.805,-1.2,3.096
2024-10-23 22:01:50.969,19634.534,0.352,0.932,0.084,0.001,0.002,0.002,-0.016,-0.011,0.017,1.805,-1.2,3.096
2024-10-23 22:01:50.979,19634.544,0.352,0.932,0.084,0.0,0.003,0.002,-0.015,-0.012,0.018,1.805,-1.2,3.096
2024-10-23 22:01:50.989,19634.554,0.353,0.932,0.084,-0.003,0.003,0.002,-0.009,-0.013,0.02,1.805,-1.2,3.096
2024-10-23 22:01:50.999,19634.564,0.353,0.932,0.084,-0.003,-0.0,0.001,-0.002,-0.015,0.017,1.805,-1.2,3.097
2024-10-23 22:01:51.009,19634.574,0.353,0.932,0.084,-0.005,-0.001,-0.001,-0.001,0.001,0.011,1.805,-1.2,3.096
2024-10-23 22:01:51.019,19634.584,0.353,0.932,0.084,-0.006,-0.0,0.0,-0.013,0.004,0.006,1.805,-1.199,3.097
2024-10-23 22:01:51.028,19634.594,0.353,0.932,0.085,-0.009,0.001,-0.0,-0.038,0.012,-0.0,1.806,-1.199,3.097
2024-10-23 22:01:51.038,19634.604,0.353,0.932,0.085,-0.01,-0.003,-0.003,-0.064,0.022,-0.01,1.807,-1.199,3.099
2024-10-23 22:01:51.048,19634.614,0.353,0.932,0.086,-0.014,-0.006,-0.013,-0.086,0.028,-0.012,1.81,-1.199,3.101
2024-10-23 22:01:51.058,19634.624,0.353,0.932,0.087,-0.011,-0.012,-0.022,-0.114,0.026,-0.013,1.812,-1.199,3.103
2024-10-23 22:01:51.068,19634.634,0.352,0.932,0.088,-0.008,-0.02,-0.021,-0.112,0.028,-0.016,1.816,-1.199,3.107
2024-10-23 22:01:51.078,19634.644,0.352,0.932,0.089,-0.005,-0.017,-0.015,-0.113,0.035,-0.021,1.819,-1.199,3.11
2024-10-23 22:01:51.088,19634.654,0.352,0.932,0.09,-0.002,-0.012,-0.011,-0.115,0.046,-0.02,1.822,-1.199,3.113
2024-10-23 22:01:51.098,19634.664,0.352,0.932,0.092,0.001,-0.009,-0.003,-0.108,0.063,-0.023,1.826,-1.199,3.116
2024-10-23 22:01:51.109,19634.674,0.351,0.932,0.093,-0.002,-0.005,0.004,-0.102,0.051,-0.023,1.829,-1.199,3.119
2024-10-23 22:01:51.118,19634.684,0.351,0.932,0.094,-0.004,-0.004,-0.007,-0.134,0.056,-0.026,1.832,-1.199,3.122
2024-10-23 22:01:51.128,19634.694,0.351,0.932,0.095,0.003,-0.011,-0.007,-0.149,0.064,-0.023,1.836,-1.199,3.126
2024-10-23 22:01:51.139,19634.704,0.351,0.932,0.097,0.002,-0.007,0.002,-0.148,0.055,-0.023,1.841,-1.199,3.13
2024-10-23 22:01:51.149,19634.714,0.35,0.931,0.099,-0.009,-0.005,-0.003,-0.184,0.018,-0.007,1.845,-1.198,3.134
2024-10-23 22:01:51.158,19634.724,0.35,0.931,0.1,-0.003,-0.006,-0.009,-0.204,0.011,-0.043,1.85,-1.198,3.139
2024-10-23 22:01:51.168,19634.734,0.35,0.931,0.102,0.016,-0.001,0.004,-0.136,0.046,-0.036,1.855,-1.198,-3.139
2024-10-23 22:01:51.178,19634.744,0.349,0.931,0.103,0.011,0.008,0.027,-0.049,0.053,-0.027,1.858,-1.198,-3.137
2024-10-23 22:01:51.188,19634.754,0.349,0.931,0.103,-0.012,0.009,0.009,-0.012,0.02,-0.021,1.859,-1.198,-3.136
2024-10-23 22:01:51.198,19634.764,0.349,0.931,0.103,-0.011,-0.009,-0.011,0.018,0.01,-0.029,1.859,-1.198,-3.136
2024-10-23 22:01:51.208,19634.774,0.349,0.932,0.103,0.006,-0.006,0.002,0.025,0.008,-0.026,1.859,-1.199,-3.136
2024-10-23 22:01:51.218,19634.784,0.349,0.932,0.103,0.003,0.005,0.018,0.012,-0.018,-0.021,1.858,-1.199,-3.137
2024-10-23 22:01:51.228,19634.794,0.348,0.932,0.103,-0.003,-0.003,0.024,0.017,-0.037,-0.014,1.858,-1.199,-3.137
2024-10-23 22:01:51.238,19634.804,0.348,0.932,0.102,0.008,-0.008,0.027,0.049,-0.041,-0.008,1.857,-1.199,-3.138
2024-10-23 22:01:51.248,19634.814,0.348,0.932,0.102,0.013,0.001,0.025,0.097,-0.044,0.002,1.854,-1.199,-3.139
2024-10-23 22:01:51.258,19634.824,0.349,0.932,0.1,0.005,0.015,0.013,0.11,-0.05,0.012,1.851,-1.2,3.141
2024-10-23 22:01:51.269,19634.834,0.349,0.932,0.099,-0.002,0.026,0.002,0.14,-0.058,0.018,1.848,-1.2,3.138
2024-10-23 22:01:51.278,19634.844,0.349,0.932,0.098,0.0,0.031,0.002,0.137,-0.053,0.033,1.843,-1.2,3.134
2024-10-23 22:01:51.288,19634.854,0.349,0.932,0.096,-0.002,0.029,-0.001,0.109,-0.041,0.03,1.84,-1.2,3.13
2024-10-23 22:01:51.298,19634.864,0.35,0.932,0.095,-0.007,0.036,0.002,0.111,-0.03,0.035,1.837,-1.2,3.127
2024-10-23 22:01:51.308,19634.874,0.35,0.932,0.094,-0.015,0.026,0.008,0.119,-0.052,0.052,1.833,-1.2,3.124
2024-10-23 22:01:51.318,19634.884,0.351,0.932,0.093,-0.024,0.004,-0.009,0.098,-0.058,0.031,1.83,-1.2,3.121
2024-10-23 22:01:51.328,19634.894,0.351,0.932,0.092,-0.014,-0.004,-0.019,0.091,-0.039,0.017,1.827,-1.2,3.119
2024-10-23 22:01:51.338,19634.904,0.351,0.932,0.091,-0.005,0.001,0.002,0.092,-0.016,0.016,1.825,-1.2,3.116
2024-10-23 22:01:51.348,19634.914,0.351,0.932,0.09,-0.016,-0.009,0.009,0.08,-0.012,0.012,1.822,-1.2,3.114
2024-10-23 22:01:51.358,19634.924,0.351,0.932,0.09,-0.017,-0.029,0.001,0.06,-0.018,0.005,1.821,-1.2,3.112
2024-10-23 22:01:51.368,19634.934,0.351,0.932,0.089,-0.007,-0.034,-0.005,0.045,-0.004,-0.003,1.819,-1.2,3.111
2024-10-23 22:01:51.378,19634.944,0.351,0.932,0.089,-0.002,-0.025,-0.004,0.029,-0.005,-0.005,1.818,-1.2,3.11
2024-10-23 22:01:51.388,19634.954,0.351,0.932,0.089,-0.003,-0.018,-0.006,0.008,-0.007,-0.007,1.818,-1.2,3.109
2024-10-23 22:01:51.398,19634.964,0.351,0.932,0.088,-0.001,-0.015,-0.006,0.011,-0.005,-0.004,1.818,-1.201,3.109
2024-10-23 22:01:51.408,19634.974,0.351,0.932,0.088,0.002,-0.008,-0.006,0.021,-0.008,-0.001,1.817,-1.201,3.109
2024-10-23 22:01:51.417,19634.984,0.351,0.932,0.088,0.001,-0.001,-0.007,0.048,-0.013,0.003,1.816,-1.201,3.108
2024-10-23 22:01:51.427,19634.994,0.351,0.932,0.087,0.002,0.007,-0.007,0.092,-0.032,0.002,1.814,-1.201,3.106
2024-10-23 22:01:51.438,19635.004,0.351,0.932,0.086,0.003,0.009,-0.003,0.15,-0.031,0.0,1.811,-1.201,3.103
2024-10-23 22:01:51.447,19635.013,0.351,0.933,0.084,0.005,0.013,0.002,0.189,-0.026,-0.005,1.807,-1.202,3.098
2024-10-23 22:01:51.458,19635.023,0.351,0.933,0.082,0.003,0.018,0.012,0.205,-0.01,-0.01,1.801,-1.202,3.093
2024-10-23 22:01:51.468,19635.033,0.351,0.933,0.08,-0.005,0.017,0.017,0.194,-0.019,-0.007,1.796,-1.203,3.088
2024-10-23 22:01:51.478,19635.043,0.351,0.933,0.079,-0.012,0.0,0.013,0.155,-0.031,-0.01,1.792,-1.203,3.083
2024-10-23 22:01:51.488,19635.053,0.351,0.933,0.077,-0.007,-0.028,0.004,0.123,-0.021,-0.019,1.788,-1.204,3.079
2024-10-23 22:01:51.498,19635.063,0.35,0.933,0.076,-0.001,-0.031,0.008,0.104,-0.007,-0.032,1.785,-1.204,3.077
2024-10-23 22:01:51.508,19635.073,0.35,0.934,0.075,-0.008,-0.023,0.011,0.089,0.005,-0.041,1.783,-1.205,3.074
2024-10-23 22:01:51.519,19635.083,0.35,0.934,0.075,-0.016,-0.025,0.007,0.047,-0.003,-0.049,1.782,-1.205,3.073
2024-10-23 22:01:51.528,19635.093,0.349,0.934,0.075,-0.009,-0.027,0.002,0.02,-0.015,-0.047,1.781,-1.206,3.072
2024-10-23 22:01:51.538,19635.103,0.349,0.934,0.074,-0.001,-0.027,-0.0,0.04,-0.01,-0.048,1.78,-1.206,3.072
2024-10-23 22:01:51.548,19635.113,0.348,0.934,0.074,0.001,-0.023,-0.001,0.068,-0.007,-0.049,1.779,-1.207,3.071
2024-10-23 22:01:51.558,19635.123,0.348,0.935,0.073,0.0,-0.002,-0.001,0.079,0.012,-0.039,1.778,-1.207,3.069
2024-10-23 22:01:51.568,19635.133,0.348,0.935,0.072,-0.004,0.012,-0.006,0.103,0.027,-0.033,1.776,-1.208,3.067
2024-10-23 22:01:51.577,19635.143,0.347,0.935,0.072,-0.005,0.015,-0.004,0.084,0.036,-0.031,1.774,-1.208,3.064
2024-10-23 22:01:51.588,19635.153,0.347,0.935,0.071,-0.01,0.019,-0.016,0.039,0.015,-0.022,1.773,-1.209,3.063
2024-10-23 22:01:51.597,19635.163,0.347,0.935,0.071,-0.011,0.023,-0.023,-0.025,-0.013,-0.017,1.773,-1.209,3.063
2024-10-23 22:01:51.608,19635.173,0.347,0.935,0.071,-0.001,0.008,-0.02,-0.027,-0.012,-0.011,1.774,-1.209,3.064
2024-10-23 22:01:51.617,19635.183,0.347,0.935,0.071,0.007,0.001,-0.007,-0.001,-0.003,-0.007,1.774,-1.209,3.064
2024-10-23 22:01:51.627,19635.193,0.347,0.935,0.071,0.003,0.008,0.0,0.018,-0.001,-0.004,1.774,-1.209,3.064
2024-10-23 22:01:51.638,19635.203,0.347,0.935,0.071,-0.002,0.016,0.001,0.032,-0.005,0.002,1.773,-1.209,3.063
2024-10-23 22:01:51.647,19635.213,0.347,0.935,0.071,-0.001,0.011,0.004,0.051,-0.009,0.009,1.772,-1.209,3.062
2024-10-23 22:01:51.658,19635.223,0.347,0.935,0.07,0.001,0.003,0.006,0.06,-0.009,0.007,1.77,-1.209,3.061
2024-10-23 22:01:51.668,19635.233,0.347,0.935,0.069,-0.003,0.002,0.008,0.078,-0.023,0.005,1.768,-1.209,3.059
2024-10-23 22:01:51.677,19635.243,0.347,0.935,0.069,-0.006,0.004,0.009,0.092,-0.021,0.008,1.766,-1.21,3.056
2024-10-23 22:01:51.687,19635.253,0.347,0.935,0.067,-0.004,0.001,0.009,0.107,-0.021,0.007,1.763,-1.21,3.053
2024-10-23 22:01:51.697,19635.263,0.347,0.936,0.066,-0.004,0.004,0.012,0.113,-0.011,0.009,1.76,-1.21,3.05
2024-10-23 22:01:51.708,19635.273,0.347,0.936,0.065,-0.007,0.005,0.012,0.1,0.01,-0.001,1.757,-1.21,3.047
2024-10-23 22:01:51.717,19635.283,0.347,0.936,0.065,-0.006,0.005,0.009,0.088,0.012,-0.0,1.755,-1.21,3.045
2024-10-23 22:01:51.727,19635.293,0.347,0.936,0.064,-0.012,0.001,-0.0,0.038,-0.002,0.001,1.753,-1.21,3.043
2024-10-23 22:01:51.737,19635.303,0.347,0.936,0.064,-0.013,-0.007,-0.019,-0.003,-0.009,-0.007,1.753,-1.21,3.042
2024-10-23 22:01:51.747,19635.313,0.347,0.936,0.064,0.004,-0.014,-0.018,-0.002,0.002,-0.008,1.753,-1.21,3.043
2024-10-23 22:01:51.757,19635.323,0.347,0.936,0.064,0.004,-0.011,-0.006,0.013,-0.004,-0.005,1.753,-1.211,3.043
2024-10-23 22:01:51.767,19635.333,0.347,0.936,0.064,-0.005,-0.003,-0.008,0.055,-0.016,0.011,1.752,-1.211,3.042
2024-10-23 22:01:51.777,19635.343,0.347,0.936,0.063,-0.002,-0.005,-0.009,0.105,-0.039,0.032,1.75,-1.21,3.04
2024-10-23 22:01:51.787,19635.353,0.347,0.936,0.061,0.006,-0.003,0.001,0.175,-0.046,0.03,1.746,-1.21,3.036
2024-10-23 22:01:51.797,19635.363,0.348,0.936,0.059,0.005,0.02,0.015,0.224,-0.042,0.038,1.74,-1.21,3.03
2024-10-23 22:01:51.808,19635.373,0.348,0.936,0.057,-0.002,0.039,0.019,0.243,-0.043,0.039,1.733,-1.21,3.023
2024-10-23 22:01:51.817,19635.383,0.348,0.936,0.055,-0.003,0.035,0.016,0.23,-0.042,0.04,1.726,-1.211,3.016
2024-10-23 22:01:51.827,19635.393,0.349,0.936,0.053,-0.002,0.025,0.017,0.193,-0.049,0.046,1.72,-1.21,3.01
2024-10-23 22:01:51.837,19635.403,0.349,0.936,0.051,-0.005,0.013,0.012,0.128,-0.068,0.053,1.715,-1.21,3.005
2024-10-23 22:01:51.847,19635.413,0.35,0.936,0.049,-0.006,0.001,0.003,0.137,-0.08,0.037,1.711,-1.21,3.002
2024-10-23 22:01:51.857,19635.423,0.35,0.935,0.048,0.002,-0.002,0.003,0.127,-0.032,0.057,1.707,-1.21,2.998
2024-10-23 22:01:51.867,19635.433,0.351,0.935,0.047,0.002,-0.002,0.016,0.131,-0.018,0.048,1.703,-1.209,2.994
2024-10-23 22:01:51.877,19635.443,0.351,0.935,0.045,-0.013,0.001,0.013,0.124,-0.024,0.044,1.699,-1.209,2.99
2024-10-23 22:01:51.887,19635.453,0.351,0.935,0.044,-0.022,-0.005,-0.01,0.083,-0.027,0.039,1.696,-1.209,2.988
2024-10-23 22:01:51.897,19635.463,0.352,0.935,0.044,-0.01,-0.017,-0.018,0.044,-0.019,0.031,1.695,-1.208,2.986
2024-10-23 22:01:51.908,19635.473,0.352,0.935,0.044,-0.006,-0.016,-0.013,0.008,-0.011,0.024,1.694,-1.208,2.985
2024-10-23 22:01:51.917,19635.483,0.352,0.935,0.044,-0.013,-0.02,-0.006,-0.002,-0.004,0.023,1.694,-1.208,2.985
2024-10-23 22:01:51.927,19635.493,0.352,0.935,0.044,-0.011,-0.022,-0.004,0.014,-0.002,0.018,1.694,-1.208,2.985
2024-10-23 22:01:51.937,19635.503,0.352,0.935,0.043,-0.007,-0.022,-0.009,0.034,-0.002,0.012,1.693,-1.208,2.984
2024-10-23 22:01:51.947,19635.513,0.353,0.935,0.043,-0.004,-0.019,-0.013,0.055,-0.004,0.011,1.692,-1.208,2.983
2024-10-23 22:01:51.957,19635.523,0.353,0.935,0.042,-0.002,-0.013,-0.008,0.063,-0.01,0.007,1.69,-1.208,2.982
2024-10-23 22:01:51.967,19635.533,0.353,0.935,0.042,-0.0,-0.012,-0.004,0.057,-0.008,0.003,1.689,-1.208,2.98
2024-10-23 22:01:51.977,19635.543,0.353,0.935,0.041,0.002,-0.009,0.002,0.058,-0.009,0.001,1.687,-1.208,2.978
2024-10-23 22:01:51.987,19635.553,0.353,0.935,0.041,0.002,-0.005,0.009,0.062,-0.018,-0.003,1.685,-1.208,2.976
2024-10-23 22:01:51.997,19635.563,0.353,0.935,0.04,-0.001,-0.005,0.005,0.074,-0.024,-0.002,1.683,-1.208,2.975
2024-10-23 22:01:52.007,19635.573,0.353,0.935,0.039,0.003,-0.004,0.005,0.084,-0.023,-0.001,1.681,-1.208,2.972
2024-10-23 22:01:52.017,19635.583,0.353,0.935,0.038,0.002,-0.002,0.004,0.081,-0.022,-0.002,1.679,-1.208,2.97
2024-10-23 22:01:52.027,19635.593,0.353,0.935,0.037,-0.002,-0.003,0.003,0.076,-0.019,-0.005,1.676,-1.208,2.968
2024-10-23 22:01:52.037,19635.602,0.353,0.935,0.037,-0.005,-0.005,0.003,0.063,-0.021,-0.007,1.674,-1.208,2.966
2024-10-23 22:01:52.047,19635.612,0.352,0.935,0.036,-0.003,-0.012,0.001,0.046,-0.007,-0.011,1.673,-1.209,2.964
2024-10-23 22:01:52.057,19635.622,0.352,0.935,0.036,-0.001,-0.016,0.003,0.034,0.005,-0.026,1.672,-1.209,2.963
2024-10-23 22:01:52.067,19635.632,0.352,0.935,0.036,-0.004,-0.015,0.006,0.019,0.015,-0.031,1.671,-1.209,2.963
2024-10-23 22:01:52.077,19635.642,0.352,0.935,0.036,-0.01,-0.016,-0.0,-0.01,0.004,-0.034,1.671,-1.209,2.963
2024-10-23 22:01:52.087,19635.652,0.351,0.936,0.036,-0.007,-0.018,-0.008,-0.018,0.002,-0.035,1.672,-1.21,2.963
2024-10-23 22:01:52.097,19635.662,0.351,0.936,0.036,-0.002,-0.019,-0.005,-0.015,-0.002,-0.035,1.673,-1.21,2.964
2024-10-23 22:01:52.107,19635.672,0.351,0.936,0.036,-0.002,-0.012,-0.004,0.002,0.002,-0.031,1.673,-1.21,2.964
2024-10-23 22:01:52.117,19635.682,0.351,0.936,0.036,-0.0,-0.003,-0.002,0.012,0.003,-0.024,1.673,-1.211,2.964
2024-10-23 22:01:52.126,19635.692,0.35,0.936,0.036,0.002,0.008,-0.0,0.012,0.002,-0.019,1.673,-1.211,2.964
2024-10-23 22:01:52.136,19635.702,0.35,0.936,0.036,0.002,0.012,-0.003,0.017,0.003,-0.015,1.672,-1.211,2.963
2024-10-23 22:01:52.146,19635.712,0.35,0.936,0.035,-0.0,0.01,-0.002,0.033,-0.001,-0.009,1.672,-1.211,2.963
2024-10-23 22:01:52.157,19635.722,0.35,0.936,0.035,-0.001,0.012,-0.001,0.037,0.002,-0.007,1.671,-1.211,2.962
2024-10-23 22:01:52.167,19635.732,0.35,0.936,0.035,-0.001,0.019,-0.002,0.045,-0.003,-0.004,1.67,-1.211,2.961
2024-10-23 22:01:52.177,19635.742,0.35,0.936,0.034,-0.004,0.016,-0.001,0.048,-0.005,-0.004,1.668,-1.211,2.959
2024-10-23 22:01:52.187,19635.752,0.35,0.936,0.034,-0.005,0.01,0.0,0.062,-0.006,-0.0,1.667,-1.212,2.958
2024-10-23 22:01:52.197,19635.762,0.35,0.936,0.033,-0.005,0.009,0.003,0.059,-0.003,0.003,1.665,-1.212,2.956
2024-10-23 22:01:52.207,19635.772,0.35,0.936,0.033,-0.007,0.006,0.004,0.055,-0.007,0.004,1.664,-1.212,2.954
2024-10-23 22:01:52.217,19635.782,0.35,0.936,0.032,-0.006,0.001,0.003,0.052,-0.012,0.002,1.662,-1.212,2.953
2024-10-23 22:01:52.226,19635.792,0.35,0.936,0.032,-0.006,-0.004,0.003,0.058,-0.008,0.004,1.661,-1.212,2.951
2024-10-23 22:01:52.236,19635.802,0.35,0.936,0.031,-0.004,-0.003,0.0,0.063,-0.011,-0.002,1.659,-1.212,2.95
2024-10-23 22:01:52.246,19635.812,0.35,0.936,0.03,-0.005,-0.005,0.0,0.071,-0.004,-0.002,1.657,-1.212,2.948
2024-10-23 22:01:52.256,19635.822,0.35,0.936,0.03,-0.002,-0.005,0.003,0.078,-0.003,-0.002,1.655,-1.212,2.946
2024-10-23 22:01:52.267,19635.832,0.35,0.936,0.029,-0.001,-0.007,0.006,0.078,-0.008,-0.001,1.653,-1.212,2.944
2024-10-23 22:01:52.277,19635.842,0.35,0.936,0.028,-0.001,-0.011,0.001,0.084,-0.008,-0.003,1.651,-1.212,2.941
2024-10-23 22:01:52.287,19635.852,0.35,0.936,0.027,-0.001,-0.009,0.0,0.09,-0.007,-0.004,1.649,-1.212,2.939
2024-10-23 22:01:52.297,19635.862,0.35,0.936,0.026,-0.0,-0.006,-0.001,0.082,-0.006,-0.012,1.646,-1.212,2.937
2024-10-23 22:01:52.306,19635.872,0.35,0.937,0.026,-0.001,-0.003,0.001,0.074,-0.007,-0.015,1.644,-1.213,2.934
2024-10-23 22:01:52.316,19635.882,0.35,0.937,0.025,-0.001,-0.006,0.002,0.058,-0.006,-0.016,1.642,-1.213,2.933
2024-10-23 22:01:52.326,19635.892,0.349,0.937,0.025,0.001,-0.01,0.002,0.057,-0.01,-0.015,1.641,-1.213,2.931
2024-10-23 22:01:52.336,19635.902,0.349,0.937,0.024,0.0,-0.011,-0.0,0.052,-0.014,-0.015,1.639,-1.213,2.93
2024-10-23 22:01:52.346,19635.912,0.349,0.937,0.024,-0.002,-0.007,-0.003,0.04,-0.015,-0.021,1.638,-1.213,2.928
2024-10-23 22:01:52.356,19635.922,0.349,0.937,0.023,0.0,-0.004,-0.003,0.038,-0.017,-0.021,1.637,-1.214,2.927
2024-10-23 22:01:52.366,19635.932,0.349,0.937,0.023,0.0,-0.005,0.001,0.031,-0.013,-0.021,1.636,-1.214,2.926
2024-10-23 22:01:52.376,19635.942,0.348,0.937,0.022,-0.0,-0.01,0.0,0.028,-0.008,-0.023,1.635,-1.214,2.926
2024-10-23 22:01:52.386,19635.952,0.348,0.937,0.022,-0.002,-0.007,0.0,0.026,-0.004,-0.022,1.634,-1.214,2.925
2024-10-23 22:01:52.396,19635.962,0.348,0.937,0.022,-0.004,-0.005,-0.004,0.018,0.003,-0.023,1.634,-1.215,2.924
2024-10-23 22:01:52.406,19635.972,0.348,0.937,0.022,-0.005,-0.004,-0.005,0.008,0.005,-0.02,1.634,-1.215,2.924
2024-10-23 22:01:52.416,19635.982,0.348,0.937,0.022,-0.007,-0.004,-0.008,0.002,0.01,-0.015,1.634,-1.215,2.924
2024-10-23 22:01:52.426,19635.992,0.348,0.937,0.022,-0.007,-0.003,-0.009,-0.007,0.01,-0.014,1.634,-1.215,2.924
2024-10-23 22:01:52.436,19636.002,0.347,0.937,0.022,-0.007,-0.001,-0.008,-0.001,0.008,-0.012,1.634,-1.215,2.924
2024-10-23 22:01:52.446,19636.012,0.347,0.937,0.022,-0.006,0.001,-0.008,0.005,0.007,-0.01,1.634,-1.215,2.924
2024-10-23 22:01:52.456,19636.022,0.347,0.937,0.022,-0.002,0.007,-0.006,0.019,0.003,-0.005,1.634,-1.215,2.924
2024-10-23 22:01:52.466,19636.032,0.347,0.937,0.022,-0.001,0.013,-0.002,0.036,-0.0,0.009,1.633,-1.215,2.923
2024-10-23 22:01:52.476,19636.042,0.347,0.937,0.021,-0.003,0.009,-0.003,0.034,-0.008,0.018,1.632,-1.215,2.922
2024-10-23 22:01:52.486,19636.052,0.348,0.937,0.021,-0.0,0.01,0.0,0.034,-0.005,0.018,1.631,-1.215,2.921
2024-10-23 22:01:52.496,19636.062,0.348,0.937,0.021,-0.0,0.019,0.006,0.026,-0.004,0.02,1.63,-1.215,2.92
2024-10-23 22:01:52.506,19636.072,0.348,0.937,0.02,-0.003,0.017,0.008,0.02,-0.008,0.024,1.629,-1.215,2.919
2024-10-23 22:01:52.516,19636.082,0.348,0.937,0.02,-0.002,0.008,0.005,0.016,-0.008,0.025,1.629,-1.215,2.919
2024-10-23 22:01:52.526,19636.092,0.348,0.937,0.02,-0.001,0.002,0.002,0.006,-0.013,0.031,1.628,-1.214,2.918
2024-10-23 22:01:52.536,19636.102,0.349,0.937,0.02,-0.002,0.004,-0.0,0.012,-0.037,0.033,1.628,-1.214,2.918
2024-10-23 22:01:52.546,19636.112,0.349,0.937,0.02,-0.003,0.004,-0.004,0.009,-0.033,0.028,1.627,-1.214,2.917
2024-10-23 22:01:52.556,19636.122,0.349,0.937,0.019,0.005,-0.001,-0.002,0.03,-0.0,0.03,1.626,-1.213,2.917
2024-10-23 22:01:52.566,19636.132,0.35,0.937,0.019,0.006,0.001,0.019,0.059,0.017,0.034,1.625,-1.213,2.916
2024-10-23 22:01:52.576,19636.142,0.35,0.937,0.018,-0.013,0.002,0.005,0.059,-0.009,0.026,1.623,-1.213,2.914
2024-10-23 22:01:52.586,19636.152,0.35,0.937,0.018,-0.016,-0.006,-0.022,0.045,-0.017,0.028,1.622,-1.213,2.912
2024-10-23 22:01:52.596,19636.162,0.35,0.936,0.017,-0.006,-0.013,-0.017,0.043,-0.003,0.023,1.621,-1.212,2.911
2024-10-23 22:01:52.606,19636.172,0.35,0.936,0.017,-0.005,-0.007,-0.005,0.018,0.004,0.019,1.62,-1.212,2.91
2024-10-23 22:01:52.616,19636.182,0.351,0.936,0.017,-0.014,-0.001,0.0,-0.0,-0.002,0.014,1.62,-1.212,2.91
2024-10-23 22:01:52.626,19636.191,0.351,0.936,0.017,-0.011,-0.009,0.001,-0.006,-0.001,0.014,1.62,-1.212,2.91
2024-10-23 22:01:52.636,19636.201,0.351,0.936,0.017,-0.004,-0.016,0.001,0.006,0.001,0.014,1.62,-1.212,2.91
2024-10-23 22:01:52.646,19636.211,0.351,0.936,0.017,-0.004,-0.015,-0.005,-0.007,0.001,0.006,1.62,-1.212,2.91
2024-10-23 22:01:52.656,19636.221,0.351,0.936,0.017,-0.004,-0.007,-0.009,-0.017,0.0,0.007,1.62,-1.212,2.911
2024-10-23 22:01:52.666,19636.231,0.351,0.936,0.017,-0.001,-0.006,-0.006,-0.021,0.004,0.004,1.621,-1.212,2.911
2024-10-23 22:01:52.676,19636.241,0.351,0.936,0.018,0.0,-0.008,-0.002,-0.01,0.007,0.004,1.621,-1.212,2.911
2024-10-23 22:01:52.685,19636.251,0.351,0.936,0.018,-0.0,-0.006,-0.002,-0.002,0.009,0.002,1.621,-1.212,2.912
2024-10-23 22:01:52.696,19636.261,0.351,0.936,0.018,-0.003,-0.003,-0.003,0.003,0.009,0.007,1.621,-1.212,2.911
2024-10-23 22:01:52.706,19636.271,0.351,0.936,0.018,-0.001,-0.003,-0.006,-0.007,0.008,0.005,1.621,-1.212,2.911
2024-10-23 22:01:52.716,19636.281,0.351,0.936,0.018,-0.0,-0.004,-0.002,-0.013,0.008,0.002,1.622,-1.212,2.912
2024-10-23 22:01:52.726,19636.291,0.351,0.936,0.018,-0.0,-0.002,0.002,-0.013,0.008,-0.0,1.622,-1.212,2.912
2024-10-23 22:01:52.736,19636.301,0.351,0.936,0.018,-0.002,-0.001,0.002,-0.015,0.004,-0.002,1.622,-1.212,2.912
2024-10-23 22:01:52.746,19636.311,0.351,0.936,0.018,-0.003,-0.001,0.003,-0.013,0.003,-0.002,1.623,-1.212,2.913
2024-10-23 22:01:52.756,19636.321,0.351,0.936,0.018,-0.002,-0.006,0.003,-0.012,0.001,-0.003,1.623,-1.212,2.913
2024-10-23 22:01:52.766,19636.331,0.351,0.936,0.018,-0.001,-0.007,0.006,-0.007,-0.002,-0.003,1.623,-1.212,2.913
2024-10-23 22:01:52.776,19636.341,0.351,0.936,0.018,-0.003,-0.007,0.004,0.0,-0.0,-0.001,1.623,-1.212,2.913
2024-10-23 22:01:52.786,19636.351,0.351,0.936,0.018,-0.004,-0.005,0.0,0.004,0.002,0.0,1.623,-1.212,2.913
2024-10-23 22:01:52.796,19636.361,0.351,0.936,0.018,-0.004,0.001,-0.001,-0.003,0.004,0.001,1.623,-1.212,2.913
2024-10-23 22:01:52.805,19636.371,0.351,0.936,0.018,-0.004,0.003,-0.004,-0.01,0.003,0.001,1.623,-1.212,2.913
2024-10-23 22:01:52.815,19636.381,0.351,0.936,0.019,-0.004,0.002,-0.003,-0.009,0.004,0.003,1.624,-1.212,2.914
2024-10-23 22:01:52.825,19636.391,0.351,0.936,0.019,-0.003,0.0,-0.002,-0.007,0.006,0.002,1.624,-1.211,2.914
2024-10-23 22:01:52.835,19636.401,0.351,0.936,0.019,-0.003,-0.0,-0.005,-0.008,0.004,0.004,1.624,-1.211,2.914
2024-10-23 22:01:52.845,19636.411,0.351,0.936,0.019,-0.003,0.001,-0.006,-0.011,0.006,0.008,1.624,-1.211,2.914
2024-10-23 22:01:52.855,19636.421,0.351,0.936,0.019,-0.005,-0.002,-0.004,-0.014,0.005,0.006,1.625,-1.211,2.915
2024-10-23 22:01:52.865,19636.431,0.351,0.936,0.019,-0.003,-0.003,-0.005,-0.012,0.002,0.003,1.625,-1.211,2.915
2024-10-23 22:01:52.875,19636.441,0.351,0.936,0.019,-0.002,-0.0,-0.001,-0.006,0.002,0.004,1.625,-1.211,2.915
2024-10-23 22:01:52.885,19636.451,0.351,0.936,0.019,-0.003,-0.001,0.002,-0.008,0.002,0.003,1.626,-1.211,2.915
2024-10-23 22:01:52.895,19636.461,0.351,0.936,0.019,-0.002,-0.003,0.003,-0.004,0.006,0.001,1.626,-1.211,2.916
2024-10-23 22:01:52.905,19636.471,0.351,0.936,0.019,-0.002,-0.003,0.003,-0.005,0.007,-0.002,1.626,-1.211,2.916
2024-10-23 22:01:52.915,19636.481,0.351,0.936,0.019,-0.002,-0.005,-0.0,-0.007,0.009,-0.004,1.626,-1.211,2.916
2024-10-23 22:01:52.926,19636.491,0.351,0.936,0.02,-0.004,-0.007,-0.002,-0.014,0.006,-0.004,1.627,-1.211,2.916
2024-10-23 22:01:52.936,19636.501,0.351,0.936,0.02,-0.005,-0.007,-0.001,-0.02,0.007,-0.004,1.627,-1.211,2.917
2024-10-23 22:01:52.945,19636.511,0.351,0.936,0.02,-0.003,-0.009,-0.001,-0.03,0.006,-0.008,1.628,-1.211,2.917
2024-10-23 22:01:52.955,19636.521,0.351,0.936,0.02,-0.0,-0.008,0.001,-0.034,0.01,-0.007,1.629,-1.211,2.918
2024-10-23 22:01:52.965,19636.531,0.351,0.936,0.021,-0.002,-0.006,0.003,-0.019,0.005,-0.011,1.629,-1.212,2.919
2024-10-23 22:01:52.975,19636.541,0.351,0.936,0.021,-0.004,-0.006,0.002,-0.006,0.007,-0.007,1.63,-1.212,2.919
2024-10-23 22:01:52.985,19636.551,0.351,0.936,0.021,-0.002,-0.003,-0.003,-0.001,0.001,-0.005,1.63,-1.212,2.919
2024-10-23 22:01:52.995,19636.561,0.351,0.936,0.021,-0.002,-0.002,-0.001,-0.002,0.004,-0.009,1.63,-1.212,2.919
2024-10-23 22:01:53.005,19636.571,0.351,0.936,0.021,-0.002,0.0,0.0,-0.004,-0.002,-0.009,1.63,-1.212,2.92
2024-10-23 22:01:53.015,19636.581,0.351,0.936,0.021,-0.002,-0.002,-0.0,-0.007,0.001,-0.006,1.63,-1.212,2.92
2024-10-23 22:01:53.025,19636.591,0.351,0.936,0.021,0.001,-0.002,0.001,-0.011,0.001,-0.005,1.63,-1.212,2.92
2024-10-23 22:01:53.035,19636.601,0.351,0.936,0.021,0.0,-0.0,-0.0,-0.01,-0.0,-0.003,1.631,-1.212,2.92
2024-10-23 22:01:53.045,19636.611,0.351,0.936,0.021,-0.002,0.0,-0.002,-0.011,0.003,-0.001,1.631,-1.212,2.921
2024-10-23 22:01:53.056,19636.621,0.351,0.936,0.021,-0.002,-0.003,-0.003,-0.012,0.002,-0.004,1.631,-1.212,2.921
2024-10-23 22:01:53.065,19636.631,0.35,0.936,0.021,-0.002,0.001,-0.002,-0.008,0.005,-0.004,1.632,-1.212,2.921
2024-10-23 22:01:53.075,19636.641,0.35,0.936,0.021,-0.003,-0.0,-0.002,-0.013,0.006,-0.001,1.632,-1.212,2.921
2024-10-23 22:01:53.085,19636.651,0.35,0.936,0.022,-0.003,-0.003,-0.003,-0.009,0.008,-0.0,1.632,-1.212,2.922
2024-10-23 22:01:53.095,19636.661,0.35,0.936,0.022,-0.003,0.001,-0.002,-0.018,0.007,-0.002,1.633,-1.212,2.922
2024-10-23 22:01:53.105,19636.671,0.35,0.936,0.022,-0.005,0.001,-0.005,-0.02,0.005,0.003,1.633,-1.212,2.923
2024-10-23 22:01:53.115,19636.681,0.35,0.936,0.022,-0.003,0.001,-0.002,-0.022,0.007,0.001,1.634,-1.212,2.923
2024-10-23 22:01:53.125,19636.691,0.35,0.936,0.022,-0.003,0.001,-0.003,-0.013,0.006,0.001,1.634,-1.212,2.924
2024-10-23 22:01:53.135,19636.701,0.35,0.936,0.022,-0.002,-0.002,-0.002,-0.019,0.008,0.001,1.635,-1.212,2.924
2024-10-23 22:01:53.145,19636.711,0.35,0.936,0.023,-0.002,-0.002,0.001,-0.02,0.01,-0.002,1.635,-1.212,2.925
2024-10-23 22:01:53.155,19636.721,0.35,0.936,0.023,-0.001,-0.003,0.002,-0.028,0.003,-0.002,1.636,-1.212,2.925
2024-10-23 22:01:53.165,19636.731,0.35,0.936,0.023,-0.001,-0.008,0.0,-0.025,0.001,-0.002,1.637,-1.212,2.926
2024-10-23 22:01:53.175,19636.741,0.35,0.936,0.023,-0.001,-0.01,-0.001,-0.024,0.002,-0.006,1.638,-1.212,2.927
2024-10-23 22:01:53.185,19636.751,0.35,0.936,0.024,-0.001,-0.009,-0.002,-0.016,0.005,-0.003,1.638,-1.212,2.927
2024-10-23 22:01:53.195,19636.761,0.35,0.936,0.024,-0.001,-0.006,-0.002,-0.004,0.004,0.0,1.638,-1.212,2.928
2024-10-23 22:01:53.205,19636.771,0.35,0.936,0.024,-0.0,-0.003,-0.001,-0.008,-0.001,-0.004,1.639,-1.212,2.928
2024-10-23 22:01:53.215,19636.78,0.35,0.936,0.024,-0.0,-0.001,-0.001,-0.013,0.003,-0.005,1.639,-1.212,2.928
2024-10-23 22:01:53.225,19636.79,0.35,0.936,0.024,-0.002,0.004,0.0,-0.018,0.006,-0.002,1.639,-1.212,2.929
2024-10-23 22:01:53.235,19636.8,0.35,0.936,0.024,-0.003,0.003,-0.002,-0.024,0.002,-0.0,1.64,-1.212,2.929
2024-10-23 22:01:53.245,19636.81,0.35,0.936,0.025,-0.003,-0.001,-0.004,-0.03,0.012,-0.005,1.641,-1.212,2.93
2024-10-23 22:01:53.255,19636.82,0.35,0.936,0.025,-0.002,0.002,-0.004,-0.034,0.009,0.001,1.642,-1.212,2.931
2024-10-23 22:01:53.265,19636.83,0.35,0.936,0.025,-0.006,0.003,-0.004,-0.041,0.009,-0.001,1.643,-1.212,2.932
2024-10-23 22:01:53.275,19636.84,0.35,0.936,0.026,-0.005,-0.002,-0.005,-0.039,0.01,-0.001,1.644,-1.212,2.933
2024-10-23 22:01:53.285,19636.85,0.35,0.936,0.026,-0.003,-0.005,-0.002,-0.042,0.007,-0.005,1.645,-1.212,2.934
2024-10-23 22:01:53.295,19636.86,0.35,0.936,0.026,-0.005,-0.004,-0.002,-0.047,0.009,-0.003,1.646,-1.212,2.935
2024-10-23 22:01:53.305,19636.87,0.35,0.936,0.027,-0.004,-0.003,-0.003,-0.044,0.007,-0.003,1.648,-1.212,2.937
2024-10-23 22:01:53.315,19636.88,0.35,0.936,0.027,-0.003,-0.01,-0.002,-0.037,0.007,-0.007,1.649,-1.212,2.938
2024-10-23 22:01:53.325,19636.89,0.35,0.936,0.028,-0.002,-0.01,-0.0,-0.026,0.005,-0.005,1.649,-1.212,2.939
2024-10-23 22:01:53.335,19636.9,0.35,0.936,0.028,-0.003,-0.003,0.0,-0.014,0.005,-0.006,1.65,-1.212,2.939
2024-10-23 22:01:53.345,19636.91,0.35,0.936,0.028,-0.004,-0.0,-0.0,-0.007,0.001,-0.006,1.65,-1.212,2.939
2024-10-23 22:01:53.355,19636.92,0.35,0.936,0.028,-0.004,-0.002,-0.002,0.004,-0.001,-0.005,1.65,-1.212,2.939
2024-10-23 22:01:53.364,19636.93,0.35,0.936,0.028,-0.0,-0.002,-0.001,0.012,-0.002,-0.001,1.65,-1.212,2.939
2024-10-23 22:01:53.375,19636.94,0.35,0.936,0.028,-0.0,0.0,-0.004,0.016,0.004,0.003,1.65,-1.212,2.939
2024-10-23 22:01:53.384,19636.95,0.35,0.936,0.028,-0.003,0.005,-0.003,0.014,0.004,0.003,1.649,-1.212,2.938
2024-10-23 22:01:53.395,19636.96,0.35,0.936,0.027,-0.002,0.005,-0.001,0.009,0.004,0.003,1.649,-1.212,2.938
2024-10-23 22:01:53.405,19636.97,0.35,0.936,0.027,0.001,0.004,0.001,-0.001,0.001,0.002,1.649,-1.212,2.938
2024-10-23 22:01:53.414,19636.98,0.35,0.936,0.027,0.0,0.002,0.004,-0.003,-0.002,-0.002,1.649,-1.212,2.938
2024-10-23 22:01:53.424,19636.99,0.35,0.936,0.027,-0.002,0.001,0.003,-0.008,-0.001,-0.004,1.649,-1.212,2.938
2024-10-23 22:01:53.434,19637.0,0.35,0.936,0.027,-0.001,-0.003,0.002,-0.001,0.002,-0.0,1.649,-1.212,2.938
2024-10-23 22:01:53.445,19637.01,0.35,0.936,0.028,-0.002,-0.004,-0.0,-0.011,0.005,-0.004,1.649,-1.212,2.938
2024-10-23 22:01:53.454,19637.02,0.35,0.936,0.028,-0.004,-0.006,-0.001,-0.01,0.003,-0.005,1.65,-1.212,2.939
2024-10-23 22:01:53.464,19637.03,0.35,0.936,0.028,-0.003,-0.002,-0.001,-0.014,0.004,-0.003,1.65,-1.212,2.939
2024-10-23 22:01:53.474,19637.04,0.35,0.936,0.028,-0.002,-0.002,-0.0,-0.018,0.014,-0.002,1.65,-1.212,2.939
2024-10-23 22:01:53.485,19637.05,0.35,0.936,0.028,-0.006,-0.002,-0.004,-0.034,0.016,0.001,1.651,-1.212,2.94
2024-10-23 22:01:53.495,19637.06,0.35,0.936,0.029,-0.007,-0.002,-0.007,-0.064,0.023,-0.005,1.653,-1.212,2.941
2024-10-23 22:01:53.505,19637.07,0.349,0.936,0.03,-0.004,-0.004,-0.009,-0.087,0.039,-0.004,1.655,-1.212,2.944
2024-10-23 22:01:53.514,19637.08,0.349,0.936,0.031,-0.008,-0.004,-0.01,-0.108,0.032,-0.005,1.658,-1.212,2.946
2024-10-23 22:01:53.524,19637.09,0.349,0.936,0.032,-0.008,-0.008,-0.016,-0.128,0.032,-0.008,1.662,-1.212,2.95
2024-10-23 22:01:53.534,19637.1,0.349,0.936,0.033,-0.002,-0.014,-0.017,-0.114,0.026,-0.006,1.665,-1.212,2.953
2024-10-23 22:01:53.544,19637.11,0.349,0.936,0.034,0.001,-0.013,-0.009,-0.085,0.027,-0.003,1.668,-1.212,2.956
2024-10-23 22:01:53.554,19637.12,0.349,0.936,0.035,-0.002,-0.009,-0.006,-0.044,0.023,-0.006,1.67,-1.212,2.958
2024-10-23 22:01:53.564,19637.13,0.349,0.936,0.035,0.0,-0.001,-0.0,-0.006,0.014,-0.007,1.671,-1.212,2.958
2024-10-23 22:01:53.574,19637.14,0.349,0.936,0.035,0.001,0.005,0.006,0.035,0.002,0.006,1.67,-1.212,2.958
2024-10-23 22:01:53.584,19637.15,0.349,0.936,0.034,0.0,0.001,0.008,0.054,-0.0,0.013,1.669,-1.212,2.956
2024-10-23 22:01:53.594,19637.16,0.349,0.936,0.034,0.003,0.003,0.014,0.064,-0.009,0.011,1.667,-1.212,2.955
2024-10-23 22:01:53.604,19637.17,0.349,0.936,0.033,0.004,0.011,0.02,0.044,-0.015,0.012,1.665,-1.212,2.953
2024-10-23 22:01:53.614,19637.18,0.349,0.936,0.033,0.001,0.013,0.021,0.031,-0.021,0.013,1.664,-1.212,2.952
2024-10-23 22:01:53.624,19637.19,0.35,0.936,0.032,0.001,0.009,0.018,0.014,-0.022,0.015,1.663,-1.212,2.951
2024-10-23 22:01:53.634,19637.2,0.35,0.936,0.032,0.002,0.004,0.012,0.01,-0.018,0.011,1.663,-1.212,2.951
2024-10-23 22:01:53.644,19637.21,0.35,0.936,0.032,-0.001,0.004,0.005,0.013,-0.012,0.007,1.662,-1.212,2.95
2024-10-23 22:01:53.654,19637.22,0.35,0.936,0.032,-0.007,0.0,-0.002,0.014,-0.012,0.006,1.662,-1.212,2.95
2024-10-23 22:01:53.664,19637.23,0.35,0.936,0.032,-0.006,-0.004,-0.009,0.004,-0.007,0.005,1.661,-1.212,2.95
2024-10-23 22:01:53.674,19637.24,0.35,0.936,0.032,-0.006,-0.008,-0.008,0.007,-0.009,0.003,1.661,-1.212,2.95
2024-10-23 22:01:53.684,19637.25,0.35,0.936,0.032,-0.006,-0.011,-0.006,0.005,-0.01,0.003,1.661,-1.212,2.95
2024-10-23 22:01:53.695,19637.26,0.35,0.936,0.032,-0.005,-0.012,-0.007,0.01,-0.005,-0.0,1.661,-1.212,2.95
2024-10-23 22:01:53.704,19637.27,0.35,0.936,0.032,-0.005,-0.009,-0.007,0.012,-0.002,0.001,1.661,-1.212,2.949
2024-10-23 22:01:53.714,19637.28,0.35,0.936,0.032,-0.005,-0.005,-0.005,0.01,-0.0,-0.002,1.661,-1.212,2.949
2024-10-23 22:01:53.724,19637.29,0.35,0.936,0.031,-0.004,-0.005,-0.007,0.008,0.002,-0.002,1.66,-1.212,2.949
2024-10-23 22:01:53.734,19637.3,0.35,0.936,0.031,-0.001,-0.003,-0.006,0.002,0.007,-0.003,1.66,-1.212,2.949
2024-10-23 22:01:53.744,19637.31,0.35,0.936,0.031,-0.001,-0.001,-0.006,-0.003,0.007,-0.002,1.66,-1.212,2.949
2024-10-23 22:01:53.754,19637.32,0.35,0.936,0.031,0.0,0.0,-0.004,-0.002,0.005,-0.005,1.66,-1.212,2.949
2024-10-23 22:01:53.764,19637.33,0.35,0.936,0.032,-0.001,0.0,-0.005,-0.002,0.008,-0.001,1.661,-1.212,2.949
2024-10-23 22:01:53.774,19637.34,0.35,0.936,0.032,0.0,-0.002,-0.005,-0.0,0.006,-0.003,1.661,-1.212,2.949
2024-10-23 22:01:53.784,19637.35,0.35,0.936,0.032,0.001,-0.005,-0.005,-0.002,0.004,-0.005,1.661,-1.212,2.949
2024-10-23 22:01:53.794,19637.36,0.35,0.936,0.032,0.0,-0.005,-0.003,-0.005,0.004,-0.008,1.661,-1.212,2.949
2024-10-23 22:01:53.804,19637.37,0.35,0.936,0.032,-0.001,-0.006,0.002,-0.006,0.003,-0.006,1.661,-1.212,2.949
2024-10-23 22:01:53.814,19637.379,0.35,0.936,0.032,-0.001,-0.009,0.006,-0.002,-0.0,-0.005,1.661,-1.212,2.949
2024-10-23 22:01:53.824,19637.389,0.35,0.936,0.032,-0.002,-0.009,0.009,0.003,-0.002,-0.004,1.661,-1.212,2.949
2024-10-23 22:01:53.834,19637.399,0.35,0.936,0.032,-0.003,-0.006,0.008,0.006,-0.011,-0.005,1.661,-1.212,2.949
2024-10-23 22:01:53.844,19637.409,0.35,0.936,0.031,-0.003,-0.003,0.007,0.002,-0.011,-0.006,1.661,-1.212,2.949
2024-10-23 22:01:53.854,19637.419,0.349,0.936,0.031,-0.001,-0.004,0.005,0.01,-0.005,-0.007,1.66,-1.212,2.949
2024-10-23 22:01:53.864,19637.429,0.349,0.936,0.031,0.0,-0.006,0.003,0.003,-0.005,-0.003,1.66,-1.212,2.949
2024-10-23 22:01:53.874,19637.439,0.349,0.936,0.031,-0.0,-0.003,-0.001,-0.002,-0.002,-0.006,1.66,-1.212,2.949
2024-10-23 22:01:53.884,19637.449,0.349,0.936,0.031,0.001,0.0,-0.005,-0.011,-0.001,-0.006,1.66,-1.212,2.949
2024-10-23 22:01:53.894,19637.459,0.349,0.937,0.031,-0.0,-0.003,-0.004,-0.017,0.001,-0.013,1.661,-1.213,2.949
2024-10-23 22:01:53.904,19637.469,0.349,0.937,0.032,-0.002,-0.003,-0.004,-0.02,0.007,-0.012,1.661,-1.213,2.95
2024-10-23 22:01:53.914,19637.479,0.349,0.937,0.032,-0.004,-0.003,-0.005,-0.031,0.008,-0.018,1.662,-1.213,2.951
2024-10-23 22:01:53.924,19637.489,0.349,0.937,0.032,-0.006,-0.007,-0.006,-0.037,0.005,-0.023,1.663,-1.213,2.952
2024-10-23 22:01:53.934,19637.499,0.348,0.937,0.033,-0.004,-0.012,-0.005,-0.045,0.005,-0.036,1.664,-1.213,2.953
2024-10-23 22:01:53.944,19637.509,0.348,0.937,0.033,-0.002,-0.018,-0.003,-0.037,0.018,-0.044,1.666,-1.214,2.954
2024-10-23 22:01:53.954,19637.519,0.348,0.937,0.034,-0.001,-0.02,0.002,-0.036,0.028,-0.052,1.667,-1.214,2.955
2024-10-23 22:01:53.964,19637.529,0.347,0.937,0.034,-0.005,-0.02,0.003,-0.022,0.025,-0.059,1.668,-1.215,2.956
2024-10-23 22:01:53.974,19637.539,0.347,0.937,0.034,-0.007,-0.025,-0.005,-0.021,0.007,-0.057,1.669,-1.215,2.957
2024-10-23 22:01:53.983,19637.549,0.346,0.938,0.034,-0.001,-0.029,-0.016,-0.025,0.002,-0.057,1.67,-1.216,2.958
2024-10-23 22:01:53.994,19637.559,0.346,0.938,0.035,0.007,-0.021,-0.007,-0.007,0.014,-0.053,1.67,-1.216,2.958
2024-10-23 22:01:54.004,19637.569,0.345,0.938,0.035,0.003,-0.011,0.008,0.005,0.017,-0.049,1.671,-1.217,2.959
2024-10-23 22:01:54.014,19637.579,0.345,0.938,0.035,-0.003,-0.002,0.005,0.004,0.003,-0.045,1.671,-1.217,2.958
2024-10-23 22:01:54.023,19637.589,0.344,0.938,0.035,0.002,0.007,-0.002,0.005,-0.003,-0.044,1.671,-1.218,2.959
2024-10-23 22:01:54.033,19637.599,0.344,0.938,0.035,0.006,0.01,-0.004,-0.002,0.012,-0.036,1.671,-1.218,2.959
2024-10-23 22:01:54.043,19637.609,0.344,0.938,0.035,0.005,0.021,-0.005,-0.005,0.02,-0.035,1.671,-1.218,2.959
2024-10-23 22:01:54.053,19637.619,0.343,0.939,0.035,-0.001,0.025,-0.004,-0.032,0.021,-0.033,1.672,-1.219,2.959
2024-10-23 22:01:54.063,19637.629,0.343,0.939,0.035,-0.005,0.015,-0.009,-0.043,0.018,-0.031,1.673,-1.219,2.961
2024-10-23 22:01:54.073,19637.639,0.343,0.939,0.036,-0.004,0.01,-0.014,-0.062,0.012,-0.027,1.675,-1.219,2.962
2024-10-23 22:01:54.084,19637.649,0.342,0.939,0.036,-0.006,0.003,-0.015,-0.044,0.009,-0.028,1.677,-1.219,2.964
2024-10-23 22:01:54.094,19637.659,0.342,0.939,0.037,-0.001,-0.003,-0.005,-0.002,0.002,-0.019,1.677,-1.219,2.965
2024-10-23 22:01:54.104,19637.669,0.342,0.939,0.036,-0.005,-0.006,0.003,0.039,-0.005,-0.008,1.677,-1.22,2.964
2024-10-23 22:01:54.113,19637.679,0.342,0.939,0.036,-0.003,-0.005,0.007,0.072,-0.011,0.001,1.675,-1.22,2.962
2024-10-23 22:01:54.123,19637.689,0.342,0.939,0.035,0.0,0.004,0.016,0.09,-0.015,0.013,1.673,-1.22,2.96
2024-10-23 22:01:54.133,19637.699,0.342,0.939,0.034,0.002,0.012,0.022,0.089,-0.021,0.017,1.67,-1.22,2.957
2024-10-23 22:01:54.143,19637.709,0.342,0.939,0.033,0.003,0.019,0.023,0.085,-0.031,0.022,1.668,-1.22,2.955
2024-10-23 22:01:54.153,19637.719,0.343,0.939,0.032,0.003,0.02,0.018,0.087,-0.035,0.027,1.665,-1.219,2.952
2024-10-23 22:01:54.163,19637.729,0.343,0.939,0.031,0.002,0.025,0.008,0.065,-0.05,0.038,1.662,-1.219,2.95
2024-10-23 22:01:54.173,19637.739,0.343,0.939,0.03,0.001,0.034,-0.001,0.09,-0.057,0.037,1.659,-1.219,2.947
2024-10-23 22:01:54.183,19637.749,0.344,0.939,0.03,0.004,0.035,-0.004,0.081,-0.025,0.055,1.657,-1.218,2.945
2024-10-23 22:01:54.193,19637.759,0.344,0.938,0.029,0.006,0.021,0.01,0.102,-0.01,0.049,1.654,-1.218,2.942
2024-10-23 22:01:54.203,19637.769,0.345,0.938,0.028,-0.01,0.019,0.004,0.086,-0.011,0.044,1.651,-1.218,2.939
2024-10-23 22:01:54.214,19637.779,0.345,0.938,0.027,-0.021,0.011,-0.018,0.036,-0.019,0.041,1.649,-1.217,2.938
2024-10-23 22:01:54.223,19637.789,0.346,0.938,0.027,-0.012,-0.008,-0.02,-0.001,-0.01,0.037,1.649,-1.217,2.937
2024-10-23 22:01:54.233,19637.799,0.346,0.938,0.027,-0.007,-0.026,-0.01,-0.014,-0.003,0.022,1.649,-1.217,2.938
2024-10-23 22:01:54.243,19637.809,0.346,0.938,0.027,-0.013,-0.032,-0.008,-0.003,0.007,0.016,1.649,-1.216,2.938
2024-10-23 22:01:54.253,19637.819,0.346,0.938,0.027,-0.014,-0.028,-0.012,0.015,0.017,0.012,1.649,-1.216,2.938
2024-10-23 22:01:54.263,19637.829,0.346,0.938,0.027,-0.009,-0.023,-0.013,0.009,0.016,0.006,1.649,-1.216,2.937
2024-10-23 22:01:54.273,19637.839,0.346,0.938,0.027,-0.007,-0.019,-0.014,-0.008,0.014,0.001,1.649,-1.216,2.937
2024-10-23 22:01:54.283,19637.849,0.346,0.938,0.027,-0.004,-0.021,-0.008,-0.016,0.015,-0.002,1.65,-1.216,2.938
2024-10-23 22:01:54.293,19637.859,0.346,0.938,0.028,-0.0,-0.017,-0.005,-0.018,0.013,-0.002,1.65,-1.216,2.938
2024-10-23 22:01:54.303,19637.869,0.346,0.938,0.028,0.0,-0.009,-0.004,-0.02,0.019,-0.005,1.651,-1.216,2.939
2024-10-23 22:01:54.313,19637.879,0.346,0.938,0.028,0.003,-0.004,-0.004,-0.012,0.016,-0.003,1.652,-1.216,2.939
2024-10-23 22:01:54.323,19637.889,0.346,0.938,0.028,0.003,-0.0,-0.006,-0.013,0.019,-0.001,1.652,-1.216,2.939
2024-10-23 22:01:54.333,19637.899,0.346,0.938,0.028,0.002,0.001,-0.006,-0.02,0.018,-0.002,1.653,-1.216,2.94
2024-10-23 22:01:54.343,19637.909,0.346,0.938,0.029,0.002,0.001,-0.004,-0.028,0.017,-0.003,1.653,-1.216,2.94
2024-10-23 22:01:54.353,19637.919,0.346,0.938,0.029,0.002,-0.001,0.001,-0.033,0.015,-0.004,1.654,-1.216,2.941
2024-10-23 22:01:54.363,19637.929,0.346,0.938,0.029,-0.001,-0.005,0.006,-0.03,0.011,-0.006,1.655,-1.216,2.942
2024-10-23 22:01:54.373,19637.939,0.346,0.938,0.029,-0.005,-0.005,0.008,-0.024,0.006,-0.005,1.656,-1.216,2.943
2024-10-23 22:01:54.383,19637.949,0.346,0.938,0.03,-0.003,-0.008,0.01,-0.018,-0.002,-0.009,1.656,-1.216,2.943
2024-10-23 22:01:54.393,19637.959,0.346,0.938,0.03,0.0,-0.011,0.012,-0.011,-0.003,-0.009,1.657,-1.217,2.944
2024-10-23 22:01:54.403,19637.968,0.346,0.938,0.03,-0.002,-0.009,0.009,-0.005,0.001,-0.01,1.657,-1.217,2.944
2024-10-23 22:01:54.413,19637.978,0.345,0.938,0.03,-0.004,-0.006,0.008,-0.004,0.0,-0.011,1.657,-1.217,2.944
2024-10-23 22:01:54.423,19637.988,0.345,0.938,0.03,-0.003,-0.007,0.006,-0.002,0.004,-0.01,1.657,-1.217,2.944
2024-10-23 22:01:54.433,19637.998,0.345,0.938,0.03,-0.002,-0.002,0.005,-0.003,0.003,-0.008,1.657,-1.217,2.944
2024-10-23 22:01:54.443,19638.008,0.345,0.938,0.03,-0.002,0.002,0.003,-0.005,-0.003,-0.006,1.657,-1.217,2.944
2024-10-23 22:01:54.453,19638.018,0.345,0.938,0.03,-0.001,0.001,-0.001,-0.003,0.003,-0.004,1.657,-1.217,2.944
2024-10-23 22:01:54.463,19638.028,0.345,0.938,0.03,-0.0,0.003,-0.005,0.0,0.005,0.001,1.658,-1.217,2.945
2024-10-23 22:01:54.473,19638.038,0.345,0.938,0.03,-0.001,0.009,-0.006,-0.009,0.0,0.006,1.658,-1.217,2.945
2024-10-23 22:01:54.483,19638.048,0.345,0.938,0.03,0.0,0.009,-0.006,-0.01,-0.002,0.01,1.658,-1.217,2.945
2024-10-23 22:01:54.493,19638.058,0.345,0.938,0.03,0.002,0.004,-0.002,0.0,0.003,0.007,1.658,-1.217,2.945
2024-10-23 22:01:54.503,19638.068,0.345,0.938,0.03,-0.0,0.004,0.002,0.012,0.001,0.008,1.658,-1.217,2.945
2024-10-23 22:01:54.513,19638.078,0.346,0.938,0.03,-0.003,0.008,0.001,0.01,-0.003,0.013,1.658,-1.217,2.945
2024-10-23 22:01:54.523,19638.088,0.346,0.938,0.03,-0.003,0.002,-0.002,0.008,-0.006,0.01,1.657,-1.216,2.944
2024-10-23 22:01:54.533,19638.098,0.346,0.938,0.03,-0.0,-0.003,-0.001,0.006,-0.001,0.009,1.657,-1.216,2.944
2024-10-23 22:01:54.543,19638.108,0.346,0.938,0.03,-0.002,-0.004,0.0,-0.001,0.005,0.006,1.657,-1.216,2.944
2024-10-23 22:01:54.553,19638.118,0.346,0.938,0.03,-0.002,-0.004,-0.0,0.002,0.001,0.005,1.657,-1.216,2.944
2024-10-23 22:01:54.562,19638.128,0.346,0.938,0.03,-0.004,-0.008,-0.002,-0.005,0.001,0.002,1.657,-1.216,2.944
2024-10-23 22:01:54.572,19638.138,0.346,0.938,0.03,-0.003,-0.013,-0.005,-0.008,0.006,0.0,1.657,-1.216,2.944
2024-10-23 22:01:54.582,19638.148,0.346,0.938,0.03,-0.001,-0.009,-0.004,-0.012,0.007,-0.004,1.658,-1.216,2.945
2024-10-23 22:01:54.592,19638.158,0.346,0.938,0.03,-0.003,-0.009,-0.001,-0.007,0.007,-0.008,1.658,-1.216,2.945
2024-10-23 22:01:54.603,19638.168,0.346,0.938,0.03,-0.003,-0.011,-0.001,-0.005,0.01,-0.004,1.658,-1.216,2.945
2024-10-23 22:01:54.613,19638.178,0.346,0.938,0.03,-0.001,-0.009,-0.0,-0.012,0.008,-0.013,1.659,-1.216,2.945
2024-10-23 22:01:54.622,19638.188,0.346,0.938,0.031,-0.001,-0.009,-0.0,-0.009,0.007,-0.012,1.659,-1.217,2.946
2024-10-23 22:01:54.632,19638.198,0.345,0.938,0.031,-0.001,-0.009,0.001,-0.01,0.003,-0.02,1.659,-1.217,2.946
2024-10-23 22:01:54.642,19638.208,0.345,0.938,0.031,0.001,-0.01,0.004,-0.004,0.006,-0.017,1.66,-1.217,2.946
2024-10-23 22:01:54.653,19638.218,0.345,0.938,0.031,0.003,-0.012,0.003,-0.013,0.004,-0.021,1.66,-1.217,2.947
2024-10-23 22:01:54.662,19638.228,0.345,0.938,0.031,0.001,-0.011,0.004,-0.009,0.001,-0.022,1.66,-1.217,2.947
2024-10-23 22:01:54.673,19638.238,0.345,0.938,0.031,-0.001,-0.006,0.005,-0.014,0.006,-0.022,1.661,-1.217,2.947
2024-10-23 22:01:54.683,19638.248,0.344,0.938,0.031,-0.002,-0.006,0.002,-0.012,0.005,-0.015,1.661,-1.218,2.948
2024-10-23 22:01:54.692,19638.258,0.344,0.938,0.031,-0.003,-0.005,-0.001,-0.015,0.007,-0.02,1.662,-1.218,2.948
2024-10-23 22:01:54.702,19638.268,0.344,0.938,0.032,-0.002,-0.002,-0.0,-0.016,0.001,-0.021,1.662,-1.218,2.949
2024-10-23 22:01:54.712,19638.278,0.344,0.938,0.032,-0.002,0.0,-0.002,-0.025,-0.002,-0.022,1.663,-1.218,2.949
2024-10-23 22:01:54.723,19638.288,0.344,0.939,0.032,-0.002,-0.001,-0.001,-0.025,0.002,-0.019,1.664,-1.218,2.95
2024-10-23 22:01:54.732,19638.298,0.344,0.939,0.032,-0.0,-0.004,-0.002,-0.018,0.002,-0.018,1.664,-1.218,2.951
2024-10-23 22:01:54.742,19638.308,0.343,0.939,0.032,-0.001,-0.003,-0.002,-0.033,0.008,-0.016,1.665,-1.219,2.952
2024-10-23 22:01:54.752,19638.318,0.343,0.939,0.033,-0.001,-0.001,-0.004,-0.025,-0.002,-0.015,1.666,-1.219,2.952
2024-10-23 22:01:54.762,19638.328,0.343,0.939,0.033,-0.0,-0.001,-0.004,-0.014,0.005,-0.009,1.666,-1.219,2.953
2024-10-23 22:01:54.772,19638.338,0.343,0.939,0.033,0.0,-0.001,-0.008,0.007,0.004,-0.004,1.667,-1.219,2.953
2024-10-23 22:01:54.783,19638.348,0.343,0.939,0.033,-0.001,0.009,-0.004,0.021,0.001,0.005,1.666,-1.219,2.953
2024-10-23 22:01:54.792,19638.358,0.343,0.939,0.033,-0.002,0.009,-0.003,0.034,-0.001,0.005,1.666,-1.219,2.952
2024-10-23 22:01:54.802,19638.368,0.343,0.939,0.032,-0.0,0.01,-0.0,0.038,-0.006,0.008,1.665,-1.219,2.951
2024-10-23 22:01:54.812,19638.378,0.343,0.939,0.032,-0.0,0.014,0.006,0.024,-0.01,0.007,1.664,-1.219,2.95
2024-10-23 22:01:54.822,19638.388,0.343,0.939,0.032,-0.001,0.018,0.012,0.014,-0.009,0.007,1.663,-1.219,2.949
2024-10-23 22:01:54.832,19638.398,0.343,0.939,0.032,-0.002,0.014,0.01,0.006,-0.012,0.006,1.662,-1.219,2.949
2024-10-23 22:01:54.842,19638.408,0.344,0.939,0.031,0.0,0.001,0.003,0.006,-0.011,0.007,1.662,-1.219,2.949
2024-10-23 22:01:54.852,19638.418,0.344,0.939,0.031,0.0,-0.007,-0.004,0.001,-0.003,0.005,1.662,-1.219,2.949
2024-10-23 22:01:54.862,19638.428,0.344,0.939,0.031,-0.003,-0.006,-0.008,-0.003,0.002,0.002,1.662,-1.218,2.949
2024-10-23 22:01:54.872,19638.438,0.344,0.939,0.031,-0.006,-0.006,-0.01,-0.003,0.005,0.004,1.662,-1.218,2.949
2024-10-23 22:01:54.882,19638.448,0.344,0.939,0.032,-0.006,-0.011,-0.009,-0.008,0.009,0.003,1.662,-1.218,2.949
2024-10-23 22:01:54.892,19638.458,0.344,0.939,0.032,-0.005,-0.014,-0.007,-0.003,0.012,-0.001,1.662,-1.218,2.949
2024-10-23 22:01:54.902,19638.468,0.344,0.939,0.032,-0.004,-0.013,-0.006,-0.003,0.012,-0.001,1.663,-1.218,2.949
2024-10-23 22:01:54.912,19638.478,0.344,0.939,0.032,-0.008,-0.009,-0.003,-0.002,0.009,-0.001,1.663,-1.218,2.949
2024-10-23 22:01:54.922,19638.488,0.344,0.939,0.032,-0.007,-0.004,-0.003,0.004,0.01,0.0,1.663,-1.219,2.949
2024-10-23 22:01:54.932,19638.498,0.344,0.939,0.032,-0.006,-0.002,-0.002,0.001,0.011,-0.001,1.663,-1.219,2.949
2024-10-23 22:01:54.942,19638.508,0.344,0.939,0.032,-0.005,-0.002,-0.004,0.001,0.016,0.004,1.663,-1.219,2.949
2024-10-23 22:01:54.952,19638.518,0.344,0.939,0.032,-0.002,0.001,-0.003,-0.016,0.031,0.004,1.663,-1.218,2.949
2024-10-23 22:01:54.962,19638.528,0.344,0.939,0.032,-0.001,0.005,-0.005,-0.078,0.053,0.001,1.665,-1.218,2.95
2024-10-23 22:01:54.972,19638.538,0.344,0.939,0.034,-0.004,0.007,-0.01,-0.118,0.06,-0.0,1.668,-1.218,2.953
2024-10-23 22:01:54.982,19638.548,0.344,0.938,0.035,-0.008,0.002,-0.017,-0.143,0.06,0.007,1.672,-1.218,2.957
2024-10-23 22:01:54.992,19638.557,0.344,0.938,0.036,-0.006,-0.007,-0.03,-0.138,0.066,0.003,1.676,-1.218,2.961
2024-10-23 22:01:55.001,19638.567,0.344,0.938,0.038,-0.005,-0.004,-0.037,-0.15,0.063,0.008,1.681,-1.218,2.965
2024-10-23 22:01:55.012,19638.577,0.344,0.938,0.04,-0.008,0.004,-0.032,-0.161,0.054,0.02,1.686,-1.217,2.969
2024-10-23 22:01:55.022,19638.587,0.344,0.938,0.041,-0.01,-0.0,-0.02,-0.169,0.061,0.012,1.691,-1.217,2.974
2024-10-23 22:01:55.032,19638.597,0.344,0.938,0.043,-0.0,-0.001,-0.01,-0.172,0.072,0.013,1.696,-1.217,2.979
2024-10-23 22:01:55.042,19638.607,0.344,0.938,0.045,0.005,0.002,0.008,-0.15,0.071,0.011,1.701,-1.217,2.983
2024-10-23 22:01:55.052,19638.617,0.344,0.938,0.046,-0.002,0.003,0.008,-0.126,0.044,0.045,1.705,-1.216,2.987
2024-10-23 22:01:55.062,19638.627,0.344,0.938,0.048,-0.005,-0.004,-0.003,-0.146,0.027,0.012,1.708,-1.216,2.99
2024-10-23 22:01:55.072,19638.637,0.345,0.937,0.049,0.01,0.001,-0.003,-0.125,0.055,0.018,1.712,-1.215,2.994
2024-10-23 22:01:55.082,19638.647,0.345,0.937,0.05,0.019,0.023,0.02,-0.056,0.075,0.039,1.715,-1.215,2.996
2024-10-23 22:01:55.092,19638.657,0.345,0.937,0.05,-0.012,0.018,0.016,-0.032,0.029,0.044,1.716,-1.214,2.997
2024-10-23 22:01:55.102,19638.667,0.346,0.937,0.051,-0.022,0.002,-0.019,-0.004,0.018,0.038,1.716,-1.214,2.997
2024-10-23 22:01:55.112,19638.677,0.346,0.937,0.051,0.009,0.002,-0.007,0.008,0.028,0.043,1.716,-1.214,2.997
2024-10-23 22:01:55.122,19638.687,0.346,0.937,0.051,0.008,0.018,0.012,-0.011,0.016,0.048,1.716,-1.213,2.997
2024-10-23 22:01:55.132,19638.697,0.347,0.937,0.051,-0.011,0.014,0.019,0.008,0.006,0.04,1.716,-1.213,2.997
2024-10-23 22:01:55.142,19638.707,0.347,0.936,0.051,-0.003,-0.007,0.024,0.022,0.003,0.04,1.716,-1.212,2.996
2024-10-23 22:01:55.152,19638.717,0.347,0.936,0.05,0.0,-0.004,0.017,0.043,-0.006,0.043,1.715,-1.212,2.995
2024-10-23 22:01:55.161,19638.727,0.348,0.936,0.05,-0.001,-0.004,0.017,0.036,-0.011,0.034,1.714,-1.212,2.994
2024-10-23 22:01:55.172,19638.737,0.348,0.936,0.05,-0.0,-0.016,0.019,0.021,-0.012,0.024,1.713,-1.212,2.993
2024-10-23 22:01:55.181,19638.747,0.348,0.936,0.05,0.002,-0.015,0.022,0.011,-0.008,0.022,1.712,-1.211,2.992
2024-10-23 22:01:55.192,19638.757,0.348,0.936,0.049,-0.0,-0.015,0.019,0.004,-0.008,0.015,1.712,-1.211,2.992
2024-10-23 22:01:55.202,19638.767,0.349,0.936,0.049,0.0,-0.019,0.009,0.002,-0.002,0.012,1.712,-1.211,2.992
2024-10-23 22:01:55.211,19638.777,0.349,0.936,0.049,0.001,-0.018,0.001,0.002,-0.002,0.003,1.712,-1.211,2.992
2024-10-23 22:01:55.221,19638.787,0.349,0.936,0.05,-0.001,-0.017,-0.007,-0.004,0.004,-0.002,1.712,-1.211,2.992
2024-10-23 22:01:55.232,19638.797,0.349,0.936,0.05,-0.002,-0.019,-0.014,-0.01,-0.0,-0.009,1.712,-1.211,2.993
2024-10-23 22:01:55.241,19638.807,0.348,0.936,0.05,-0.002,-0.017,-0.01,-0.008,0.002,-0.01,1.713,-1.211,2.993
2024-10-23 22:01:55.251,19638.817,0.348,0.936,0.05,0.0,-0.014,-0.003,-0.025,0.003,-0.013,1.713,-1.211,2.993
2024-10-23 22:01:55.261,19638.827,0.348,0.936,0.05,-0.002,-0.013,0.001,-0.006,-0.009,-0.016,1.714,-1.211,2.994
2024-10-23 22:01:55.271,19638.837,0.348,0.936,0.05,-0.002,-0.011,0.004,-0.004,-0.011,-0.015,1.714,-1.211,2.994
2024-10-23 22:01:55.281,19638.847,0.348,0.936,0.05,-0.0,-0.011,0.001,0.014,-0.01,-0.013,1.714,-1.212,2.994
2024-10-23 22:01:55.291,19638.857,0.348,0.936,0.05,0.002,-0.006,0.003,0.019,-0.008,-0.014,1.713,-1.212,2.994
2024-10-23 22:01:55.301,19638.867,0.348,0.936,0.05,0.0,-0.002,0.006,0.013,-0.016,-0.007,1.713,-1.212,2.994
2024-10-23 22:01:55.311,19638.877,0.348,0.936,0.05,0.001,0.001,0.008,0.006,-0.019,-0.012,1.712,-1.212,2.993
2024-10-23 22:01:55.321,19638.887,0.348,0.936,0.049,0.004,0.001,0.008,0.016,-0.022,-0.007,1.712,-1.212,2.993
2024-10-23 22:01:55.331,19638.897,0.348,0.936,0.049,0.003,0.001,0.008,0.039,-0.021,-0.003,1.711,-1.212,2.992
2024-10-23 22:01:55.341,19638.907,0.348,0.936,0.049,0.001,0.006,0.003,0.054,-0.016,-0.001,1.709,-1.212,2.991
2024-10-23 22:01:55.351,19638.917,0.348,0.936,0.048,-0.002,0.009,-0.001,0.053,-0.005,0.003,1.708,-1.212,2.989
2024-10-23 22:01:55.362,19638.927,0.348,0.936,0.048,-0.003,0.011,-0.002,0.03,0.005,-0.014,1.707,-1.212,2.988
2024-10-23 22:01:55.371,19638.937,0.348,0.936,0.047,-0.009,0.008,0.0,0.015,-0.004,0.013,1.706,-1.212,2.987
2024-10-23 22:01:55.381,19638.947,0.348,0.936,0.047,-0.014,-0.006,-0.007,-0.004,-0.028,0.001,1.706,-1.212,2.987
2024-10-23 22:01:55.391,19638.957,0.348,0.936,0.047,-0.009,-0.017,-0.018,-0.013,-0.014,-0.005,1.706,-1.212,2.988
2024-10-23 22:01:55.401,19638.967,0.348,0.936,0.047,0.004,-0.003,-0.005,-0.012,0.004,-0.008,1.706,-1.212,2.988
2024-10-23 22:01:55.411,19638.977,0.348,0.936,0.048,-0.001,0.008,0.012,-0.004,0.007,-0.002,1.707,-1.212,2.988
2024-10-23 22:01:55.421,19638.987,0.348,0.936,0.048,-0.012,-0.003,0.003,-0.006,-0.008,-0.006,1.707,-1.212,2.988
2024-10-23 22:01:55.431,19638.997,0.348,0.936,0.048,-0.002,-0.019,-0.008,0.002,-0.01,-0.002,1.707,-1.212,2.989
2024-10-23 22:01:55.441,19639.007,0.348,0.936,0.048,0.01,-0.015,-0.005,0.001,-0.001,-0.005,1.707,-1.212,2.988
2024-10-23 22:01:55.451,19639.017,0.347,0.936,0.048,0.005,-0.008,-0.001,0.001,-0.001,-0.008,1.707,-1.213,2.988
2024-10-23 22:01:55.461,19639.027,0.347,0.937,0.048,-0.002,0.0,0.002,-0.004,0.002,-0.006,1.707,-1.213,2.989
2024-10-23 22:01:55.471,19639.037,0.347,0.937,0.048,-0.001,0.002,0.0,-0.002,-0.004,-0.004,1.707,-1.213,2.989
2024-10-23 22:01:55.481,19639.047,0.347,0.937,0.047,0.004,-0.005,-0.002,0.005,-0.001,-0.002,1.707,-1.213,2.989
2024-10-23 22:01:55.491,19639.057,0.347,0.937,0.047,0.002,-0.005,-0.002,0.007,-0.001,-0.006,1.707,-1.213,2.988
2024-10-23 22:01:55.501,19639.067,0.347,0.937,0.047,-0.001,-0.002,-0.003,0.006,0.002,-0.012,1.707,-1.213,2.988
2024-10-23 22:01:55.511,19639.077,0.347,0.937,0.047,-0.002,0.001,-0.001,0.002,0.002,-0.011,1.706,-1.213,2.988
2024-10-23 22:01:55.521,19639.087,0.347,0.937,0.047,-0.004,-0.001,0.002,-0.003,0.001,-0.012,1.706,-1.213,2.988
2024-10-23 22:01:55.531,19639.097,0.347,0.937,0.047,-0.004,-0.005,-0.001,-0.004,-0.001,-0.015,1.707,-1.213,2.988
2024-10-23 22:01:55.541,19639.107,0.347,0.937,0.047,-0.001,-0.009,0.002,-0.001,0.0,-0.018,1.707,-1.213,2.989
2024-10-23 22:01:55.551,19639.117,0.347,0.937,0.047,-0.002,-0.009,0.001,-0.007,0.004,-0.019,1.707,-1.214,2.989
2024-10-23 22:01:55.561,19639.127,0.346,0.937,0.048,-0.004,-0.007,-0.001,-0.008,0.001,-0.017,1.707,-1.214,2.989
2024-10-23 22:01:55.571,19639.137,0.346,0.937,0.048,-0.004,-0.008,-0.002,0.001,0.004,-0.018,1.707,-1.214,2.989
2024-10-23 22:01:55.581,19639.146,0.346,0.937,0.048,-0.002,-0.007,-0.003,0.001,0.01,-0.017,1.707,-1.214,2.989
2024-10-23 22:01:55.591,19639.156,0.346,0.937,0.048,-0.001,-0.004,-0.006,-0.002,0.01,-0.013,1.708,-1.214,2.989
2024-10-23 22:01:55.601,19639.166,0.346,0.937,0.048,-0.002,-0.002,-0.005,-0.008,0.01,-0.019,1.708,-1.214,2.989
2024-10-23 22:01:55.611,19639.176,0.346,0.937,0.048,-0.002,-0.001,-0.002,-0.007,0.012,-0.013,1.708,-1.214,2.99
2024-10-23 22:01:55.621,19639.186,0.345,0.937,0.048,-0.002,0.0,-0.003,0.001,0.01,-0.005,1.708,-1.215,2.99
2024-10-23 22:01:55.631,19639.196,0.345,0.937,0.048,-0.004,0.004,-0.004,-0.001,0.005,-0.004,1.709,-1.215,2.99
2024-10-23 22:01:55.641,19639.206,0.345,0.937,0.048,-0.004,0.009,-0.003,0.003,0.006,-0.002,1.709,-1.215,2.99
2024-10-23 22:01:55.651,19639.216,0.345,0.937,0.048,-0.004,0.014,-0.0,-0.006,0.004,0.002,1.709,-1.215,2.99
2024-10-23 22:01:55.661,19639.226,0.345,0.937,0.048,-0.002,0.008,0.001,-0.005,0.001,0.008,1.709,-1.215,2.99
2024-10-23 22:01:55.671,19639.236,0.345,0.937,0.048,0.0,0.004,0.004,-0.001,-0.004,0.006,1.709,-1.215,2.99
2024-10-23 22:01:55.681,19639.246,0.346,0.937,0.048,-0.0,0.002,0.005,0.0,-0.002,0.006,1.709,-1.214,2.99
2024-10-23 22:01:55.691,19639.256,0.346,0.937,0.048,-0.001,0.003,0.004,0.009,-0.002,0.011,1.709,-1.214,2.99
2024-10-23 22:01:55.701,19639.266,0.346,0.937,0.048,-0.002,0.0,0.005,0.019,-0.006,0.017,1.708,-1.214,2.989
2024-10-23 22:01:55.711,19639.276,0.346,0.937,0.048,-0.002,-0.004,0.004,0.026,-0.006,0.021,1.707,-1.214,2.989
2024-10-23 22:01:55.721,19639.286,0.346,0.937,0.047,-0.003,0.002,0.003,0.022,-0.006,0.021,1.707,-1.214,2.988
2024-10-23 22:01:55.731,19639.296,0.346,0.937,0.047,-0.003,0.008,0.001,0.01,-0.011,0.021,1.706,-1.214,2.987
2024-10-23 22:01:55.740,19639.306,0.346,0.937,0.047,-0.001,0.006,0.001,0.004,-0.011,0.022,1.705,-1.214,2.987
2024-10-23 22:01:55.751,19639.316,0.347,0.937,0.047,0.002,0.003,0.005,-0.003,-0.009,0.023,1.705,-1.213,2.987
2024-10-23 22:01:55.760,19639.326,0.347,0.937,0.047,0.001,-0.0,0.004,-0.001,-0.005,0.016,1.705,-1.213,2.987
2024-10-23 22:01:55.770,19639.336,0.347,0.937,0.047,-0.002,-0.003,0.002,0.001,-0.005,0.014,1.705,-1.213,2.987
2024-10-23 22:01:55.787,19639.346,0.347,0.937,0.047,-0.001,-0.004,-0.002,-0.005,-0.005,0.012,1.705,-1.213,2.987
2024-10-23 22:01:55.791,19639.356,0.347,0.937,0.047,-0.002,-0.009,-0.004,-0.004,-0.006,0.007,1.705,-1.213,2.987
2024-10-23 22:01:55.801,19639.366,0.347,0.937,0.047,-0.003,-0.012,-0.001,-0.004,-0.008,0.002,1.705,-1.213,2.987
2024-10-23 22:01:55.810,19639.376,0.347,0.937,0.047,-0.003,-0.015,0.001,0.002,-0.002,0.003,1.705,-1.213,2.987
2024-10-23 22:01:55.820,19639.386,0.347,0.937,0.047,-0.003,-0.013,-0.0,0.006,-0.0,-0.001,1.705,-1.213,2.987
2024-10-23 22:01:55.831,19639.396,0.347,0.937,0.047,-0.004,-0.011,-0.002,0.004,0.003,-0.006,1.705,-1.213,2.987
2024-10-23 22:01:55.840,19639.406,0.347,0.937,0.047,-0.004,-0.008,-0.005,-0.001,0.004,-0.006,1.705,-1.213,2.987
2024-10-23 22:01:55.850,19639.416,0.347,0.937,0.047,-0.004,-0.008,-0.005,-0.004,0.003,-0.009,1.705,-1.213,2.987
2024-10-23 22:01:55.860,19639.426,0.347,0.937,0.047,-0.002,-0.009,-0.005,-0.009,0.008,-0.008,1.705,-1.213,2.987
2024-10-23 22:01:55.871,19639.436,0.347,0.937,0.047,0.0,-0.004,-0.002,-0.007,0.007,-0.01,1.706,-1.213,2.987
2024-10-23 22:01:55.881,19639.446,0.347,0.937,0.047,0.001,-0.003,0.001,-0.001,0.009,-0.006,1.706,-1.213,2.987
2024-10-23 22:01:55.890,19639.456,0.347,0.937,0.047,0.0,-0.003,0.002,-0.003,0.005,-0.011,1.706,-1.213,2.988
2024-10-23 22:01:55.900,19639.466,0.347,0.937,0.047,0.001,-0.002,-0.0,-0.005,0.002,-0.009,1.706,-1.213,2.988
2024-10-23 22:01:55.910,19639.476,0.347,0.937,0.047,0.0,-0.003,0.001,-0.005,-0.001,-0.007,1.707,-1.213,2.988
2024-10-23 22:01:55.920,19639.486,0.347,0.937,0.047,0.001,-0.005,0.001,-0.007,0.002,-0.005,1.707,-1.214,2.988
2024-10-23 22:01:55.930,19639.496,0.346,0.937,0.047,0.001,-0.004,0.002,-0.003,0.003,-0.008,1.707,-1.214,2.988
2024-10-23 22:01:55.940,19639.506,0.346,0.937,0.047,-0.0,-0.002,0.003,-0.0,-0.003,-0.007,1.707,-1.214,2.988
2024-10-23 22:01:55.950,19639.516,0.346,0.937,0.047,-0.0,-0.003,0.002,0.009,0.005,-0.001,1.707,-1.214,2.988
2024-10-23 22:01:55.960,19639.526,0.346,0.937,0.047,0.001,-0.002,0.001,0.0,0.003,-0.006,1.707,-1.214,2.988
2024-10-23 22:01:55.970,19639.536,0.346,0.937,0.047,-0.001,-0.002,-0.001,0.004,0.005,-0.003,1.707,-1.214,2.988
2024-10-23 22:01:55.980,19639.546,0.346,0.937,0.047,-0.0,-0.001,0.001,-0.009,0.002,-0.005,1.707,-1.214,2.988
2024-10-23 22:01:55.990,19639.556,0.346,0.937,0.047,-0.001,-0.006,-0.0,-0.003,-0.002,-0.003,1.707,-1.214,2.988
2024-10-23 22:01:56.001,19639.566,0.346,0.937,0.047,-0.001,-0.005,-0.001,-0.003,-0.005,-0.002,1.707,-1.214,2.988
2024-10-23 22:01:56.010,19639.576,0.346,0.937,0.047,-0.001,0.0,0.002,0.006,-0.004,-0.002,1.707,-1.214,2.988
2024-10-23 22:01:56.020,19639.586,0.346,0.937,0.047,-0.003,-0.002,-0.001,0.004,-0.005,0.001,1.707,-1.214,2.988
2024-10-23 22:01:56.030,19639.596,0.346,0.937,0.047,-0.001,-0.001,-0.002,0.009,-0.003,0.001,1.707,-1.214,2.988
2024-10-23 22:01:56.040,19639.606,0.346,0.937,0.047,-0.002,0.004,-0.001,0.002,-0.0,0.004,1.706,-1.214,2.988
2024-10-23 22:01:56.050,19639.616,0.346,0.937,0.047,-0.003,0.001,0.0,-0.001,0.0,0.001,1.706,-1.214,2.988
2024-10-23 22:01:56.060,19639.626,0.346,0.937,0.047,-0.001,-0.002,-0.001,-0.002,0.001,0.001,1.706,-1.214,2.988
2024-10-23 22:01:56.070,19639.636,0.346,0.937,0.047,0.0,-0.003,0.001,-0.004,-0.001,0.001,1.707,-1.214,2.988
2024-10-23 22:01:56.080,19639.646,0.346,0.937,0.047,-0.0,-0.003,0.002,-0.004,-0.003,-0.002,1.707,-1.214,2.988
2024-10-23 22:01:56.090,19639.656,0.346,0.937,0.047,-0.002,-0.004,0.002,-0.011,0.001,-0.001,1.707,-1.214,2.988
2024-10-23 22:01:56.100,19639.666,0.346,0.937,0.048,-0.002,-0.004,-0.001,-0.011,0.003,-0.003,1.707,-1.214,2.989
2024-10-23 22:01:56.110,19639.676,0.346,0.937,0.048,-0.002,-0.005,-0.005,-0.013,-0.001,-0.007,1.708,-1.214,2.989
2024-10-23 22:01:56.120,19639.686,0.346,0.937,0.048,-0.004,-0.005,-0.008,-0.003,0.0,-0.005,1.708,-1.214,2.989
2024-10-23 22:01:56.130,19639.696,0.346,0.937,0.048,-0.002,-0.004,-0.008,-0.0,0.004,-0.005,1.708,-1.214,2.989
2024-10-23 22:01:56.140,19639.706,0.346,0.937,0.048,-0.004,-0.003,-0.005,-0.002,0.006,-0.007,1.708,-1.214,2.989
2024-10-23 22:01:56.150,19639.716,0.346,0.937,0.048,-0.001,-0.004,-0.003,-0.005,0.006,-0.005,1.708,-1.214,2.99
2024-10-23 22:01:56.160,19639.726,0.346,0.937,0.048,-0.001,-0.005,0.0,-0.003,0.007,-0.009,1.708,-1.214,2.99
2024-10-23 22:01:56.170,19639.736,0.346,0.937,0.048,0.0,-0.008,0.003,0.003,0.008,-0.012,1.708,-1.214,2.99
2024-10-23 22:01:56.180,19639.745,0.346,0.937,0.048,-0.0,-0.006,0.003,0.001,0.005,-0.013,1.708,-1.214,2.99
2024-10-23 22:01:56.190,19639.755,0.346,0.937,0.048,-0.0,-0.004,0.005,-0.001,0.005,-0.013,1.709,-1.214,2.99
2024-10-23 22:01:56.200,19639.765,0.345,0.937,0.048,-0.0,-0.005,0.006,-0.001,-0.001,-0.015,1.709,-1.215,2.99
2024-10-23 22:01:56.210,19639.775,0.345,0.937,0.048,0.002,-0.006,0.006,0.003,0.001,-0.003,1.708,-1.215,2.99
2024-10-23 22:01:56.220,19639.785,0.345,0.937,0.048,0.001,-0.003,0.004,-0.004,-0.001,-0.008,1.708,-1.215,2.99
2024-10-23 22:01:56.230,19639.795,0.345,0.937,0.048,0.001,-0.003,0.002,-0.001,-0.003,-0.006,1.709,-1.215,2.99
2024-10-23 22:01:56.240,19639.805,0.345,0.937,0.048,-0.0,0.001,0.002,0.005,-0.002,-0.004,1.708,-1.215,2.99
2024-10-23 22:01:56.250,19639.815,0.345,0.937,0.048,-0.001,0.003,-0.001,0.005,-0.001,-0.004,1.708,-1.215,2.99
2024-10-23 22:01:56.260,19639.825,0.345,0.937,0.048,-0.001,0.001,-0.002,0.011,-0.001,-0.004,1.708,-1.215,2.99
2024-10-23 22:01:56.270,19639.835,0.345,0.937,0.048,-0.002,-0.001,-0.003,0.002,0.001,-0.005,1.708,-1.215,2.989
2024-10-23 22:01:56.280,19639.845,0.345,0.937,0.048,-0.003,-0.003,-0.003,0.002,-0.002,-0.003,1.708,-1.215,2.989
2024-10-23 22:01:56.290,19639.855,0.345,0.937,0.048,-0.005,-0.002,-0.004,0.004,0.002,-0.0,1.708,-1.215,2.989
2024-10-23 22:01:56.300,19639.865,0.345,0.937,0.048,-0.005,-0.003,-0.003,0.008,0.001,-0.005,1.708,-1.215,2.989
2024-10-23 22:01:56.309,19639.875,0.345,0.937,0.048,-0.004,-0.001,-0.002,0.011,-0.0,-0.002,1.708,-1.215,2.989
2024-10-23 22:01:56.319,19639.885,0.345,0.937,0.047,-0.003,-0.001,0.001,0.007,-0.0,-0.003,1.707,-1.215,2.989
2024-10-23 22:01:56.329,19639.895,0.345,0.937,0.047,-0.004,-0.003,0.004,0.007,-0.006,-0.004,1.707,-1.215,2.988
2024-10-23 22:01:56.339,19639.905,0.345,0.937,0.047,-0.002,-0.002,0.006,0.016,-0.005,0.001,1.707,-1.215,2.988
2024-10-23 22:01:56.350,19639.915,0.345,0.937,0.047,-0.002,-0.001,0.009,0.017,-0.006,0.004,1.706,-1.215,2.988
2024-10-23 22:01:56.360,19639.925,0.345,0.937,0.047,0.0,-0.002,0.009,0.004,-0.01,0.001,1.706,-1.215,2.987
2024-10-23 22:01:56.370,19639.935,0.345,0.937,0.047,0.002,0.0,0.007,-0.001,-0.009,-0.001,1.706,-1.215,2.987
2024-10-23 22:01:56.380,19639.945,0.345,0.937,0.047,0.002,0.003,0.003,-0.003,-0.01,0.001,1.706,-1.215,2.987
2024-10-23 22:01:56.389,19639.955,0.345,0.937,0.047,0.0,0.002,0.0,-0.001,-0.005,0.003,1.706,-1.215,2.987
2024-10-23 22:01:56.400,19639.965,0.345,0.937,0.047,-0.001,-0.002,-0.004,0.004,-0.006,0.006,1.706,-1.215,2.987
2024-10-23 22:01:56.409,19639.975,0.345,0.937,0.047,-0.001,-0.002,-0.005,0.001,-0.006,-0.001,1.706,-1.215,2.987
2024-10-23 22:01:56.420,19639.985,0.345,0.937,0.047,-0.002,-0.002,-0.004,0.004,-0.004,-0.001,1.706,-1.215,2.987
2024-10-23 22:01:56.430,19639.995,0.345,0.937,0.047,-0.002,-0.003,0.001,-0.002,-0.007,-0.007,1.706,-1.215,2.987
2024-10-23 22:01:56.439,19640.005,0.345,0.937,0.047,-0.003,-0.008,0.002,-0.009,-0.006,-0.013,1.706,-1.215,2.988
2024-10-23 22:01:56.449,19640.015,0.345,0.938,0.047,-0.004,-0.013,0.003,-0.009,-0.008,-0.015,1.706,-1.215,2.988
2024-10-23 22:01:56.459,19640.025,0.345,0.938,0.047,-0.003,-0.017,0.006,-0.016,-0.005,-0.024,1.706,-1.216,2.988
2024-10-23 22:01:56.469,19640.035,0.344,0.938,0.047,-0.0,-0.017,0.005,-0.023,-0.001,-0.029,1.707,-1.216,2.989
2024-10-23 22:01:56.479,19640.045,0.344,0.938,0.047,-0.001,-0.015,0.004,-0.036,0.006,-0.039,1.708,-1.216,2.99
2024-10-23 22:01:56.489,19640.055,0.344,0.938,0.048,-0.003,-0.014,-0.002,-0.005,0.028,-0.037,1.709,-1.216,2.991
2024-10-23 22:01:56.499,19640.065,0.343,0.938,0.048,-0.003,-0.016,-0.011,0.008,0.031,-0.035,1.709,-1.217,2.991
2024-10-23 22:01:56.510,19640.075,0.343,0.938,0.048,-0.004,-0.016,-0.017,0.001,0.015,-0.033,1.709,-1.217,2.991
2024-10-23 22:01:56.519,19640.085,0.343,0.938,0.048,-0.002,-0.012,-0.019,-0.014,-0.001,-0.033,1.71,-1.217,2.991
2024-10-23 22:01:56.529,19640.095,0.342,0.938,0.048,0.007,-0.011,-0.009,0.0,0.001,-0.039,1.71,-1.218,2.992
2024-10-23 22:01:56.539,19640.105,0.342,0.938,0.048,0.008,0.006,0.008,0.003,-0.004,-0.033,1.71,-1.218,2.992
2024-10-23 22:01:56.549,19640.115,0.342,0.939,0.048,0.001,0.011,0.012,0.013,-0.017,-0.022,1.71,-1.218,2.992
2024-10-23 22:01:56.559,19640.125,0.342,0.939,0.048,0.003,0.006,0.007,0.021,-0.02,-0.016,1.709,-1.219,2.991
2024-10-23 22:01:56.569,19640.135,0.342,0.939,0.047,0.009,0.0,0.006,0.033,-0.013,-0.008,1.709,-1.219,2.991
2024-10-23 22:01:56.579,19640.145,0.342,0.939,0.047,0.008,0.01,0.006,0.013,-0.012,-0.006,1.708,-1.219,2.99
2024-10-23 22:01:56.589,19640.155,0.342,0.939,0.047,0.001,0.018,0.005,-0.005,-0.006,-0.007,1.707,-1.219,2.99
2024-10-23 22:01:56.599,19640.165,0.341,0.939,0.047,-0.002,0.011,0.001,-0.017,-0.009,-0.001,1.708,-1.219,2.99
2024-10-23 22:01:56.609,19640.175,0.342,0.939,0.047,-0.001,0.007,-0.004,-0.019,-0.007,0.006,1.708,-1.219,2.99
2024-10-23 22:01:56.619,19640.185,0.342,0.939,0.047,-0.002,0.007,-0.011,-0.012,-0.008,0.006,1.708,-1.219,2.991
2024-10-23 22:01:56.629,19640.195,0.342,0.939,0.047,-0.002,0.01,-0.016,0.01,-0.011,0.008,1.708,-1.219,2.991
2024-10-23 22:01:56.640,19640.205,0.342,0.939,0.047,-0.004,0.01,-0.011,0.04,-0.007,0.017,1.708,-1.219,2.99
2024-10-23 22:01:56.649,19640.215,0.342,0.939,0.047,-0.007,0.006,-0.004,0.051,-0.004,0.022,1.706,-1.218,2.989
2024-10-23 22:01:56.659,19640.225,0.342,0.938,0.046,-0.008,0.002,0.001,0.054,-0.006,0.028,1.705,-1.218,2.987
2024-10-23 22:01:56.669,19640.235,0.343,0.938,0.046,-0.007,0.005,0.005,0.051,-0.025,0.036,1.703,-1.218,2.986
2024-10-23 22:01:56.679,19640.245,0.343,0.938,0.045,-0.007,0.007,0.006,0.041,-0.058,0.025,1.701,-1.218,2.984
2024-10-23 22:01:56.689,19640.255,0.343,0.938,0.044,0.002,0.009,0.003,0.032,-0.029,0.022,1.7,-1.218,2.983
2024-10-23 22:01:56.699,19640.265,0.343,0.938,0.044,0.014,0.012,0.019,0.069,-0.011,0.033,1.698,-1.217,2.982
2024-10-23 22:01:56.709,19640.275,0.344,0.938,0.043,-0.001,0.011,0.032,0.083,0.003,0.032,1.696,-1.217,2.979
2024-10-23 22:01:56.719,19640.285,0.344,0.938,0.042,-0.017,0.006,-0.004,0.06,-0.021,0.026,1.694,-1.217,2.977
2024-10-23 22:01:56.729,19640.295,0.344,0.938,0.042,-0.006,-0.002,-0.017,0.037,-0.019,0.028,1.692,-1.217,2.976
2024-10-23 22:01:56.739,19640.305,0.344,0.938,0.042,0.007,-0.01,-0.01,0.025,-0.006,0.023,1.691,-1.217,2.975
