Date,TimeStamp,GravityX,GravityY,GravityZ,UserAccelerationX,UserAccelerationY,UserAccelerationZ,RotationRateX,RotationRateY,RotationRateZ,AttitudeRoll,AttitudePitch,AttitudeYaw
2024-10-23 22:26:08.902,21092.422,0.583,-0.035,-0.812,0.05,-0.028,0.006,-0.104,-0.056,0.093,0.622,0.035,1.352
2024-10-23 22:26:08.915,21092.432,0.583,-0.035,-0.812,0.0,-0.026,-0.008,-0.013,0.062,0.087,0.622,0.035,1.353
2024-10-23 22:26:08.919,21092.442,0.583,-0.035,-0.812,-0.048,0.031,-0.017,-0.009,0.057,0.089,0.623,0.035,1.354
2024-10-23 22:26:08.921,21092.452,0.584,-0.036,-0.811,-0.042,0.038,-0.007,-0.059,0.007,0.074,0.624,0.036,1.355
2024-10-23 22:26:08.926,21092.462,0.584,-0.036,-0.811,-0.008,-0.012,0.001,-0.072,-0.005,0.068,0.624,0.036,1.356
2024-10-23 22:26:08.935,21092.472,0.584,-0.035,-0.811,0.003,-0.005,0.006,-0.06,0.013,0.079,0.624,0.035,1.357
2024-10-23 22:26:08.945,21092.482,0.584,-0.035,-0.811,-0.014,0.008,-0.002,-0.036,0.033,0.077,0.624,0.035,1.357
2024-10-23 22:26:08.956,21092.492,0.584,-0.036,-0.811,-0.021,0.011,-0.007,-0.033,0.044,0.078,0.624,0.036,1.358
2024-10-23 22:26:08.965,21092.502,0.584,-0.036,-0.811,-0.017,0.008,-0.003,-0.048,0.044,0.084,0.624,0.036,1.359
2024-10-23 22:26:08.976,21092.512,0.585,-0.036,-0.811,-0.013,-0.002,-0.0,-0.058,0.042,0.084,0.625,0.036,1.36
2024-10-23 22:26:08.986,21092.522,0.585,-0.036,-0.81,-0.009,-0.001,0.009,-0.062,0.035,0.08,0.625,0.036,1.361
2024-10-23 22:26:08.995,21092.532,0.585,-0.036,-0.81,-0.005,0.005,0.014,-0.06,0.024,0.078,0.625,0.036,1.362
2024-10-23 22:26:09.007,21092.542,0.585,-0.036,-0.81,-0.006,0.007,0.013,-0.062,0.017,0.074,0.625,0.036,1.363
2024-10-23 22:26:09.016,21092.552,0.585,-0.036,-0.81,-0.004,0.008,0.013,-0.065,0.008,0.074,0.625,0.036,1.364
2024-10-23 22:26:09.025,21092.562,0.585,-0.035,-0.81,-0.004,0.008,0.012,-0.079,0.008,0.082,0.625,0.035,1.365
2024-10-23 22:26:09.037,21092.572,0.585,-0.035,-0.81,-0.006,0.0,0.007,-0.09,0.006,0.08,0.625,0.035,1.366
2024-10-23 22:26:09.045,21092.582,0.585,-0.035,-0.811,-0.007,-0.001,0.007,-0.105,0.002,0.079,0.625,0.035,1.368
2024-10-23 22:26:09.056,21092.592,0.585,-0.034,-0.811,-0.007,0.001,0.007,-0.122,0.008,0.084,0.625,0.034,1.369
2024-10-23 22:26:09.065,21092.602,0.585,-0.034,-0.811,-0.009,0.001,0.011,-0.134,0.006,0.085,0.625,0.034,1.37
2024-10-23 22:26:09.075,21092.612,0.585,-0.033,-0.811,-0.014,-0.003,0.013,-0.156,-0.001,0.084,0.625,0.033,1.372
2024-10-23 22:26:09.087,21092.622,0.585,-0.032,-0.811,-0.013,-0.007,0.016,-0.164,-0.009,0.08,0.625,0.032,1.373
2024-10-23 22:26:09.095,21092.632,0.585,-0.031,-0.811,-0.009,-0.01,0.016,-0.18,-0.012,0.082,0.625,0.031,1.375
2024-10-23 22:26:09.106,21092.642,0.584,-0.03,-0.811,-0.008,-0.008,0.017,-0.205,-0.016,0.082,0.624,0.03,1.377
2024-10-23 22:26:09.115,21092.652,0.584,-0.029,-0.811,-0.009,-0.009,0.016,-0.238,-0.011,0.082,0.624,0.029,1.379
2024-10-23 22:26:09.125,21092.662,0.584,-0.027,-0.811,-0.009,-0.01,0.017,-0.286,0.005,0.086,0.624,0.027,1.381
2024-10-23 22:26:09.137,21092.672,0.584,-0.025,-0.811,-0.011,-0.008,0.018,-0.339,0.009,0.087,0.624,0.025,1.384
2024-10-23 22:26:09.145,21092.682,0.584,-0.023,-0.811,-0.012,-0.007,0.019,-0.402,0.021,0.09,0.624,0.023,1.386
2024-10-23 22:26:09.156,21092.692,0.585,-0.02,-0.811,-0.009,-0.014,0.019,-0.471,0.038,0.097,0.624,0.02,1.39
2024-10-23 22:26:09.165,21092.702,0.585,-0.016,-0.811,-0.015,-0.023,0.016,-0.56,0.054,0.104,0.625,0.016,1.394
2024-10-23 22:26:09.175,21092.712,0.585,-0.012,-0.811,-0.018,-0.026,0.013,-0.69,0.072,0.108,0.625,0.012,1.398
2024-10-23 22:26:09.186,21092.722,0.586,-0.007,-0.81,-0.018,-0.027,0.01,-0.866,0.089,0.112,0.626,0.007,1.403
2024-10-23 22:26:09.195,21092.732,0.587,0.001,-0.81,-0.022,-0.028,0.001,-1.089,0.115,0.125,0.627,-0.001,1.41
2024-10-23 22:26:09.206,21092.742,0.588,0.01,-0.809,-0.029,-0.042,-0.003,-1.325,0.121,0.134,0.628,-0.01,1.418
2024-10-23 22:26:09.216,21092.752,0.589,0.021,-0.808,-0.028,-0.047,0.005,-1.58,0.125,0.139,0.63,-0.021,1.428
2024-10-23 22:26:09.226,21092.762,0.59,0.034,-0.807,-0.018,-0.056,0.01,-1.848,0.106,0.153,0.631,-0.034,1.439
2024-10-23 22:26:09.237,21092.772,0.591,0.048,-0.805,-0.012,-0.085,0.026,-2.048,0.077,0.137,0.633,-0.048,1.452
2024-10-23 22:26:09.245,21092.782,0.591,0.065,-0.804,-0.007,-0.11,0.029,-2.176,0.079,0.119,0.634,-0.065,1.465
2024-10-23 22:26:09.256,21092.792,0.592,0.082,-0.802,-0.002,-0.104,0.039,-2.329,0.112,0.143,0.636,-0.082,1.48
2024-10-23 22:26:09.265,21092.802,0.593,0.1,-0.799,0.004,-0.101,0.066,-2.517,0.098,0.145,0.639,-0.101,1.496
2024-10-23 22:26:09.275,21092.812,0.594,0.12,-0.796,0.006,-0.119,0.093,-2.621,0.034,0.105,0.641,-0.12,1.512
2024-10-23 22:26:09.285,21092.822,0.594,0.14,-0.792,0.017,-0.142,0.101,-2.674,0.028,0.079,0.644,-0.141,1.529
2024-10-23 22:26:09.295,21092.832,0.595,0.162,-0.787,0.039,-0.16,0.105,-2.888,0.088,0.072,0.647,-0.163,1.547
2024-10-23 22:26:09.305,21092.842,0.596,0.185,-0.782,0.023,-0.176,0.117,-3.208,0.109,0.051,0.651,-0.186,1.566
2024-10-23 22:26:09.315,21092.852,0.596,0.211,-0.774,0.009,-0.196,0.124,-3.508,0.07,0.011,0.656,-0.213,1.587
2024-10-23 22:26:09.325,21092.862,0.597,0.239,-0.766,0.036,-0.218,0.128,-3.777,0.056,-0.013,0.662,-0.242,1.61
2024-10-23 22:26:09.335,21092.872,0.597,0.269,-0.756,0.054,-0.228,0.135,-3.994,0.083,-0.026,0.669,-0.272,1.634
2024-10-23 22:26:09.345,21092.882,0.598,0.3,-0.743,0.033,-0.226,0.141,-4.193,0.16,-0.055,0.678,-0.305,1.66
2024-10-23 22:26:09.355,21092.892,0.599,0.332,-0.728,0.008,-0.2,0.15,-4.332,0.259,-0.122,0.688,-0.338,1.688
2024-10-23 22:26:09.365,21092.902,0.601,0.364,-0.711,-0.008,-0.139,0.164,-4.428,0.346,-0.156,0.702,-0.373,1.717
2024-10-23 22:26:09.375,21092.912,0.603,0.397,-0.692,-0.024,-0.111,0.166,-4.588,0.382,-0.211,0.717,-0.408,1.747
2024-10-23 22:26:09.385,21092.922,0.604,0.43,-0.671,-0.032,-0.116,0.17,-4.782,0.353,-0.287,0.734,-0.445,1.778
2024-10-23 22:26:09.395,21092.932,0.605,0.464,-0.647,-0.03,-0.123,0.168,-4.858,0.275,-0.37,0.752,-0.482,1.812
2024-10-23 22:26:09.405,21092.942,0.605,0.497,-0.622,-0.024,-0.127,0.163,-4.879,0.253,-0.448,0.771,-0.52,1.847
2024-10-23 22:26:09.423,21092.951,0.604,0.53,-0.596,-0.029,-0.118,0.173,-4.841,0.228,-0.534,0.792,-0.558,1.882
2024-10-23 22:26:09.429,21092.961,0.602,0.561,-0.568,-0.035,-0.094,0.181,-4.806,0.162,-0.618,0.814,-0.596,1.919
2024-10-23 22:26:09.435,21092.971,0.599,0.592,-0.54,-0.032,-0.081,0.163,-4.787,0.075,-0.7,0.837,-0.633,1.956
2024-10-23 22:26:09.445,21092.981,0.594,0.621,-0.511,-0.034,-0.086,0.149,-4.757,-0.057,-0.8,0.86,-0.67,1.994
2024-10-23 22:26:09.455,21092.991,0.588,0.65,-0.482,-0.027,-0.108,0.143,-4.634,-0.148,-0.891,0.884,-0.707,2.033
2024-10-23 22:26:09.465,21093.001,0.581,0.676,-0.453,-0.011,-0.108,0.128,-4.397,-0.254,-0.986,0.908,-0.742,2.072
2024-10-23 22:26:09.475,21093.011,0.573,0.701,-0.425,0.002,-0.066,0.108,-4.138,-0.261,-0.996,0.932,-0.776,2.11
2024-10-23 22:26:09.485,21093.021,0.565,0.723,-0.398,-0.014,-0.026,0.062,-3.985,-0.226,-1.041,0.957,-0.808,2.148
2024-10-23 22:26:09.495,21093.031,0.556,0.744,-0.37,-0.054,-0.002,0.028,-3.837,-0.224,-1.094,0.983,-0.839,2.187
2024-10-23 22:26:09.505,21093.041,0.547,0.764,-0.343,-0.076,0.001,0.003,-3.71,-0.197,-1.138,1.01,-0.869,2.226
2024-10-23 22:26:09.515,21093.051,0.537,0.782,-0.316,-0.056,0.009,0.008,-3.525,-0.17,-1.163,1.039,-0.897,2.265
2024-10-23 22:26:09.525,21093.061,0.528,0.798,-0.29,-0.043,0.034,0.029,-3.319,-0.134,-1.174,1.068,-0.925,2.304
2024-10-23 22:26:09.535,21093.071,0.518,0.813,-0.265,-0.055,0.048,0.038,-3.136,-0.088,-1.149,1.098,-0.95,2.343
2024-10-23 22:26:09.545,21093.081,0.509,0.827,-0.24,-0.071,0.041,0.049,-3.022,-0.074,-1.118,1.13,-0.974,2.382
2024-10-23 22:26:09.555,21093.091,0.499,0.839,-0.215,-0.082,0.024,0.052,-2.983,-0.068,-1.109,1.163,-0.996,2.423
2024-10-23 22:26:09.565,21093.101,0.49,0.851,-0.191,-0.083,0.006,0.04,-2.975,-0.06,-1.125,1.2,-1.018,2.467
2024-10-23 22:26:09.575,21093.111,0.48,0.862,-0.166,-0.075,0.005,0.019,-2.847,-0.061,-1.22,1.238,-1.039,2.512
2024-10-23 22:26:09.585,21093.121,0.469,0.872,-0.143,-0.056,0.023,-0.014,-2.564,-0.048,-1.19,1.275,-1.058,2.556
2024-10-23 22:26:09.596,21093.131,0.459,0.88,-0.122,-0.037,0.049,-0.035,-2.276,-0.003,-1.145,1.311,-1.076,2.597
2024-10-23 22:26:09.605,21093.141,0.449,0.888,-0.102,-0.015,0.082,-0.049,-2.097,0.032,-1.131,1.347,-1.093,2.637
2024-10-23 22:26:09.615,21093.151,0.439,0.895,-0.084,-0.013,0.118,-0.066,-1.969,0.11,-1.092,1.382,-1.107,2.676
2024-10-23 22:26:09.625,21093.161,0.43,0.901,-0.065,0.004,0.118,-0.066,-2.154,0.011,-0.962,1.42,-1.121,2.717
2024-10-23 22:26:09.635,21093.171,0.421,0.906,-0.046,0.025,0.119,-0.084,-2.181,-0.05,-0.989,1.463,-1.134,2.765
2024-10-23 22:26:09.645,21093.181,0.413,0.91,-0.027,0.009,0.147,-0.069,-2.064,-0.043,-0.81,1.506,-1.144,2.813
2024-10-23 22:26:09.655,21093.191,0.406,0.914,-0.008,-0.013,0.044,-0.047,-2.064,-0.076,-0.733,1.551,-1.153,2.863
2024-10-23 22:26:09.665,21093.201,0.399,0.917,0.01,0.05,0.07,-0.005,-1.865,-0.076,-0.723,1.595,-1.16,2.912
2024-10-23 22:26:09.674,21093.211,0.393,0.919,0.025,0.043,0.189,0.014,-1.56,-0.038,-0.677,1.634,-1.166,2.956
2024-10-23 22:26:09.685,21093.221,0.387,0.921,0.038,0.004,0.225,-0.016,-1.283,-0.052,-0.63,1.668,-1.172,2.993
2024-10-23 22:26:09.694,21093.231,0.381,0.923,0.048,0.021,0.247,-0.035,-1.077,-0.083,-0.533,1.697,-1.176,3.025
2024-10-23 22:26:09.705,21093.241,0.377,0.925,0.058,0.043,0.253,-0.04,-0.993,-0.125,-0.447,1.722,-1.18,3.054
2024-10-23 22:26:09.715,21093.251,0.373,0.925,0.066,0.043,0.225,-0.034,-0.905,-0.197,-0.394,1.745,-1.182,3.08
2024-10-23 22:26:09.725,21093.261,0.37,0.926,0.073,0.028,0.187,-0.007,-0.751,-0.235,-0.367,1.765,-1.185,3.103
2024-10-23 22:26:09.735,21093.271,0.367,0.927,0.078,0.009,0.163,0.013,-0.542,-0.32,-0.364,1.78,-1.187,3.122
2024-10-23 22:26:09.745,21093.281,0.363,0.928,0.08,0.01,0.185,0.02,-0.326,-0.371,-0.352,1.789,-1.189,3.136
2024-10-23 22:26:09.755,21093.291,0.361,0.929,0.081,0.008,0.216,0.022,-0.093,-0.378,-0.269,1.792,-1.192,-3.14
2024-10-23 22:26:09.765,21093.301,0.359,0.93,0.08,0.008,0.201,0.015,0.081,-0.349,-0.201,1.789,-1.194,-3.139
2024-10-23 22:26:09.775,21093.311,0.358,0.931,0.077,0.025,0.141,-0.009,0.266,-0.314,-0.119,1.783,-1.196,3.141
2024-10-23 22:26:09.785,21093.321,0.357,0.931,0.073,0.026,0.089,-0.0,0.407,-0.299,-0.059,1.772,-1.198,3.132
2024-10-23 22:26:09.795,21093.331,0.357,0.932,0.067,0.01,0.056,0.016,0.493,-0.271,-0.001,1.758,-1.199,3.12
2024-10-23 22:26:09.804,21093.341,0.357,0.932,0.062,0.001,0.052,0.029,0.589,-0.216,0.024,1.741,-1.2,3.106
2024-10-23 22:26:09.814,21093.351,0.358,0.932,0.055,-0.014,0.047,0.046,0.609,-0.19,-0.007,1.724,-1.201,3.089
2024-10-23 22:26:09.825,21093.361,0.357,0.933,0.049,-0.036,0.042,0.066,0.635,-0.169,-0.038,1.707,-1.202,3.072
2024-10-23 22:26:09.834,21093.371,0.357,0.933,0.042,-0.046,0.035,0.084,0.642,-0.177,-0.029,1.689,-1.203,3.055
2024-10-23 22:26:09.844,21093.381,0.357,0.933,0.035,-0.038,-0.003,0.077,0.693,-0.213,-0.078,1.67,-1.204,3.037
2024-10-23 22:26:09.855,21093.391,0.356,0.934,0.027,-0.034,-0.043,0.056,0.945,-0.22,-0.103,1.647,-1.206,3.014
2024-10-23 22:26:09.864,21093.401,0.355,0.935,0.017,-0.034,-0.068,0.011,1.066,-0.145,-0.163,1.618,-1.208,2.986
2024-10-23 22:26:09.874,21093.411,0.353,0.935,0.007,-0.041,-0.041,-0.031,1.04,-0.06,-0.157,1.59,-1.21,2.956
2024-10-23 22:26:09.885,21093.421,0.352,0.936,-0.003,-0.064,-0.025,-0.037,1.017,0.015,-0.076,1.562,-1.211,2.927
2024-10-23 22:26:09.894,21093.431,0.351,0.936,-0.012,-0.084,-0.091,-0.062,0.82,0.074,-0.112,1.538,-1.212,2.901
2024-10-23 22:26:09.904,21093.441,0.35,0.936,-0.019,-0.088,-0.09,-0.113,0.759,0.063,-0.094,1.518,-1.212,2.879
2024-10-23 22:26:09.915,21093.451,0.35,0.936,-0.025,-0.051,-0.054,-0.116,0.693,0.095,-0.021,1.499,-1.212,2.858
2024-10-23 22:26:09.925,21093.461,0.35,0.936,-0.031,-0.007,-0.092,-0.116,0.729,0.052,0.002,1.481,-1.212,2.838
2024-10-23 22:26:09.934,21093.471,0.35,0.936,-0.038,-0.003,-0.112,-0.098,0.814,0.062,0.007,1.461,-1.211,2.816
2024-10-23 22:26:09.944,21093.481,0.35,0.936,-0.046,0.007,-0.081,-0.06,0.953,0.12,-0.019,1.439,-1.21,2.791
2024-10-23 22:26:09.954,21093.491,0.35,0.935,-0.055,0.009,0.04,-0.029,1.089,0.167,-0.045,1.414,-1.209,2.763
2024-10-23 22:26:09.964,21093.501,0.349,0.935,-0.065,-0.002,0.144,-0.01,1.078,0.218,-0.059,1.387,-1.208,2.732
2024-10-23 22:26:09.974,21093.511,0.349,0.934,-0.073,-0.002,0.145,-0.006,0.744,0.258,-0.069,1.365,-1.206,2.706
2024-10-23 22:26:09.985,21093.521,0.348,0.934,-0.077,0.001,0.083,-0.007,0.3,0.239,-0.158,1.353,-1.206,2.691
2024-10-23 22:26:09.994,21093.531,0.346,0.935,-0.077,-0.007,0.011,-0.002,-0.084,0.194,-0.216,1.352,-1.208,2.687
2024-10-23 22:26:10.004,21093.541,0.345,0.936,-0.075,-0.011,-0.051,-0.003,-0.272,0.123,-0.218,1.357,-1.211,2.691
2024-10-23 22:26:10.014,21093.55,0.343,0.937,-0.072,0.006,-0.043,-0.003,-0.278,0.119,-0.229,1.365,-1.213,2.698
2024-10-23 22:26:10.024,21093.56,0.341,0.938,-0.069,0.008,0.013,-0.005,-0.211,0.134,-0.202,1.371,-1.216,2.703
2024-10-23 22:26:10.034,21093.57,0.339,0.938,-0.067,-0.004,0.065,-0.006,-0.15,0.12,-0.127,1.376,-1.218,2.707
2024-10-23 22:26:10.044,21093.58,0.338,0.939,-0.065,-0.001,0.074,-0.013,-0.136,0.028,-0.099,1.38,-1.219,2.711
2024-10-23 22:26:10.054,21093.59,0.337,0.939,-0.064,0.01,0.023,-0.012,-0.113,-0.021,-0.063,1.383,-1.22,2.714
2024-10-23 22:26:10.064,21093.6,0.337,0.939,-0.064,-0.005,-0.009,0.003,0.002,-0.053,-0.048,1.384,-1.221,2.715
2024-10-23 22:26:10.074,21093.61,0.336,0.939,-0.065,-0.03,0.042,0.013,0.144,-0.108,-0.032,1.381,-1.221,2.713
2024-10-23 22:26:10.084,21093.62,0.336,0.939,-0.067,-0.034,0.103,0.019,0.262,-0.133,-0.025,1.374,-1.221,2.707
2024-10-23 22:26:10.094,21093.63,0.336,0.939,-0.07,-0.041,0.122,0.028,0.299,-0.167,-0.032,1.365,-1.221,2.699
2024-10-23 22:26:10.104,21093.64,0.335,0.939,-0.074,-0.062,0.109,0.033,0.339,-0.217,-0.054,1.354,-1.221,2.689
2024-10-23 22:26:10.115,21093.65,0.334,0.939,-0.078,-0.07,0.065,0.031,0.412,-0.276,-0.057,1.341,-1.22,2.678
2024-10-23 22:26:10.124,21093.66,0.334,0.939,-0.083,-0.058,0.02,0.016,0.425,-0.344,-0.064,1.327,-1.22,2.666
2024-10-23 22:26:10.134,21093.67,0.333,0.939,-0.088,-0.037,0.033,0.001,0.399,-0.407,-0.09,1.311,-1.22,2.654
2024-10-23 22:26:10.144,21093.68,0.331,0.939,-0.093,-0.026,0.056,0.007,0.309,-0.453,-0.117,1.297,-1.22,2.643
2024-10-23 22:26:10.154,21093.69,0.33,0.939,-0.097,-0.02,0.04,0.012,0.179,-0.457,-0.14,1.285,-1.22,2.635
2024-10-23 22:26:10.164,21093.7,0.327,0.94,-0.1,-0.013,0.017,0.021,0.142,-0.546,-0.207,1.275,-1.221,2.629
2024-10-23 22:26:10.174,21093.71,0.325,0.94,-0.103,-0.004,0.003,0.04,0.155,-0.551,-0.291,1.263,-1.223,2.623
2024-10-23 22:26:10.184,21093.72,0.321,0.941,-0.106,0.002,0.002,0.065,0.168,-0.524,-0.282,1.251,-1.226,2.616
2024-10-23 22:26:10.194,21093.73,0.318,0.942,-0.11,0.005,-0.027,0.098,0.207,-0.512,-0.242,1.239,-1.227,2.608
2024-10-23 22:26:10.204,21093.74,0.316,0.942,-0.113,0.016,-0.093,0.114,0.228,-0.486,-0.204,1.226,-1.229,2.6
2024-10-23 22:26:10.214,21093.75,0.313,0.942,-0.117,0.034,-0.088,0.109,0.288,-0.459,-0.214,1.212,-1.23,2.59
2024-10-23 22:26:10.224,21093.76,0.31,0.943,-0.122,0.044,-0.018,0.102,0.331,-0.442,-0.246,1.197,-1.231,2.579
2024-10-23 22:26:10.234,21093.77,0.308,0.943,-0.126,0.034,0.015,0.09,0.33,-0.403,-0.228,1.182,-1.232,2.567
2024-10-23 22:26:10.244,21093.78,0.305,0.943,-0.13,0.023,0.003,0.076,0.335,-0.363,-0.193,1.167,-1.233,2.556
2024-10-23 22:26:10.254,21093.79,0.303,0.943,-0.134,0.035,-0.024,0.064,0.273,-0.363,-0.168,1.153,-1.233,2.545
2024-10-23 22:26:10.264,21093.8,0.301,0.944,-0.138,0.059,-0.032,0.063,0.16,-0.376,-0.164,1.142,-1.234,2.537
2024-10-23 22:26:10.274,21093.81,0.299,0.944,-0.14,0.06,-0.042,0.078,0.05,-0.376,-0.159,1.134,-1.235,2.532
2024-10-23 22:26:10.284,21093.82,0.297,0.944,-0.141,0.031,-0.074,0.073,-0.024,-0.371,-0.166,1.128,-1.236,2.53
2024-10-23 22:26:10.294,21093.83,0.295,0.945,-0.142,0.011,-0.076,0.048,-0.047,-0.343,-0.157,1.123,-1.238,2.528
2024-10-23 22:26:10.304,21093.84,0.293,0.946,-0.142,0.014,-0.045,0.016,-0.073,-0.318,-0.144,1.119,-1.239,2.528
2024-10-23 22:26:10.314,21093.85,0.291,0.946,-0.142,0.012,-0.015,-0.027,-0.069,-0.289,-0.149,1.116,-1.241,2.528
2024-10-23 22:26:10.324,21093.86,0.289,0.947,-0.142,-0.001,-0.005,-0.057,-0.064,-0.248,-0.133,1.114,-1.242,2.528
2024-10-23 22:26:10.334,21093.87,0.288,0.947,-0.143,-0.009,0.005,-0.079,-0.029,-0.204,-0.113,1.111,-1.244,2.528
2024-10-23 22:26:10.344,21093.88,0.287,0.947,-0.143,-0.005,0.026,-0.093,-0.041,-0.155,-0.075,1.109,-1.245,2.527
2024-10-23 22:26:10.354,21093.89,0.286,0.948,-0.142,-0.006,0.037,-0.101,-0.086,-0.105,-0.053,1.108,-1.246,2.528
2024-10-23 22:26:10.364,21093.9,0.285,0.948,-0.142,-0.014,0.037,-0.101,-0.094,-0.069,-0.016,1.11,-1.246,2.53
2024-10-23 22:26:10.374,21093.91,0.285,0.948,-0.141,-0.018,0.031,-0.103,-0.118,-0.05,0.007,1.112,-1.247,2.533
2024-10-23 22:26:10.383,21093.92,0.285,0.948,-0.14,-0.012,0.028,-0.091,-0.091,-0.043,0.034,1.114,-1.247,2.536
2024-10-23 22:26:10.394,21093.93,0.286,0.948,-0.14,-0.01,0.036,-0.074,-0.064,-0.041,0.065,1.117,-1.247,2.539
2024-10-23 22:26:10.403,21093.94,0.287,0.948,-0.139,-0.013,0.041,-0.065,-0.011,-0.009,0.105,1.119,-1.246,2.542
2024-10-23 22:26:10.413,21093.95,0.288,0.947,-0.14,-0.019,0.049,-0.055,0.072,-0.005,0.134,1.119,-1.245,2.542
2024-10-23 22:26:10.424,21093.96,0.289,0.947,-0.141,-0.018,0.046,-0.043,0.136,0.028,0.13,1.118,-1.244,2.541
2024-10-23 22:26:10.433,21093.97,0.29,0.946,-0.142,-0.013,0.051,-0.033,0.184,0.048,0.154,1.115,-1.242,2.538
2024-10-23 22:26:10.443,21093.98,0.292,0.946,-0.144,-0.015,0.063,-0.011,0.151,0.06,0.164,1.113,-1.239,2.534
2024-10-23 22:26:10.453,21093.99,0.293,0.945,-0.145,-0.019,0.059,0.008,0.1,0.076,0.162,1.111,-1.237,2.532
2024-10-23 22:26:10.463,21094.0,0.295,0.944,-0.146,-0.021,0.042,0.024,0.046,0.048,0.165,1.112,-1.236,2.532
2024-10-23 22:26:10.473,21094.01,0.296,0.944,-0.146,-0.015,0.022,0.031,0.015,0.042,0.161,1.113,-1.234,2.533
2024-10-23 22:26:10.483,21094.02,0.298,0.943,-0.146,-0.005,0.011,0.035,-0.017,0.042,0.155,1.115,-1.233,2.535
2024-10-23 22:26:10.494,21094.03,0.299,0.943,-0.146,-0.002,0.007,0.035,-0.035,0.041,0.136,1.117,-1.231,2.537
2024-10-23 22:26:10.503,21094.04,0.3,0.943,-0.145,-0.002,0.003,0.036,-0.089,0.022,0.13,1.121,-1.231,2.54
2024-10-23 22:26:10.513,21094.05,0.302,0.942,-0.144,-0.003,-0.003,0.034,-0.125,0.02,0.126,1.125,-1.23,2.545
2024-10-23 22:26:10.523,21094.06,0.303,0.942,-0.143,-0.006,-0.019,0.034,-0.168,0.005,0.14,1.13,-1.229,2.55
2024-10-23 22:26:10.534,21094.07,0.304,0.942,-0.141,-0.001,-0.038,0.033,-0.187,-0.018,0.122,1.136,-1.229,2.557
2024-10-23 22:26:10.543,21094.08,0.305,0.942,-0.139,0.005,-0.042,0.032,-0.185,-0.025,0.117,1.142,-1.229,2.563
2024-10-23 22:26:10.554,21094.09,0.306,0.942,-0.138,0.001,-0.041,0.032,-0.142,-0.045,0.114,1.148,-1.229,2.569
2024-10-23 22:26:10.563,21094.1,0.307,0.942,-0.137,0.004,-0.033,0.029,-0.103,-0.066,0.097,1.152,-1.228,2.574
2024-10-23 22:26:10.573,21094.11,0.307,0.942,-0.136,0.013,-0.026,0.028,-0.072,-0.084,0.091,1.154,-1.228,2.578
2024-10-23 22:26:10.583,21094.12,0.308,0.942,-0.136,0.021,-0.02,0.032,-0.049,-0.098,0.069,1.156,-1.228,2.58
2024-10-23 22:26:10.593,21094.13,0.308,0.942,-0.135,0.021,-0.026,0.035,-0.05,-0.103,0.056,1.157,-1.227,2.583
2024-10-23 22:26:10.603,21094.14,0.309,0.941,-0.135,0.019,-0.024,0.033,-0.045,-0.104,0.047,1.158,-1.227,2.585
2024-10-23 22:26:10.613,21094.149,0.309,0.941,-0.135,0.018,-0.013,0.026,-0.04,-0.102,0.031,1.159,-1.227,2.587
2024-10-23 22:26:10.624,21094.159,0.309,0.941,-0.135,0.013,-0.004,0.013,-0.032,-0.099,0.022,1.16,-1.227,2.589
2024-10-23 22:26:10.633,21094.169,0.309,0.941,-0.134,0.005,0.002,0.001,-0.03,-0.093,0.016,1.161,-1.227,2.59
2024-10-23 22:26:10.643,21094.179,0.309,0.941,-0.134,-0.002,0.003,-0.007,-0.054,-0.089,0.006,1.161,-1.227,2.592
2024-10-23 22:26:10.653,21094.189,0.31,0.941,-0.134,-0.007,0.006,-0.006,-0.102,-0.087,-0.001,1.163,-1.227,2.595
2024-10-23 22:26:10.663,21094.199,0.31,0.942,-0.132,-0.012,0.012,-0.002,-0.169,-0.088,-0.008,1.166,-1.227,2.599
2024-10-23 22:26:10.673,21094.209,0.31,0.942,-0.13,-0.019,0.006,0.001,-0.275,-0.106,-0.017,1.172,-1.228,2.606
2024-10-23 22:26:10.683,21094.219,0.309,0.942,-0.128,-0.019,-0.01,0.003,-0.331,-0.097,-0.037,1.179,-1.23,2.614
2024-10-23 22:26:10.693,21094.229,0.309,0.943,-0.125,-0.021,-0.026,-0.007,-0.336,-0.082,-0.019,1.187,-1.231,2.624
2024-10-23 22:26:10.703,21094.239,0.309,0.943,-0.122,-0.018,-0.026,-0.02,-0.342,-0.068,-0.01,1.195,-1.232,2.633
2024-10-23 22:26:10.713,21094.249,0.309,0.944,-0.119,-0.01,-0.002,-0.022,-0.358,-0.04,0.013,1.204,-1.233,2.643
2024-10-23 22:26:10.723,21094.259,0.309,0.944,-0.116,-0.015,0.008,-0.013,-0.399,-0.021,0.022,1.213,-1.235,2.653
2024-10-23 22:26:10.733,21094.269,0.309,0.944,-0.112,-0.018,0.001,-0.002,-0.416,-0.016,-0.008,1.223,-1.236,2.664
2024-10-23 22:26:10.743,21094.279,0.309,0.945,-0.108,-0.009,-0.005,0.004,-0.437,-0.01,0.0,1.233,-1.237,2.675
2024-10-23 22:26:10.753,21094.289,0.309,0.945,-0.105,-0.004,-0.008,0.005,-0.416,-0.0,-0.003,1.244,-1.239,2.687
2024-10-23 22:26:10.763,21094.299,0.309,0.946,-0.101,0.005,-0.009,0.005,-0.424,-0.014,-0.015,1.255,-1.24,2.699
2024-10-23 22:26:10.773,21094.309,0.308,0.946,-0.097,0.008,-0.015,0.002,-0.397,0.002,0.005,1.267,-1.242,2.711
2024-10-23 22:26:10.783,21094.319,0.309,0.947,-0.093,0.003,-0.005,0.009,-0.375,0.013,0.009,1.278,-1.243,2.722
2024-10-23 22:26:10.793,21094.329,0.309,0.947,-0.089,0.004,0.011,0.008,-0.39,0.019,0.026,1.289,-1.244,2.734
2024-10-23 22:26:10.803,21094.339,0.309,0.947,-0.086,0.006,0.019,0.008,-0.398,-0.003,0.029,1.3,-1.244,2.746
2024-10-23 22:26:10.813,21094.349,0.309,0.947,-0.082,0.007,0.012,0.006,-0.37,-0.011,0.037,1.311,-1.245,2.758
2024-10-23 22:26:10.823,21094.359,0.31,0.948,-0.079,0.007,0.006,0.002,-0.327,-0.031,0.032,1.321,-1.246,2.768
2024-10-23 22:26:10.833,21094.369,0.31,0.948,-0.076,0.007,0.018,-0.003,-0.282,-0.034,0.038,1.33,-1.246,2.778
2024-10-23 22:26:10.843,21094.379,0.31,0.948,-0.074,-0.0,0.031,-0.003,-0.245,-0.037,0.037,1.338,-1.246,2.786
2024-10-23 22:26:10.853,21094.389,0.311,0.948,-0.072,-0.005,0.028,0.001,-0.211,-0.039,0.038,1.344,-1.246,2.793
2024-10-23 22:26:10.863,21094.399,0.311,0.948,-0.07,-0.009,0.012,-0.0,-0.2,-0.043,0.04,1.35,-1.246,2.8
2024-10-23 22:26:10.873,21094.409,0.311,0.948,-0.068,-0.007,0.011,-0.0,-0.21,-0.037,0.039,1.355,-1.247,2.806
2024-10-23 22:26:10.883,21094.419,0.312,0.948,-0.066,-0.011,0.013,0.004,-0.241,-0.037,0.04,1.362,-1.247,2.813
2024-10-23 22:26:10.892,21094.429,0.312,0.948,-0.064,-0.015,0.0,0.01,-0.308,-0.038,0.031,1.369,-1.247,2.822
2024-10-23 22:26:10.902,21094.439,0.312,0.948,-0.06,-0.014,-0.01,0.017,-0.386,-0.042,0.013,1.379,-1.247,2.833
2024-10-23 22:26:10.912,21094.449,0.312,0.948,-0.057,-0.016,-0.013,0.014,-0.458,-0.045,-0.011,1.391,-1.248,2.846
2024-10-23 22:26:10.922,21094.459,0.312,0.949,-0.052,-0.016,-0.012,0.002,-0.515,-0.047,-0.021,1.405,-1.249,2.861
2024-10-23 22:26:10.932,21094.469,0.312,0.949,-0.047,-0.011,-0.008,-0.007,-0.548,-0.04,-0.032,1.42,-1.25,2.877
2024-10-23 22:26:10.942,21094.479,0.311,0.949,-0.042,-0.012,-0.012,-0.017,-0.563,-0.019,-0.049,1.436,-1.251,2.895
2024-10-23 22:26:10.953,21094.489,0.311,0.95,-0.037,-0.015,-0.015,-0.026,-0.603,0.006,-0.049,1.454,-1.253,2.913
2024-10-23 22:26:10.963,21094.499,0.31,0.95,-0.031,-0.015,-0.012,-0.03,-0.627,0.009,-0.063,1.472,-1.254,2.932
2024-10-23 22:26:10.972,21094.509,0.31,0.951,-0.025,-0.014,-0.012,-0.028,-0.616,0.015,-0.073,1.491,-1.255,2.952
2024-10-23 22:26:10.983,21094.519,0.309,0.951,-0.019,-0.016,-0.018,-0.02,-0.523,0.018,-0.073,1.509,-1.256,2.97
2024-10-23 22:26:10.993,21094.529,0.308,0.951,-0.015,-0.013,0.002,-0.018,-0.369,0.031,-0.063,1.522,-1.257,2.984
2024-10-23 22:26:11.004,21094.539,0.308,0.951,-0.012,-0.012,0.025,-0.022,-0.212,0.042,-0.036,1.532,-1.258,2.994
2024-10-23 22:26:11.013,21094.549,0.308,0.951,-0.011,-0.007,0.031,-0.02,-0.042,0.067,-0.021,1.536,-1.258,2.998
2024-10-23 22:26:11.023,21094.559,0.307,0.952,-0.011,-0.004,0.028,-0.009,0.073,0.09,-0.023,1.536,-1.258,2.997
2024-10-23 22:26:11.033,21094.569,0.307,0.952,-0.012,-0.002,0.018,-0.013,0.19,0.085,-0.037,1.533,-1.258,2.993
2024-10-23 22:26:11.042,21094.579,0.307,0.952,-0.013,-0.006,0.014,-0.023,0.217,0.081,0.014,1.527,-1.259,2.986
2024-10-23 22:26:11.052,21094.589,0.307,0.952,-0.015,-0.012,0.016,-0.024,0.169,0.064,0.024,1.522,-1.258,2.98
2024-10-23 22:26:11.062,21094.599,0.307,0.951,-0.016,-0.006,0.004,-0.005,0.051,0.052,0.01,1.519,-1.258,2.976
2024-10-23 22:26:11.072,21094.609,0.307,0.951,-0.016,-0.005,-0.022,0.007,-0.008,0.049,0.004,1.519,-1.258,2.975
2024-10-23 22:26:11.082,21094.619,0.307,0.951,-0.016,-0.013,-0.033,0.015,-0.027,0.033,-0.001,1.52,-1.258,2.976
2024-10-23 22:26:11.092,21094.629,0.307,0.951,-0.016,-0.014,-0.03,0.018,0.029,0.025,-0.0,1.52,-1.258,2.976
2024-10-23 22:26:11.102,21094.639,0.307,0.951,-0.016,-0.008,-0.017,0.023,0.118,0.023,0.001,1.518,-1.258,2.974
2024-10-23 22:26:11.112,21094.649,0.307,0.951,-0.018,-0.007,-0.009,0.021,0.19,0.021,0.001,1.514,-1.258,2.969
2024-10-23 22:26:11.122,21094.659,0.307,0.951,-0.02,-0.009,-0.001,0.018,0.291,0.03,0.022,1.506,-1.258,2.96
2024-10-23 22:26:11.132,21094.669,0.307,0.951,-0.023,-0.01,0.004,0.021,0.321,-0.004,0.029,1.496,-1.257,2.949
2024-10-23 22:26:11.142,21094.679,0.308,0.951,-0.026,-0.002,0.008,0.026,0.313,-0.01,0.034,1.486,-1.257,2.939
2024-10-23 22:26:11.152,21094.689,0.308,0.951,-0.029,-0.005,0.008,0.037,0.251,-0.021,0.042,1.478,-1.256,2.931
2024-10-23 22:26:11.162,21094.699,0.308,0.951,-0.031,-0.013,-0.007,0.041,0.202,-0.023,0.05,1.472,-1.256,2.925
2024-10-23 22:26:11.172,21094.709,0.309,0.951,-0.032,-0.008,-0.007,0.037,0.177,-0.049,0.046,1.467,-1.255,2.92
2024-10-23 22:26:11.182,21094.719,0.309,0.95,-0.033,0.0,0.001,0.029,0.15,-0.055,0.048,1.464,-1.255,2.917
2024-10-23 22:26:11.192,21094.729,0.309,0.95,-0.034,0.004,0.009,0.024,0.143,-0.052,0.05,1.46,-1.254,2.914
2024-10-23 22:26:11.202,21094.739,0.31,0.95,-0.036,-0.005,0.011,0.025,0.171,-0.05,0.047,1.456,-1.254,2.91
2024-10-23 22:26:11.212,21094.748,0.31,0.95,-0.037,-0.011,0.002,0.016,0.173,-0.038,0.046,1.452,-1.253,2.906
2024-10-23 22:26:11.223,21094.758,0.31,0.95,-0.039,-0.008,0.002,0.004,0.235,-0.033,0.034,1.447,-1.253,2.901
2024-10-23 22:26:11.232,21094.768,0.311,0.95,-0.041,-0.011,0.004,-0.005,0.308,-0.016,0.05,1.441,-1.252,2.894
2024-10-23 22:26:11.242,21094.778,0.311,0.949,-0.043,-0.01,0.005,-0.009,0.295,-0.013,0.067,1.433,-1.251,2.886
2024-10-23 22:26:11.252,21094.788,0.312,0.949,-0.045,-0.001,0.03,0.0,0.239,-0.007,0.057,1.427,-1.251,2.88
2024-10-23 22:26:11.262,21094.798,0.312,0.949,-0.047,-0.005,0.028,0.009,0.222,-0.006,0.049,1.422,-1.25,2.874
2024-10-23 22:26:11.272,21094.808,0.313,0.949,-0.049,-0.011,-0.004,0.011,0.232,-0.02,0.061,1.417,-1.249,2.869
2024-10-23 22:26:11.282,21094.818,0.313,0.948,-0.05,0.005,-0.01,0.005,0.207,-0.015,0.065,1.411,-1.248,2.863
2024-10-23 22:26:11.292,21094.828,0.313,0.948,-0.052,0.009,0.011,0.005,0.119,-0.011,0.05,1.408,-1.248,2.859
2024-10-23 22:26:11.302,21094.838,0.314,0.948,-0.052,-0.008,0.014,0.01,0.067,-0.018,0.028,1.405,-1.247,2.857
2024-10-23 22:26:11.312,21094.848,0.314,0.948,-0.053,-0.014,-0.012,0.006,0.023,-0.018,0.04,1.404,-1.247,2.856
2024-10-23 22:26:11.322,21094.858,0.314,0.948,-0.053,-0.004,-0.018,-0.001,-0.049,0.001,0.038,1.405,-1.247,2.856
2024-10-23 22:26:11.332,21094.868,0.314,0.948,-0.052,-0.0,-0.001,0.004,-0.134,0.003,0.012,1.408,-1.247,2.859
2024-10-23 22:26:11.342,21094.878,0.314,0.948,-0.05,-0.009,-0.013,0.003,-0.159,0.021,0.002,1.413,-1.247,2.864
2024-10-23 22:26:11.352,21094.888,0.314,0.948,-0.048,-0.009,-0.037,-0.001,-0.167,0.015,0.008,1.418,-1.247,2.87
2024-10-23 22:26:11.362,21094.898,0.314,0.948,-0.047,-0.001,-0.027,0.0,-0.175,0.014,0.002,1.423,-1.248,2.875
2024-10-23 22:26:11.372,21094.908,0.314,0.948,-0.045,-0.001,-0.002,0.0,-0.191,0.021,-0.007,1.429,-1.248,2.881
2024-10-23 22:26:11.382,21094.918,0.314,0.948,-0.043,-0.009,0.003,-0.002,-0.207,0.043,-0.0,1.435,-1.248,2.887
2024-10-23 22:26:11.392,21094.928,0.314,0.949,-0.041,-0.003,-0.006,-0.008,-0.248,0.023,-0.024,1.442,-1.249,2.894
2024-10-23 22:26:11.402,21094.938,0.314,0.949,-0.039,0.006,-0.008,-0.016,-0.214,0.019,-0.036,1.448,-1.249,2.901
2024-10-23 22:26:11.412,21094.948,0.313,0.949,-0.037,-0.001,-0.018,-0.015,-0.197,0.018,-0.032,1.454,-1.25,2.907
2024-10-23 22:26:11.422,21094.958,0.313,0.949,-0.035,0.0,-0.014,-0.014,-0.174,0.022,-0.026,1.46,-1.25,2.912
2024-10-23 22:26:11.431,21094.968,0.313,0.949,-0.034,0.002,0.003,-0.006,-0.143,0.031,-0.01,1.464,-1.251,2.917
2024-10-23 22:26:11.441,21094.978,0.313,0.949,-0.032,0.001,-0.007,-0.004,-0.126,0.023,-0.009,1.468,-1.251,2.921
2024-10-23 22:26:11.451,21094.988,0.313,0.949,-0.031,0.004,-0.013,0.0,-0.091,0.02,-0.016,1.471,-1.251,2.923
2024-10-23 22:26:11.462,21094.998,0.313,0.949,-0.031,0.001,-0.004,0.004,-0.046,0.015,-0.019,1.473,-1.251,2.925
2024-10-23 22:26:11.472,21095.008,0.312,0.949,-0.031,-0.004,-0.0,0.004,-0.002,0.009,-0.021,1.473,-1.252,2.925
2024-10-23 22:26:11.481,21095.018,0.312,0.949,-0.031,-0.002,0.01,0.003,0.033,0.006,-0.019,1.472,-1.252,2.924
2024-10-23 22:26:11.492,21095.028,0.312,0.95,-0.032,-0.001,0.02,0.003,0.054,0.004,-0.016,1.47,-1.252,2.922
2024-10-23 22:26:11.501,21095.038,0.312,0.95,-0.032,-0.001,0.015,0.004,0.061,0.0,-0.01,1.467,-1.252,2.92
2024-10-23 22:26:11.512,21095.048,0.312,0.95,-0.033,0.002,0.007,0.007,0.056,-0.006,-0.01,1.465,-1.252,2.918
2024-10-23 22:26:11.522,21095.058,0.312,0.95,-0.034,0.005,0.008,0.002,0.039,-0.015,-0.018,1.464,-1.252,2.916
2024-10-23 22:26:11.532,21095.068,0.312,0.95,-0.034,0.002,0.004,0.002,0.015,-0.009,-0.017,1.463,-1.252,2.915
2024-10-23 22:26:11.542,21095.078,0.312,0.95,-0.034,-0.004,-0.004,-0.0,0.012,-0.006,-0.008,1.462,-1.252,2.915
2024-10-23 22:26:11.552,21095.088,0.312,0.95,-0.034,-0.005,-0.015,-0.001,0.044,0.003,0.003,1.462,-1.252,2.914
2024-10-23 22:26:11.562,21095.098,0.312,0.95,-0.035,-0.003,-0.019,-0.0,0.068,0.011,0.0,1.46,-1.252,2.912
2024-10-23 22:26:11.571,21095.108,0.312,0.95,-0.035,-0.003,-0.006,0.002,0.083,0.009,-0.013,1.458,-1.252,2.91
2024-10-23 22:26:11.582,21095.118,0.311,0.95,-0.036,-0.009,0.007,0.007,0.097,0.008,-0.01,1.456,-1.252,2.907
2024-10-23 22:26:11.592,21095.128,0.311,0.95,-0.037,-0.012,-0.002,0.007,0.075,0.007,-0.007,1.453,-1.252,2.905
2024-10-23 22:26:11.602,21095.138,0.311,0.95,-0.037,-0.007,-0.008,0.012,0.048,0.005,-0.023,1.452,-1.252,2.903
2024-10-23 22:26:11.611,21095.148,0.311,0.95,-0.037,-0.006,-0.005,0.013,0.021,-0.01,-0.023,1.451,-1.252,2.902
2024-10-23 22:26:11.621,21095.158,0.311,0.95,-0.038,-0.011,-0.007,0.006,0.01,-0.018,-0.025,1.45,-1.252,2.902
2024-10-23 22:26:11.632,21095.168,0.31,0.95,-0.038,-0.005,-0.007,0.001,0.002,-0.018,-0.028,1.45,-1.253,2.901
2024-10-23 22:26:11.641,21095.178,0.31,0.95,-0.038,0.0,-0.008,-0.001,-0.011,-0.002,-0.039,1.45,-1.253,2.901
2024-10-23 22:26:11.652,21095.188,0.31,0.95,-0.038,0.004,-0.007,0.002,-0.012,-0.003,-0.044,1.45,-1.253,2.902
2024-10-23 22:26:11.661,21095.198,0.309,0.95,-0.037,0.003,-0.012,0.001,-0.009,0.002,-0.036,1.451,-1.254,2.902
2024-10-23 22:26:11.671,21095.208,0.309,0.95,-0.037,0.003,-0.016,-0.004,0.008,0.002,-0.032,1.451,-1.254,2.902
2024-10-23 22:26:11.681,21095.218,0.309,0.95,-0.037,0.003,-0.01,-0.006,0.023,0.008,-0.023,1.451,-1.255,2.902
2024-10-23 22:26:11.691,21095.228,0.308,0.951,-0.037,-0.0,-0.004,-0.006,0.022,0.005,-0.026,1.45,-1.255,2.902
2024-10-23 22:26:11.701,21095.238,0.308,0.951,-0.038,-0.004,0.0,0.002,0.039,0.003,-0.019,1.449,-1.255,2.901
2024-10-23 22:26:11.711,21095.248,0.308,0.951,-0.038,-0.005,0.001,0.005,0.039,0.006,-0.017,1.448,-1.255,2.899
2024-10-23 22:26:11.721,21095.258,0.308,0.951,-0.038,-0.003,0.006,0.003,0.057,0.006,-0.017,1.447,-1.255,2.898
2024-10-23 22:26:11.731,21095.268,0.308,0.951,-0.039,-0.001,0.008,0.0,0.067,-0.004,-0.016,1.445,-1.255,2.896
2024-10-23 22:26:11.741,21095.278,0.308,0.951,-0.04,0.004,-0.004,0.003,0.088,-0.006,-0.013,1.443,-1.255,2.893
2024-10-23 22:26:11.751,21095.288,0.308,0.951,-0.041,0.003,-0.008,0.005,0.087,-0.003,-0.009,1.44,-1.255,2.891
2024-10-23 22:26:11.761,21095.298,0.308,0.951,-0.041,0.0,-0.006,0.006,0.086,-0.001,-0.013,1.437,-1.255,2.888
2024-10-23 22:26:11.772,21095.308,0.308,0.951,-0.042,-0.001,0.01,0.01,0.074,-0.003,-0.014,1.435,-1.255,2.885
2024-10-23 22:26:11.780,21095.318,0.307,0.951,-0.043,0.0,0.011,0.007,0.059,-0.004,-0.012,1.433,-1.255,2.883
2024-10-23 22:26:11.791,21095.328,0.307,0.951,-0.043,0.002,0.004,0.004,0.039,-0.003,-0.011,1.431,-1.255,2.882
2024-10-23 22:26:11.801,21095.337,0.307,0.951,-0.043,0.0,0.004,0.004,0.029,-0.001,-0.012,1.43,-1.255,2.881
2024-10-23 22:26:11.811,21095.347,0.307,0.951,-0.044,-0.003,0.002,0.0,0.026,-0.002,-0.001,1.43,-1.255,2.88
2024-10-23 22:26:11.821,21095.357,0.307,0.951,-0.044,-0.002,0.001,-0.003,0.018,-0.0,0.01,1.429,-1.255,2.88
2024-10-23 22:26:11.831,21095.367,0.307,0.951,-0.044,-0.001,-0.001,-0.002,0.007,-0.007,0.014,1.429,-1.255,2.88
2024-10-23 22:26:11.841,21095.377,0.307,0.951,-0.044,-0.003,-0.006,-0.002,0.003,-0.007,0.02,1.429,-1.255,2.88
2024-10-23 22:26:11.851,21095.387,0.308,0.95,-0.044,-0.005,-0.004,0.001,0.01,-0.006,0.019,1.429,-1.255,2.88
2024-10-23 22:26:11.861,21095.397,0.308,0.95,-0.044,-0.006,0.003,0.003,0.016,-0.004,0.018,1.429,-1.255,2.88
2024-10-23 22:26:11.871,21095.407,0.308,0.95,-0.044,-0.004,0.007,0.002,0.013,-0.015,0.018,1.429,-1.254,2.88
2024-10-23 22:26:11.881,21095.417,0.308,0.95,-0.044,-0.003,0.005,0.004,0.014,-0.021,0.015,1.429,-1.254,2.879
2024-10-23 22:26:11.891,21095.427,0.308,0.95,-0.044,-0.001,-0.0,0.007,0.031,-0.019,0.015,1.428,-1.254,2.879
2024-10-23 22:26:11.901,21095.437,0.308,0.95,-0.045,-0.003,-0.001,0.004,0.043,-0.021,0.019,1.427,-1.254,2.878
2024-10-23 22:26:11.911,21095.447,0.308,0.95,-0.045,-0.001,0.003,-0.001,0.061,-0.013,0.021,1.425,-1.254,2.876
2024-10-23 22:26:11.921,21095.457,0.309,0.95,-0.046,-0.001,0.007,-0.001,0.081,-0.007,0.021,1.423,-1.253,2.874
2024-10-23 22:26:11.931,21095.467,0.309,0.95,-0.047,-0.003,0.002,-0.001,0.084,-0.006,0.025,1.42,-1.253,2.871
2024-10-23 22:26:11.941,21095.477,0.309,0.95,-0.048,-0.002,-0.004,0.0,0.079,-0.011,0.02,1.418,-1.253,2.869
2024-10-23 22:26:11.951,21095.487,0.309,0.95,-0.048,-0.002,-0.005,0.004,0.071,-0.01,0.022,1.416,-1.253,2.867
2024-10-23 22:26:11.961,21095.497,0.309,0.95,-0.049,-0.005,-0.008,0.004,0.043,-0.018,0.011,1.414,-1.252,2.865
2024-10-23 22:26:11.971,21095.507,0.309,0.95,-0.049,-0.007,-0.004,0.006,0.046,-0.015,-0.0,1.413,-1.252,2.864
2024-10-23 22:26:11.981,21095.517,0.309,0.95,-0.05,-0.008,-0.002,0.007,0.038,-0.014,0.004,1.412,-1.252,2.863
2024-10-23 22:26:11.991,21095.527,0.309,0.95,-0.05,-0.008,-0.005,0.003,0.019,-0.013,-0.001,1.411,-1.252,2.862
2024-10-23 22:26:12.001,21095.537,0.309,0.95,-0.05,-0.005,-0.004,0.003,-0.007,-0.024,-0.006,1.411,-1.252,2.862
2024-10-23 22:26:12.011,21095.547,0.309,0.95,-0.05,-0.006,-0.005,0.007,-0.03,-0.032,-0.011,1.411,-1.252,2.863
2024-10-23 22:26:12.021,21095.557,0.309,0.95,-0.05,-0.007,-0.007,0.005,-0.042,-0.036,-0.013,1.412,-1.253,2.864
2024-10-23 22:26:12.031,21095.567,0.309,0.95,-0.049,-0.005,-0.007,0.004,-0.039,-0.038,-0.017,1.413,-1.253,2.865
2024-10-23 22:26:12.041,21095.577,0.309,0.95,-0.049,-0.0,-0.002,0.002,-0.023,-0.025,-0.016,1.413,-1.253,2.866
2024-10-23 22:26:12.051,21095.587,0.308,0.95,-0.049,-0.002,0.0,-0.001,-0.014,-0.021,-0.012,1.414,-1.253,2.867
2024-10-23 22:26:12.061,21095.597,0.308,0.95,-0.049,-0.0,-0.002,-0.006,-0.021,-0.021,-0.01,1.414,-1.253,2.867
2024-10-23 22:26:12.071,21095.607,0.308,0.95,-0.049,0.002,-0.007,-0.005,-0.018,-0.011,-0.005,1.414,-1.254,2.868
2024-10-23 22:26:12.081,21095.617,0.308,0.95,-0.048,0.002,-0.01,-0.004,-0.017,-0.009,-0.001,1.415,-1.254,2.868
2024-10-23 22:26:12.091,21095.627,0.308,0.95,-0.048,0.001,-0.004,-0.003,-0.017,-0.005,-0.001,1.415,-1.254,2.869
2024-10-23 22:26:12.101,21095.637,0.308,0.95,-0.048,0.003,-0.004,0.001,-0.013,-0.003,-0.002,1.416,-1.254,2.87
2024-10-23 22:26:12.110,21095.647,0.308,0.95,-0.048,0.005,-0.01,0.002,-0.012,-0.006,-0.003,1.416,-1.254,2.87
2024-10-23 22:26:12.121,21095.657,0.308,0.95,-0.048,0.005,-0.007,0.001,-0.006,-0.005,-0.004,1.416,-1.254,2.87
2024-10-23 22:26:12.131,21095.667,0.308,0.95,-0.048,0.004,-0.004,0.0,0.001,-0.008,-0.003,1.416,-1.254,2.87
2024-10-23 22:26:12.140,21095.677,0.308,0.95,-0.048,0.004,-0.003,-0.0,0.005,-0.007,-0.001,1.416,-1.254,2.87
2024-10-23 22:26:12.150,21095.687,0.308,0.95,-0.048,0.002,-0.002,0.001,0.003,-0.006,-0.001,1.416,-1.254,2.87
2024-10-23 22:26:12.161,21095.697,0.308,0.95,-0.048,0.001,-0.001,0.001,-0.007,-0.005,0.002,1.416,-1.254,2.87
2024-10-23 22:26:12.170,21095.707,0.308,0.95,-0.048,-0.003,-0.002,-0.002,-0.001,-0.003,0.003,1.416,-1.254,2.87
2024-10-23 22:26:12.180,21095.717,0.308,0.95,-0.048,-0.008,-0.003,-0.004,-0.007,-0.003,0.0,1.416,-1.254,2.87
2024-10-23 22:26:12.190,21095.727,0.308,0.95,-0.048,-0.007,0.0,-0.005,-0.009,-0.002,0.003,1.416,-1.254,2.87
2024-10-23 22:26:12.200,21095.737,0.308,0.95,-0.048,-0.006,0.005,-0.003,-0.007,0.001,0.006,1.416,-1.254,2.871
2024-10-23 22:26:12.210,21095.747,0.308,0.95,-0.048,-0.006,0.002,0.0,-0.012,-0.005,0.003,1.417,-1.254,2.871
2024-10-23 22:26:12.221,21095.757,0.308,0.95,-0.048,-0.003,-0.0,0.005,-0.005,-0.001,0.003,1.417,-1.254,2.871
2024-10-23 22:26:12.230,21095.767,0.308,0.95,-0.048,-0.002,0.001,0.006,0.005,0.002,0.011,1.417,-1.253,2.871
2024-10-23 22:26:12.240,21095.777,0.309,0.95,-0.048,-0.004,0.0,0.002,0.006,0.003,0.015,1.417,-1.253,2.871
2024-10-23 22:26:12.251,21095.787,0.309,0.95,-0.048,-0.003,-0.002,0.001,0.002,-0.005,0.014,1.417,-1.253,2.871
2024-10-23 22:26:12.260,21095.797,0.309,0.95,-0.048,-0.001,0.001,0.001,0.006,-0.005,0.01,1.417,-1.253,2.871
2024-10-23 22:26:12.270,21095.807,0.309,0.95,-0.048,-0.004,0.003,0.0,0.009,0.002,0.01,1.416,-1.253,2.871
2024-10-23 22:26:12.280,21095.817,0.309,0.95,-0.048,-0.003,0.002,0.001,0.011,0.004,0.009,1.416,-1.253,2.87
2024-10-23 22:26:12.290,21095.827,0.309,0.95,-0.048,-0.002,0.001,0.002,0.018,0.011,0.013,1.416,-1.253,2.87
2024-10-23 22:26:12.299,21095.837,0.309,0.95,-0.048,-0.004,-0.002,0.003,0.013,0.003,0.01,1.415,-1.253,2.87
2024-10-23 22:26:12.309,21095.847,0.309,0.95,-0.048,-0.004,-0.005,0.004,-0.004,0.004,0.002,1.416,-1.253,2.87
2024-10-23 22:26:12.320,21095.857,0.309,0.95,-0.048,-0.005,-0.007,0.004,-0.016,0.002,-0.003,1.416,-1.253,2.87
2024-10-23 22:26:12.330,21095.867,0.309,0.95,-0.048,-0.007,-0.008,0.004,-0.019,0.0,-0.008,1.416,-1.253,2.871
2024-10-23 22:26:12.341,21095.877,0.309,0.95,-0.048,-0.005,-0.008,0.002,-0.012,0.004,-0.008,1.417,-1.253,2.871
2024-10-23 22:26:12.350,21095.887,0.309,0.95,-0.048,-0.001,-0.01,-0.001,-0.012,0.008,-0.005,1.417,-1.253,2.872
2024-10-23 22:26:12.360,21095.897,0.309,0.95,-0.048,0.001,-0.007,-0.0,-0.001,0.007,-0.005,1.418,-1.253,2.872
2024-10-23 22:26:12.370,21095.907,0.309,0.95,-0.048,0.002,-0.003,0.0,-0.001,0.005,-0.002,1.418,-1.253,2.872
2024-10-23 22:26:12.380,21095.917,0.309,0.95,-0.048,0.002,-0.003,-0.001,0.001,0.006,0.0,1.418,-1.253,2.872
2024-10-23 22:26:12.390,21095.927,0.308,0.95,-0.048,0.002,-0.004,-0.0,0.001,0.0,-0.005,1.418,-1.253,2.872
2024-10-23 22:26:12.400,21095.936,0.308,0.95,-0.048,0.003,-0.002,0.001,-0.002,-0.001,-0.008,1.418,-1.253,2.872
2024-10-23 22:26:12.411,21095.946,0.308,0.95,-0.047,0.001,0.002,0.002,-0.008,-0.0,-0.004,1.418,-1.254,2.872
2024-10-23 22:26:12.420,21095.956,0.308,0.95,-0.047,-0.001,0.002,0.004,-0.005,0.003,0.0,1.418,-1.254,2.872
2024-10-23 22:26:12.429,21095.966,0.308,0.95,-0.047,-0.001,0.003,0.007,-0.004,-0.002,0.006,1.418,-1.254,2.872
2024-10-23 22:26:12.440,21095.976,0.308,0.95,-0.047,0.001,0.003,0.006,-0.003,-0.006,0.005,1.418,-1.253,2.873
2024-10-23 22:26:12.449,21095.986,0.308,0.95,-0.047,0.001,0.005,0.005,0.006,-0.01,0.003,1.418,-1.253,2.873
2024-10-23 22:26:12.460,21095.996,0.309,0.95,-0.047,-0.002,0.005,0.003,0.011,-0.005,0.01,1.418,-1.253,2.872
2024-10-23 22:26:12.470,21096.006,0.309,0.95,-0.048,-0.002,0.0,-0.0,0.016,-0.008,0.01,1.418,-1.253,2.872
2024-10-23 22:26:12.480,21096.016,0.309,0.95,-0.048,0.0,-0.002,-0.004,0.014,-0.007,0.006,1.417,-1.253,2.871
2024-10-23 22:26:12.490,21096.026,0.309,0.95,-0.048,0.001,-0.004,-0.006,0.01,0.001,0.005,1.417,-1.253,2.871
2024-10-23 22:26:12.500,21096.036,0.309,0.95,-0.048,-0.001,-0.006,-0.005,0.011,0.008,0.013,1.417,-1.253,2.871
2024-10-23 22:26:12.510,21096.046,0.309,0.95,-0.048,-0.001,-0.005,-0.005,-0.006,0.002,0.012,1.417,-1.253,2.871
2024-10-23 22:26:12.520,21096.056,0.309,0.95,-0.048,0.002,-0.006,-0.002,-0.013,0.002,0.001,1.417,-1.253,2.872
2024-10-23 22:26:12.530,21096.066,0.309,0.95,-0.048,-0.002,-0.007,0.002,-0.007,0.001,0.003,1.418,-1.253,2.872
2024-10-23 22:26:12.540,21096.076,0.309,0.95,-0.048,-0.005,-0.009,-0.0,0.0,0.007,0.002,1.418,-1.253,2.872
2024-10-23 22:26:12.550,21096.086,0.309,0.95,-0.047,-0.004,-0.008,-0.0,-0.003,0.001,0.0,1.418,-1.253,2.872
2024-10-23 22:26:12.560,21096.096,0.309,0.95,-0.048,-0.004,-0.007,0.003,0.003,-0.001,-0.004,1.418,-1.253,2.872
2024-10-23 22:26:12.570,21096.106,0.309,0.95,-0.048,-0.003,-0.006,0.007,0.003,-0.003,-0.005,1.418,-1.253,2.872
2024-10-23 22:26:12.580,21096.116,0.309,0.95,-0.048,-0.004,-0.007,0.007,0.017,0.007,0.002,1.418,-1.253,2.872
2024-10-23 22:26:12.590,21096.126,0.309,0.95,-0.048,-0.004,-0.004,0.005,0.008,0.005,-0.003,1.417,-1.253,2.871
2024-10-23 22:26:12.600,21096.136,0.309,0.95,-0.048,-0.002,-0.004,0.003,0.006,0.01,-0.003,1.417,-1.253,2.871
2024-10-23 22:26:12.610,21096.146,0.309,0.95,-0.048,-0.001,-0.005,0.004,0.0,0.003,-0.003,1.417,-1.253,2.871
2024-10-23 22:26:12.620,21096.156,0.309,0.95,-0.048,0.0,-0.007,0.002,-0.005,0.0,-0.012,1.417,-1.253,2.871
2024-10-23 22:26:12.630,21096.166,0.309,0.95,-0.048,0.0,-0.003,0.003,-0.007,-0.004,-0.014,1.417,-1.253,2.871
2024-10-23 22:26:12.640,21096.176,0.309,0.95,-0.048,0.001,-0.004,0.002,0.002,-0.011,-0.013,1.417,-1.253,2.871
2024-10-23 22:26:12.649,21096.186,0.308,0.95,-0.048,0.003,-0.007,0.0,0.007,-0.007,-0.016,1.417,-1.253,2.871
2024-10-23 22:26:12.660,21096.196,0.308,0.95,-0.048,0.005,-0.007,-0.0,0.011,-0.002,-0.012,1.417,-1.253,2.871
2024-10-23 22:26:12.670,21096.206,0.308,0.95,-0.048,0.003,-0.006,-0.002,0.013,-0.003,-0.007,1.416,-1.254,2.87
2024-10-23 22:26:12.680,21096.216,0.308,0.95,-0.048,0.003,-0.005,-0.001,0.004,0.001,-0.012,1.416,-1.254,2.87
2024-10-23 22:26:12.690,21096.226,0.308,0.95,-0.048,0.002,-0.004,0.003,-0.004,-0.002,-0.015,1.416,-1.254,2.87
2024-10-23 22:26:12.700,21096.236,0.308,0.95,-0.048,-0.004,-0.002,0.002,0.001,0.004,-0.013,1.416,-1.254,2.87
2024-10-23 22:26:12.709,21096.246,0.308,0.95,-0.048,-0.006,-0.0,0.001,0.004,0.003,-0.01,1.416,-1.254,2.87
2024-10-23 22:26:12.720,21096.256,0.308,0.95,-0.048,-0.005,-0.002,-0.001,0.002,0.0,-0.012,1.416,-1.254,2.87
2024-10-23 22:26:12.730,21096.266,0.308,0.95,-0.048,-0.004,-0.005,0.0,0.007,0.0,-0.012,1.416,-1.254,2.87
2024-10-23 22:26:12.740,21096.276,0.308,0.95,-0.048,-0.005,-0.004,-0.001,0.012,0.005,-0.011,1.416,-1.254,2.87
2024-10-23 22:26:12.749,21096.286,0.308,0.95,-0.048,-0.005,-0.003,-0.0,0.013,0.005,-0.011,1.415,-1.254,2.869
2024-10-23 22:26:12.759,21096.296,0.307,0.95,-0.048,-0.003,-0.002,-0.001,0.009,0.006,-0.013,1.415,-1.254,2.869
2024-10-23 22:26:12.770,21096.306,0.307,0.95,-0.048,-0.002,-0.003,-0.0,-0.001,0.002,-0.012,1.415,-1.254,2.868
2024-10-23 22:26:12.779,21096.316,0.307,0.95,-0.048,-0.001,-0.003,0.002,-0.001,0.003,-0.011,1.415,-1.255,2.868
2024-10-23 22:26:12.789,21096.326,0.307,0.95,-0.048,-0.001,0.0,0.003,-0.008,0.001,-0.012,1.415,-1.255,2.869
2024-10-23 22:26:12.800,21096.336,0.307,0.95,-0.048,0.002,0.001,0.001,-0.017,-0.003,-0.014,1.415,-1.255,2.869
2024-10-23 22:26:12.809,21096.346,0.307,0.951,-0.048,0.004,-0.001,0.006,-0.012,0.006,-0.013,1.416,-1.255,2.869
2024-10-23 22:26:12.819,21096.356,0.307,0.951,-0.048,0.002,0.001,0.006,-0.006,0.006,-0.006,1.416,-1.255,2.869
2024-10-23 22:26:12.829,21096.366,0.307,0.951,-0.048,0.002,0.004,-0.001,-0.001,0.006,-0.003,1.416,-1.255,2.869
2024-10-23 22:26:12.839,21096.376,0.307,0.951,-0.048,0.003,0.006,-0.002,-0.006,0.006,-0.002,1.416,-1.255,2.87
2024-10-23 22:26:12.849,21096.386,0.307,0.951,-0.048,-0.0,0.001,-0.001,0.003,0.005,-0.001,1.416,-1.255,2.87
2024-10-23 22:26:12.859,21096.396,0.307,0.951,-0.048,-0.003,0.001,0.001,0.004,0.001,0.001,1.416,-1.255,2.87
2024-10-23 22:26:12.869,21096.406,0.307,0.951,-0.048,-0.002,0.002,0.002,0.01,0.001,-0.0,1.416,-1.255,2.869
2024-10-23 22:26:12.879,21096.416,0.307,0.951,-0.048,-0.004,0.001,0.002,0.014,-0.001,-0.001,1.416,-1.255,2.869
2024-10-23 22:26:12.889,21096.426,0.307,0.951,-0.048,-0.005,-0.004,0.001,0.008,-0.007,-0.0,1.415,-1.255,2.869
2024-10-23 22:26:12.900,21096.436,0.307,0.951,-0.048,-0.003,-0.005,0.002,0.015,0.002,0.007,1.415,-1.255,2.869
2024-10-23 22:26:12.909,21096.446,0.307,0.951,-0.048,-0.004,-0.002,0.004,0.014,0.003,0.004,1.415,-1.255,2.868
2024-10-23 22:26:12.919,21096.456,0.307,0.951,-0.048,-0.003,-0.001,0.002,0.001,0.004,0.012,1.414,-1.255,2.868
2024-10-23 22:26:12.930,21096.466,0.307,0.951,-0.048,-0.002,-0.005,0.006,-0.014,0.003,0.001,1.415,-1.255,2.868
2024-10-23 22:26:12.939,21096.476,0.307,0.951,-0.048,-0.003,-0.005,0.009,-0.008,0.006,-0.002,1.415,-1.255,2.868
2024-10-23 22:26:12.949,21096.486,0.307,0.951,-0.048,-0.004,-0.003,0.006,-0.006,0.002,-0.004,1.415,-1.255,2.869
2024-10-23 22:26:12.959,21096.496,0.307,0.951,-0.048,-0.002,-0.004,0.003,0.0,0.005,-0.001,1.415,-1.255,2.869
2024-10-23 22:26:12.969,21096.506,0.307,0.951,-0.048,-0.001,-0.004,0.002,0.006,0.002,-0.005,1.415,-1.255,2.869
2024-10-23 22:26:12.979,21096.516,0.307,0.951,-0.048,-0.001,-0.004,-0.002,0.003,-0.0,-0.005,1.415,-1.255,2.868
2024-10-23 22:26:12.989,21096.526,0.307,0.951,-0.048,-0.001,-0.007,-0.002,-0.004,0.0,-0.007,1.415,-1.255,2.868
2024-10-23 22:26:12.999,21096.535,0.307,0.951,-0.048,-0.001,-0.009,-0.001,0.001,0.004,-0.002,1.415,-1.255,2.869
2024-10-23 22:26:13.009,21096.545,0.307,0.951,-0.048,-0.001,-0.011,-0.002,0.005,0.003,-0.002,1.415,-1.255,2.869
2024-10-23 22:26:13.019,21096.555,0.307,0.951,-0.048,0.001,-0.009,-0.003,0.01,0.003,0.005,1.415,-1.255,2.868
2024-10-23 22:26:13.029,21096.565,0.307,0.951,-0.048,0.002,-0.008,-0.003,0.003,0.001,-0.001,1.415,-1.255,2.868
2024-10-23 22:26:13.039,21096.575,0.307,0.951,-0.048,0.002,-0.006,0.002,0.004,-0.002,-0.002,1.415,-1.255,2.868
2024-10-23 22:26:13.049,21096.585,0.307,0.951,-0.048,-0.0,-0.001,0.004,0.003,0.0,-0.004,1.415,-1.255,2.868
2024-10-23 22:26:13.059,21096.595,0.306,0.951,-0.048,-0.002,-0.002,0.003,-0.002,-0.002,-0.006,1.415,-1.255,2.868
2024-10-23 22:26:13.068,21096.605,0.306,0.951,-0.048,0.0,-0.001,0.003,0.004,-0.004,-0.002,1.415,-1.255,2.868
2024-10-23 22:26:13.078,21096.615,0.306,0.951,-0.048,0.0,-0.002,0.002,0.005,-0.003,-0.007,1.415,-1.255,2.868
2024-10-23 22:26:13.089,21096.625,0.306,0.951,-0.048,-0.001,-0.002,0.0,0.009,0.0,-0.009,1.415,-1.255,2.868
2024-10-23 22:26:13.099,21096.635,0.306,0.951,-0.048,-0.002,-0.001,-0.001,0.01,-0.002,-0.009,1.414,-1.255,2.867
2024-10-23 22:26:13.109,21096.645,0.306,0.951,-0.048,-0.002,-0.002,-0.004,0.006,0.004,-0.007,1.414,-1.256,2.867
2024-10-23 22:26:13.119,21096.655,0.306,0.951,-0.048,-0.002,-0.002,-0.003,0.006,0.007,-0.008,1.414,-1.256,2.867
2024-10-23 22:26:13.129,21096.665,0.306,0.951,-0.048,-0.003,0.0,0.0,0.001,0.008,-0.009,1.414,-1.256,2.867
2024-10-23 22:26:13.139,21096.675,0.306,0.951,-0.048,-0.003,-0.001,0.003,-0.001,0.012,-0.005,1.414,-1.256,2.867
2024-10-23 22:26:13.149,21096.685,0.306,0.951,-0.048,0.001,-0.002,0.004,0.003,0.008,-0.0,1.414,-1.256,2.867
2024-10-23 22:26:13.159,21096.695,0.306,0.951,-0.048,0.002,-0.0,0.003,0.001,0.005,-0.003,1.414,-1.256,2.867
2024-10-23 22:26:13.169,21096.705,0.306,0.951,-0.048,0.001,-0.001,0.002,-0.001,0.002,-0.001,1.414,-1.256,2.867
2024-10-23 22:26:13.180,21096.715,0.306,0.951,-0.048,-0.0,-0.002,0.005,-0.006,0.003,0.002,1.414,-1.256,2.867
2024-10-23 22:26:13.189,21096.725,0.306,0.951,-0.048,-0.001,-0.006,0.006,0.004,0.004,0.006,1.414,-1.256,2.867
2024-10-23 22:26:13.198,21096.735,0.306,0.951,-0.048,-0.002,-0.005,0.004,0.009,0.003,-0.001,1.414,-1.256,2.866
2024-10-23 22:26:13.209,21096.745,0.306,0.951,-0.049,-0.001,0.0,0.001,0.018,0.001,0.0,1.414,-1.256,2.866
2024-10-23 22:26:13.219,21096.755,0.306,0.951,-0.049,-0.002,-0.001,-0.001,0.014,0.002,-0.005,1.413,-1.256,2.866
2024-10-23 22:26:13.229,21096.765,0.306,0.951,-0.049,-0.002,-0.005,-0.003,-0.0,0.005,-0.005,1.413,-1.256,2.865
2024-10-23 22:26:13.238,21096.775,0.306,0.951,-0.049,-0.001,-0.007,-0.003,0.002,0.013,0.0,1.413,-1.256,2.865
2024-10-23 22:26:13.248,21096.785,0.306,0.951,-0.049,-0.001,-0.009,-0.004,-0.004,0.011,-0.0,1.413,-1.256,2.866
2024-10-23 22:26:13.259,21096.795,0.306,0.951,-0.048,-0.001,-0.009,-0.003,-0.016,0.008,-0.0,1.414,-1.256,2.866
2024-10-23 22:26:13.269,21096.805,0.306,0.951,-0.048,-0.003,-0.009,0.002,-0.011,0.01,-0.007,1.415,-1.256,2.866
2024-10-23 22:26:13.279,21096.815,0.306,0.951,-0.048,-0.003,-0.006,0.002,-0.003,0.009,-0.007,1.415,-1.256,2.867
2024-10-23 22:26:13.289,21096.825,0.306,0.951,-0.048,-0.003,-0.004,0.001,-0.004,0.007,-0.011,1.415,-1.256,2.867
2024-10-23 22:26:13.299,21096.835,0.306,0.951,-0.048,-0.003,-0.001,0.002,-0.006,0.008,-0.003,1.415,-1.256,2.867
2024-10-23 22:26:13.309,21096.845,0.306,0.951,-0.048,-0.003,-0.001,0.002,-0.006,0.001,-0.004,1.415,-1.256,2.867
2024-10-23 22:26:13.318,21096.855,0.306,0.951,-0.048,-0.001,-0.003,0.002,-0.024,-0.0,0.016,1.416,-1.256,2.867
2024-10-23 22:26:13.328,21096.865,0.306,0.951,-0.048,-0.001,-0.006,0.001,-0.034,0.002,0.007,1.417,-1.256,2.868
2024-10-23 22:26:13.338,21096.875,0.306,0.951,-0.047,-0.001,-0.009,0.001,-0.017,0.008,0.009,1.417,-1.256,2.869
2024-10-23 22:26:13.349,21096.885,0.306,0.951,-0.047,-0.004,-0.008,-0.002,-0.007,0.007,0.008,1.418,-1.256,2.87
2024-10-23 22:26:13.358,21096.895,0.306,0.951,-0.047,-0.002,0.004,-0.001,-0.012,0.007,0.01,1.418,-1.256,2.87
2024-10-23 22:26:13.368,21096.905,0.306,0.951,-0.047,-0.001,0.003,0.001,-0.012,0.004,0.011,1.419,-1.256,2.87
2024-10-23 22:26:13.378,21096.915,0.306,0.951,-0.047,-0.001,-0.003,0.004,0.0,0.0,0.009,1.419,-1.256,2.871
2024-10-23 22:26:13.388,21096.925,0.307,0.951,-0.047,0.002,0.001,0.007,0.002,0.001,0.016,1.419,-1.256,2.871
2024-10-23 22:26:13.399,21096.935,0.307,0.951,-0.047,0.001,0.005,0.006,0.018,0.005,0.022,1.419,-1.255,2.87
2024-10-23 22:26:13.408,21096.945,0.307,0.951,-0.047,-0.001,-0.002,0.004,0.016,0.002,0.035,1.419,-1.255,2.87
2024-10-23 22:26:13.419,21096.955,0.307,0.95,-0.047,0.002,-0.013,0.001,0.018,-0.001,0.05,1.418,-1.255,2.87
2024-10-23 22:26:13.429,21096.965,0.308,0.95,-0.048,0.003,-0.01,0.002,0.042,0.007,0.057,1.418,-1.254,2.869
2024-10-23 22:26:13.439,21096.975,0.308,0.95,-0.048,0.001,-0.011,-0.001,0.058,0.004,0.051,1.416,-1.253,2.868
2024-10-23 22:26:13.448,21096.985,0.309,0.95,-0.049,-0.001,-0.0,-0.001,0.113,0.023,0.043,1.414,-1.253,2.865
2024-10-23 22:26:13.466,21096.995,0.309,0.95,-0.05,-0.003,0.02,0.01,0.089,0.033,0.097,1.412,-1.252,2.862
2024-10-23 22:26:13.471,21097.005,0.31,0.949,-0.05,-0.001,0.026,0.012,0.048,0.036,0.067,1.411,-1.251,2.861
2024-10-23 22:26:13.478,21097.015,0.311,0.949,-0.05,0.002,0.037,0.009,0.038,0.026,0.054,1.41,-1.251,2.86
2024-10-23 22:26:13.487,21097.025,0.311,0.949,-0.051,-0.004,0.007,0.006,0.063,0.038,0.081,1.41,-1.25,2.859
2024-10-23 22:26:13.498,21097.035,0.312,0.949,-0.051,0.003,-0.013,-0.006,0.082,0.049,0.091,1.409,-1.249,2.857
2024-10-23 22:26:13.508,21097.045,0.313,0.948,-0.052,0.006,0.007,-0.009,0.089,0.053,0.078,1.407,-1.248,2.855
2024-10-23 22:26:13.518,21097.055,0.314,0.948,-0.052,-0.006,0.018,-0.008,0.084,0.054,0.063,1.405,-1.247,2.853
2024-10-23 22:26:13.528,21097.065,0.314,0.948,-0.053,-0.01,0.007,-0.007,0.07,0.048,0.053,1.404,-1.246,2.851
2024-10-23 22:26:13.538,21097.075,0.315,0.948,-0.053,-0.007,-0.001,-0.0,0.054,0.047,0.043,1.403,-1.246,2.85
2024-10-23 22:26:13.548,21097.085,0.315,0.948,-0.053,-0.008,-0.007,0.004,0.037,0.038,0.034,1.403,-1.246,2.849
2024-10-23 22:26:13.558,21097.095,0.315,0.947,-0.053,-0.01,-0.017,0.005,0.015,0.029,0.027,1.403,-1.245,2.848
2024-10-23 22:26:13.569,21097.105,0.316,0.947,-0.054,-0.009,-0.02,0.007,0.036,0.035,0.044,1.403,-1.245,2.848
2024-10-23 22:26:13.578,21097.115,0.316,0.947,-0.054,-0.006,-0.023,0.008,0.037,0.014,0.037,1.402,-1.244,2.847
2024-10-23 22:26:13.588,21097.125,0.316,0.947,-0.054,0.002,-0.022,0.007,0.032,0.028,0.034,1.401,-1.244,2.846
2024-10-23 22:26:13.598,21097.134,0.317,0.947,-0.054,-0.004,-0.015,0.01,0.002,0.011,0.029,1.401,-1.244,2.845
2024-10-23 22:26:13.608,21097.144,0.317,0.947,-0.054,-0.006,-0.016,0.007,-0.01,0.005,0.017,1.401,-1.244,2.846
2024-10-23 22:26:13.619,21097.154,0.317,0.947,-0.054,-0.001,-0.009,0.008,-0.011,-0.005,0.007,1.402,-1.244,2.846
2024-10-23 22:26:13.628,21097.164,0.317,0.947,-0.054,-0.0,-0.002,0.004,-0.002,-0.009,0.001,1.402,-1.244,2.846
2024-10-23 22:26:13.638,21097.174,0.317,0.947,-0.054,0.001,0.004,0.001,0.015,-0.017,-0.005,1.401,-1.244,2.846
2024-10-23 22:26:13.648,21097.184,0.317,0.947,-0.054,0.005,0.001,-0.002,0.02,-0.012,-0.001,1.401,-1.244,2.846
2024-10-23 22:26:13.658,21097.194,0.317,0.947,-0.055,0.006,0.003,-0.003,0.017,-0.006,0.018,1.4,-1.244,2.845
2024-10-23 22:26:13.668,21097.204,0.317,0.947,-0.055,0.006,0.002,-0.003,0.009,-0.012,0.015,1.4,-1.243,2.845
2024-10-23 22:26:13.678,21097.214,0.317,0.947,-0.055,0.009,-0.002,-0.001,-0.004,-0.01,0.019,1.4,-1.243,2.845
2024-10-23 22:26:13.688,21097.224,0.317,0.947,-0.055,0.005,-0.002,0.0,-0.015,-0.016,0.01,1.401,-1.243,2.846
2024-10-23 22:26:13.698,21097.234,0.317,0.947,-0.054,0.0,0.003,0.001,-0.016,-0.015,0.008,1.401,-1.243,2.846
2024-10-23 22:26:13.707,21097.244,0.317,0.947,-0.054,-0.005,0.001,0.001,-0.013,-0.007,0.019,1.402,-1.243,2.847
2024-10-23 22:26:13.718,21097.254,0.318,0.947,-0.054,-0.006,-0.003,-0.002,-0.006,-0.016,0.019,1.402,-1.243,2.847
2024-10-23 22:26:13.728,21097.264,0.318,0.947,-0.054,-0.005,-0.013,-0.005,0.005,-0.007,0.012,1.402,-1.243,2.848
2024-10-23 22:26:13.738,21097.274,0.318,0.947,-0.054,-0.006,-0.015,-0.001,0.036,-0.003,0.004,1.401,-1.242,2.847
2024-10-23 22:26:13.748,21097.284,0.318,0.947,-0.055,-0.011,0.002,0.0,0.07,0.011,-0.009,1.4,-1.242,2.845
2024-10-23 22:26:13.758,21097.294,0.318,0.947,-0.056,-0.01,0.013,0.003,0.061,-0.001,-0.015,1.398,-1.242,2.843
2024-10-23 22:26:13.768,21097.304,0.318,0.947,-0.056,-0.004,0.002,0.01,0.04,-0.003,-0.029,1.396,-1.242,2.841
2024-10-23 22:26:13.778,21097.314,0.317,0.947,-0.056,0.001,-0.018,0.014,0.02,-0.006,-0.033,1.395,-1.243,2.84
2024-10-23 22:26:13.788,21097.324,0.317,0.947,-0.057,-0.003,-0.023,0.015,0.025,-0.005,-0.037,1.394,-1.243,2.84
2024-10-23 22:26:13.798,21097.334,0.317,0.947,-0.057,0.001,-0.019,0.018,0.03,-0.008,-0.04,1.393,-1.243,2.839
2024-10-23 22:26:13.808,21097.344,0.316,0.947,-0.057,0.004,-0.011,0.016,0.026,-0.006,-0.04,1.392,-1.244,2.837
2024-10-23 22:26:13.819,21097.354,0.316,0.947,-0.057,0.003,-0.007,0.007,0.026,-0.008,-0.044,1.391,-1.244,2.836
2024-10-23 22:26:13.828,21097.364,0.315,0.947,-0.058,-0.001,-0.004,-0.003,0.033,0.006,-0.034,1.39,-1.245,2.835
2024-10-23 22:26:13.838,21097.374,0.315,0.947,-0.058,-0.001,-0.001,-0.009,0.02,-0.005,-0.024,1.389,-1.245,2.834
2024-10-23 22:26:13.848,21097.384,0.315,0.947,-0.058,0.006,0.003,-0.013,0.012,0.002,-0.018,1.389,-1.245,2.834
2024-10-23 22:26:13.858,21097.394,0.315,0.947,-0.058,0.007,-0.0,-0.01,0.018,0.009,0.002,1.389,-1.245,2.834
2024-10-23 22:26:13.868,21097.404,0.315,0.947,-0.058,0.006,-0.008,-0.011,0.028,0.006,-0.007,1.389,-1.245,2.833
2024-10-23 22:26:13.878,21097.414,0.315,0.947,-0.058,0.01,0.003,-0.008,0.037,0.019,-0.002,1.388,-1.245,2.833
2024-10-23 22:26:13.887,21097.424,0.315,0.947,-0.058,0.003,0.013,-0.002,0.034,0.016,-0.004,1.388,-1.245,2.832
2024-10-23 22:26:13.898,21097.434,0.315,0.947,-0.059,-0.001,0.008,-0.0,0.031,0.018,-0.006,1.387,-1.245,2.831
2024-10-23 22:26:13.907,21097.444,0.315,0.947,-0.059,-0.001,0.002,-0.0,0.037,0.022,0.001,1.386,-1.245,2.83
2024-10-23 22:26:13.918,21097.454,0.315,0.947,-0.059,-0.003,0.004,-0.006,0.041,0.014,0.002,1.385,-1.245,2.829
2024-10-23 22:26:13.928,21097.464,0.315,0.947,-0.06,-0.004,0.009,-0.005,0.047,0.017,0.007,1.384,-1.245,2.827
2024-10-23 22:26:13.938,21097.474,0.315,0.947,-0.06,-0.005,0.004,0.001,0.06,0.016,0.004,1.382,-1.244,2.826
2024-10-23 22:26:13.948,21097.484,0.315,0.947,-0.061,-0.004,-0.001,0.002,0.074,0.021,0.009,1.38,-1.244,2.823
2024-10-23 22:26:13.958,21097.494,0.315,0.947,-0.061,-0.004,-0.0,0.005,0.076,0.018,0.009,1.378,-1.244,2.821
2024-10-23 22:26:13.967,21097.504,0.315,0.947,-0.062,-0.003,0.005,0.006,0.071,0.014,0.005,1.376,-1.244,2.819
2024-10-23 22:26:13.977,21097.514,0.315,0.947,-0.063,-0.002,0.001,0.004,0.057,0.006,0.003,1.375,-1.243,2.817
2024-10-23 22:26:13.987,21097.524,0.315,0.947,-0.063,0.002,-0.007,0.003,0.049,-0.001,-0.001,1.373,-1.243,2.815
2024-10-23 22:26:13.998,21097.534,0.315,0.947,-0.064,0.001,-0.007,0.004,0.064,-0.02,-0.02,1.371,-1.243,2.814
2024-10-23 22:26:14.007,21097.544,0.315,0.947,-0.064,0.001,-0.012,-0.002,0.044,0.009,0.029,1.37,-1.243,2.812
2024-10-23 22:26:14.018,21097.554,0.315,0.947,-0.064,-0.001,-0.005,0.002,0.031,0.004,-0.018,1.369,-1.243,2.811
2024-10-23 22:26:14.028,21097.564,0.315,0.947,-0.065,0.002,-0.007,0.013,0.049,0.017,0.011,1.368,-1.243,2.81
2024-10-23 22:26:14.038,21097.574,0.315,0.947,-0.065,-0.006,-0.037,0.011,0.122,0.013,0.012,1.366,-1.243,2.808
2024-10-23 22:26:14.047,21097.584,0.316,0.947,-0.066,0.001,-0.027,0.015,0.122,0.042,0.06,1.363,-1.242,2.804
2024-10-23 22:26:14.057,21097.594,0.316,0.946,-0.067,-0.001,-0.015,0.012,0.068,0.035,0.026,1.362,-1.242,2.802
2024-10-23 22:26:14.067,21097.604,0.316,0.946,-0.067,-0.003,-0.004,0.009,0.015,0.059,0.025,1.361,-1.241,2.801
2024-10-23 22:26:14.077,21097.614,0.317,0.946,-0.067,-0.017,-0.002,-0.006,0.016,0.028,-0.016,1.362,-1.241,2.801
2024-10-23 22:26:14.087,21097.624,0.316,0.946,-0.067,-0.01,0.019,-0.016,0.046,0.029,-0.014,1.361,-1.241,2.8
2024-10-23 22:26:14.097,21097.634,0.316,0.946,-0.068,0.002,0.009,-0.019,0.075,0.014,-0.02,1.359,-1.241,2.798
2024-10-23 22:26:14.107,21097.644,0.316,0.946,-0.068,0.006,-0.006,-0.015,0.06,0.017,-0.005,1.358,-1.241,2.796
2024-10-23 22:26:14.117,21097.654,0.316,0.946,-0.069,-0.0,-0.004,-0.01,0.038,0.015,-0.01,1.357,-1.241,2.795
2024-10-23 22:26:14.127,21097.664,0.316,0.946,-0.069,-0.003,0.007,0.001,0.027,0.015,-0.011,1.356,-1.241,2.794
2024-10-23 22:26:14.138,21097.674,0.316,0.946,-0.069,0.001,0.004,0.004,0.045,0.008,-0.024,1.355,-1.241,2.793
2024-10-23 22:26:14.147,21097.684,0.316,0.946,-0.07,0.001,0.004,-0.002,0.057,0.019,-0.027,1.354,-1.242,2.792
2024-10-23 22:26:14.157,21097.694,0.315,0.946,-0.07,0.0,0.01,-0.002,0.077,0.019,-0.032,1.352,-1.242,2.789
2024-10-23 22:26:14.167,21097.704,0.315,0.946,-0.071,-0.003,0.01,0.005,0.063,0.026,-0.034,1.35,-1.242,2.787
2024-10-23 22:26:14.177,21097.714,0.315,0.947,-0.071,0.002,-0.004,0.015,0.023,0.029,-0.051,1.348,-1.242,2.785
2024-10-23 22:26:14.187,21097.723,0.314,0.947,-0.071,0.01,-0.015,0.021,0.007,0.045,-0.047,1.348,-1.243,2.784
2024-10-23 22:26:14.197,21097.733,0.314,0.947,-0.071,0.006,-0.024,0.014,0.005,0.043,-0.067,1.347,-1.243,2.783
2024-10-23 22:26:14.208,21097.743,0.313,0.947,-0.072,0.007,-0.021,0.004,0.093,0.069,-0.098,1.346,-1.244,2.781
2024-10-23 22:26:14.217,21097.753,0.312,0.947,-0.073,0.007,-0.008,0.004,0.21,0.165,-0.169,1.342,-1.245,2.776
2024-10-23 22:26:14.227,21097.763,0.31,0.948,-0.075,0.006,0.007,0.011,0.475,0.162,-0.204,1.335,-1.246,2.766
2024-10-23 22:26:14.237,21097.773,0.309,0.948,-0.078,-0.001,0.007,0.02,0.301,0.086,-0.143,1.324,-1.247,2.753
2024-10-23 22:26:14.247,21097.783,0.307,0.948,-0.08,0.021,0.009,-0.019,0.314,0.122,-0.216,1.315,-1.248,2.743
2024-10-23 22:26:14.257,21097.793,0.306,0.949,-0.082,0.033,0.119,-0.026,0.112,0.097,-0.161,1.309,-1.249,2.735
2024-10-23 22:26:14.267,21097.803,0.305,0.949,-0.082,-0.037,0.03,-0.074,-0.097,0.051,-0.043,1.309,-1.25,2.734
2024-10-23 22:26:14.277,21097.813,0.304,0.949,-0.081,-0.001,-0.084,-0.038,-0.111,-0.032,-0.079,1.312,-1.251,2.737
2024-10-23 22:26:14.287,21097.823,0.304,0.949,-0.08,0.024,-0.118,-0.009,0.057,-0.023,-0.048,1.312,-1.251,2.738
2024-10-23 22:26:14.297,21097.833,0.303,0.949,-0.082,-0.002,-0.024,0.006,0.229,0.009,-0.005,1.308,-1.251,2.733
2024-10-23 22:26:14.307,21097.843,0.303,0.949,-0.084,-0.015,0.056,0.013,0.313,-0.002,-0.006,1.3,-1.25,2.725
2024-10-23 22:26:14.317,21097.853,0.303,0.949,-0.087,-0.017,0.025,0.025,0.298,-0.008,0.001,1.291,-1.25,2.715
2024-10-23 22:26:14.327,21097.863,0.303,0.949,-0.09,-0.015,-0.029,0.026,0.243,-0.024,-0.021,1.283,-1.249,2.707
2024-10-23 22:26:14.337,21097.873,0.303,0.949,-0.092,-0.011,-0.022,0.033,0.177,-0.01,-0.034,1.276,-1.249,2.7
2024-10-23 22:26:14.347,21097.883,0.303,0.949,-0.093,-0.019,-0.003,0.038,0.072,-0.01,-0.026,1.272,-1.249,2.696
2024-10-23 22:26:14.357,21097.893,0.302,0.949,-0.094,-0.017,-0.008,0.04,-0.01,-0.018,-0.027,1.271,-1.249,2.695
2024-10-23 22:26:14.367,21097.903,0.302,0.949,-0.094,-0.004,-0.023,0.036,-0.023,-0.051,-0.034,1.271,-1.249,2.695
2024-10-23 22:26:14.377,21097.913,0.302,0.949,-0.093,0.004,-0.027,0.018,-0.052,-0.063,-0.008,1.271,-1.249,2.696
2024-10-23 22:26:14.387,21097.923,0.302,0.949,-0.094,0.003,0.004,0.012,0.078,-0.102,0.015,1.269,-1.249,2.695
2024-10-23 22:26:14.397,21097.933,0.302,0.949,-0.094,0.013,0.03,0.006,-0.01,-0.029,-0.043,1.268,-1.249,2.695
2024-10-23 22:26:14.407,21097.943,0.302,0.949,-0.094,0.017,0.062,0.007,-0.018,-0.112,0.049,1.268,-1.249,2.695
2024-10-23 22:26:14.417,21097.953,0.302,0.949,-0.095,-0.009,0.022,-0.011,0.005,-0.113,0.021,1.267,-1.249,2.696
2024-10-23 22:26:14.427,21097.963,0.302,0.949,-0.095,0.023,-0.007,-0.007,0.028,-0.086,0.066,1.266,-1.249,2.696
2024-10-23 22:26:14.437,21097.973,0.303,0.948,-0.095,0.008,0.069,-0.005,0.012,-0.073,0.084,1.266,-1.248,2.696
2024-10-23 22:26:14.447,21097.983,0.304,0.948,-0.095,-0.012,0.05,-0.022,-0.022,-0.077,0.096,1.266,-1.247,2.697
2024-10-23 22:26:14.457,21097.993,0.305,0.948,-0.095,-0.005,-0.018,-0.024,-0.024,-0.073,0.109,1.267,-1.246,2.699
2024-10-23 22:26:14.466,21098.003,0.305,0.947,-0.095,0.005,-0.021,-0.014,-0.029,-0.049,0.097,1.268,-1.245,2.701
2024-10-23 22:26:14.476,21098.013,0.306,0.947,-0.095,-0.006,0.0,-0.009,-0.025,-0.023,0.077,1.27,-1.244,2.703
2024-10-23 22:26:14.486,21098.023,0.307,0.947,-0.095,-0.015,0.002,-0.006,-0.028,0.004,0.047,1.271,-1.244,2.704
2024-10-23 22:26:14.496,21098.033,0.307,0.947,-0.094,-0.009,-0.011,-0.004,-0.063,0.021,0.022,1.272,-1.244,2.705
2024-10-23 22:26:14.506,21098.043,0.307,0.947,-0.094,-0.003,-0.02,-0.001,-0.092,0.027,0.003,1.275,-1.244,2.708
2024-10-23 22:26:14.516,21098.053,0.307,0.947,-0.093,-0.004,-0.032,-0.001,-0.091,0.027,0.006,1.278,-1.244,2.711
2024-10-23 22:26:14.526,21098.063,0.307,0.947,-0.092,-0.004,-0.056,-0.013,-0.08,0.027,0.001,1.28,-1.244,2.713
2024-10-23 22:26:14.537,21098.073,0.307,0.947,-0.091,0.005,-0.049,-0.011,-0.059,0.038,0.006,1.283,-1.245,2.715
2024-10-23 22:26:14.547,21098.083,0.307,0.947,-0.09,0.005,-0.02,-0.005,-0.081,0.05,0.014,1.285,-1.245,2.717
2024-10-23 22:26:14.557,21098.093,0.308,0.947,-0.089,0.002,-0.01,-0.004,-0.114,0.051,0.014,1.288,-1.245,2.72
2024-10-23 22:26:14.567,21098.103,0.308,0.947,-0.088,0.005,-0.009,-0.002,-0.147,0.058,0.012,1.292,-1.245,2.724
2024-10-23 22:26:14.577,21098.113,0.308,0.947,-0.086,0.005,-0.01,-0.003,-0.158,0.068,0.008,1.297,-1.245,2.728
2024-10-23 22:26:14.586,21098.123,0.308,0.948,-0.085,0.004,-0.003,-0.005,-0.2,0.077,0.013,1.303,-1.246,2.734
2024-10-23 22:26:14.597,21098.133,0.308,0.948,-0.082,0.004,0.003,-0.008,-0.256,0.087,0.008,1.31,-1.246,2.74
2024-10-23 22:26:14.607,21098.143,0.308,0.948,-0.079,0.0,-0.001,-0.009,-0.304,0.085,0.005,1.319,-1.247,2.748
2024-10-23 22:26:14.617,21098.153,0.309,0.948,-0.076,-0.004,-0.007,-0.021,-0.337,0.086,0.004,1.328,-1.247,2.758
2024-10-23 22:26:14.626,21098.163,0.309,0.948,-0.073,-0.005,-0.01,-0.025,-0.353,0.084,0.012,1.339,-1.248,2.768
2024-10-23 22:26:14.637,21098.173,0.309,0.949,-0.069,-0.004,-0.022,-0.03,-0.353,0.089,-0.0,1.35,-1.249,2.779
2024-10-23 22:26:14.646,21098.183,0.309,0.949,-0.066,0.001,-0.026,-0.03,-0.352,0.106,-0.006,1.361,-1.249,2.789
2024-10-23 22:26:14.657,21098.193,0.309,0.949,-0.062,-0.003,-0.017,-0.026,-0.385,0.125,-0.022,1.372,-1.25,2.8
2024-10-23 22:26:14.666,21098.203,0.309,0.949,-0.058,-0.009,-0.019,-0.02,-0.404,0.127,-0.029,1.385,-1.251,2.812
2024-10-23 22:26:14.676,21098.213,0.309,0.95,-0.054,-0.008,-0.035,-0.019,-0.387,0.137,-0.042,1.397,-1.252,2.824
2024-10-23 22:26:14.686,21098.223,0.308,0.95,-0.05,-0.006,-0.038,-0.025,-0.32,0.156,-0.037,1.409,-1.253,2.835
2024-10-23 22:26:14.696,21098.233,0.308,0.95,-0.047,-0.005,-0.017,-0.028,-0.296,0.185,-0.035,1.42,-1.254,2.844
2024-10-23 22:26:14.706,21098.243,0.308,0.95,-0.043,-0.003,-0.003,-0.021,-0.308,0.199,-0.037,1.431,-1.255,2.853
2024-10-23 22:26:14.717,21098.253,0.308,0.951,-0.04,-0.004,-0.013,-0.014,-0.331,0.201,-0.03,1.442,-1.256,2.864
2024-10-23 22:26:14.726,21098.263,0.307,0.951,-0.036,-0.002,-0.028,-0.005,-0.339,0.21,-0.022,1.454,-1.256,2.874
2024-10-23 22:26:14.736,21098.273,0.307,0.951,-0.032,0.003,-0.02,0.002,-0.349,0.21,-0.014,1.467,-1.257,2.885
2024-10-23 22:26:14.746,21098.283,0.307,0.951,-0.028,0.004,-0.0,0.005,-0.383,0.18,-0.009,1.48,-1.257,2.897
2024-10-23 22:26:14.756,21098.293,0.307,0.951,-0.024,0.004,0.007,0.002,-0.389,0.161,0.02,1.493,-1.257,2.909
2024-10-23 22:26:14.766,21098.303,0.307,0.951,-0.02,0.003,0.01,0.008,-0.349,0.151,0.009,1.506,-1.258,2.921
2024-10-23 22:26:14.776,21098.313,0.308,0.951,-0.016,0.0,0.03,0.009,-0.321,0.137,0.051,1.518,-1.258,2.932
2024-10-23 22:26:14.786,21098.322,0.308,0.951,-0.013,-0.002,0.048,0.013,-0.295,0.112,0.071,1.529,-1.257,2.942
2024-10-23 22:26:14.796,21098.332,0.309,0.951,-0.01,0.006,0.032,0.021,-0.232,0.091,0.068,1.538,-1.256,2.951
2024-10-23 22:26:14.806,21098.342,0.31,0.951,-0.008,0.007,0.008,0.023,-0.155,0.067,0.068,1.545,-1.256,2.957
2024-10-23 22:26:14.816,21098.352,0.31,0.951,-0.007,0.004,0.028,0.02,-0.093,0.04,0.068,1.549,-1.255,2.961
2024-10-23 22:26:14.826,21098.362,0.311,0.95,-0.006,0.003,0.032,0.012,-0.058,0.015,0.069,1.552,-1.254,2.964
2024-10-23 22:26:14.836,21098.372,0.312,0.95,-0.005,0.005,0.006,0.004,-0.023,0.004,0.083,1.553,-1.254,2.965
2024-10-23 22:26:14.846,21098.382,0.313,0.95,-0.005,0.003,-0.0,0.003,-0.023,-0.006,0.088,1.554,-1.253,2.966
2024-10-23 22:26:14.856,21098.392,0.313,0.95,-0.005,0.003,0.008,0.007,-0.049,-0.034,0.086,1.555,-1.252,2.967
2024-10-23 22:26:14.866,21098.402,0.314,0.949,-0.004,0.001,-0.004,0.009,-0.098,-0.014,0.073,1.557,-1.251,2.969
2024-10-23 22:26:14.876,21098.412,0.315,0.949,-0.003,-0.001,-0.018,0.017,-0.112,-0.031,0.061,1.56,-1.251,2.973
2024-10-23 22:26:14.886,21098.422,0.315,0.949,-0.002,-0.004,-0.004,0.015,-0.062,-0.046,0.058,1.563,-1.25,2.976
2024-10-23 22:26:14.896,21098.432,0.316,0.949,-0.002,-0.002,0.001,0.006,-0.031,-0.052,0.052,1.564,-1.25,2.978
2024-10-23 22:26:14.906,21098.442,0.316,0.949,-0.002,0.003,-0.001,0.002,-0.026,-0.039,0.042,1.565,-1.249,2.979
2024-10-23 22:26:14.916,21098.452,0.316,0.949,-0.002,0.001,-0.0,0.011,-0.048,-0.01,0.046,1.566,-1.249,2.98
2024-10-23 22:26:14.926,21098.462,0.317,0.948,-0.001,-0.007,-0.0,0.013,-0.068,-0.025,0.044,1.567,-1.248,2.982
2024-10-23 22:26:14.936,21098.472,0.317,0.948,-0.001,-0.002,-0.011,0.01,-0.052,-0.026,0.031,1.569,-1.248,2.984
2024-10-23 22:26:14.946,21098.482,0.317,0.948,-0.0,0.001,-0.027,0.011,-0.022,-0.031,0.026,1.57,-1.248,2.985
2024-10-23 22:26:14.956,21098.492,0.318,0.948,-0.0,-0.002,-0.015,0.016,0.007,-0.038,0.029,1.57,-1.247,2.986
2024-10-23 22:26:14.966,21098.502,0.318,0.948,-0.001,0.003,0.009,0.022,0.036,-0.04,0.011,1.569,-1.247,2.985
2024-10-23 22:26:14.976,21098.512,0.318,0.948,-0.001,0.001,0.008,0.026,0.051,-0.036,0.021,1.568,-1.247,2.984
2024-10-23 22:26:14.986,21098.522,0.318,0.948,-0.002,-0.001,-0.003,0.028,0.061,-0.031,0.02,1.566,-1.247,2.982
2024-10-23 22:26:14.996,21098.532,0.318,0.948,-0.002,0.002,-0.006,0.019,0.038,-0.023,0.039,1.564,-1.247,2.981
2024-10-23 22:26:15.006,21098.542,0.319,0.948,-0.002,0.001,-0.004,0.003,-0.001,-0.018,0.036,1.564,-1.246,2.981
2024-10-23 22:26:15.016,21098.552,0.319,0.948,-0.002,-0.003,-0.009,-0.009,-0.037,-0.003,0.021,1.564,-1.246,2.982
2024-10-23 22:26:15.026,21098.562,0.319,0.948,-0.002,-0.012,-0.016,-0.014,-0.037,0.012,0.02,1.566,-1.246,2.983
2024-10-23 22:26:15.036,21098.572,0.32,0.948,-0.001,-0.023,0.01,-0.019,-0.03,0.026,0.023,1.568,-1.246,2.985
2024-10-23 22:26:15.045,21098.582,0.32,0.948,-0.001,-0.019,0.03,-0.029,-0.014,0.025,0.016,1.569,-1.245,2.986
2024-10-23 22:26:15.056,21098.592,0.32,0.947,-0.0,-0.006,0.012,-0.033,-0.005,0.029,0.017,1.57,-1.245,2.987
2024-10-23 22:26:15.065,21098.602,0.32,0.947,0.0,0.001,0.002,-0.028,-0.005,0.042,0.018,1.571,-1.245,2.987
2024-10-23 22:26:15.076,21098.612,0.32,0.947,0.001,0.003,0.012,-0.019,-0.04,0.049,0.024,1.573,-1.245,2.988
2024-10-23 22:26:15.085,21098.622,0.32,0.947,0.001,0.004,0.005,-0.008,-0.082,0.036,0.026,1.575,-1.245,2.99
2024-10-23 22:26:15.096,21098.632,0.321,0.947,0.002,0.007,-0.014,-0.003,-0.125,0.028,0.024,1.578,-1.244,2.993
2024-10-23 22:26:15.106,21098.642,0.321,0.947,0.003,0.003,-0.013,0.002,-0.122,0.005,0.016,1.582,-1.244,2.997
2024-10-23 22:26:15.116,21098.652,0.321,0.947,0.004,-0.003,-0.004,0.001,-0.046,0.007,0.017,1.584,-1.244,2.999
2024-10-23 22:26:15.125,21098.662,0.321,0.947,0.004,-0.002,-0.007,0.001,0.03,-0.011,0.014,1.583,-1.244,2.999
2024-10-23 22:26:15.135,21098.672,0.321,0.947,0.003,0.004,0.001,0.005,0.093,-0.036,0.02,1.58,-1.244,2.996
2024-10-23 22:26:15.145,21098.682,0.321,0.947,0.002,0.001,0.005,0.008,0.141,-0.056,0.026,1.576,-1.244,2.992
2024-10-23 22:26:15.155,21098.692,0.321,0.947,-0.0,-0.003,-0.005,0.017,0.184,-0.057,0.02,1.57,-1.244,2.986
2024-10-23 22:26:15.165,21098.702,0.321,0.947,-0.003,-0.007,-0.003,0.018,0.238,-0.064,0.027,1.563,-1.244,2.979
2024-10-23 22:26:15.176,21098.712,0.322,0.947,-0.005,-0.008,0.006,0.013,0.202,-0.058,0.027,1.556,-1.243,2.972
2024-10-23 22:26:15.186,21098.722,0.322,0.947,-0.007,-0.003,0.014,0.01,0.163,-0.059,0.026,1.55,-1.243,2.967
2024-10-23 22:26:15.196,21098.732,0.322,0.947,-0.008,0.002,0.004,0.01,0.112,-0.062,0.034,1.546,-1.243,2.963
2024-10-23 22:26:15.205,21098.742,0.323,0.946,-0.009,-0.0,-0.021,0.005,0.067,-0.041,0.033,1.543,-1.242,2.961
2024-10-23 22:26:15.216,21098.752,0.323,0.946,-0.01,0.002,-0.012,0.004,0.068,-0.03,0.026,1.541,-1.242,2.959
2024-10-23 22:26:15.225,21098.762,0.323,0.946,-0.01,-0.0,-0.014,0.002,0.065,-0.031,0.016,1.54,-1.242,2.958
2024-10-23 22:26:15.235,21098.772,0.323,0.946,-0.011,-0.002,-0.01,0.0,0.055,-0.03,0.003,1.538,-1.242,2.956
2024-10-23 22:26:15.245,21098.782,0.323,0.946,-0.011,-0.001,0.01,0.003,0.043,-0.035,-0.014,1.537,-1.242,2.955
2024-10-23 22:26:15.255,21098.792,0.323,0.946,-0.011,-0.002,-0.001,0.003,0.037,-0.045,-0.032,1.536,-1.242,2.955
2024-10-23 22:26:15.265,21098.802,0.322,0.947,-0.012,-0.002,-0.004,0.002,0.019,-0.057,-0.044,1.535,-1.242,2.954
2024-10-23 22:26:15.276,21098.812,0.322,0.947,-0.012,-0.004,0.01,-0.007,0.015,-0.059,-0.038,1.534,-1.243,2.954
2024-10-23 22:26:15.285,21098.822,0.322,0.947,-0.012,-0.004,-0.001,-0.012,-0.0,-0.058,-0.038,1.533,-1.243,2.954
2024-10-23 22:26:15.295,21098.832,0.321,0.947,-0.012,-0.002,-0.016,-0.011,0.008,-0.051,-0.046,1.533,-1.243,2.954
2024-10-23 22:26:15.305,21098.842,0.321,0.947,-0.012,-0.001,-0.005,-0.011,0.025,-0.032,-0.039,1.532,-1.244,2.953
2024-10-23 22:26:15.315,21098.852,0.321,0.947,-0.013,-0.003,-0.004,-0.013,0.021,-0.019,-0.038,1.531,-1.244,2.952
2024-10-23 22:26:15.325,21098.862,0.32,0.947,-0.013,0.003,-0.002,-0.014,0.029,-0.033,-0.047,1.53,-1.245,2.952
2024-10-23 22:26:15.335,21098.872,0.32,0.947,-0.013,0.008,0.002,-0.017,0.033,-0.042,-0.047,1.529,-1.245,2.951
2024-10-23 22:26:15.345,21098.882,0.319,0.948,-0.014,0.008,0.003,-0.019,0.023,-0.052,-0.042,1.528,-1.246,2.95
2024-10-23 22:26:15.356,21098.892,0.319,0.948,-0.014,0.005,0.01,-0.011,0.027,-0.061,-0.03,1.526,-1.246,2.949
2024-10-23 22:26:15.366,21098.902,0.319,0.948,-0.015,0.007,-0.007,-0.002,0.036,-0.062,-0.029,1.524,-1.246,2.948
2024-10-23 22:26:15.375,21098.912,0.318,0.948,-0.016,0.009,-0.015,0.012,0.064,-0.051,-0.023,1.522,-1.246,2.946
2024-10-23 22:26:15.385,21098.921,0.318,0.948,-0.016,0.003,0.0,0.017,0.086,-0.048,-0.019,1.519,-1.246,2.944
2024-10-23 22:26:15.395,21098.931,0.318,0.948,-0.018,0.001,0.005,0.012,0.097,-0.047,-0.018,1.516,-1.247,2.941
2024-10-23 22:26:15.405,21098.941,0.318,0.948,-0.019,-0.004,-0.005,0.011,0.105,-0.05,-0.02,1.512,-1.247,2.937
2024-10-23 22:26:15.415,21098.951,0.318,0.948,-0.02,-0.009,-0.004,0.006,0.114,-0.059,-0.025,1.508,-1.247,2.934
2024-10-23 22:26:15.425,21098.961,0.318,0.948,-0.021,-0.005,-0.002,0.005,0.099,-0.063,-0.024,1.504,-1.247,2.93
2024-10-23 22:26:15.435,21098.971,0.317,0.948,-0.022,-0.004,-0.012,0.005,0.09,-0.063,-0.029,1.5,-1.247,2.927
2024-10-23 22:26:15.445,21098.981,0.317,0.948,-0.023,-0.004,-0.014,0.01,0.08,-0.058,-0.039,1.497,-1.247,2.924
2024-10-23 22:26:15.455,21098.991,0.317,0.948,-0.024,-0.001,-0.012,0.012,0.078,-0.058,-0.047,1.495,-1.248,2.922
2024-10-23 22:26:15.465,21099.001,0.316,0.948,-0.025,0.002,-0.005,0.012,0.055,-0.047,-0.045,1.493,-1.248,2.92
2024-10-23 22:26:15.475,21099.011,0.316,0.948,-0.025,0.001,-0.001,0.006,0.039,-0.04,-0.048,1.491,-1.248,2.919
2024-10-23 22:26:15.485,21099.021,0.315,0.949,-0.026,0.002,-0.003,-0.002,0.051,-0.025,-0.046,1.49,-1.249,2.918
2024-10-23 22:26:15.495,21099.031,0.315,0.949,-0.026,0.002,0.0,-0.006,0.058,-0.018,-0.04,1.488,-1.249,2.916
2024-10-23 22:26:15.505,21099.041,0.315,0.949,-0.027,0.0,0.009,-0.015,0.062,-0.019,-0.037,1.486,-1.25,2.915
2024-10-23 22:26:15.515,21099.051,0.314,0.949,-0.027,0.005,0.01,-0.016,0.06,-0.02,-0.035,1.484,-1.25,2.913
2024-10-23 22:26:15.525,21099.061,0.314,0.949,-0.028,0.004,-0.003,-0.016,0.054,-0.015,-0.034,1.483,-1.25,2.911
2024-10-23 22:26:15.535,21099.071,0.314,0.949,-0.028,0.002,0.001,-0.012,0.035,-0.011,-0.028,1.482,-1.25,2.91
2024-10-23 22:26:15.545,21099.081,0.313,0.949,-0.028,-0.0,0.005,-0.006,0.021,-0.011,-0.036,1.481,-1.251,2.91
2024-10-23 22:26:15.555,21099.091,0.313,0.949,-0.028,0.0,0.004,-0.001,0.011,-0.012,-0.032,1.481,-1.251,2.909
2024-10-23 22:26:15.565,21099.101,0.313,0.949,-0.028,-0.002,-0.005,0.004,0.017,-0.013,-0.035,1.48,-1.251,2.909
2024-10-23 22:26:15.575,21099.111,0.313,0.949,-0.029,-0.004,-0.012,0.006,0.03,-0.013,-0.033,1.479,-1.252,2.908
2024-10-23 22:26:15.585,21099.121,0.312,0.95,-0.029,-0.004,-0.007,0.006,0.046,-0.01,-0.028,1.477,-1.252,2.906
2024-10-23 22:26:15.595,21099.131,0.312,0.95,-0.03,-0.002,-0.006,0.006,0.031,-0.024,-0.031,1.476,-1.252,2.905
2024-10-23 22:26:15.605,21099.141,0.312,0.95,-0.03,0.0,-0.012,0.004,0.05,-0.019,-0.024,1.474,-1.252,2.903
2024-10-23 22:26:15.615,21099.151,0.312,0.95,-0.031,-0.0,-0.016,0.003,0.052,-0.025,-0.014,1.472,-1.252,2.901
2024-10-23 22:26:15.625,21099.161,0.311,0.95,-0.032,-0.001,-0.02,-0.004,0.07,-0.028,-0.028,1.469,-1.252,2.899
2024-10-23 22:26:15.635,21099.171,0.311,0.95,-0.032,-0.0,-0.014,-0.002,0.071,-0.037,-0.033,1.467,-1.253,2.897
2024-10-23 22:26:15.645,21099.181,0.311,0.95,-0.033,-0.002,-0.005,0.003,0.072,-0.035,-0.033,1.465,-1.253,2.894
2024-10-23 22:26:15.655,21099.191,0.31,0.95,-0.034,-0.001,-0.004,0.006,0.047,-0.03,-0.04,1.462,-1.253,2.893
2024-10-23 22:26:15.665,21099.201,0.31,0.95,-0.034,0.001,-0.013,0.006,0.025,-0.033,-0.048,1.461,-1.254,2.892
2024-10-23 22:26:15.675,21099.211,0.31,0.95,-0.034,0.004,-0.014,0.009,0.015,-0.03,-0.053,1.46,-1.254,2.891
2024-10-23 22:26:15.685,21099.221,0.309,0.95,-0.034,0.002,-0.007,0.01,0.02,-0.028,-0.049,1.46,-1.255,2.891
2024-10-23 22:26:15.695,21099.231,0.309,0.951,-0.035,0.004,-0.003,0.007,0.039,-0.025,-0.041,1.459,-1.255,2.89
2024-10-23 22:26:15.704,21099.241,0.308,0.951,-0.035,0.006,-0.007,0.003,0.051,-0.023,-0.029,1.457,-1.255,2.888
2024-10-23 22:26:15.715,21099.251,0.308,0.951,-0.036,0.005,-0.009,-0.0,0.067,-0.019,-0.025,1.455,-1.255,2.886
2024-10-23 22:26:15.724,21099.261,0.308,0.951,-0.037,0.004,0.001,-0.003,0.077,-0.016,-0.025,1.452,-1.255,2.884
2024-10-23 22:26:15.735,21099.271,0.308,0.951,-0.037,0.001,0.009,-0.009,0.061,-0.021,-0.024,1.45,-1.256,2.881
2024-10-23 22:26:15.745,21099.281,0.308,0.951,-0.038,-0.002,0.01,-0.009,0.037,-0.014,-0.019,1.449,-1.256,2.88
2024-10-23 22:26:15.755,21099.291,0.308,0.951,-0.038,-0.0,0.002,-0.006,0.011,-0.016,-0.018,1.448,-1.256,2.879
2024-10-23 22:26:15.765,21099.301,0.307,0.951,-0.038,-0.002,-0.01,-0.007,-0.005,-0.015,-0.02,1.448,-1.256,2.88
2024-10-23 22:26:15.775,21099.311,0.307,0.951,-0.038,-0.002,-0.012,-0.007,-0.009,-0.011,-0.019,1.448,-1.256,2.88
2024-10-23 22:26:15.785,21099.321,0.307,0.951,-0.038,-0.002,-0.008,-0.006,-0.013,-0.01,-0.023,1.449,-1.256,2.88
2024-10-23 22:26:15.794,21099.331,0.307,0.951,-0.038,-0.003,-0.002,-0.005,-0.013,-0.008,-0.029,1.449,-1.256,2.881
2024-10-23 22:26:15.805,21099.341,0.307,0.951,-0.037,-0.004,-0.004,-0.005,-0.024,-0.011,-0.033,1.449,-1.257,2.881
2024-10-23 22:26:15.814,21099.351,0.306,0.951,-0.037,-0.002,-0.006,-0.002,-0.026,-0.006,-0.036,1.45,-1.257,2.882
2024-10-23 22:26:15.824,21099.361,0.306,0.951,-0.037,-0.002,-0.005,0.0,-0.019,-0.008,-0.042,1.45,-1.258,2.882
2024-10-23 22:26:15.834,21099.371,0.306,0.951,-0.037,-0.002,-0.002,-0.001,-0.001,-0.003,-0.034,1.45,-1.258,2.882
2024-10-23 22:26:15.844,21099.381,0.305,0.952,-0.037,-0.002,-0.004,-0.005,-0.002,-0.009,-0.027,1.45,-1.258,2.882
2024-10-23 22:26:15.854,21099.391,0.305,0.952,-0.037,-0.0,-0.0,-0.012,-0.001,-0.01,-0.017,1.449,-1.258,2.882
2024-10-23 22:26:15.864,21099.401,0.305,0.952,-0.037,0.0,0.003,-0.009,-0.01,-0.016,-0.019,1.449,-1.259,2.882
2024-10-23 22:26:15.874,21099.411,0.305,0.952,-0.037,-0.0,-0.005,-0.005,-0.016,-0.015,-0.02,1.449,-1.259,2.882
2024-10-23 22:26:15.884,21099.421,0.305,0.952,-0.037,-0.002,0.001,-0.0,0.007,-0.017,-0.013,1.449,-1.259,2.882
2024-10-23 22:26:15.894,21099.431,0.304,0.952,-0.038,-0.003,0.003,-0.0,0.013,-0.023,-0.008,1.448,-1.259,2.882
2024-10-23 22:26:15.905,21099.441,0.304,0.952,-0.038,0.001,-0.003,-0.001,0.023,-0.025,-0.006,1.447,-1.259,2.881
2024-10-23 22:26:15.914,21099.451,0.304,0.952,-0.038,0.004,0.0,0.004,0.028,-0.017,-0.014,1.446,-1.259,2.88
2024-10-23 22:26:15.924,21099.461,0.304,0.952,-0.038,0.002,0.005,0.009,0.036,-0.008,-0.019,1.445,-1.259,2.879
2024-10-23 22:26:15.934,21099.471,0.304,0.952,-0.039,0.0,0.004,0.014,0.044,-0.002,-0.025,1.444,-1.259,2.877
2024-10-23 22:26:15.944,21099.481,0.304,0.952,-0.039,-0.004,-0.003,0.01,0.03,0.003,-0.024,1.442,-1.26,2.876
2024-10-23 22:26:15.954,21099.491,0.303,0.952,-0.039,-0.005,-0.009,0.002,0.008,-0.005,-0.026,1.441,-1.26,2.875
2024-10-23 22:26:15.964,21099.501,0.303,0.952,-0.039,-0.001,-0.008,0.002,-0.016,-0.008,-0.024,1.441,-1.26,2.875
2024-10-23 22:26:15.974,21099.511,0.303,0.952,-0.039,0.003,-0.005,0.006,-0.025,-0.007,-0.019,1.442,-1.26,2.876
2024-10-23 22:26:15.984,21099.52,0.303,0.952,-0.039,-0.001,-0.01,0.007,-0.013,-0.006,-0.012,1.442,-1.26,2.876
2024-10-23 22:26:15.995,21099.53,0.303,0.952,-0.039,-0.004,-0.018,0.006,-0.007,-0.012,-0.001,1.443,-1.261,2.877
2024-10-23 22:26:16.004,21099.54,0.303,0.952,-0.039,0.001,-0.015,0.004,0.005,-0.014,-0.004,1.443,-1.261,2.877
2024-10-23 22:26:16.014,21099.55,0.303,0.952,-0.039,0.004,0.001,0.005,0.019,-0.019,-0.001,1.443,-1.261,2.877
2024-10-23 22:26:16.024,21099.56,0.303,0.952,-0.039,0.001,0.008,0.006,0.014,-0.008,0.003,1.442,-1.261,2.876
2024-10-23 22:26:16.034,21099.57,0.303,0.952,-0.039,0.001,0.008,0.009,-0.015,-0.012,0.0,1.442,-1.261,2.877
2024-10-23 22:26:16.044,21099.58,0.303,0.952,-0.039,0.001,0.004,0.009,-0.009,-0.016,0.011,1.442,-1.261,2.877
2024-10-23 22:26:16.054,21099.59,0.303,0.952,-0.039,0.003,-0.011,-0.001,-0.007,-0.032,0.033,1.443,-1.26,2.877
2024-10-23 22:26:16.064,21099.6,0.303,0.952,-0.039,0.005,-0.014,-0.006,0.014,-0.032,0.051,1.443,-1.26,2.878
2024-10-23 22:26:16.074,21099.61,0.304,0.952,-0.039,0.0,-0.01,-0.006,0.019,-0.038,0.059,1.442,-1.259,2.878
2024-10-23 22:26:16.084,21099.62,0.305,0.952,-0.04,-0.005,-0.012,-0.008,0.022,-0.056,0.051,1.441,-1.259,2.877
2024-10-23 22:26:16.094,21099.63,0.305,0.952,-0.04,-0.004,0.006,-0.002,0.033,-0.067,0.051,1.44,-1.258,2.877
2024-10-23 22:26:16.104,21099.64,0.305,0.951,-0.041,-0.006,0.02,0.003,0.048,-0.069,0.056,1.438,-1.258,2.876
2024-10-23 22:26:16.114,21099.65,0.306,0.951,-0.041,-0.005,0.013,0.008,0.023,-0.046,0.055,1.437,-1.257,2.875
2024-10-23 22:26:16.124,21099.66,0.306,0.951,-0.041,-0.005,0.007,0.008,-0.049,-0.035,0.021,1.437,-1.257,2.876
2024-10-23 22:26:16.134,21099.67,0.306,0.951,-0.041,-0.005,-0.003,-0.001,-0.066,-0.037,0.024,1.439,-1.257,2.878
2024-10-23 22:26:16.144,21099.68,0.307,0.951,-0.04,0.003,-0.016,-0.011,-0.055,0.005,-0.002,1.441,-1.256,2.88
2024-10-23 22:26:16.154,21099.69,0.307,0.951,-0.04,0.002,-0.012,-0.01,-0.019,0.011,-0.002,1.442,-1.256,2.881
2024-10-23 22:26:16.164,21099.7,0.306,0.951,-0.04,-0.006,0.003,-0.015,0.044,0.008,-0.013,1.442,-1.257,2.88
2024-10-23 22:26:16.174,21099.71,0.306,0.951,-0.04,-0.0,0.006,-0.015,0.074,0.008,-0.01,1.44,-1.257,2.878
2024-10-23 22:26:16.184,21099.72,0.306,0.951,-0.041,0.0,0.014,-0.006,0.045,0.005,-0.014,1.438,-1.257,2.876
2024-10-23 22:26:16.194,21099.73,0.306,0.951,-0.041,-0.002,-0.001,0.005,-0.01,0.002,-0.03,1.437,-1.257,2.876
2024-10-23 22:26:16.204,21099.74,0.306,0.951,-0.041,-0.003,-0.023,0.012,-0.033,-0.003,-0.037,1.438,-1.257,2.876
2024-10-23 22:26:16.214,21099.75,0.305,0.951,-0.041,-0.005,-0.021,0.01,-0.018,0.003,-0.037,1.439,-1.258,2.877
2024-10-23 22:26:16.224,21099.76,0.305,0.952,-0.04,-0.001,-0.014,0.003,-0.013,0.002,-0.035,1.439,-1.258,2.877
2024-10-23 22:26:16.234,21099.77,0.305,0.952,-0.04,0.001,-0.014,-0.004,-0.012,0.007,-0.028,1.439,-1.258,2.877
2024-10-23 22:26:16.244,21099.78,0.304,0.952,-0.04,0.002,-0.016,-0.001,-0.023,0.0,-0.022,1.439,-1.259,2.877
2024-10-23 22:26:16.254,21099.79,0.304,0.952,-0.04,0.002,-0.018,0.002,-0.006,0.001,-0.015,1.439,-1.259,2.877
2024-10-23 22:26:16.264,21099.8,0.304,0.952,-0.04,-0.001,-0.021,0.003,-0.021,-0.008,-0.023,1.439,-1.259,2.878
2024-10-23 22:26:16.274,21099.81,0.304,0.952,-0.04,-0.0,-0.009,0.004,0.001,-0.003,-0.023,1.44,-1.259,2.878
2024-10-23 22:26:16.284,21099.82,0.304,0.952,-0.04,-0.002,0.009,0.004,0.005,-0.0,-0.021,1.44,-1.26,2.878
2024-10-23 22:26:16.294,21099.83,0.303,0.952,-0.04,-0.002,0.004,-0.001,-0.006,-0.005,-0.033,1.44,-1.26,2.878
2024-10-23 22:26:16.303,21099.84,0.303,0.952,-0.04,0.0,0.001,-0.001,-0.002,0.005,-0.043,1.44,-1.26,2.878
2024-10-23 22:26:16.314,21099.85,0.303,0.952,-0.04,-0.001,0.003,-0.004,0.003,0.002,-0.038,1.44,-1.261,2.878
2024-10-23 22:26:16.323,21099.86,0.302,0.952,-0.04,-0.001,0.008,-0.007,0.001,-0.003,-0.034,1.439,-1.261,2.878
2024-10-23 22:26:16.333,21099.87,0.302,0.952,-0.04,0.0,0.014,-0.007,-0.003,-0.004,-0.022,1.439,-1.261,2.878
2024-10-23 22:26:16.343,21099.88,0.302,0.952,-0.04,0.0,0.008,-0.007,-0.015,-0.008,-0.014,1.439,-1.261,2.878
2024-10-23 22:26:16.353,21099.89,0.302,0.952,-0.04,0.001,-0.007,-0.008,-0.023,-0.009,-0.006,1.44,-1.261,2.879
2024-10-23 22:26:16.363,21099.9,0.302,0.952,-0.039,0.002,0.001,-0.002,-0.021,-0.016,0.015,1.441,-1.261,2.88
2024-10-23 22:26:16.374,21099.91,0.302,0.952,-0.039,-0.003,0.012,0.0,0.002,-0.014,0.025,1.441,-1.261,2.88
2024-10-23 22:26:16.384,21099.92,0.303,0.952,-0.04,-0.004,-0.006,-0.003,0.015,-0.014,0.033,1.441,-1.261,2.88
2024-10-23 22:26:16.393,21099.93,0.303,0.952,-0.04,-0.003,-0.011,-0.003,0.03,-0.011,0.033,1.44,-1.26,2.879
2024-10-23 22:26:16.403,21099.94,0.303,0.952,-0.04,-0.002,0.006,0.003,0.021,-0.011,0.027,1.439,-1.26,2.878
2024-10-23 22:26:16.414,21099.95,0.303,0.952,-0.04,-0.003,0.017,0.008,0.013,-0.011,0.018,1.438,-1.26,2.878
2024-10-23 22:26:16.423,21099.96,0.303,0.952,-0.041,-0.004,0.01,0.01,0.017,-0.009,0.023,1.438,-1.26,2.877
2024-10-23 22:26:16.434,21099.97,0.304,0.952,-0.041,-0.001,-0.004,0.005,-0.001,-0.028,0.032,1.437,-1.259,2.877
2024-10-23 22:26:16.443,21099.98,0.304,0.952,-0.041,0.002,-0.01,0.001,0.014,-0.038,0.05,1.437,-1.259,2.877
2024-10-23 22:26:16.453,21099.99,0.304,0.952,-0.041,0.001,-0.017,-0.005,0.001,-0.051,0.05,1.436,-1.259,2.877
2024-10-23 22:26:16.463,21100.0,0.305,0.951,-0.041,0.001,-0.021,-0.002,-0.001,-0.052,0.053,1.436,-1.258,2.877
2024-10-23 22:26:16.473,21100.01,0.305,0.951,-0.041,-0.004,0.0,0.003,-0.025,-0.048,0.051,1.436,-1.258,2.877
2024-10-23 22:26:16.483,21100.02,0.306,0.951,-0.041,-0.008,0.007,0.003,-0.044,-0.037,0.049,1.437,-1.257,2.879
2024-10-23 22:26:16.493,21100.03,0.306,0.951,-0.041,-0.008,-0.0,-0.0,-0.048,-0.03,0.048,1.438,-1.257,2.881
2024-10-23 22:26:16.503,21100.04,0.307,0.951,-0.04,-0.006,-0.01,-0.008,-0.033,-0.019,0.045,1.44,-1.256,2.882
2024-10-23 22:26:16.513,21100.05,0.307,0.951,-0.04,-0.002,-0.011,-0.015,-0.029,-0.016,0.034,1.441,-1.256,2.884
2024-10-23 22:26:16.523,21100.06,0.307,0.951,-0.04,-0.0,-0.005,-0.013,-0.033,-0.0,0.019,1.442,-1.256,2.885
2024-10-23 22:26:16.533,21100.07,0.307,0.951,-0.04,-0.001,0.003,-0.007,-0.04,-0.007,-0.009,1.443,-1.256,2.886
2024-10-23 22:26:16.543,21100.08,0.307,0.951,-0.039,-0.001,-0.008,-0.009,-0.006,0.001,-0.023,1.443,-1.256,2.887
2024-10-23 22:26:16.553,21100.09,0.307,0.951,-0.039,0.002,-0.02,-0.01,0.015,0.01,-0.038,1.443,-1.256,2.886
2024-10-23 22:26:16.563,21100.1,0.306,0.951,-0.039,0.003,-0.012,0.003,-0.005,0.029,-0.057,1.443,-1.257,2.886
2024-10-23 22:26:16.574,21100.11,0.305,0.951,-0.039,0.004,-0.012,0.017,-0.009,0.053,-0.102,1.443,-1.258,2.886
2024-10-23 22:26:16.584,21100.119,0.304,0.952,-0.04,-0.001,-0.032,0.024,0.214,0.084,-0.143,1.441,-1.259,2.883
2024-10-23 22:26:16.593,21100.129,0.303,0.952,-0.042,-0.006,-0.053,0.028,0.167,0.105,-0.044,1.434,-1.259,2.875
2024-10-23 22:26:16.603,21100.139,0.303,0.952,-0.043,0.014,-0.035,0.047,0.149,0.05,-0.178,1.431,-1.26,2.87
2024-10-23 22:26:16.613,21100.149,0.3,0.953,-0.046,0.02,0.067,0.066,0.53,0.036,-0.281,1.42,-1.262,2.858
2024-10-23 22:26:16.623,21100.159,0.297,0.953,-0.052,-0.023,0.083,0.032,0.975,0.117,-0.345,1.396,-1.264,2.833
2024-10-23 22:26:16.633,21100.169,0.296,0.953,-0.06,0.002,0.137,0.01,0.528,0.305,-0.031,1.37,-1.264,2.803
2024-10-23 22:26:16.643,21100.179,0.295,0.954,-0.062,0.012,0.128,0.041,0.129,0.16,-0.262,1.364,-1.265,2.794
2024-10-23 22:26:16.653,21100.189,0.292,0.954,-0.063,-0.005,0.074,0.028,0.192,0.176,-0.32,1.359,-1.268,2.787
2024-10-23 22:26:16.663,21100.199,0.29,0.955,-0.065,-0.028,-0.029,-0.026,0.263,0.066,-0.164,1.352,-1.27,2.778
2024-10-23 22:26:16.673,21100.209,0.288,0.955,-0.068,0.057,0.109,-0.088,0.503,0.021,-0.152,1.339,-1.27,2.764
2024-10-23 22:26:16.683,21100.219,0.287,0.955,-0.074,0.062,0.089,-0.076,0.628,0.008,-0.099,1.32,-1.27,2.744
2024-10-23 22:26:16.693,21100.229,0.286,0.955,-0.08,-0.008,-0.162,-0.07,0.645,0.01,-0.022,1.299,-1.269,2.723
2024-10-23 22:26:16.703,21100.239,0.286,0.954,-0.085,-0.024,-0.213,-0.035,0.533,0.008,0.05,1.281,-1.267,2.704
2024-10-23 22:26:16.713,21100.249,0.287,0.954,-0.089,-0.043,-0.125,-0.006,0.333,-0.022,0.074,1.269,-1.265,2.69
2024-10-23 22:26:16.723,21100.259,0.288,0.953,-0.092,-0.052,-0.088,0.002,0.134,-0.091,0.095,1.262,-1.264,2.684
2024-10-23 22:26:16.733,21100.269,0.289,0.953,-0.093,-0.033,-0.106,0.02,0.046,-0.137,0.09,1.259,-1.263,2.682
2024-10-23 22:26:16.743,21100.279,0.289,0.953,-0.094,-0.02,-0.075,0.028,0.126,-0.119,0.059,1.256,-1.262,2.681
2024-10-23 22:26:16.753,21100.289,0.29,0.952,-0.096,-0.024,0.008,0.035,0.249,-0.112,0.11,1.25,-1.26,2.676
2024-10-23 22:26:16.764,21100.299,0.291,0.952,-0.099,-0.015,0.045,0.041,0.169,-0.14,0.184,1.244,-1.258,2.67
2024-10-23 22:26:16.773,21100.309,0.293,0.951,-0.1,0.01,0.022,0.05,-0.023,-0.143,0.15,1.242,-1.256,2.669
2024-10-23 22:26:16.783,21100.319,0.294,0.951,-0.099,0.026,0.023,0.051,-0.109,-0.137,0.075,1.244,-1.256,2.673
2024-10-23 22:26:16.793,21100.329,0.294,0.951,-0.098,0.037,0.047,0.021,-0.192,-0.016,0.022,1.248,-1.256,2.678
2024-10-23 22:26:16.803,21100.339,0.294,0.951,-0.096,0.041,0.031,-0.02,-0.37,-0.034,0.054,1.256,-1.256,2.687
2024-10-23 22:26:16.813,21100.349,0.295,0.951,-0.092,0.04,0.025,-0.045,-0.399,-0.045,0.051,1.268,-1.257,2.7
2024-10-23 22:26:16.823,21100.359,0.295,0.951,-0.089,0.024,0.02,-0.053,-0.177,-0.059,0.053,1.277,-1.257,2.71
2024-10-23 22:26:16.833,21100.369,0.296,0.951,-0.089,0.008,0.048,-0.065,0.072,-0.051,0.084,1.278,-1.257,2.712
2024-10-23 22:26:16.843,21100.379,0.297,0.951,-0.091,0.018,0.089,-0.046,0.204,-0.045,0.106,1.274,-1.255,2.708
2024-10-23 22:26:16.853,21100.389,0.298,0.95,-0.093,0.01,0.068,-0.007,0.172,-0.056,0.096,1.269,-1.254,2.703
2024-10-23 22:26:16.863,21100.399,0.298,0.95,-0.094,-0.015,0.014,0.029,0.099,-0.068,0.08,1.265,-1.253,2.7
2024-10-23 22:26:16.873,21100.409,0.299,0.95,-0.095,-0.02,-0.016,0.044,0.013,-0.068,0.064,1.264,-1.252,2.699
2024-10-23 22:26:16.883,21100.419,0.299,0.949,-0.095,-0.02,-0.03,0.037,-0.021,-0.064,0.048,1.264,-1.251,2.699
2024-10-23 22:26:16.893,21100.429,0.3,0.949,-0.095,-0.018,-0.038,0.029,-0.046,-0.064,0.035,1.264,-1.251,2.701
2024-10-23 22:26:16.903,21100.439,0.3,0.949,-0.095,-0.014,-0.046,0.017,-0.053,-0.056,0.017,1.265,-1.251,2.702
2024-10-23 22:26:16.913,21100.449,0.3,0.949,-0.094,-0.012,-0.041,0.007,-0.083,-0.029,0.001,1.266,-1.251,2.704
2024-10-23 22:26:16.922,21100.459,0.3,0.949,-0.094,-0.011,-0.04,-0.001,-0.099,-0.029,-0.021,1.268,-1.251,2.707
2024-10-23 22:26:16.933,21100.469,0.3,0.95,-0.093,-0.006,-0.041,-0.004,-0.115,-0.026,-0.024,1.271,-1.252,2.71
2024-10-23 22:26:16.943,21100.479,0.299,0.95,-0.092,-0.002,-0.03,-0.007,-0.122,-0.016,-0.03,1.274,-1.252,2.713
2024-10-23 22:26:16.953,21100.489,0.299,0.95,-0.09,-0.0,-0.017,-0.006,-0.125,-0.018,-0.033,1.277,-1.253,2.717
2024-10-23 22:26:16.963,21100.499,0.299,0.95,-0.089,-0.0,-0.02,-0.008,-0.132,-0.011,-0.039,1.281,-1.254,2.72
2024-10-23 22:26:16.973,21100.509,0.298,0.95,-0.088,0.004,-0.013,-0.005,-0.129,-0.006,-0.033,1.284,-1.255,2.724
2024-10-23 22:26:16.982,21100.519,0.298,0.951,-0.087,0.004,-0.001,-0.003,-0.123,-0.011,-0.031,1.288,-1.255,2.728
2024-10-23 22:26:16.992,21100.529,0.298,0.951,-0.086,0.003,-0.002,-0.002,-0.129,-0.01,-0.034,1.291,-1.256,2.731
2024-10-23 22:26:17.002,21100.539,0.297,0.951,-0.084,0.004,-0.003,-0.001,-0.138,-0.012,-0.032,1.294,-1.256,2.735
2024-10-23 22:26:17.012,21100.549,0.297,0.951,-0.083,0.006,-0.003,0.0,-0.15,-0.006,-0.025,1.298,-1.257,2.739
2024-10-23 22:26:17.023,21100.559,0.297,0.951,-0.082,0.005,-0.003,-0.004,-0.148,-0.019,-0.03,1.302,-1.258,2.744
2024-10-23 22:26:17.032,21100.569,0.297,0.952,-0.081,0.004,-0.005,-0.008,-0.125,-0.001,-0.032,1.306,-1.258,2.747
2024-10-23 22:26:17.042,21100.579,0.296,0.952,-0.08,0.0,-0.001,-0.009,-0.109,-0.003,-0.033,1.309,-1.259,2.751
2024-10-23 22:26:17.052,21100.589,0.296,0.952,-0.079,-0.002,0.008,-0.006,-0.069,0.0,-0.033,1.311,-1.259,2.753
2024-10-23 22:26:17.062,21100.599,0.296,0.952,-0.078,-0.003,0.005,-0.001,-0.03,0.005,-0.034,1.312,-1.26,2.754
2024-10-23 22:26:17.072,21100.609,0.296,0.952,-0.078,-0.004,0.006,0.009,0.004,0.01,-0.025,1.312,-1.26,2.754
2024-10-23 22:26:17.083,21100.619,0.295,0.952,-0.078,-0.002,0.014,0.015,-0.007,0.01,-0.018,1.312,-1.26,2.754
2024-10-23 22:26:17.092,21100.629,0.295,0.952,-0.078,-0.001,0.005,0.014,-0.02,0.006,-0.019,1.312,-1.26,2.754
2024-10-23 22:26:17.102,21100.639,0.295,0.952,-0.078,-0.003,-0.008,0.011,-0.035,0.004,-0.023,1.312,-1.261,2.754
2024-10-23 22:26:17.112,21100.649,0.295,0.952,-0.078,-0.003,-0.002,0.006,-0.017,0.004,-0.02,1.313,-1.261,2.755
2024-10-23 22:26:17.122,21100.659,0.295,0.952,-0.078,-0.003,0.009,-0.002,-0.005,0.014,-0.021,1.313,-1.261,2.755
2024-10-23 22:26:17.132,21100.669,0.295,0.952,-0.078,-0.003,0.011,-0.007,0.001,0.008,-0.018,1.313,-1.261,2.754
2024-10-23 22:26:17.142,21100.679,0.294,0.953,-0.078,-0.0,0.008,-0.005,-0.012,0.021,-0.013,1.313,-1.261,2.754
2024-10-23 22:26:17.152,21100.689,0.294,0.953,-0.077,0.001,0.002,-0.002,-0.042,0.013,-0.012,1.314,-1.262,2.755
2024-10-23 22:26:17.162,21100.699,0.294,0.953,-0.077,0.002,-0.005,-0.003,-0.053,0.009,-0.011,1.316,-1.262,2.757
2024-10-23 22:26:17.172,21100.708,0.294,0.953,-0.076,0.002,-0.015,-0.003,-0.053,0.003,0.0,1.318,-1.262,2.759
2024-10-23 22:26:17.182,21100.718,0.294,0.953,-0.076,-0.001,-0.012,-0.005,-0.051,0.008,-0.001,1.319,-1.262,2.761
2024-10-23 22:26:17.192,21100.728,0.294,0.953,-0.075,-0.004,-0.001,-0.004,-0.051,0.009,-0.002,1.321,-1.262,2.763
2024-10-23 22:26:17.202,21100.738,0.294,0.953,-0.075,-0.005,-0.003,-0.003,-0.044,0.008,-0.004,1.323,-1.263,2.764
2024-10-23 22:26:17.212,21100.748,0.294,0.953,-0.074,-0.001,-0.005,-0.003,-0.035,0.015,-0.007,1.324,-1.263,2.765
2024-10-23 22:26:17.222,21100.758,0.294,0.953,-0.074,0.0,-0.004,-0.004,-0.039,0.024,-0.007,1.325,-1.263,2.766
2024-10-23 22:26:17.232,21100.768,0.294,0.953,-0.073,-0.003,-0.003,-0.004,-0.037,0.016,-0.012,1.326,-1.263,2.767
2024-10-23 22:26:17.242,21100.778,0.294,0.953,-0.073,-0.0,-0.007,-0.005,-0.047,0.032,-0.008,1.327,-1.263,2.768
2024-10-23 22:26:17.252,21100.788,0.294,0.953,-0.073,-0.001,-0.009,-0.006,-0.063,0.031,-0.007,1.329,-1.263,2.77
2024-10-23 22:26:17.262,21100.798,0.294,0.953,-0.072,-0.002,-0.001,0.001,-0.102,0.033,-0.009,1.331,-1.264,2.772
2024-10-23 22:26:17.272,21100.808,0.294,0.953,-0.071,-0.005,-0.004,0.007,-0.114,0.022,-0.0,1.335,-1.264,2.775
2024-10-23 22:26:17.282,21100.818,0.294,0.953,-0.07,-0.003,-0.011,0.005,-0.119,0.021,0.008,1.338,-1.264,2.779
2024-10-23 22:26:17.292,21100.828,0.294,0.953,-0.068,-0.0,-0.015,0.001,-0.123,0.022,0.005,1.342,-1.264,2.783
2024-10-23 22:26:17.302,21100.838,0.294,0.953,-0.067,-0.002,-0.002,0.002,-0.126,0.029,0.003,1.346,-1.265,2.786
2024-10-23 22:26:17.312,21100.848,0.294,0.954,-0.066,-0.008,0.006,0.0,-0.144,0.029,0.002,1.35,-1.265,2.79
2024-10-23 22:26:17.322,21100.858,0.294,0.954,-0.065,-0.005,0.001,-0.004,-0.15,0.026,-0.001,1.355,-1.265,2.795
2024-10-23 22:26:17.332,21100.868,0.294,0.954,-0.063,-0.002,-0.009,-0.003,-0.156,0.027,-0.002,1.359,-1.265,2.8
2024-10-23 22:26:17.342,21100.878,0.294,0.954,-0.062,-0.003,-0.013,-0.005,-0.115,0.028,-0.013,1.364,-1.266,2.804
2024-10-23 22:26:17.352,21100.888,0.294,0.954,-0.061,-0.002,-0.006,-0.003,-0.073,0.026,-0.006,1.367,-1.266,2.807
2024-10-23 22:26:17.362,21100.898,0.294,0.954,-0.06,-0.001,-0.004,-0.002,-0.033,0.024,-0.007,1.368,-1.266,2.808
2024-10-23 22:26:17.372,21100.908,0.294,0.954,-0.06,-0.0,0.002,0.002,0.002,0.026,-0.005,1.369,-1.266,2.809
2024-10-23 22:26:17.382,21100.918,0.294,0.954,-0.06,-0.004,-0.001,0.003,0.006,0.013,-0.003,1.369,-1.266,2.808
2024-10-23 22:26:17.392,21100.928,0.294,0.954,-0.06,-0.001,-0.002,0.005,0.014,0.01,0.0,1.368,-1.266,2.808
2024-10-23 22:26:17.402,21100.938,0.294,0.954,-0.06,-0.001,-0.001,0.007,0.004,0.012,-0.003,1.368,-1.266,2.807
2024-10-23 22:26:17.412,21100.948,0.294,0.954,-0.06,-0.003,-0.003,0.008,-0.006,0.008,-0.009,1.368,-1.266,2.807
2024-10-23 22:26:17.421,21100.958,0.293,0.954,-0.06,-0.002,0.002,0.009,-0.005,0.013,-0.012,1.368,-1.267,2.807
2024-10-23 22:26:17.432,21100.968,0.293,0.954,-0.06,-0.003,0.006,0.007,-0.011,0.011,-0.017,1.368,-1.267,2.807
2024-10-23 22:26:17.442,21100.978,0.293,0.954,-0.06,-0.002,0.005,0.005,-0.013,0.005,-0.018,1.368,-1.267,2.807
2024-10-23 22:26:17.452,21100.988,0.293,0.954,-0.06,-0.0,0.001,0.005,-0.011,0.001,-0.014,1.369,-1.267,2.808
2024-10-23 22:26:17.462,21100.998,0.293,0.954,-0.06,0.001,0.002,0.002,-0.002,0.001,0.001,1.369,-1.267,2.808
2024-10-23 22:26:17.472,21101.008,0.293,0.954,-0.06,0.0,0.001,-0.0,0.001,-0.005,0.003,1.369,-1.267,2.808
2024-10-23 22:26:17.482,21101.018,0.293,0.954,-0.06,0.002,-0.001,0.001,0.006,-0.0,0.012,1.369,-1.267,2.808
2024-10-23 22:26:17.492,21101.028,0.293,0.954,-0.06,0.001,0.001,0.002,0.0,0.001,0.015,1.369,-1.267,2.808
2024-10-23 22:26:17.502,21101.038,0.293,0.954,-0.06,0.001,0.004,0.001,-0.004,0.006,0.006,1.37,-1.267,2.809
2024-10-23 22:26:17.512,21101.048,0.293,0.954,-0.06,0.002,0.005,0.003,0.0,-0.001,0.003,1.37,-1.267,2.809
2024-10-23 22:26:17.521,21101.058,0.293,0.954,-0.06,0.002,0.001,0.003,0.006,0.004,0.0,1.37,-1.267,2.809
2024-10-23 22:26:17.532,21101.068,0.293,0.954,-0.06,0.001,-0.0,0.002,0.011,-0.0,0.003,1.37,-1.267,2.809
2024-10-23 22:26:17.542,21101.078,0.293,0.954,-0.06,-0.001,0.001,0.001,0.014,-0.002,0.002,1.37,-1.267,2.808
2024-10-23 22:26:17.551,21101.088,0.293,0.954,-0.06,-0.001,-0.003,0.001,0.017,-0.002,-0.004,1.369,-1.267,2.808
2024-10-23 22:26:17.561,21101.098,0.293,0.954,-0.06,-0.002,-0.004,0.002,0.011,0.0,-0.006,1.369,-1.267,2.807
2024-10-23 22:26:17.571,21101.108,0.293,0.954,-0.06,-0.002,-0.005,0.002,0.017,0.009,-0.0,1.368,-1.267,2.807
2024-10-23 22:26:17.582,21101.118,0.293,0.954,-0.06,-0.003,-0.004,0.003,0.013,0.007,-0.007,1.368,-1.267,2.806
2024-10-23 22:26:17.591,21101.128,0.293,0.954,-0.06,-0.001,-0.004,0.002,0.013,0.004,-0.012,1.368,-1.267,2.806
2024-10-23 22:26:17.601,21101.138,0.293,0.954,-0.061,-0.0,-0.005,0.002,0.015,0.005,-0.018,1.367,-1.267,2.805
2024-10-23 22:26:17.612,21101.148,0.293,0.954,-0.061,-0.0,-0.004,0.004,0.016,0.013,-0.011,1.367,-1.267,2.805
2024-10-23 22:26:17.621,21101.158,0.293,0.954,-0.061,-0.003,-0.003,0.002,0.011,0.013,-0.016,1.366,-1.267,2.804
2024-10-23 22:26:17.631,21101.168,0.293,0.954,-0.061,0.001,-0.005,0.001,0.001,0.006,-0.021,1.366,-1.267,2.804
2024-10-23 22:26:17.641,21101.178,0.292,0.954,-0.061,0.002,-0.01,0.001,0.003,0.002,-0.02,1.366,-1.268,2.804
2024-10-23 22:26:17.651,21101.188,0.292,0.954,-0.061,0.001,-0.013,0.002,0.001,0.006,-0.02,1.366,-1.268,2.804
2024-10-23 22:26:17.661,21101.198,0.292,0.954,-0.061,-0.001,-0.01,0.004,0.016,0.013,-0.018,1.366,-1.268,2.804
2024-10-23 22:26:17.671,21101.208,0.292,0.955,-0.061,-0.004,-0.004,0.004,0.008,0.009,-0.019,1.365,-1.268,2.803
2024-10-23 22:26:17.681,21101.218,0.292,0.955,-0.061,-0.001,0.002,0.006,0.007,0.006,-0.015,1.365,-1.268,2.803
2024-10-23 22:26:17.691,21101.228,0.292,0.955,-0.061,-0.001,0.003,0.007,0.004,0.001,-0.004,1.365,-1.268,2.803
2024-10-23 22:26:17.701,21101.238,0.292,0.955,-0.061,0.001,-0.003,0.003,0.004,-0.005,-0.011,1.365,-1.268,2.802
2024-10-23 22:26:17.711,21101.248,0.291,0.955,-0.061,0.001,-0.0,0.0,0.005,-0.002,-0.008,1.365,-1.268,2.802
2024-10-23 22:26:17.721,21101.258,0.291,0.955,-0.061,-0.003,0.006,0.001,0.007,-0.003,-0.004,1.365,-1.268,2.802
2024-10-23 22:26:17.731,21101.268,0.291,0.955,-0.061,-0.002,0.008,-0.0,0.006,-0.0,0.002,1.364,-1.268,2.802
2024-10-23 22:26:17.741,21101.278,0.292,0.955,-0.061,0.001,-0.001,-0.002,-0.002,-0.005,0.002,1.365,-1.268,2.802
2024-10-23 22:26:17.751,21101.288,0.292,0.955,-0.061,0.003,-0.008,-0.0,-0.004,-0.002,0.005,1.365,-1.268,2.802
2024-10-23 22:26:17.761,21101.298,0.292,0.955,-0.061,0.001,-0.007,0.002,-0.006,-0.002,0.002,1.365,-1.268,2.803
2024-10-23 22:26:17.771,21101.307,0.292,0.955,-0.061,-0.003,-0.002,0.004,0.008,-0.006,0.002,1.365,-1.268,2.803
2024-10-23 22:26:17.781,21101.317,0.292,0.955,-0.061,-0.003,0.002,0.006,0.01,-0.004,0.002,1.365,-1.268,2.802
2024-10-23 22:26:17.791,21101.327,0.292,0.955,-0.061,-0.002,0.004,0.005,0.011,-0.002,0.001,1.365,-1.268,2.802
2024-10-23 22:26:17.801,21101.337,0.292,0.955,-0.061,-0.003,0.002,0.003,0.006,-0.001,-0.0,1.364,-1.268,2.802
2024-10-23 22:26:17.811,21101.347,0.292,0.955,-0.061,-0.001,-0.002,0.005,0.009,-0.005,0.002,1.364,-1.268,2.802
2024-10-23 22:26:17.821,21101.357,0.292,0.955,-0.061,-0.001,-0.0,0.005,0.002,-0.009,0.001,1.364,-1.268,2.801
2024-10-23 22:26:17.831,21101.367,0.292,0.955,-0.061,-0.001,0.0,0.003,-0.009,-0.011,0.001,1.364,-1.268,2.802
2024-10-23 22:26:17.841,21101.377,0.292,0.955,-0.061,0.001,-0.0,0.001,0.003,-0.009,0.005,1.364,-1.268,2.802
2024-10-23 22:26:17.851,21101.387,0.292,0.955,-0.061,-0.002,-0.004,-0.002,0.004,-0.003,0.011,1.364,-1.268,2.802
2024-10-23 22:26:17.861,21101.397,0.292,0.955,-0.061,-0.001,-0.007,-0.007,0.009,-0.005,0.015,1.364,-1.268,2.802
2024-10-23 22:26:17.871,21101.407,0.292,0.954,-0.061,0.001,-0.004,-0.007,0.013,-0.006,0.016,1.364,-1.268,2.802
2024-10-23 22:26:17.881,21101.417,0.292,0.954,-0.061,-0.002,-0.008,-0.006,0.011,-0.003,0.012,1.364,-1.268,2.802
2024-10-23 22:26:17.891,21101.427,0.292,0.954,-0.062,-0.003,-0.005,-0.002,0.011,0.004,0.007,1.363,-1.268,2.801
2024-10-23 22:26:17.901,21101.437,0.292,0.954,-0.062,-0.003,-0.006,0.0,-0.006,-0.0,0.003,1.363,-1.268,2.801
2024-10-23 22:26:17.911,21101.447,0.292,0.954,-0.061,-0.001,-0.008,0.006,-0.009,0.009,-0.002,1.364,-1.268,2.802
2024-10-23 22:26:17.921,21101.457,0.292,0.954,-0.061,-0.0,-0.01,0.008,-0.003,0.006,-0.006,1.364,-1.268,2.802
2024-10-23 22:26:17.931,21101.467,0.292,0.954,-0.061,-0.001,-0.008,0.005,0.009,0.008,-0.002,1.364,-1.268,2.802
2024-10-23 22:26:17.941,21101.477,0.292,0.954,-0.061,-0.001,0.001,0.007,0.005,-0.002,-0.0,1.363,-1.268,2.801
2024-10-23 22:26:17.951,21101.487,0.292,0.954,-0.062,0.002,0.002,0.004,-0.001,-0.008,-0.001,1.363,-1.268,2.801
2024-10-23 22:26:17.961,21101.497,0.292,0.954,-0.062,-0.001,-0.004,0.001,-0.001,-0.008,0.001,1.363,-1.268,2.801
2024-10-23 22:26:17.971,21101.507,0.292,0.954,-0.062,-0.003,-0.003,0.0,0.009,-0.007,0.001,1.363,-1.268,2.801
2024-10-23 22:26:17.981,21101.517,0.292,0.954,-0.062,-0.003,0.008,-0.002,0.013,-0.005,0.003,1.362,-1.268,2.8
2024-10-23 22:26:17.991,21101.527,0.292,0.954,-0.062,-0.002,0.007,-0.003,0.015,-0.011,0.006,1.362,-1.268,2.8
2024-10-23 22:26:18.001,21101.537,0.292,0.954,-0.062,-0.001,0.003,-0.002,0.018,-0.003,0.015,1.362,-1.267,2.8
2024-10-23 22:26:18.011,21101.547,0.292,0.954,-0.062,-0.001,-0.001,-0.001,0.012,-0.006,0.017,1.361,-1.267,2.8
2024-10-23 22:26:18.021,21101.557,0.292,0.954,-0.062,-0.001,-0.0,-0.001,0.006,0.0,0.009,1.361,-1.267,2.799
2024-10-23 22:26:18.031,21101.567,0.293,0.954,-0.062,-0.002,-0.001,0.002,-0.002,-0.011,0.011,1.361,-1.267,2.8
2024-10-23 22:26:18.040,21101.577,0.293,0.954,-0.062,-0.002,-0.008,0.002,0.006,-0.003,0.015,1.361,-1.267,2.8
2024-10-23 22:26:18.051,21101.587,0.293,0.954,-0.062,-0.002,-0.006,0.001,0.013,-0.006,0.02,1.361,-1.267,2.799
2024-10-23 22:26:18.060,21101.597,0.293,0.954,-0.062,-0.004,0.009,0.005,0.011,-0.005,0.021,1.361,-1.267,2.799
2024-10-23 22:26:18.070,21101.607,0.293,0.954,-0.063,-0.003,0.007,0.005,0.01,-0.005,0.019,1.36,-1.266,2.799
2024-10-23 22:26:18.080,21101.617,0.293,0.954,-0.063,-0.003,-0.002,0.005,0.01,-0.013,0.022,1.36,-1.266,2.799
2024-10-23 22:26:18.090,21101.627,0.294,0.954,-0.063,-0.004,-0.0,0.002,0.011,-0.013,0.02,1.36,-1.266,2.798
2024-10-23 22:26:18.101,21101.637,0.294,0.954,-0.063,-0.003,0.0,0.002,0.007,-0.018,0.018,1.359,-1.266,2.798
2024-10-23 22:26:18.111,21101.647,0.294,0.954,-0.063,-0.002,-0.003,0.002,0.013,-0.026,0.026,1.359,-1.266,2.798
2024-10-23 22:26:18.121,21101.657,0.294,0.954,-0.063,-0.002,-0.005,0.002,0.001,-0.023,0.027,1.359,-1.265,2.798
2024-10-23 22:26:18.131,21101.667,0.294,0.954,-0.063,-0.0,-0.004,0.003,-0.005,-0.027,0.028,1.359,-1.265,2.798
2024-10-23 22:26:18.141,21101.677,0.295,0.954,-0.063,-0.002,-0.003,0.006,-0.006,-0.023,0.032,1.359,-1.265,2.799
2024-10-23 22:26:18.150,21101.687,0.295,0.953,-0.063,-0.003,-0.004,0.003,-0.023,-0.003,0.024,1.36,-1.265,2.799
2024-10-23 22:26:18.160,21101.697,0.295,0.953,-0.063,0.001,-0.001,0.001,-0.042,-0.009,0.012,1.361,-1.265,2.801
2024-10-23 22:26:18.170,21101.707,0.295,0.953,-0.063,0.002,-0.008,-0.001,-0.0,-0.019,0.001,1.362,-1.265,2.802
2024-10-23 22:26:18.180,21101.717,0.295,0.953,-0.063,0.005,-0.01,-0.005,0.033,-0.001,0.006,1.361,-1.264,2.801
2024-10-23 22:26:18.190,21101.727,0.295,0.953,-0.063,0.001,0.006,-0.001,0.012,0.0,0.006,1.36,-1.264,2.8
2024-10-23 22:26:18.200,21101.737,0.295,0.953,-0.063,-0.005,0.004,0.006,-0.004,-0.008,0.005,1.36,-1.264,2.8
2024-10-23 22:26:18.210,21101.747,0.295,0.953,-0.063,-0.001,-0.016,0.008,-0.021,-0.011,0.005,1.361,-1.264,2.801
2024-10-23 22:26:18.221,21101.757,0.295,0.953,-0.063,0.001,-0.017,0.003,-0.01,-0.013,0.004,1.361,-1.264,2.801
2024-10-23 22:26:18.231,21101.767,0.295,0.953,-0.063,0.001,-0.004,-0.002,-0.007,-0.01,0.006,1.361,-1.264,2.802
2024-10-23 22:26:18.240,21101.777,0.295,0.953,-0.063,-0.003,-0.002,-0.004,-0.001,-0.008,0.004,1.361,-1.264,2.802
2024-10-23 22:26:18.250,21101.787,0.295,0.953,-0.063,-0.001,-0.007,-0.004,-0.0,-0.008,0.01,1.361,-1.264,2.802
2024-10-23 22:26:18.260,21101.797,0.295,0.953,-0.063,0.002,-0.007,-0.005,0.001,0.0,0.007,1.361,-1.264,2.802
2024-10-23 22:26:18.270,21101.807,0.295,0.953,-0.063,0.001,-0.005,-0.001,-0.003,-0.006,0.002,1.361,-1.264,2.802
2024-10-23 22:26:18.280,21101.817,0.295,0.953,-0.063,-0.001,-0.001,0.001,0.013,0.0,-0.008,1.361,-1.264,2.802
2024-10-23 22:26:18.290,21101.827,0.295,0.953,-0.063,0.0,0.002,0.0,0.016,0.004,-0.003,1.361,-1.264,2.802
2024-10-23 22:26:18.301,21101.837,0.295,0.953,-0.063,-0.0,0.0,-0.004,0.005,0.002,-0.004,1.361,-1.264,2.801
2024-10-23 22:26:18.311,21101.847,0.295,0.953,-0.063,0.0,-0.0,-0.001,0.002,0.006,-0.008,1.361,-1.264,2.801
2024-10-23 22:26:18.320,21101.857,0.295,0.953,-0.063,-0.0,-0.002,0.002,0.002,0.014,0.002,1.36,-1.264,2.801
2024-10-23 22:26:18.330,21101.867,0.295,0.953,-0.063,0.0,0.001,0.002,-0.001,0.013,-0.002,1.361,-1.264,2.801
2024-10-23 22:26:18.340,21101.877,0.295,0.953,-0.063,0.001,0.002,0.005,0.011,0.011,-0.002,1.36,-1.264,2.801
2024-10-23 22:26:18.350,21101.887,0.295,0.953,-0.063,0.002,0.001,0.007,0.015,0.008,0.001,1.36,-1.264,2.8
2024-10-23 22:26:18.360,21101.897,0.295,0.953,-0.063,0.001,-0.001,0.004,0.024,0.0,-0.007,1.359,-1.264,2.8
2024-10-23 22:26:18.370,21101.906,0.295,0.953,-0.063,0.001,0.002,0.004,0.01,-0.002,-0.007,1.359,-1.264,2.799
2024-10-23 22:26:18.380,21101.916,0.295,0.953,-0.064,-0.001,-0.002,0.005,-0.009,-0.003,-0.006,1.359,-1.264,2.799
2024-10-23 22:26:18.390,21101.926,0.295,0.953,-0.063,-0.002,-0.007,0.003,-0.014,-0.003,-0.002,1.359,-1.264,2.799
2024-10-23 22:26:18.400,21101.936,0.295,0.953,-0.063,-0.001,-0.02,-0.001,-0.005,-0.002,0.011,1.359,-1.264,2.8
2024-10-23 22:26:18.410,21101.946,0.295,0.953,-0.063,0.001,-0.023,-0.007,0.007,-0.008,0.011,1.36,-1.264,2.8
2024-10-23 22:26:18.420,21101.956,0.295,0.953,-0.063,-0.0,-0.001,-0.002,0.014,-0.002,0.009,1.359,-1.264,2.8
2024-10-23 22:26:18.430,21101.966,0.295,0.953,-0.063,-0.005,0.006,0.003,-0.007,0.0,0.002,1.359,-1.264,2.8
2024-10-23 22:26:18.440,21101.976,0.295,0.953,-0.063,-0.005,-0.005,0.002,-0.009,-0.003,-0.007,1.36,-1.264,2.8
2024-10-23 22:26:18.450,21101.986,0.295,0.953,-0.063,-0.001,-0.01,0.005,0.001,-0.002,-0.008,1.36,-1.264,2.8
2024-10-23 22:26:18.460,21101.996,0.295,0.953,-0.063,0.002,-0.007,0.004,0.012,0.0,-0.009,1.36,-1.264,2.8
2024-10-23 22:26:18.470,21102.006,0.295,0.953,-0.063,0.001,0.002,0.003,0.015,0.007,-0.001,1.359,-1.264,2.799
2024-10-23 22:26:18.480,21102.016,0.295,0.953,-0.064,0.002,0.007,0.001,0.014,-0.001,-0.002,1.359,-1.264,2.799
2024-10-23 22:26:18.490,21102.026,0.295,0.953,-0.064,0.002,0.002,-0.0,0.005,-0.005,-0.004,1.358,-1.264,2.799
2024-10-23 22:26:18.500,21102.036,0.295,0.953,-0.064,0.001,-0.001,0.001,-0.004,-0.001,-0.006,1.358,-1.264,2.798
2024-10-23 22:26:18.510,21102.046,0.295,0.953,-0.064,-0.002,-0.0,0.003,-0.015,-0.004,-0.005,1.359,-1.264,2.799
2024-10-23 22:26:18.520,21102.056,0.295,0.953,-0.063,-0.003,-0.002,0.002,-0.005,-0.001,-0.0,1.359,-1.264,2.799
2024-10-23 22:26:18.530,21102.066,0.295,0.953,-0.063,-0.003,-0.005,0.002,-0.002,-0.006,0.002,1.359,-1.264,2.799
2024-10-23 22:26:18.540,21102.076,0.295,0.953,-0.063,-0.001,-0.008,0.0,0.004,-0.006,0.003,1.359,-1.264,2.799
2024-10-23 22:26:18.550,21102.086,0.295,0.953,-0.063,-0.002,-0.002,0.005,0.007,-0.001,0.008,1.359,-1.264,2.799
2024-10-23 22:26:18.560,21102.096,0.295,0.953,-0.063,-0.003,0.0,0.004,-0.014,-0.006,0.018,1.359,-1.264,2.799
2024-10-23 22:26:18.570,21102.106,0.295,0.953,-0.063,-0.003,-0.006,0.003,-0.024,-0.018,0.031,1.36,-1.264,2.8
2024-10-23 22:26:18.580,21102.116,0.296,0.953,-0.063,-0.0,-0.018,0.002,-0.019,-0.021,0.037,1.36,-1.264,2.801
2024-10-23 22:26:18.590,21102.126,0.296,0.953,-0.063,-0.002,-0.025,-0.004,0.008,-0.021,0.042,1.361,-1.263,2.802
2024-10-23 22:26:18.600,21102.136,0.296,0.953,-0.063,-0.002,-0.011,-0.01,0.03,-0.015,0.043,1.36,-1.263,2.801
2024-10-23 22:26:18.610,21102.146,0.297,0.953,-0.064,-0.004,0.019,-0.002,0.044,-0.006,0.028,1.359,-1.262,2.8
2024-10-23 22:26:18.620,21102.156,0.297,0.953,-0.064,-0.006,0.024,0.004,0.022,-0.006,0.025,1.358,-1.262,2.799
2024-10-23 22:26:18.630,21102.166,0.297,0.953,-0.064,-0.003,0.012,0.005,0.007,-0.007,0.016,1.358,-1.262,2.799
2024-10-23 22:26:18.640,21102.176,0.297,0.953,-0.064,0.003,0.0,0.009,-0.015,-0.001,0.012,1.358,-1.262,2.799
2024-10-23 22:26:18.650,21102.186,0.297,0.953,-0.064,0.004,-0.005,0.005,-0.016,-0.002,0.004,1.359,-1.262,2.8
2024-10-23 22:26:18.660,21102.196,0.297,0.953,-0.064,0.002,-0.0,-0.0,-0.005,0.0,0.003,1.359,-1.262,2.801
2024-10-23 22:26:18.670,21102.206,0.297,0.953,-0.064,0.003,0.005,-0.002,0.026,0.002,0.004,1.359,-1.262,2.8
2024-10-23 22:26:18.680,21102.216,0.297,0.953,-0.064,0.005,0.001,-0.001,0.02,0.008,0.002,1.358,-1.262,2.799
2024-10-23 22:26:18.690,21102.226,0.297,0.953,-0.064,0.002,-0.01,0.001,0.004,0.003,-0.006,1.358,-1.262,2.799
2024-10-23 22:26:18.700,21102.236,0.297,0.953,-0.064,-0.0,-0.011,0.006,0.006,0.003,-0.007,1.358,-1.262,2.799
2024-10-23 22:26:18.710,21102.246,0.297,0.953,-0.064,-0.003,-0.006,0.006,0.008,0.008,-0.011,1.357,-1.262,2.798
2024-10-23 22:26:18.720,21102.256,0.297,0.953,-0.064,-0.006,-0.0,0.003,0.01,0.007,-0.013,1.357,-1.262,2.798
2024-10-23 22:26:18.730,21102.266,0.297,0.953,-0.064,-0.003,-0.004,0.001,0.006,0.004,-0.018,1.357,-1.262,2.798
2024-10-23 22:26:18.739,21102.276,0.297,0.953,-0.064,-0.005,-0.009,0.001,0.003,0.008,-0.015,1.357,-1.262,2.798
2024-10-23 22:26:18.750,21102.286,0.297,0.953,-0.064,-0.004,-0.006,-0.0,-0.001,0.007,-0.017,1.357,-1.262,2.798
2024-10-23 22:26:18.759,21102.296,0.297,0.953,-0.064,-0.002,-0.003,-0.001,-0.004,0.005,-0.017,1.357,-1.263,2.797
2024-10-23 22:26:18.769,21102.306,0.296,0.953,-0.064,-0.002,-0.003,-0.001,-0.001,0.007,-0.016,1.357,-1.263,2.797
2024-10-23 22:26:18.780,21102.316,0.296,0.953,-0.064,-0.002,0.002,0.001,-0.0,0.011,-0.014,1.357,-1.263,2.797
2024-10-23 22:26:18.789,21102.326,0.296,0.953,-0.064,-0.002,0.005,-0.001,0.008,0.014,-0.004,1.357,-1.263,2.797
2024-10-23 22:26:18.799,21102.336,0.296,0.953,-0.064,0.001,0.002,0.001,-0.006,0.003,-0.001,1.357,-1.263,2.797
2024-10-23 22:26:18.810,21102.346,0.296,0.953,-0.064,0.004,-0.007,-0.0,-0.001,-0.001,-0.004,1.357,-1.263,2.797
2024-10-23 22:26:18.820,21102.356,0.296,0.953,-0.064,0.004,-0.005,0.0,-0.005,-0.001,-0.001,1.357,-1.263,2.797
2024-10-23 22:26:18.829,21102.366,0.296,0.953,-0.064,-0.0,-0.002,-0.001,0.004,-0.001,-0.005,1.357,-1.263,2.797
2024-10-23 22:26:18.839,21102.376,0.296,0.953,-0.064,0.0,-0.004,-0.002,-0.007,-0.004,-0.005,1.357,-1.263,2.797
2024-10-23 22:26:18.849,21102.386,0.296,0.953,-0.064,0.003,-0.008,-0.003,-0.039,-0.001,-0.006,1.358,-1.263,2.798
2024-10-23 22:26:18.859,21102.396,0.296,0.953,-0.064,0.005,-0.011,-0.005,-0.071,-0.017,-0.012,1.359,-1.263,2.8
2024-10-23 22:26:18.869,21102.406,0.296,0.953,-0.063,0.006,-0.014,-0.014,-0.12,-0.003,0.014,1.362,-1.264,2.803
2024-10-23 22:26:18.887,21102.416,0.296,0.953,-0.061,0.008,-0.018,-0.019,-0.304,-0.019,0.077,1.369,-1.264,2.81
2024-10-23 22:26:18.892,21102.426,0.297,0.953,-0.058,0.008,-0.006,-0.011,-0.379,-0.071,0.126,1.38,-1.263,2.822
2024-10-23 22:26:18.899,21102.436,0.299,0.953,-0.054,0.005,0.014,0.006,-0.416,-0.028,0.181,1.392,-1.262,2.835
2024-10-23 22:26:18.909,21102.446,0.3,0.953,-0.05,0.005,0.028,0.018,-0.468,0.003,0.147,1.406,-1.262,2.851
2024-10-23 22:26:18.919,21102.456,0.301,0.952,-0.046,0.009,0.062,0.016,-0.426,-0.002,0.105,1.42,-1.261,2.865
2024-10-23 22:26:18.929,21102.466,0.302,0.952,-0.042,0.008,0.056,-0.018,-0.28,-0.096,0.02,1.432,-1.261,2.879
2024-10-23 22:26:18.940,21102.476,0.302,0.952,-0.041,0.016,0.059,-0.055,-0.016,-0.048,0.045,1.435,-1.261,2.882
2024-10-23 22:26:18.949,21102.486,0.303,0.952,-0.042,0.006,0.06,-0.05,-0.02,-0.07,0.068,1.435,-1.26,2.882
2024-10-23 22:26:18.959,21102.496,0.303,0.952,-0.042,-0.005,0.039,-0.024,-0.01,-0.051,0.038,1.434,-1.26,2.883
2024-10-23 22:26:18.969,21102.505,0.304,0.952,-0.042,-0.029,-0.046,-0.001,-0.047,-0.048,0.045,1.435,-1.259,2.884
2024-10-23 22:26:18.979,21102.515,0.304,0.952,-0.042,-0.026,-0.074,0.015,0.004,-0.049,0.01,1.435,-1.259,2.885
2024-10-23 22:26:18.989,21102.525,0.304,0.952,-0.042,-0.014,-0.029,0.021,0.052,-0.025,-0.005,1.434,-1.259,2.884
2024-10-23 22:26:18.999,21102.535,0.304,0.952,-0.043,-0.023,-0.029,0.011,0.084,-0.013,-0.009,1.431,-1.259,2.882
2024-10-23 22:26:19.009,21102.545,0.304,0.952,-0.043,-0.028,-0.031,0.004,0.089,0.0,-0.02,1.429,-1.259,2.879
2024-10-23 22:26:19.019,21102.555,0.303,0.952,-0.044,-0.025,-0.04,0.002,0.056,0.02,-0.023,1.426,-1.259,2.876
2024-10-23 22:26:19.029,21102.565,0.303,0.952,-0.045,-0.015,-0.039,0.005,0.041,0.012,-0.047,1.425,-1.259,2.874
2024-10-23 22:26:19.039,21102.575,0.303,0.952,-0.045,-0.003,-0.029,0.008,0.054,0.016,-0.047,1.423,-1.26,2.872
2024-10-23 22:26:19.049,21102.585,0.302,0.952,-0.046,0.0,-0.019,0.015,0.05,0.021,-0.045,1.421,-1.26,2.87
2024-10-23 22:26:19.059,21102.595,0.302,0.952,-0.046,0.004,-0.002,0.024,0.079,0.023,-0.043,1.419,-1.261,2.868
2024-10-23 22:26:19.069,21102.605,0.301,0.952,-0.047,0.006,-0.006,0.03,0.1,0.014,-0.032,1.417,-1.261,2.865
2024-10-23 22:26:19.079,21102.615,0.301,0.952,-0.048,0.011,-0.011,0.032,0.136,0.019,-0.023,1.413,-1.261,2.861
2024-10-23 22:26:19.089,21102.625,0.301,0.952,-0.049,0.013,-0.004,0.035,0.156,0.018,-0.01,1.409,-1.261,2.856
2024-10-23 22:26:19.099,21102.635,0.301,0.952,-0.051,0.009,-0.014,0.029,0.155,-0.003,-0.013,1.404,-1.261,2.851
2024-10-23 22:26:19.109,21102.645,0.301,0.952,-0.052,0.009,-0.034,0.024,0.22,-0.036,-0.036,1.398,-1.261,2.846
2024-10-23 22:26:19.119,21102.655,0.3,0.952,-0.055,0.007,-0.027,0.012,0.306,-0.013,-0.038,1.39,-1.261,2.837
2024-10-23 22:26:19.129,21102.665,0.3,0.952,-0.058,-0.006,-0.0,0.005,0.296,-0.032,-0.042,1.38,-1.26,2.827
2024-10-23 22:26:19.139,21102.675,0.299,0.952,-0.06,-0.003,0.01,0.006,0.242,-0.034,-0.042,1.372,-1.26,2.818
2024-10-23 22:26:19.149,21102.685,0.299,0.952,-0.062,-0.005,-0.02,0.013,0.179,-0.043,-0.042,1.365,-1.26,2.812
2024-10-23 22:26:19.159,21102.695,0.299,0.952,-0.064,-0.008,-0.05,0.008,0.114,-0.04,-0.037,1.36,-1.26,2.807
2024-10-23 22:26:19.169,21102.705,0.298,0.952,-0.065,-0.003,-0.023,0.007,0.064,-0.029,-0.032,1.358,-1.26,2.805
2024-10-23 22:26:19.179,21102.715,0.298,0.952,-0.065,0.0,0.005,0.003,0.014,-0.029,-0.03,1.357,-1.261,2.804
2024-10-23 22:26:19.189,21102.725,0.298,0.952,-0.065,0.003,0.002,-0.007,-0.0,-0.009,-0.037,1.357,-1.261,2.804
2024-10-23 22:26:19.199,21102.735,0.298,0.952,-0.065,0.006,0.002,-0.01,0.008,-0.013,-0.042,1.357,-1.261,2.804
2024-10-23 22:26:19.209,21102.745,0.297,0.953,-0.065,0.009,0.023,-0.015,0.052,0.002,-0.038,1.356,-1.262,2.803
2024-10-23 22:26:19.219,21102.755,0.297,0.953,-0.065,0.009,0.038,-0.012,0.054,0.039,-0.02,1.354,-1.262,2.801
2024-10-23 22:26:19.229,21102.765,0.297,0.953,-0.065,0.006,0.031,-0.004,-0.08,0.004,0.005,1.355,-1.262,2.802
2024-10-23 22:26:19.239,21102.775,0.297,0.953,-0.064,0.013,0.021,0.002,-0.076,0.003,-0.029,1.358,-1.262,2.805
2024-10-23 22:26:19.249,21102.785,0.297,0.953,-0.064,0.008,0.013,-0.004,-0.033,0.0,-0.002,1.36,-1.262,2.807
2024-10-23 22:26:19.259,21102.795,0.297,0.953,-0.063,0.005,0.02,-0.014,-0.007,0.012,0.009,1.36,-1.262,2.807
2024-10-23 22:26:19.269,21102.805,0.297,0.953,-0.063,0.006,0.033,-0.01,-0.01,0.009,0.016,1.361,-1.262,2.807
2024-10-23 22:26:19.278,21102.815,0.297,0.953,-0.063,-0.008,0.009,-0.004,-0.007,0.005,0.013,1.361,-1.262,2.808
2024-10-23 22:26:19.289,21102.825,0.297,0.953,-0.063,-0.011,-0.008,0.001,0.007,0.005,0.02,1.361,-1.262,2.807
2024-10-23 22:26:19.299,21102.835,0.298,0.953,-0.064,-0.007,-0.005,0.004,0.012,0.005,0.024,1.36,-1.262,2.807
2024-10-23 22:26:19.309,21102.845,0.298,0.953,-0.064,-0.008,-0.007,0.005,0.009,-0.006,0.02,1.36,-1.261,2.807
2024-10-23 22:26:19.319,21102.855,0.298,0.952,-0.064,-0.01,-0.015,0.005,0.013,-0.008,0.025,1.36,-1.261,2.807
2024-10-23 22:26:19.329,21102.865,0.298,0.952,-0.064,-0.01,-0.021,0.003,0.023,-0.008,0.024,1.359,-1.261,2.806
2024-10-23 22:26:19.338,21102.875,0.298,0.952,-0.064,-0.006,-0.025,0.003,0.024,-0.007,0.021,1.358,-1.261,2.805
2024-10-23 22:26:19.348,21102.885,0.298,0.952,-0.065,-0.002,-0.018,0.009,0.023,-0.002,0.013,1.357,-1.26,2.804
2024-10-23 22:26:19.358,21102.895,0.298,0.952,-0.065,-0.001,-0.007,0.01,0.006,0.001,0.004,1.357,-1.26,2.804
2024-10-23 22:26:19.368,21102.905,0.298,0.952,-0.065,0.0,-0.005,0.011,-0.0,0.002,-0.003,1.357,-1.26,2.804
2024-10-23 22:26:19.378,21102.915,0.298,0.952,-0.065,0.002,-0.009,0.008,-0.002,0.008,-0.0,1.357,-1.261,2.804
2024-10-23 22:26:19.389,21102.925,0.298,0.952,-0.065,0.005,-0.005,0.003,0.012,0.003,0.002,1.357,-1.261,2.804
2024-10-23 22:26:19.398,21102.935,0.298,0.952,-0.065,0.008,0.001,-0.0,0.0,0.001,0.003,1.357,-1.261,2.804
2024-10-23 22:26:19.409,21102.945,0.298,0.952,-0.065,0.007,0.001,0.001,0.003,0.001,0.008,1.357,-1.261,2.804
2024-10-23 22:26:19.418,21102.955,0.298,0.952,-0.065,0.005,0.001,0.004,-0.004,-0.002,0.003,1.357,-1.26,2.804
2024-10-23 22:26:19.428,21102.965,0.298,0.952,-0.065,0.006,0.001,0.003,-0.01,-0.007,-0.004,1.358,-1.26,2.805
2024-10-23 22:26:19.438,21102.975,0.298,0.952,-0.064,0.005,0.001,0.003,-0.005,-0.009,-0.003,1.358,-1.261,2.805
2024-10-23 22:26:19.448,21102.985,0.298,0.952,-0.064,0.0,-0.0,0.002,-0.004,-0.006,-0.003,1.358,-1.261,2.805
2024-10-23 22:26:19.459,21102.995,0.298,0.952,-0.064,-0.0,-0.001,-0.003,-0.009,0.002,-0.004,1.359,-1.261,2.806
2024-10-23 22:26:19.468,21103.005,0.298,0.952,-0.064,-0.002,-0.002,-0.002,-0.013,-0.002,-0.005,1.359,-1.261,2.806
2024-10-23 22:26:19.478,21103.015,0.298,0.952,-0.064,-0.004,-0.006,-0.002,-0.01,0.006,-0.003,1.359,-1.261,2.806
2024-10-23 22:26:19.488,21103.025,0.298,0.952,-0.064,-0.006,-0.007,-0.002,-0.002,0.01,0.002,1.359,-1.261,2.806
2024-10-23 22:26:19.498,21103.035,0.299,0.952,-0.064,-0.006,0.002,-0.002,-0.009,0.008,0.008,1.36,-1.261,2.807
2024-10-23 22:26:19.508,21103.045,0.299,0.952,-0.064,-0.006,0.003,-0.001,-0.014,0.006,0.008,1.36,-1.26,2.807
2024-10-23 22:26:19.518,21103.055,0.299,0.952,-0.064,-0.008,-0.004,-0.001,-0.019,-0.001,0.002,1.361,-1.26,2.808
2024-10-23 22:26:19.528,21103.065,0.299,0.952,-0.063,-0.007,-0.01,-0.002,-0.006,-0.002,0.002,1.361,-1.26,2.808
2024-10-23 22:26:19.538,21103.075,0.299,0.952,-0.063,-0.007,-0.002,-0.003,0.004,0.006,-0.0,1.361,-1.26,2.808
2024-10-23 22:26:19.548,21103.085,0.299,0.952,-0.064,-0.007,0.004,-0.003,0.005,-0.006,-0.0,1.361,-1.26,2.808
2024-10-23 22:26:19.558,21103.095,0.299,0.952,-0.064,-0.005,-0.001,-0.001,-0.007,-0.004,0.001,1.361,-1.26,2.808
2024-10-23 22:26:19.568,21103.104,0.299,0.952,-0.064,-0.001,-0.008,-0.0,-0.014,0.004,-0.003,1.361,-1.26,2.808
2024-10-23 22:26:19.579,21103.114,0.299,0.952,-0.063,0.0,-0.012,0.001,-0.004,0.005,-0.003,1.362,-1.261,2.808
2024-10-23 22:26:19.589,21103.124,0.299,0.952,-0.063,0.002,-0.009,-0.002,-0.003,0.007,-0.001,1.362,-1.261,2.808
2024-10-23 22:26:19.597,21103.134,0.298,0.952,-0.063,0.003,0.002,0.001,-0.005,0.007,-0.006,1.362,-1.261,2.808
2024-10-23 22:26:19.607,21103.144,0.298,0.952,-0.063,0.001,0.008,0.001,-0.011,0.004,-0.006,1.362,-1.261,2.809
2024-10-23 22:26:19.617,21103.154,0.298,0.952,-0.063,0.001,-0.001,-0.002,-0.03,0.012,-0.001,1.362,-1.261,2.809
2024-10-23 22:26:19.627,21103.164,0.298,0.952,-0.063,0.004,-0.006,-0.003,-0.034,0.004,0.001,1.363,-1.261,2.81
2024-10-23 22:26:19.638,21103.174,0.298,0.952,-0.062,0.005,-0.007,-0.002,-0.033,0.003,0.002,1.364,-1.261,2.811
2024-10-23 22:26:19.648,21103.184,0.298,0.952,-0.062,0.003,-0.01,-0.002,-0.029,0.003,0.0,1.365,-1.261,2.812
2024-10-23 22:26:19.658,21103.194,0.298,0.952,-0.062,0.001,-0.005,-0.002,-0.022,0.005,0.002,1.366,-1.261,2.813
2024-10-23 22:26:19.668,21103.204,0.298,0.952,-0.062,-0.002,-0.002,-0.002,-0.018,0.0,-0.002,1.367,-1.261,2.813
2024-10-23 22:26:19.678,21103.214,0.298,0.952,-0.062,-0.003,-0.005,0.003,-0.021,-0.002,-0.008,1.367,-1.261,2.814
2024-10-23 22:26:19.688,21103.224,0.298,0.952,-0.061,-0.002,-0.003,0.006,-0.013,0.002,-0.002,1.368,-1.261,2.814
2024-10-23 22:26:19.698,21103.234,0.298,0.953,-0.061,-0.004,0.0,0.005,-0.017,0.001,-0.005,1.368,-1.261,2.815
2024-10-23 22:26:19.708,21103.244,0.298,0.953,-0.061,-0.005,0.002,0.003,-0.02,-0.0,-0.005,1.369,-1.261,2.815
2024-10-23 22:26:19.718,21103.254,0.298,0.953,-0.061,-0.004,0.002,0.001,-0.02,0.002,0.0,1.369,-1.261,2.816
2024-10-23 22:26:19.728,21103.264,0.298,0.953,-0.061,-0.004,-0.003,-0.002,-0.017,0.003,0.001,1.37,-1.261,2.816
2024-10-23 22:26:19.738,21103.274,0.298,0.953,-0.061,-0.001,-0.002,-0.007,-0.015,-0.001,-0.003,1.37,-1.261,2.817
2024-10-23 22:26:19.748,21103.284,0.298,0.953,-0.061,0.001,0.0,-0.006,-0.009,0.005,0.0,1.37,-1.261,2.817
2024-10-23 22:26:19.758,21103.294,0.298,0.953,-0.06,0.0,-0.001,-0.005,-0.013,0.006,0.003,1.371,-1.261,2.817
2024-10-23 22:26:19.768,21103.304,0.298,0.953,-0.06,0.001,0.0,-0.002,-0.02,0.004,-0.003,1.371,-1.262,2.818
2024-10-23 22:26:19.778,21103.314,0.298,0.953,-0.06,0.003,-0.003,0.003,-0.019,0.0,-0.004,1.372,-1.262,2.819
2024-10-23 22:26:19.788,21103.324,0.298,0.953,-0.06,0.002,-0.004,0.005,-0.015,0.006,0.002,1.373,-1.262,2.819
2024-10-23 22:26:19.798,21103.334,0.298,0.953,-0.06,0.002,-0.001,0.005,-0.013,0.007,-0.002,1.373,-1.262,2.82
