Date,TimeStamp,GravityX,GravityY,GravityZ,UserAccelerationX,UserAccelerationY,UserAccelerationZ,RotationRateX,RotationRateY,RotationRateZ,AttitudeRoll,AttitudePitch,AttitudeYaw
2024-10-23 22:10:00.608,20124.141,0.282,-0.249,-0.926,-0.013,-0.011,0.004,-0.057,-0.005,-0.013,0.296,0.252,1.177
2024-10-23 22:10:00.621,20124.151,0.283,-0.248,-0.926,-0.013,0.004,0.006,-0.029,0.03,-0.024,0.296,0.251,1.177
2024-10-23 22:10:00.623,20124.161,0.283,-0.248,-0.927,-0.022,0.01,0.01,-0.062,0.009,-0.026,0.296,0.251,1.177
2024-10-23 22:10:00.631,20124.171,0.283,-0.247,-0.927,-0.01,0.041,0.009,-0.057,-0.008,-0.034,0.296,0.25,1.177
2024-10-23 22:10:00.642,20124.181,0.283,-0.247,-0.927,-0.003,0.021,0.001,-0.029,0.016,-0.027,0.296,0.249,1.176
2024-10-23 22:10:00.652,20124.191,0.283,-0.247,-0.927,-0.007,-0.004,0.011,-0.014,0.032,-0.022,0.296,0.249,1.176
2024-10-23 22:10:00.662,20124.201,0.283,-0.246,-0.927,-0.007,0.007,0.006,-0.034,0.03,-0.025,0.297,0.249,1.176
2024-10-23 22:10:00.672,20124.211,0.284,-0.246,-0.927,-0.016,0.006,0.003,-0.071,0.017,-0.028,0.297,0.248,1.176
2024-10-23 22:10:00.682,20124.221,0.284,-0.245,-0.927,-0.009,-0.006,0.006,-0.101,0.011,-0.033,0.297,0.247,1.176
2024-10-23 22:10:00.693,20124.231,0.284,-0.244,-0.927,-0.002,-0.009,0.004,-0.124,0.014,-0.033,0.297,0.246,1.176
2024-10-23 22:10:00.702,20124.241,0.284,-0.243,-0.928,-0.006,-0.007,0.007,-0.137,0.018,-0.029,0.297,0.245,1.176
2024-10-23 22:10:00.712,20124.251,0.284,-0.241,-0.928,-0.009,-0.002,0.009,-0.143,0.017,-0.028,0.297,0.243,1.176
2024-10-23 22:10:00.723,20124.261,0.285,-0.24,-0.928,-0.008,-0.001,0.01,-0.144,0.03,-0.027,0.298,0.242,1.176
2024-10-23 22:10:00.732,20124.271,0.285,-0.238,-0.928,-0.008,0.005,0.008,-0.141,0.042,-0.026,0.298,0.24,1.177
2024-10-23 22:10:00.743,20124.281,0.286,-0.237,-0.929,-0.01,0.013,0.005,-0.147,0.04,-0.025,0.298,0.239,1.177
2024-10-23 22:10:00.752,20124.291,0.286,-0.235,-0.929,-0.011,0.01,0.004,-0.145,0.04,-0.023,0.299,0.238,1.177
2024-10-23 22:10:00.762,20124.301,0.286,-0.234,-0.929,-0.006,0.01,0.006,-0.143,0.055,-0.015,0.299,0.236,1.177
2024-10-23 22:10:00.773,20124.311,0.287,-0.233,-0.929,-0.006,0.015,0.009,-0.148,0.05,-0.01,0.299,0.235,1.178
2024-10-23 22:10:00.782,20124.32,0.287,-0.231,-0.929,-0.007,0.01,0.014,-0.152,0.038,-0.005,0.3,0.234,1.178
2024-10-23 22:10:00.792,20124.33,0.287,-0.23,-0.93,-0.001,0.006,0.017,-0.151,0.02,0.001,0.3,0.232,1.178
2024-10-23 22:10:00.802,20124.34,0.287,-0.229,-0.93,0.006,0.006,0.02,-0.14,0.004,0.003,0.3,0.231,1.179
2024-10-23 22:10:00.812,20124.35,0.287,-0.228,-0.93,0.004,0.004,0.02,-0.113,-0.013,0.004,0.3,0.23,1.179
2024-10-23 22:10:00.825,20124.36,0.287,-0.227,-0.931,0.001,0.004,0.02,-0.092,-0.017,0.009,0.299,0.229,1.18
2024-10-23 22:10:00.832,20124.37,0.287,-0.226,-0.931,-0.002,0.006,0.021,-0.08,-0.012,0.015,0.299,0.228,1.18
2024-10-23 22:10:00.842,20124.38,0.287,-0.225,-0.931,-0.004,0.009,0.019,-0.069,-0.017,0.021,0.299,0.227,1.18
2024-10-23 22:10:00.852,20124.39,0.287,-0.225,-0.931,-0.005,0.011,0.021,-0.076,-0.025,0.024,0.299,0.227,1.181
2024-10-23 22:10:00.862,20124.4,0.286,-0.224,-0.932,0.002,0.007,0.019,-0.092,-0.039,0.024,0.298,0.226,1.181
2024-10-23 22:10:00.873,20124.41,0.286,-0.223,-0.932,0.007,0.001,0.017,-0.105,-0.056,0.02,0.298,0.225,1.182
2024-10-23 22:10:00.881,20124.42,0.285,-0.222,-0.932,0.007,-0.004,0.016,-0.123,-0.063,0.019,0.297,0.224,1.182
2024-10-23 22:10:00.893,20124.43,0.285,-0.221,-0.933,0.007,-0.0,0.014,-0.149,-0.07,0.018,0.296,0.223,1.183
2024-10-23 22:10:00.902,20124.44,0.284,-0.22,-0.933,0.003,-0.004,0.015,-0.171,-0.089,0.024,0.295,0.221,1.184
2024-10-23 22:10:00.912,20124.45,0.283,-0.218,-0.934,-0.003,-0.013,0.017,-0.182,-0.094,0.02,0.294,0.22,1.184
2024-10-23 22:10:00.923,20124.46,0.282,-0.216,-0.935,-0.006,-0.015,0.016,-0.202,-0.083,0.019,0.293,0.218,1.185
2024-10-23 22:10:00.931,20124.47,0.281,-0.214,-0.935,-0.006,-0.009,0.014,-0.224,-0.088,0.023,0.292,0.216,1.186
2024-10-23 22:10:00.943,20124.48,0.28,-0.212,-0.936,-0.014,-0.007,0.014,-0.251,-0.098,0.015,0.291,0.214,1.187
2024-10-23 22:10:00.952,20124.49,0.279,-0.21,-0.937,-0.015,-0.009,0.015,-0.279,-0.096,0.008,0.29,0.211,1.188
2024-10-23 22:10:00.962,20124.5,0.279,-0.207,-0.938,-0.009,-0.003,0.018,-0.29,-0.085,0.003,0.289,0.209,1.189
2024-10-23 22:10:00.973,20124.51,0.278,-0.204,-0.939,-0.02,0.002,0.017,-0.302,-0.079,0.004,0.288,0.206,1.189
2024-10-23 22:10:00.981,20124.52,0.277,-0.202,-0.939,-0.03,0.007,0.018,-0.316,-0.083,0.001,0.287,0.203,1.19
2024-10-23 22:10:00.992,20124.53,0.277,-0.199,-0.94,-0.033,0.011,0.014,-0.328,-0.053,0.004,0.286,0.2,1.191
2024-10-23 22:10:01.001,20124.54,0.276,-0.196,-0.941,-0.04,0.018,0.005,-0.36,-0.025,0.017,0.285,0.197,1.192
2024-10-23 22:10:01.011,20124.55,0.276,-0.192,-0.942,-0.059,0.029,-0.003,-0.41,-0.003,0.02,0.285,0.193,1.194
2024-10-23 22:10:01.022,20124.56,0.276,-0.188,-0.943,-0.075,0.025,-0.007,-0.487,0.03,0.028,0.285,0.189,1.195
2024-10-23 22:10:01.031,20124.57,0.276,-0.183,-0.943,-0.081,0.021,-0.005,-0.602,0.045,0.034,0.285,0.184,1.197
2024-10-23 22:10:01.041,20124.58,0.277,-0.177,-0.945,-0.091,0.008,0.011,-0.738,0.057,0.03,0.285,0.178,1.199
2024-10-23 22:10:01.051,20124.59,0.277,-0.169,-0.946,-0.101,-0.016,0.03,-0.878,0.053,0.021,0.285,0.17,1.202
2024-10-23 22:10:01.061,20124.6,0.278,-0.16,-0.947,-0.106,-0.035,0.051,-1.027,0.056,0.003,0.285,0.161,1.205
2024-10-23 22:10:01.071,20124.61,0.278,-0.15,-0.949,-0.116,-0.062,0.071,-1.163,0.068,-0.013,0.285,0.15,1.208
2024-10-23 22:10:01.081,20124.62,0.279,-0.138,-0.95,-0.126,-0.082,0.084,-1.309,0.068,-0.034,0.286,0.139,1.211
2024-10-23 22:10:01.091,20124.63,0.28,-0.125,-0.952,-0.129,-0.091,0.098,-1.458,0.075,-0.048,0.286,0.125,1.214
2024-10-23 22:10:01.102,20124.64,0.28,-0.11,-0.954,-0.117,-0.093,0.107,-1.602,0.072,-0.054,0.286,0.11,1.218
2024-10-23 22:10:01.112,20124.65,0.281,-0.094,-0.955,-0.099,-0.096,0.124,-1.736,0.063,-0.051,0.286,0.094,1.223
2024-10-23 22:10:01.129,20124.66,0.282,-0.077,-0.956,-0.087,-0.091,0.141,-1.884,0.062,-0.044,0.287,0.077,1.227
2024-10-23 22:10:01.135,20124.67,0.283,-0.058,-0.958,-0.073,-0.073,0.146,-2.118,0.078,-0.002,0.287,0.058,1.233
2024-10-23 22:10:01.142,20124.68,0.283,-0.036,-0.958,-0.061,-0.07,0.138,-2.444,0.051,0.042,0.287,0.036,1.24
2024-10-23 22:10:01.152,20124.69,0.283,-0.011,-0.959,-0.054,-0.095,0.142,-2.766,-0.023,0.053,0.287,0.011,1.248
2024-10-23 22:10:01.161,20124.7,0.283,0.017,-0.959,-0.038,-0.144,0.125,-3.07,-0.028,0.073,0.287,-0.017,1.257
2024-10-23 22:10:01.171,20124.71,0.283,0.047,-0.958,-0.021,-0.173,0.103,-3.367,0.015,0.093,0.287,-0.047,1.267
2024-10-23 22:10:01.181,20124.72,0.283,0.08,-0.956,-0.033,-0.178,0.101,-3.636,0.03,0.111,0.288,-0.081,1.279
2024-10-23 22:10:01.191,20124.73,0.284,0.116,-0.952,-0.06,-0.194,0.103,-3.954,-0.001,0.194,0.29,-0.116,1.291
2024-10-23 22:10:01.201,20124.74,0.285,0.155,-0.946,-0.065,-0.196,0.122,-4.341,0.107,0.168,0.292,-0.155,1.305
2024-10-23 22:10:01.211,20124.75,0.286,0.197,-0.938,-0.058,-0.187,0.158,-4.654,0.174,0.178,0.296,-0.198,1.32
2024-10-23 22:10:01.222,20124.76,0.288,0.241,-0.927,-0.046,-0.153,0.202,-4.977,0.123,0.162,0.301,-0.243,1.337
2024-10-23 22:10:01.231,20124.77,0.29,0.287,-0.913,-0.01,-0.098,0.188,-5.14,0.185,0.169,0.308,-0.291,1.354
2024-10-23 22:10:01.242,20124.78,0.293,0.333,-0.896,0.004,-0.119,0.176,-5.197,0.274,0.148,0.316,-0.34,1.373
2024-10-23 22:10:01.251,20124.79,0.295,0.379,-0.877,-0.026,-0.137,0.155,-5.175,0.294,0.06,0.325,-0.389,1.391
2024-10-23 22:10:01.261,20124.8,0.298,0.424,-0.855,-0.059,-0.099,0.097,-5.131,0.316,-0.033,0.335,-0.437,1.41
2024-10-23 22:10:01.271,20124.81,0.301,0.467,-0.832,-0.053,-0.04,0.037,-5.165,0.357,-0.101,0.347,-0.486,1.428
2024-10-23 22:10:01.281,20124.82,0.303,0.51,-0.805,-0.043,-0.024,0.006,-5.191,0.344,-0.192,0.36,-0.535,1.447
2024-10-23 22:10:01.291,20124.83,0.304,0.552,-0.777,-0.049,-0.027,-0.002,-5.197,0.34,-0.258,0.373,-0.584,1.467
2024-10-23 22:10:01.301,20124.84,0.305,0.592,-0.746,-0.049,-0.035,0.022,-5.191,0.373,-0.339,0.389,-0.634,1.487
2024-10-23 22:10:01.311,20124.85,0.306,0.631,-0.713,-0.024,-0.021,0.059,-5.221,0.357,-0.398,0.405,-0.683,1.508
2024-10-23 22:10:01.321,20124.86,0.305,0.669,-0.678,-0.014,-0.01,0.089,-5.233,0.272,-0.471,0.423,-0.732,1.531
2024-10-23 22:10:01.331,20124.87,0.303,0.705,-0.641,-0.009,-0.053,0.111,-5.267,0.176,-0.526,0.442,-0.782,1.555
2024-10-23 22:10:01.341,20124.88,0.3,0.739,-0.603,0.023,-0.088,0.105,-5.27,0.11,-0.544,0.462,-0.832,1.581
2024-10-23 22:10:01.351,20124.89,0.297,0.771,-0.563,0.045,-0.088,0.053,-5.223,0.088,-0.521,0.485,-0.881,1.61
2024-10-23 22:10:01.361,20124.9,0.293,0.801,-0.522,0.045,-0.099,0.027,-5.158,0.069,-0.531,0.511,-0.929,1.643
2024-10-23 22:10:01.371,20124.91,0.289,0.828,-0.48,0.038,-0.117,0.006,-5.037,0.085,-0.529,0.542,-0.976,1.679
2024-10-23 22:10:01.381,20124.919,0.285,0.852,-0.438,0.017,-0.079,-0.01,-4.958,0.109,-0.524,0.577,-1.021,1.719
2024-10-23 22:10:01.391,20124.929,0.281,0.875,-0.395,-0.012,-0.032,0.005,-4.975,0.128,-0.553,0.618,-1.065,1.766
2024-10-23 22:10:01.402,20124.939,0.276,0.895,-0.351,-0.03,-0.022,0.027,-4.938,0.092,-0.582,0.667,-1.108,1.82
2024-10-23 22:10:01.411,20124.949,0.271,0.912,-0.306,-0.012,-0.024,0.056,-4.877,0.059,-0.586,0.725,-1.149,1.882
2024-10-23 22:10:01.421,20124.959,0.266,0.928,-0.262,0.024,-0.03,0.075,-4.742,0.064,-0.57,0.793,-1.188,1.956
2024-10-23 22:10:01.431,20124.969,0.261,0.94,-0.218,0.04,-0.025,0.101,-4.623,0.138,-0.557,0.875,-1.224,2.042
2024-10-23 22:10:01.441,20124.979,0.256,0.951,-0.175,0.027,-0.01,0.091,-4.432,0.192,-0.531,0.972,-1.255,2.142
2024-10-23 22:10:01.451,20124.989,0.252,0.959,-0.133,0.001,0.026,0.043,-4.167,0.242,-0.515,1.084,-1.282,2.256
2024-10-23 22:10:01.461,20124.999,0.247,0.964,-0.094,-0.01,0.079,0.007,-3.877,0.264,-0.504,1.207,-1.303,2.381
2024-10-23 22:10:01.471,20125.009,0.242,0.968,-0.058,-0.007,0.11,-0.031,-3.565,0.293,-0.516,1.338,-1.319,2.513
2024-10-23 22:10:01.481,20125.019,0.238,0.971,-0.024,0.006,0.139,-0.075,-3.286,0.321,-0.487,1.472,-1.33,2.647
2024-10-23 22:10:01.491,20125.029,0.233,0.972,0.008,0.021,0.157,-0.088,-2.992,0.338,-0.453,1.603,-1.335,2.779
2024-10-23 22:10:01.501,20125.039,0.229,0.973,0.036,0.035,0.154,-0.077,-2.724,0.339,-0.445,1.727,-1.337,2.902
2024-10-23 22:10:01.511,20125.049,0.224,0.973,0.062,0.044,0.121,-0.061,-2.443,0.33,-0.452,1.841,-1.336,3.014
2024-10-23 22:10:01.521,20125.059,0.219,0.972,0.085,0.044,0.103,-0.05,-2.135,0.323,-0.459,1.94,-1.333,3.113
2024-10-23 22:10:01.531,20125.069,0.215,0.971,0.105,0.035,0.122,-0.052,-1.761,0.328,-0.469,2.024,-1.33,-3.087
2024-10-23 22:10:01.541,20125.079,0.21,0.97,0.121,0.028,0.145,-0.071,-1.42,0.298,-0.431,2.092,-1.326,-3.02
2024-10-23 22:10:01.551,20125.089,0.206,0.969,0.134,0.047,0.163,-0.117,-1.199,0.248,-0.398,2.148,-1.323,-2.965
2024-10-23 22:10:01.561,20125.099,0.201,0.969,0.145,0.081,0.189,-0.147,-0.978,0.203,-0.444,2.194,-1.32,-2.92
2024-10-23 22:10:01.571,20125.109,0.196,0.968,0.154,0.091,0.206,-0.13,-0.865,0.12,-0.573,2.236,-1.319,-2.878
2024-10-23 22:10:01.581,20125.119,0.19,0.968,0.162,0.077,0.157,-0.094,-0.845,-0.005,-0.689,2.278,-1.318,-2.836
2024-10-23 22:10:01.591,20125.129,0.183,0.968,0.17,0.083,0.145,-0.057,-0.912,-0.128,-0.745,2.32,-1.318,-2.791
2024-10-23 22:10:01.601,20125.139,0.176,0.968,0.18,0.102,0.186,-0.038,-1.012,-0.258,-0.817,2.366,-1.317,-2.741
2024-10-23 22:10:01.611,20125.149,0.169,0.967,0.189,0.1,0.183,-0.045,-1.014,-0.33,-0.769,2.412,-1.315,-2.691
2024-10-23 22:10:01.621,20125.159,0.163,0.967,0.198,0.082,0.156,-0.08,-0.94,-0.377,-0.619,2.453,-1.312,-2.645
2024-10-23 22:10:01.631,20125.169,0.158,0.966,0.205,0.068,0.148,-0.117,-0.756,-0.334,-0.524,2.486,-1.309,-2.607
2024-10-23 22:10:01.641,20125.179,0.154,0.965,0.211,0.038,0.163,-0.092,-0.554,-0.259,-0.459,2.512,-1.306,-2.577
2024-10-23 22:10:01.651,20125.189,0.15,0.965,0.215,-0.019,0.104,-0.032,-0.411,-0.187,-0.457,2.534,-1.305,-2.552
2024-10-23 22:10:01.661,20125.199,0.146,0.965,0.219,-0.054,0.053,0.026,-0.323,-0.138,-0.438,2.553,-1.305,-2.53
2024-10-23 22:10:01.671,20125.209,0.142,0.965,0.222,-0.063,0.04,0.066,-0.32,-0.135,-0.412,2.571,-1.304,-2.51
2024-10-23 22:10:01.681,20125.219,0.138,0.965,0.225,-0.048,0.019,0.082,-0.35,-0.171,-0.418,2.589,-1.304,-2.49
2024-10-23 22:10:01.691,20125.229,0.135,0.964,0.228,-0.015,-0.022,0.087,-0.337,-0.174,-0.418,2.607,-1.303,-2.47
2024-10-23 22:10:01.701,20125.239,0.131,0.964,0.231,0.008,-0.05,0.098,-0.28,-0.134,-0.409,2.624,-1.302,-2.451
2024-10-23 22:10:01.711,20125.249,0.127,0.964,0.233,0.014,-0.039,0.097,-0.214,-0.082,-0.416,2.641,-1.302,-2.432
2024-10-23 22:10:01.721,20125.259,0.124,0.964,0.234,0.014,0.007,0.048,-0.136,-0.036,-0.423,2.656,-1.303,-2.415
2024-10-23 22:10:01.731,20125.269,0.12,0.965,0.235,0.023,0.03,-0.023,-0.091,-0.006,-0.422,2.672,-1.304,-2.399
2024-10-23 22:10:01.741,20125.279,0.116,0.965,0.236,0.048,0.026,-0.08,0.007,0.045,-0.405,2.686,-1.305,-2.384
2024-10-23 22:10:01.751,20125.289,0.111,0.966,0.235,0.066,0.033,-0.119,0.14,0.123,-0.399,2.699,-1.307,-2.372
2024-10-23 22:10:01.761,20125.299,0.107,0.966,0.233,0.072,0.056,-0.128,0.325,0.163,-0.428,2.711,-1.311,-2.361
2024-10-23 22:10:01.771,20125.309,0.102,0.968,0.229,0.077,0.085,-0.115,0.582,0.156,-0.507,2.722,-1.317,-2.352
2024-10-23 22:10:01.780,20125.319,0.097,0.97,0.222,0.086,0.107,-0.074,0.875,0.103,-0.585,2.731,-1.326,-2.344
2024-10-23 22:10:01.791,20125.329,0.091,0.973,0.212,0.093,0.107,-0.045,1.158,0.04,-0.624,2.738,-1.338,-2.337
2024-10-23 22:10:01.800,20125.339,0.085,0.976,0.2,0.098,0.099,-0.028,1.336,0.04,-0.59,2.742,-1.352,-2.334
2024-10-23 22:10:01.810,20125.349,0.079,0.979,0.187,0.094,0.088,-0.017,1.276,0.05,-0.484,2.741,-1.366,-2.335
2024-10-23 22:10:01.820,20125.359,0.075,0.982,0.175,0.069,0.069,-0.033,1.216,0.03,-0.424,2.739,-1.379,-2.338
2024-10-23 22:10:01.830,20125.369,0.071,0.984,0.163,0.042,0.057,-0.062,1.204,0.085,-0.346,2.732,-1.392,-2.345
2024-10-23 22:10:01.840,20125.379,0.068,0.986,0.152,0.013,0.041,-0.101,1.059,0.104,-0.21,2.722,-1.403,-2.356
2024-10-23 22:10:01.850,20125.389,0.066,0.988,0.143,-0.006,0.063,-0.139,0.817,0.016,-0.107,2.707,-1.413,-2.372
2024-10-23 22:10:01.860,20125.399,0.066,0.989,0.136,0.01,0.1,-0.118,0.606,-0.147,-0.084,2.693,-1.419,-2.386
2024-10-23 22:10:01.870,20125.409,0.065,0.989,0.13,0.037,0.072,-0.035,0.566,-0.18,-0.069,2.679,-1.425,-2.398
2024-10-23 22:10:01.880,20125.419,0.065,0.99,0.124,0.039,0.018,0.049,0.609,-0.15,-0.062,2.662,-1.43,-2.413
2024-10-23 22:10:01.890,20125.429,0.064,0.991,0.118,0.01,-0.002,0.073,0.735,-0.157,-0.024,2.641,-1.436,-2.433
2024-10-23 22:10:01.901,20125.439,0.064,0.992,0.11,-0.011,0.013,0.08,0.845,-0.208,-0.046,2.612,-1.443,-2.461
2024-10-23 22:10:01.910,20125.449,0.064,0.993,0.101,-0.007,0.015,0.083,0.92,-0.217,-0.074,2.577,-1.451,-2.494
2024-10-23 22:10:01.921,20125.459,0.063,0.994,0.091,-0.001,-0.001,0.067,0.961,-0.273,-0.056,2.534,-1.459,-2.534
2024-10-23 22:10:01.930,20125.469,0.063,0.995,0.081,0.017,-0.065,0.064,0.99,-0.315,-0.08,2.483,-1.468,-2.583
2024-10-23 22:10:01.940,20125.479,0.062,0.996,0.071,0.037,-0.104,0.047,1.128,-0.314,-0.119,2.42,-1.476,-2.643
2024-10-23 22:10:01.950,20125.489,0.061,0.996,0.058,0.015,-0.05,0.017,1.359,-0.277,-0.153,2.332,-1.486,-2.728
2024-10-23 22:10:01.960,20125.499,0.06,0.997,0.043,-0.029,0.001,-0.002,1.575,-0.253,-0.163,2.2,-1.497,-2.86
2024-10-23 22:10:01.970,20125.508,0.058,0.998,0.027,-0.063,0.007,-0.016,1.726,-0.272,-0.158,2.003,-1.507,-3.056
2024-10-23 22:10:01.980,20125.518,0.056,0.998,0.009,-0.065,0.001,-0.015,1.841,-0.284,-0.191,1.726,-1.514,2.951
2024-10-23 22:10:01.990,20125.528,0.054,0.998,-0.01,-0.051,-0.002,-0.006,1.802,-0.237,-0.225,1.397,-1.516,2.623
2024-10-23 22:10:02.000,20125.538,0.052,0.998,-0.027,-0.052,-0.01,-0.012,1.569,-0.164,-0.215,1.099,-1.512,2.325
2024-10-23 22:10:02.010,20125.548,0.05,0.998,-0.04,-0.066,-0.035,-0.004,1.144,-0.135,-0.21,0.893,-1.507,2.119
2024-10-23 22:10:02.020,20125.558,0.048,0.998,-0.049,-0.074,-0.093,0.022,0.636,-0.159,-0.218,0.77,-1.502,1.996
2024-10-23 22:10:02.030,20125.568,0.045,0.998,-0.054,-0.062,-0.155,0.056,0.238,-0.19,-0.217,0.704,-1.5,1.93
2024-10-23 22:10:02.040,20125.578,0.043,0.998,-0.055,-0.02,-0.169,0.08,0.014,-0.204,-0.208,0.668,-1.501,1.894
2024-10-23 22:10:02.050,20125.588,0.041,0.998,-0.054,0.03,-0.138,0.081,-0.09,-0.228,-0.198,0.647,-1.503,1.872
2024-10-23 22:10:02.060,20125.598,0.039,0.998,-0.054,0.071,-0.078,0.061,-0.103,-0.175,-0.152,0.632,-1.504,1.858
2024-10-23 22:10:02.070,20125.608,0.038,0.998,-0.053,0.089,-0.002,0.059,-0.087,-0.131,-0.108,0.623,-1.506,1.849
2024-10-23 22:10:02.080,20125.618,0.037,0.998,-0.052,0.087,0.048,0.059,-0.019,-0.142,-0.101,0.614,-1.507,1.84
2024-10-23 22:10:02.090,20125.628,0.036,0.998,-0.053,0.067,0.094,0.044,0.116,-0.145,-0.105,0.595,-1.507,1.822
2024-10-23 22:10:02.100,20125.638,0.035,0.998,-0.054,0.039,0.147,0.027,0.217,-0.14,-0.087,0.566,-1.506,1.793
2024-10-23 22:10:02.110,20125.648,0.034,0.998,-0.057,0.014,0.171,-0.002,0.246,-0.189,-0.051,0.537,-1.505,1.763
2024-10-23 22:10:02.120,20125.658,0.033,0.998,-0.059,-0.005,0.176,-0.012,0.237,-0.262,-0.008,0.513,-1.503,1.739
2024-10-23 22:10:02.130,20125.668,0.033,0.998,-0.061,0.005,0.161,-0.018,0.173,-0.339,0.031,0.497,-1.501,1.725
2024-10-23 22:10:02.140,20125.678,0.034,0.997,-0.063,0.049,0.123,-0.031,0.091,-0.399,0.065,0.491,-1.499,1.721
2024-10-23 22:10:02.150,20125.688,0.034,0.997,-0.064,0.091,0.079,-0.046,0.059,-0.435,0.063,0.49,-1.499,1.723
2024-10-23 22:10:02.160,20125.698,0.034,0.997,-0.065,0.115,0.036,-0.048,0.137,-0.459,0.029,0.485,-1.497,1.72
2024-10-23 22:10:02.170,20125.708,0.034,0.997,-0.067,0.109,0.011,-0.037,0.203,-0.389,0.049,0.474,-1.496,1.712
2024-10-23 22:10:02.180,20125.718,0.035,0.997,-0.069,0.08,0.007,-0.015,0.296,-0.338,0.059,0.462,-1.493,1.702
2024-10-23 22:10:02.189,20125.728,0.035,0.997,-0.073,0.043,0.003,0.022,0.333,-0.325,0.034,0.447,-1.49,1.688
2024-10-23 22:10:02.200,20125.738,0.035,0.996,-0.076,0.005,-0.032,0.054,0.341,-0.29,0.044,0.431,-1.487,1.675
2024-10-23 22:10:02.210,20125.748,0.035,0.996,-0.08,-0.012,-0.057,0.06,0.375,-0.305,0.089,0.418,-1.483,1.665
2024-10-23 22:10:02.220,20125.758,0.036,0.996,-0.083,-0.014,-0.067,0.068,0.318,-0.34,0.096,0.409,-1.48,1.659
2024-10-23 22:10:02.230,20125.768,0.037,0.996,-0.087,-0.004,-0.038,0.058,0.381,-0.386,0.114,0.401,-1.476,1.655
2024-10-23 22:10:02.240,20125.778,0.038,0.995,-0.091,0.003,0.046,0.064,0.353,-0.463,0.174,0.396,-1.472,1.654
2024-10-23 22:10:02.250,20125.788,0.039,0.995,-0.094,0.011,0.074,0.032,0.347,-0.516,0.172,0.394,-1.469,1.657
2024-10-23 22:10:02.259,20125.798,0.041,0.994,-0.098,0.022,0.071,0.007,0.421,-0.418,0.216,0.392,-1.464,1.66
2024-10-23 22:10:02.269,20125.808,0.043,0.994,-0.103,0.012,0.063,-0.015,0.501,-0.272,0.295,0.393,-1.459,1.665
2024-10-23 22:10:02.280,20125.818,0.046,0.993,-0.108,0.023,0.051,-0.005,0.491,-0.114,0.374,0.402,-1.453,1.675
2024-10-23 22:10:02.290,20125.828,0.049,0.992,-0.113,0.115,0.09,0.085,0.414,-0.07,0.347,0.414,-1.448,1.688
2024-10-23 22:10:02.300,20125.838,0.052,0.992,-0.116,0.238,0.109,0.165,0.314,-0.206,0.222,0.422,-1.443,1.697
2024-10-23 22:10:02.310,20125.848,0.053,0.991,-0.119,0.303,0.037,0.165,0.161,-0.424,0.084,0.422,-1.44,1.701
2024-10-23 22:10:02.319,20125.858,0.053,0.991,-0.12,0.238,-0.03,0.134,0.126,-0.446,-0.007,0.416,-1.439,1.699
2024-10-23 22:10:02.329,20125.868,0.052,0.991,-0.123,0.042,-0.011,0.032,0.301,-0.445,-0.036,0.403,-1.437,1.691
2024-10-23 22:10:02.339,20125.878,0.051,0.991,-0.126,-0.214,-0.017,-0.139,0.431,-0.427,-0.014,0.387,-1.434,1.679
2024-10-23 22:10:02.350,20125.888,0.051,0.99,-0.132,-0.411,-0.05,-0.238,0.636,-0.253,0.089,0.372,-1.429,1.667
2024-10-23 22:10:02.359,20125.898,0.052,0.989,-0.139,-0.392,0.023,-0.173,0.689,-0.062,0.166,0.362,-1.422,1.658
2024-10-23 22:10:02.370,20125.908,0.054,0.988,-0.145,-0.151,0.09,-0.037,0.528,-0.129,0.164,0.358,-1.416,1.655
2024-10-23 22:10:02.379,20125.918,0.055,0.987,-0.149,0.122,0.087,0.109,0.361,-0.268,0.028,0.352,-1.411,1.651
2024-10-23 22:10:02.389,20125.928,0.054,0.987,-0.152,0.268,0.029,0.182,0.292,-0.31,-0.014,0.342,-1.408,1.645
2024-10-23 22:10:02.399,20125.938,0.054,0.986,-0.156,0.208,-0.023,0.124,0.418,-0.208,0.029,0.333,-1.405,1.637
2024-10-23 22:10:02.409,20125.948,0.055,0.985,-0.161,-0.047,0.009,0.035,0.665,-0.065,0.148,0.326,-1.4,1.632
2024-10-23 22:10:02.419,20125.958,0.057,0.984,-0.169,-0.285,0.086,-0.013,0.783,0.097,0.259,0.324,-1.392,1.63
2024-10-23 22:10:02.430,20125.968,0.059,0.983,-0.176,-0.335,0.171,0.012,0.744,0.117,0.264,0.325,-1.384,1.63
2024-10-23 22:10:02.440,20125.978,0.062,0.981,-0.183,-0.215,0.218,0.074,0.673,0.135,0.244,0.327,-1.376,1.631
2024-10-23 22:10:02.450,20125.988,0.065,0.98,-0.189,-0.083,0.175,0.108,0.639,0.147,0.248,0.33,-1.369,1.632
2024-10-23 22:10:02.459,20125.998,0.067,0.978,-0.195,-0.019,0.119,0.086,0.643,0.159,0.201,0.332,-1.363,1.632
2024-10-23 22:10:02.469,20126.008,0.069,0.977,-0.202,0.007,0.101,0.059,0.626,0.102,0.106,0.33,-1.356,1.629
2024-10-23 22:10:02.479,20126.018,0.07,0.976,-0.207,-0.004,0.082,0.046,0.566,0.049,0.029,0.325,-1.35,1.623
2024-10-23 22:10:02.489,20126.028,0.07,0.975,-0.212,-0.08,0.054,0.064,0.396,-0.015,-0.018,0.319,-1.346,1.616
2024-10-23 22:10:02.499,20126.038,0.069,0.974,-0.215,-0.176,-0.006,0.125,0.067,-0.05,-0.181,0.311,-1.344,1.609
2024-10-23 22:10:02.509,20126.048,0.066,0.975,-0.214,-0.219,-0.101,0.22,-0.2,-0.073,-0.358,0.3,-1.345,1.598
2024-10-23 22:10:02.519,20126.058,0.063,0.975,-0.211,-0.252,-0.198,0.327,-0.352,0.001,-0.346,0.288,-1.349,1.586
2024-10-23 22:10:02.529,20126.068,0.06,0.977,-0.207,-0.343,-0.284,0.397,-0.551,0.093,-0.284,0.28,-1.354,1.578
2024-10-23 22:10:02.539,20126.078,0.057,0.978,-0.2,-0.374,-0.3,0.415,-0.811,0.049,-0.293,0.278,-1.361,1.575
2024-10-23 22:10:02.549,20126.088,0.053,0.98,-0.192,-0.277,-0.248,0.411,-0.903,-0.156,-0.41,0.272,-1.371,1.57
2024-10-23 22:10:02.560,20126.098,0.049,0.982,-0.184,-0.108,-0.201,0.35,-0.706,-0.189,-0.462,0.26,-1.38,1.559
2024-10-23 22:10:02.569,20126.107,0.044,0.983,-0.179,0.052,-0.125,0.225,-0.291,0.042,-0.394,0.243,-1.385,1.543
2024-10-23 22:10:02.579,20126.117,0.042,0.983,-0.177,0.193,0.011,0.063,0.006,0.289,-0.216,0.23,-1.388,1.528
2024-10-23 22:10:02.589,20126.127,0.041,0.983,-0.178,0.261,0.122,-0.117,0.071,0.409,-0.008,0.228,-1.387,1.522
2024-10-23 22:10:02.599,20126.137,0.043,0.983,-0.178,0.27,0.15,-0.224,-0.035,0.462,0.186,0.236,-1.387,1.526
2024-10-23 22:10:02.609,20126.147,0.046,0.983,-0.176,0.262,0.128,-0.299,-0.212,0.519,0.374,0.258,-1.387,1.543
2024-10-23 22:10:02.619,20126.157,0.052,0.984,-0.173,0.259,0.107,-0.344,-0.455,0.542,0.478,0.29,-1.389,1.571
2024-10-23 22:10:02.629,20126.167,0.057,0.984,-0.168,0.269,0.089,-0.343,-0.479,0.424,0.423,0.328,-1.393,1.604
2024-10-23 22:10:02.639,20126.177,0.061,0.985,-0.164,0.268,0.068,-0.295,-0.162,0.34,0.321,0.357,-1.395,1.63
2024-10-23 22:10:02.649,20126.187,0.065,0.984,-0.165,0.214,0.023,-0.25,0.315,0.469,0.277,0.375,-1.393,1.644
2024-10-23 22:10:02.659,20126.197,0.069,0.983,-0.17,0.14,0.032,-0.214,0.722,0.624,0.281,0.384,-1.387,1.648
2024-10-23 22:10:02.669,20126.207,0.072,0.981,-0.177,0.05,0.103,-0.153,0.891,0.669,0.294,0.388,-1.378,1.645
2024-10-23 22:10:02.679,20126.217,0.076,0.98,-0.185,-0.029,0.091,-0.106,0.748,0.583,0.255,0.391,-1.369,1.642
2024-10-23 22:10:02.689,20126.227,0.08,0.979,-0.19,-0.055,-0.028,-0.061,0.33,0.485,0.253,0.398,-1.363,1.644
2024-10-23 22:10:02.699,20126.237,0.083,0.978,-0.191,-0.055,-0.083,0.022,-0.117,0.442,0.196,0.411,-1.361,1.651
2024-10-23 22:10:02.709,20126.247,0.085,0.979,-0.187,-0.066,0.002,0.118,-0.535,0.431,0.137,0.429,-1.364,1.665
2024-10-23 22:10:02.719,20126.257,0.087,0.98,-0.18,-0.09,0.088,0.158,-0.785,0.27,0.142,0.452,-1.369,1.686
2024-10-23 22:10:02.729,20126.267,0.089,0.981,-0.172,-0.107,0.101,0.173,-0.684,0.024,0.063,0.476,-1.376,1.708
2024-10-23 22:10:02.739,20126.277,0.089,0.982,-0.167,-0.085,0.071,0.162,-0.329,-0.107,0.001,0.489,-1.38,1.722
2024-10-23 22:10:02.749,20126.287,0.089,0.982,-0.166,-0.04,0.061,0.156,0.123,-0.173,-0.005,0.49,-1.381,1.724
2024-10-23 22:10:02.759,20126.297,0.088,0.981,-0.17,-0.029,0.109,0.136,0.534,-0.194,-0.0,0.479,-1.378,1.716
2024-10-23 22:10:02.769,20126.307,0.088,0.98,-0.177,-0.071,0.154,0.108,0.755,-0.198,0.016,0.463,-1.372,1.701
2024-10-23 22:10:02.779,20126.317,0.088,0.979,-0.184,-0.11,0.115,0.102,0.794,-0.21,0.034,0.445,-1.365,1.685
2024-10-23 22:10:02.789,20126.327,0.088,0.977,-0.192,-0.091,0.062,0.109,0.761,-0.205,0.074,0.43,-1.358,1.671
2024-10-23 22:10:02.799,20126.337,0.088,0.976,-0.199,-0.046,0.044,0.119,0.657,-0.205,0.089,0.418,-1.351,1.661
2024-10-23 22:10:02.810,20126.347,0.089,0.975,-0.205,-0.019,0.026,0.104,0.523,-0.218,0.117,0.409,-1.345,1.655
2024-10-23 22:10:02.819,20126.357,0.09,0.974,-0.21,-0.011,-0.016,0.079,0.458,-0.213,0.114,0.404,-1.34,1.651
2024-10-23 22:10:02.828,20126.367,0.091,0.973,-0.215,-0.003,-0.046,0.039,0.419,-0.154,0.126,0.399,-1.336,1.648
2024-10-23 22:10:02.838,20126.377,0.092,0.972,-0.218,0.007,-0.067,-0.015,0.346,-0.116,0.141,0.397,-1.332,1.647
2024-10-23 22:10:02.849,20126.387,0.093,0.971,-0.221,-0.001,-0.076,-0.049,0.255,-0.136,0.15,0.396,-1.328,1.648
2024-10-23 22:10:02.858,20126.397,0.094,0.97,-0.224,0.003,-0.068,-0.065,0.16,-0.184,0.142,0.397,-1.326,1.65
2024-10-23 22:10:02.868,20126.407,0.094,0.97,-0.225,0.028,-0.079,-0.042,0.137,-0.259,0.113,0.397,-1.324,1.653
2024-10-23 22:10:02.878,20126.417,0.095,0.969,-0.227,0.056,-0.09,0.0,0.152,-0.31,0.064,0.395,-1.322,1.654
2024-10-23 22:10:02.888,20126.427,0.095,0.969,-0.229,0.054,-0.077,0.029,0.275,-0.241,0.153,0.393,-1.32,1.654
2024-10-23 22:10:02.898,20126.437,0.096,0.968,-0.233,0.04,-0.057,0.045,0.415,-0.183,0.101,0.391,-1.316,1.654
2024-10-23 22:10:02.908,20126.447,0.096,0.967,-0.237,0.035,-0.047,0.055,0.435,-0.199,0.076,0.385,-1.312,1.65
2024-10-23 22:10:02.918,20126.457,0.097,0.966,-0.241,0.027,-0.031,0.031,0.391,-0.227,0.107,0.381,-1.308,1.648
2024-10-23 22:10:02.928,20126.467,0.097,0.965,-0.245,0.02,-0.055,0.06,0.333,-0.271,0.087,0.376,-1.304,1.646
2024-10-23 22:10:02.939,20126.477,0.097,0.964,-0.248,0.028,-0.096,0.051,0.33,-0.225,0.035,0.372,-1.301,1.644
2024-10-23 22:10:02.948,20126.487,0.096,0.963,-0.252,0.024,-0.095,0.032,0.329,-0.144,-0.039,0.365,-1.298,1.639
2024-10-23 22:10:02.958,20126.497,0.096,0.962,-0.255,0.006,-0.043,-0.026,0.322,-0.136,-0.025,0.359,-1.295,1.634
2024-10-23 22:10:02.968,20126.507,0.095,0.961,-0.258,-0.014,-0.015,-0.075,0.245,-0.135,-0.011,0.353,-1.292,1.63
2024-10-23 22:10:02.978,20126.517,0.095,0.961,-0.26,-0.004,-0.058,-0.082,0.14,-0.065,-0.019,0.35,-1.291,1.627
2024-10-23 22:10:02.988,20126.527,0.094,0.961,-0.261,0.024,-0.078,-0.063,0.027,-0.008,-0.017,0.348,-1.29,1.625
2024-10-23 22:10:02.998,20126.537,0.094,0.961,-0.26,0.006,-0.056,-0.056,-0.11,0.028,-0.028,0.348,-1.29,1.625
2024-10-23 22:10:03.009,20126.547,0.094,0.961,-0.259,-0.017,-0.045,-0.049,-0.205,0.033,-0.055,0.348,-1.292,1.625
2024-10-23 22:10:03.018,20126.557,0.093,0.962,-0.256,-0.014,-0.053,-0.04,-0.268,0.027,-0.082,0.349,-1.295,1.626
2024-10-23 22:10:03.028,20126.567,0.093,0.963,-0.254,-0.01,-0.064,-0.048,-0.288,0.037,-0.104,0.35,-1.297,1.626
2024-10-23 22:10:03.038,20126.577,0.092,0.964,-0.251,-0.016,-0.05,-0.061,-0.273,0.073,-0.1,0.351,-1.3,1.626
2024-10-23 22:10:03.048,20126.587,0.091,0.964,-0.248,-0.028,-0.022,-0.069,-0.293,0.097,-0.085,0.352,-1.303,1.627
2024-10-23 22:10:03.058,20126.597,0.09,0.965,-0.245,-0.042,-0.012,-0.07,-0.318,0.105,-0.081,0.354,-1.307,1.628
2024-10-23 22:10:03.068,20126.607,0.09,0.966,-0.241,-0.044,-0.021,-0.068,-0.423,0.09,-0.054,0.357,-1.31,1.63
2024-10-23 22:10:03.078,20126.617,0.09,0.967,-0.237,-0.033,-0.038,-0.065,-0.505,0.048,-0.042,0.362,-1.315,1.635
2024-10-23 22:10:03.089,20126.627,0.089,0.969,-0.232,-0.017,-0.047,-0.049,-0.526,-0.007,-0.061,0.368,-1.32,1.64
2024-10-23 22:10:03.098,20126.637,0.089,0.97,-0.227,-0.009,-0.047,-0.026,-0.466,-0.018,-0.086,0.372,-1.325,1.645
2024-10-23 22:10:03.108,20126.647,0.088,0.971,-0.223,-0.004,-0.017,0.0,-0.319,-0.017,-0.075,0.374,-1.329,1.648
2024-10-23 22:10:03.118,20126.657,0.087,0.971,-0.221,-0.005,0.033,0.026,-0.192,-0.026,-0.069,0.375,-1.331,1.649
2024-10-23 22:10:03.129,20126.667,0.086,0.972,-0.219,0.0,0.059,0.032,-0.091,-0.037,-0.067,0.375,-1.333,1.648
2024-10-23 22:10:03.138,20126.677,0.086,0.972,-0.219,0.018,0.048,0.031,-0.082,-0.057,-0.044,0.373,-1.334,1.647
2024-10-23 22:10:03.148,20126.687,0.085,0.972,-0.218,0.032,0.011,0.027,-0.113,-0.067,-0.023,0.373,-1.335,1.648
2024-10-23 22:10:03.158,20126.697,0.085,0.973,-0.216,0.039,-0.001,0.035,-0.159,-0.084,-0.017,0.373,-1.336,1.649
2024-10-23 22:10:03.168,20126.706,0.084,0.973,-0.215,0.032,-0.001,0.04,-0.17,-0.107,-0.024,0.374,-1.338,1.651
2024-10-23 22:10:03.178,20126.716,0.084,0.973,-0.214,0.036,0.002,0.039,-0.111,-0.125,-0.018,0.374,-1.339,1.652
2024-10-23 22:10:03.188,20126.726,0.084,0.973,-0.213,0.046,0.004,0.033,-0.084,-0.136,0.04,0.375,-1.34,1.654
2024-10-23 22:10:03.199,20126.736,0.084,0.974,-0.212,0.052,-0.0,0.026,-0.082,-0.157,0.006,0.376,-1.341,1.656
2024-10-23 22:10:03.208,20126.746,0.083,0.974,-0.212,0.07,0.014,0.033,-0.015,-0.136,-0.024,0.374,-1.341,1.656
2024-10-23 22:10:03.218,20126.756,0.083,0.974,-0.212,0.067,0.006,0.033,-0.007,-0.152,0.095,0.374,-1.341,1.658
2024-10-23 22:10:03.228,20126.766,0.084,0.974,-0.212,0.035,-0.024,-0.007,-0.046,-0.202,0.098,0.377,-1.341,1.663
2024-10-23 22:10:03.238,20126.776,0.084,0.974,-0.211,0.047,-0.014,-0.035,-0.058,-0.232,0.101,0.38,-1.341,1.668
2024-10-23 22:10:03.248,20126.786,0.085,0.974,-0.211,0.047,-0.011,-0.039,-0.067,-0.213,0.186,0.385,-1.341,1.676
2024-10-23 22:10:03.258,20126.796,0.087,0.974,-0.21,0.029,0.007,-0.047,-0.104,-0.202,0.156,0.393,-1.341,1.685
2024-10-23 22:10:03.268,20126.806,0.088,0.974,-0.209,0.041,0.055,-0.035,-0.087,-0.184,0.092,0.398,-1.342,1.692
2024-10-23 22:10:03.278,20126.816,0.089,0.974,-0.209,0.052,0.061,-0.029,0.003,-0.168,0.132,0.402,-1.342,1.698
2024-10-23 22:10:03.288,20126.826,0.09,0.974,-0.209,0.03,0.029,-0.046,0.036,-0.192,0.117,0.405,-1.341,1.704
2024-10-23 22:10:03.298,20126.836,0.091,0.974,-0.21,0.039,0.022,-0.065,0.085,-0.182,0.12,0.408,-1.34,1.708
2024-10-23 22:10:03.308,20126.846,0.092,0.973,-0.211,0.042,0.028,-0.051,0.084,-0.191,0.142,0.41,-1.339,1.712
2024-10-23 22:10:03.318,20126.856,0.093,0.973,-0.212,0.024,0.02,-0.039,0.061,-0.201,0.174,0.413,-1.338,1.717
2024-10-23 22:10:03.328,20126.866,0.094,0.973,-0.212,0.028,0.007,-0.028,0.008,-0.217,0.199,0.417,-1.336,1.724
2024-10-23 22:10:03.337,20126.876,0.096,0.973,-0.212,0.028,-0.008,-0.012,-0.065,-0.243,0.165,0.423,-1.336,1.732
2024-10-23 22:10:03.348,20126.886,0.097,0.972,-0.212,0.022,-0.024,-0.005,-0.062,-0.25,0.155,0.428,-1.336,1.739
2024-10-23 22:10:03.358,20126.896,0.098,0.972,-0.212,-0.0,-0.03,-0.007,-0.016,-0.249,0.145,0.432,-1.335,1.746
2024-10-23 22:10:03.368,20126.906,0.099,0.972,-0.212,-0.013,-0.019,-0.011,0.036,-0.234,0.122,0.434,-1.335,1.751
2024-10-23 22:10:03.378,20126.916,0.099,0.972,-0.213,-0.008,0.002,-0.0,0.069,-0.234,0.108,0.435,-1.333,1.755
2024-10-23 22:10:03.388,20126.926,0.1,0.972,-0.214,-0.008,0.002,0.018,0.058,-0.234,0.093,0.436,-1.332,1.758
2024-10-23 22:10:03.398,20126.936,0.1,0.971,-0.215,-0.006,-0.023,0.032,0.029,-0.242,0.083,0.436,-1.331,1.76
2024-10-23 22:10:03.408,20126.946,0.1,0.971,-0.215,-0.002,-0.043,0.046,-0.009,-0.241,0.072,0.436,-1.331,1.763
2024-10-23 22:10:03.418,20126.956,0.1,0.971,-0.215,-0.006,-0.056,0.049,-0.064,-0.242,0.052,0.437,-1.331,1.766
2024-10-23 22:10:03.428,20126.966,0.1,0.972,-0.215,-0.01,-0.051,0.043,-0.121,-0.222,0.037,0.438,-1.332,1.769
2024-10-23 22:10:03.438,20126.976,0.1,0.972,-0.213,-0.015,-0.04,0.038,-0.181,-0.21,0.016,0.439,-1.333,1.773
2024-10-23 22:10:03.448,20126.986,0.1,0.972,-0.212,-0.019,-0.035,0.029,-0.193,-0.193,-0.016,0.44,-1.335,1.777
2024-10-23 22:10:03.458,20126.996,0.099,0.973,-0.21,-0.017,-0.024,0.02,-0.188,-0.154,-0.002,0.442,-1.336,1.78
2024-10-23 22:10:03.468,20127.006,0.099,0.973,-0.208,-0.018,-0.019,0.006,-0.164,-0.166,-0.013,0.443,-1.338,1.783
2024-10-23 22:10:03.478,20127.016,0.098,0.973,-0.207,-0.013,-0.016,-0.006,-0.124,-0.152,-0.019,0.443,-1.339,1.784
2024-10-23 22:10:03.488,20127.026,0.098,0.974,-0.206,-0.012,-0.013,0.003,-0.137,-0.155,-0.014,0.444,-1.341,1.786
2024-10-23 22:10:03.498,20127.036,0.097,0.974,-0.205,-0.031,-0.024,0.009,-0.146,-0.157,-0.036,0.444,-1.342,1.788
2024-10-23 22:10:03.508,20127.046,0.097,0.974,-0.204,-0.05,-0.028,0.012,-0.144,-0.162,-0.044,0.443,-1.343,1.789
2024-10-23 22:10:03.518,20127.056,0.096,0.975,-0.202,-0.076,-0.027,0.016,-0.106,-0.168,-0.041,0.442,-1.345,1.79
2024-10-23 22:10:03.528,20127.066,0.095,0.975,-0.202,-0.097,-0.023,0.015,-0.091,-0.136,-0.048,0.441,-1.346,1.79
2024-10-23 22:10:03.538,20127.076,0.094,0.975,-0.201,-0.107,-0.015,0.009,-0.076,-0.119,-0.047,0.439,-1.347,1.789
2024-10-23 22:10:03.548,20127.086,0.094,0.975,-0.2,-0.112,-0.004,-0.005,-0.093,-0.107,-0.056,0.437,-1.348,1.789
2024-10-23 22:10:03.557,20127.096,0.093,0.976,-0.199,-0.111,-0.006,-0.015,-0.107,-0.065,-0.066,0.436,-1.349,1.788
2024-10-23 22:10:03.568,20127.106,0.092,0.976,-0.198,-0.117,-0.021,-0.02,-0.125,-0.031,-0.071,0.435,-1.35,1.788
2024-10-23 22:10:03.578,20127.116,0.091,0.976,-0.197,-0.117,-0.017,-0.028,-0.165,-0.005,-0.078,0.434,-1.352,1.787
2024-10-23 22:10:03.587,20127.126,0.09,0.977,-0.195,-0.112,-0.001,-0.04,-0.168,0.031,-0.076,0.434,-1.354,1.787
2024-10-23 22:10:03.597,20127.136,0.09,0.977,-0.194,-0.098,0.007,-0.045,-0.145,0.073,-0.077,0.434,-1.356,1.786
2024-10-23 22:10:03.607,20127.146,0.089,0.977,-0.192,-0.083,-0.006,-0.048,-0.102,0.113,-0.077,0.434,-1.357,1.785
2024-10-23 22:10:03.617,20127.156,0.088,0.978,-0.191,-0.064,0.004,-0.052,-0.078,0.148,-0.072,0.433,-1.358,1.783
2024-10-23 22:10:03.627,20127.166,0.088,0.978,-0.191,-0.031,0.032,-0.053,-0.085,0.154,-0.063,0.432,-1.359,1.781
2024-10-23 22:10:03.637,20127.176,0.087,0.978,-0.19,0.001,0.033,-0.049,-0.107,0.156,-0.066,0.432,-1.361,1.779
2024-10-23 22:10:03.647,20127.186,0.087,0.978,-0.189,0.021,0.022,-0.042,-0.081,0.15,-0.055,0.432,-1.362,1.777
2024-10-23 22:10:03.657,20127.196,0.087,0.978,-0.188,0.034,0.028,-0.026,-0.064,0.139,-0.045,0.432,-1.363,1.776
2024-10-23 22:10:03.667,20127.206,0.086,0.979,-0.187,0.046,0.041,-0.021,-0.004,0.132,-0.042,0.432,-1.363,1.774
2024-10-23 22:10:03.677,20127.216,0.086,0.979,-0.187,0.056,0.042,-0.024,0.045,0.127,-0.037,0.431,-1.363,1.772
2024-10-23 22:10:03.687,20127.226,0.086,0.978,-0.188,0.059,0.039,-0.021,0.073,0.11,-0.038,0.429,-1.363,1.769
2024-10-23 22:10:03.697,20127.236,0.086,0.978,-0.189,0.065,0.034,-0.023,0.108,0.096,-0.052,0.426,-1.362,1.765
2024-10-23 22:10:03.707,20127.246,0.085,0.978,-0.19,0.07,0.033,-0.018,0.12,0.081,-0.053,0.422,-1.361,1.76
2024-10-23 22:10:03.717,20127.256,0.085,0.978,-0.191,0.065,0.026,-0.012,0.131,0.065,-0.06,0.418,-1.36,1.755
2024-10-23 22:10:03.727,20127.266,0.084,0.978,-0.192,0.058,0.02,-0.0,0.128,0.051,-0.044,0.414,-1.359,1.75
2024-10-23 22:10:03.737,20127.276,0.084,0.978,-0.193,0.046,0.01,0.016,0.122,0.013,-0.057,0.41,-1.358,1.746
2024-10-23 22:10:03.747,20127.286,0.083,0.977,-0.195,0.038,-0.003,0.033,0.131,-0.026,-0.058,0.405,-1.357,1.741
2024-10-23 22:10:03.757,20127.295,0.083,0.977,-0.196,0.031,-0.006,0.045,0.164,-0.041,-0.036,0.4,-1.356,1.737
2024-10-23 22:10:03.767,20127.305,0.083,0.977,-0.198,0.008,0.001,0.051,0.178,-0.058,-0.054,0.395,-1.355,1.732
2024-10-23 22:10:03.777,20127.315,0.082,0.976,-0.2,-0.012,0.001,0.051,0.207,-0.078,-0.058,0.39,-1.353,1.727
2024-10-23 22:10:03.787,20127.325,0.081,0.976,-0.202,-0.021,-0.003,0.045,0.243,-0.086,-0.057,0.383,-1.351,1.721
2024-10-23 22:10:03.797,20127.335,0.081,0.975,-0.205,-0.039,-0.013,0.037,0.27,-0.068,-0.055,0.377,-1.349,1.715
2024-10-23 22:10:03.807,20127.345,0.08,0.975,-0.207,-0.057,-0.016,0.037,0.273,-0.05,-0.049,0.37,-1.347,1.709
2024-10-23 22:10:03.817,20127.355,0.08,0.974,-0.21,-0.062,-0.006,0.043,0.247,-0.031,-0.064,0.363,-1.344,1.703
2024-10-23 22:10:03.827,20127.365,0.079,0.974,-0.212,-0.054,-0.003,0.056,0.206,-0.013,-0.067,0.357,-1.343,1.697
2024-10-23 22:10:03.837,20127.375,0.079,0.974,-0.214,-0.053,-0.007,0.068,0.168,0.004,-0.061,0.352,-1.341,1.691
2024-10-23 22:10:03.847,20127.385,0.078,0.973,-0.215,-0.049,-0.011,0.075,0.147,0.017,-0.049,0.348,-1.34,1.687
2024-10-23 22:10:03.857,20127.395,0.078,0.973,-0.217,-0.041,-0.007,0.077,0.143,0.054,-0.013,0.345,-1.339,1.684
2024-10-23 22:10:03.867,20127.405,0.078,0.973,-0.217,-0.028,0.007,0.066,0.061,0.021,-0.073,0.342,-1.338,1.681
2024-10-23 22:10:03.877,20127.415,0.077,0.973,-0.218,0.004,0.038,0.041,0.07,0.086,-0.052,0.339,-1.338,1.677
2024-10-23 22:10:03.887,20127.425,0.077,0.973,-0.218,0.003,0.043,0.06,-0.011,0.065,-0.03,0.338,-1.338,1.675
2024-10-23 22:10:03.897,20127.435,0.076,0.973,-0.218,-0.017,-0.023,0.043,0.01,0.076,-0.005,0.337,-1.338,1.673
2024-10-23 22:10:03.907,20127.445,0.077,0.973,-0.218,0.012,-0.02,0.034,0.012,0.08,0.017,0.338,-1.338,1.673
2024-10-23 22:10:03.917,20127.455,0.077,0.973,-0.218,0.033,0.018,0.017,0.049,0.096,0.012,0.339,-1.338,1.673
2024-10-23 22:10:03.927,20127.465,0.077,0.973,-0.218,0.049,0.057,-0.005,0.077,0.082,0.005,0.339,-1.337,1.672
2024-10-23 22:10:03.937,20127.475,0.077,0.973,-0.219,0.043,0.055,0.004,0.065,0.056,-0.002,0.338,-1.337,1.671
2024-10-23 22:10:03.947,20127.485,0.077,0.973,-0.219,0.02,0.018,-0.003,0.025,0.066,-0.003,0.338,-1.337,1.67
2024-10-23 22:10:03.957,20127.495,0.077,0.973,-0.219,0.002,0.009,-0.002,0.002,0.053,0.007,0.339,-1.337,1.67
2024-10-23 22:10:03.967,20127.505,0.077,0.973,-0.219,-0.004,0.002,0.003,-0.008,0.002,-0.01,0.339,-1.337,1.671
2024-10-23 22:10:03.977,20127.515,0.077,0.973,-0.219,0.014,-0.012,0.001,0.015,-0.031,-0.035,0.338,-1.337,1.67
2024-10-23 22:10:03.987,20127.525,0.076,0.973,-0.219,0.003,-0.024,0.008,0.064,-0.032,-0.047,0.336,-1.337,1.668
2024-10-23 22:10:03.997,20127.535,0.076,0.973,-0.22,-0.041,-0.019,0.013,0.107,-0.011,-0.046,0.333,-1.336,1.665
2024-10-23 22:10:04.007,20127.545,0.076,0.972,-0.221,-0.065,0.002,0.016,0.127,0.023,-0.033,0.331,-1.335,1.662
2024-10-23 22:10:04.017,20127.555,0.076,0.972,-0.222,-0.068,0.015,0.022,0.123,0.055,-0.017,0.329,-1.334,1.66
2024-10-23 22:10:04.027,20127.565,0.076,0.972,-0.223,-0.064,0.016,0.03,0.1,0.087,0.009,0.328,-1.333,1.658
2024-10-23 22:10:04.037,20127.575,0.076,0.972,-0.224,-0.054,0.012,0.039,0.048,0.096,0.019,0.328,-1.332,1.658
2024-10-23 22:10:04.047,20127.585,0.077,0.972,-0.224,-0.045,0.007,0.046,0.003,0.089,0.023,0.33,-1.332,1.658
2024-10-23 22:10:04.057,20127.595,0.077,0.972,-0.224,-0.039,0.008,0.046,0.009,0.097,0.028,0.332,-1.332,1.659
2024-10-23 22:10:04.067,20127.605,0.078,0.972,-0.224,-0.034,0.019,0.041,0.039,0.105,0.034,0.334,-1.332,1.66
2024-10-23 22:10:04.077,20127.615,0.078,0.971,-0.224,-0.031,0.026,0.029,0.068,0.102,0.043,0.335,-1.331,1.661
2024-10-23 22:10:04.087,20127.625,0.079,0.971,-0.225,-0.018,0.031,0.021,0.105,0.099,0.036,0.336,-1.33,1.661
2024-10-23 22:10:04.097,20127.635,0.079,0.971,-0.226,0.0,0.027,0.02,0.149,0.107,0.03,0.336,-1.329,1.66
2024-10-23 22:10:04.106,20127.645,0.079,0.971,-0.227,0.012,0.015,0.015,0.163,0.113,0.028,0.335,-1.328,1.658
2024-10-23 22:10:04.116,20127.655,0.08,0.97,-0.229,0.02,0.012,0.01,0.143,0.13,0.028,0.335,-1.326,1.656
2024-10-23 22:10:04.126,20127.665,0.08,0.97,-0.23,0.032,0.011,0.01,0.099,0.134,0.035,0.336,-1.325,1.656
2024-10-23 22:10:04.136,20127.675,0.081,0.97,-0.23,0.04,0.006,0.011,0.045,0.132,0.031,0.337,-1.324,1.656
2024-10-23 22:10:04.146,20127.685,0.081,0.97,-0.23,0.043,-0.005,0.01,-0.003,0.117,0.03,0.339,-1.324,1.657
2024-10-23 22:10:04.156,20127.695,0.082,0.97,-0.23,0.045,-0.01,0.004,-0.008,0.096,0.027,0.341,-1.324,1.658
2024-10-23 22:10:04.167,20127.705,0.082,0.97,-0.23,0.042,-0.004,-0.003,0.019,0.088,0.029,0.343,-1.324,1.659
2024-10-23 22:10:04.177,20127.715,0.083,0.97,-0.23,0.039,0.006,-0.009,0.056,0.069,0.037,0.345,-1.324,1.659
2024-10-23 22:10:04.186,20127.725,0.083,0.969,-0.231,0.045,0.012,-0.012,0.103,0.031,0.043,0.346,-1.323,1.66
2024-10-23 22:10:04.196,20127.735,0.084,0.969,-0.232,0.049,0.009,-0.009,0.155,0.006,0.049,0.346,-1.322,1.66
2024-10-23 22:10:04.206,20127.745,0.084,0.969,-0.234,0.053,0.004,-0.004,0.195,-0.007,0.056,0.346,-1.32,1.66
2024-10-23 22:10:04.217,20127.755,0.085,0.968,-0.236,0.057,0.014,0.001,0.205,-0.029,0.066,0.346,-1.318,1.66
2024-10-23 22:10:04.227,20127.765,0.086,0.968,-0.237,0.054,0.02,0.009,0.184,-0.059,0.077,0.346,-1.316,1.661
2024-10-23 22:10:04.237,20127.775,0.086,0.967,-0.239,0.054,0.014,0.019,0.139,-0.081,0.087,0.347,-1.314,1.662
2024-10-23 22:10:04.246,20127.785,0.087,0.967,-0.24,0.059,0.006,0.026,0.095,-0.1,0.086,0.349,-1.312,1.665
2024-10-23 22:10:04.256,20127.795,0.088,0.967,-0.241,0.057,0.001,0.03,0.048,-0.122,0.092,0.35,-1.311,1.668
2024-10-23 22:10:04.266,20127.805,0.089,0.966,-0.241,0.051,-0.002,0.037,0.016,-0.157,0.087,0.353,-1.311,1.672
2024-10-23 22:10:04.276,20127.815,0.09,0.966,-0.242,0.047,-0.009,0.041,0.007,-0.164,0.084,0.355,-1.31,1.676
2024-10-23 22:10:04.286,20127.825,0.09,0.966,-0.242,0.036,-0.014,0.047,-0.006,-0.175,0.083,0.357,-1.31,1.68
2024-10-23 22:10:04.296,20127.835,0.091,0.966,-0.242,0.019,-0.017,0.048,-0.025,-0.182,0.079,0.36,-1.31,1.684
2024-10-23 22:10:04.306,20127.845,0.091,0.966,-0.241,0.001,-0.021,0.051,-0.044,-0.187,0.072,0.362,-1.31,1.688
2024-10-23 22:10:04.316,20127.855,0.092,0.966,-0.241,-0.012,-0.031,0.05,-0.049,-0.191,0.057,0.365,-1.31,1.693
2024-10-23 22:10:04.326,20127.865,0.092,0.966,-0.24,-0.022,-0.044,0.046,-0.063,-0.195,0.042,0.366,-1.31,1.696
2024-10-23 22:10:04.336,20127.875,0.092,0.966,-0.24,-0.033,-0.049,0.035,-0.06,-0.188,0.028,0.367,-1.311,1.699
2024-10-23 22:10:04.347,20127.885,0.092,0.967,-0.239,-0.041,-0.042,0.029,-0.069,-0.179,0.019,0.367,-1.311,1.701
2024-10-23 22:10:04.356,20127.894,0.092,0.967,-0.239,-0.049,-0.04,0.019,-0.094,-0.169,0.01,0.368,-1.312,1.703
2024-10-23 22:10:04.366,20127.904,0.092,0.967,-0.238,-0.052,-0.042,0.009,-0.099,-0.15,0.0,0.368,-1.313,1.705
2024-10-23 22:10:04.376,20127.914,0.091,0.967,-0.237,-0.053,-0.03,0.004,-0.104,-0.13,-0.001,0.368,-1.314,1.707
2024-10-23 22:10:04.386,20127.924,0.091,0.967,-0.236,-0.058,-0.022,-0.004,-0.093,-0.107,-0.006,0.368,-1.315,1.708
2024-10-23 22:10:04.396,20127.934,0.091,0.968,-0.235,-0.058,-0.021,-0.016,-0.046,-0.079,-0.007,0.368,-1.316,1.709
2024-10-23 22:10:04.406,20127.944,0.09,0.968,-0.235,-0.057,-0.011,-0.026,-0.014,-0.046,-0.016,0.367,-1.316,1.709
2024-10-23 22:10:04.416,20127.954,0.09,0.968,-0.235,-0.057,-0.002,-0.029,0.02,-0.023,-0.01,0.366,-1.316,1.708
2024-10-23 22:10:04.426,20127.964,0.09,0.968,-0.235,-0.054,0.009,-0.039,0.004,-0.008,-0.017,0.365,-1.316,1.707
2024-10-23 22:10:04.436,20127.974,0.09,0.968,-0.235,-0.044,0.013,-0.04,-0.005,-0.002,-0.012,0.364,-1.316,1.706
2024-10-23 22:10:04.446,20127.984,0.09,0.968,-0.235,-0.029,0.015,-0.036,-0.001,0.027,-0.01,0.364,-1.316,1.706
2024-10-23 22:10:04.456,20127.994,0.089,0.968,-0.235,-0.023,0.022,-0.028,0.005,0.053,-0.011,0.363,-1.316,1.705
2024-10-23 22:10:04.466,20128.004,0.089,0.968,-0.235,-0.012,0.035,-0.025,0.024,0.066,-0.001,0.363,-1.316,1.704
2024-10-23 22:10:04.476,20128.014,0.089,0.968,-0.236,-0.002,0.043,-0.025,0.02,0.065,0.001,0.362,-1.316,1.703
2024-10-23 22:10:04.486,20128.024,0.089,0.968,-0.236,0.01,0.029,-0.021,0.009,0.064,-0.003,0.362,-1.316,1.702
2024-10-23 22:10:04.496,20128.034,0.089,0.968,-0.236,0.021,0.018,-0.021,-0.001,0.061,0.001,0.362,-1.316,1.701
2024-10-23 22:10:04.506,20128.044,0.089,0.968,-0.236,0.028,0.012,-0.016,-0.01,0.054,0.001,0.362,-1.316,1.7
2024-10-23 22:10:04.516,20128.054,0.089,0.968,-0.236,0.028,0.006,-0.011,-0.013,0.045,-0.001,0.362,-1.316,1.7
2024-10-23 22:10:04.526,20128.064,0.089,0.968,-0.236,0.028,-0.003,-0.009,-0.006,0.034,-0.001,0.362,-1.316,1.7
2024-10-23 22:10:04.536,20128.074,0.089,0.968,-0.236,0.028,-0.011,-0.005,0.022,0.034,-0.002,0.362,-1.316,1.699
2024-10-23 22:10:04.546,20128.084,0.089,0.968,-0.236,0.027,-0.008,0.003,0.037,0.025,-0.0,0.362,-1.316,1.699
2024-10-23 22:10:04.556,20128.094,0.089,0.968,-0.237,0.019,0.002,0.007,0.031,-0.001,-0.005,0.361,-1.315,1.698
2024-10-23 22:10:04.566,20128.104,0.089,0.967,-0.237,0.015,0.003,0.014,0.022,-0.016,-0.007,0.36,-1.315,1.697
2024-10-23 22:10:04.575,20128.114,0.089,0.967,-0.237,0.011,-0.004,0.023,0.023,-0.031,-0.012,0.36,-1.315,1.697
2024-10-23 22:10:04.586,20128.124,0.089,0.967,-0.237,0.007,-0.005,0.025,0.008,-0.048,-0.01,0.359,-1.315,1.697
2024-10-23 22:10:04.596,20128.134,0.089,0.967,-0.237,0.0,-0.002,0.027,0.01,-0.07,-0.015,0.358,-1.314,1.697
2024-10-23 22:10:04.606,20128.144,0.089,0.967,-0.238,-0.004,-0.004,0.03,0.03,-0.082,-0.018,0.357,-1.314,1.696
2024-10-23 22:10:04.616,20128.154,0.089,0.967,-0.238,-0.007,-0.007,0.031,0.057,-0.083,-0.013,0.356,-1.314,1.696
2024-10-23 22:10:04.625,20128.164,0.089,0.967,-0.239,-0.008,-0.008,0.027,0.057,-0.081,-0.009,0.355,-1.313,1.695
2024-10-23 22:10:04.636,20128.174,0.088,0.967,-0.239,-0.013,-0.006,0.02,0.041,-0.077,-0.001,0.354,-1.313,1.695
2024-10-23 22:10:04.646,20128.184,0.088,0.967,-0.24,-0.017,-0.003,0.015,0.02,-0.07,0.007,0.353,-1.312,1.695
2024-10-23 22:10:04.655,20128.194,0.088,0.967,-0.24,-0.016,-0.001,0.013,-0.006,-0.065,0.01,0.353,-1.312,1.696
2024-10-23 22:10:04.665,20128.204,0.088,0.967,-0.24,-0.01,-0.002,0.007,-0.011,-0.061,0.004,0.353,-1.313,1.696
2024-10-23 22:10:04.676,20128.214,0.088,0.967,-0.239,-0.006,-0.001,0.007,-0.0,-0.046,0.004,0.353,-1.313,1.697
2024-10-23 22:10:04.685,20128.224,0.088,0.967,-0.239,-0.004,0.005,0.003,0.01,-0.028,0.007,0.353,-1.313,1.697
2024-10-23 22:10:04.696,20128.234,0.088,0.967,-0.239,-0.002,0.008,-0.002,0.003,-0.03,0.012,0.353,-1.313,1.698
2024-10-23 22:10:04.705,20128.244,0.088,0.967,-0.239,0.001,0.004,-0.002,-0.007,-0.032,0.007,0.353,-1.313,1.698
2024-10-23 22:10:04.715,20128.254,0.088,0.967,-0.239,0.001,-0.002,-0.001,-0.016,-0.026,0.002,0.353,-1.313,1.698
2024-10-23 22:10:04.725,20128.264,0.088,0.967,-0.239,0.003,-0.004,-0.001,-0.021,-0.024,-0.003,0.353,-1.314,1.698
2024-10-23 22:10:04.736,20128.274,0.088,0.967,-0.238,0.001,0.002,0.002,-0.025,-0.021,-0.005,0.353,-1.314,1.698
2024-10-23 22:10:04.746,20128.284,0.088,0.967,-0.238,-0.001,0.004,0.003,-0.023,-0.017,-0.002,0.353,-1.314,1.698
2024-10-23 22:10:04.756,20128.294,0.088,0.967,-0.238,-0.001,-0.006,0.001,-0.017,-0.018,-0.003,0.352,-1.314,1.698
2024-10-23 22:10:04.766,20128.304,0.087,0.967,-0.238,-0.003,-0.009,0.003,-0.012,-0.02,0.001,0.352,-1.315,1.698
2024-10-23 22:10:04.776,20128.314,0.087,0.967,-0.238,-0.005,-0.007,0.006,-0.018,-0.029,-0.002,0.352,-1.315,1.699
2024-10-23 22:10:04.785,20128.324,0.087,0.967,-0.238,-0.008,-0.012,0.008,-0.018,-0.032,-0.004,0.352,-1.315,1.699
2024-10-23 22:10:04.796,20128.334,0.087,0.967,-0.237,-0.007,-0.011,0.011,-0.011,-0.031,-0.008,0.352,-1.315,1.699
2024-10-23 22:10:04.805,20128.344,0.087,0.968,-0.237,-0.01,-0.004,0.014,-0.016,-0.036,-0.008,0.351,-1.315,1.699
2024-10-23 22:10:04.815,20128.354,0.087,0.968,-0.237,-0.013,0.001,0.01,-0.028,-0.038,-0.001,0.351,-1.315,1.699
2024-10-23 22:10:04.825,20128.364,0.087,0.968,-0.237,-0.013,0.001,0.008,-0.031,-0.038,0.009,0.351,-1.316,1.699
2024-10-23 22:10:04.835,20128.374,0.087,0.968,-0.237,-0.012,-0.003,0.01,-0.016,-0.045,0.006,0.352,-1.316,1.7
2024-10-23 22:10:04.845,20128.384,0.087,0.968,-0.237,-0.011,-0.01,0.007,0.009,-0.039,0.012,0.351,-1.316,1.7
2024-10-23 22:10:04.855,20128.394,0.087,0.968,-0.237,-0.009,0.001,0.006,0.027,-0.036,0.021,0.351,-1.316,1.701
2024-10-23 22:10:04.865,20128.404,0.087,0.968,-0.237,-0.009,0.017,0.009,0.027,-0.038,0.03,0.351,-1.315,1.701
2024-10-23 22:10:04.875,20128.414,0.087,0.967,-0.237,-0.01,0.018,0.008,0.033,-0.044,0.04,0.352,-1.315,1.702
2024-10-23 22:10:04.885,20128.424,0.087,0.967,-0.238,-0.004,0.012,0.008,0.053,-0.035,0.043,0.352,-1.315,1.703
2024-10-23 22:10:04.895,20128.434,0.088,0.967,-0.238,-0.004,0.016,0.006,0.081,-0.024,0.046,0.353,-1.314,1.703
2024-10-23 22:10:04.905,20128.444,0.088,0.967,-0.239,-0.008,0.025,0.003,0.094,-0.011,0.044,0.353,-1.313,1.704
2024-10-23 22:10:04.915,20128.454,0.088,0.967,-0.24,-0.012,0.026,-0.0,0.086,-0.01,0.046,0.353,-1.312,1.704
2024-10-23 22:10:04.925,20128.464,0.089,0.967,-0.241,-0.013,0.018,-0.003,0.061,-0.005,0.041,0.353,-1.311,1.704
2024-10-23 22:10:04.935,20128.474,0.089,0.966,-0.241,-0.011,0.009,-0.002,0.035,0.006,0.042,0.354,-1.311,1.705
2024-10-23 22:10:04.945,20128.483,0.089,0.966,-0.241,-0.011,0.002,-0.0,0.002,0.008,0.035,0.355,-1.311,1.706
2024-10-23 22:10:04.955,20128.493,0.09,0.966,-0.241,-0.012,-0.007,0.003,-0.017,0.008,0.028,0.356,-1.311,1.707
2024-10-23 22:10:04.965,20128.503,0.09,0.966,-0.241,-0.01,-0.012,0.008,-0.017,0.011,0.028,0.357,-1.311,1.709
2024-10-23 22:10:04.975,20128.513,0.09,0.966,-0.241,-0.008,-0.013,0.01,-0.019,0.005,0.025,0.359,-1.311,1.71
2024-10-23 22:10:04.986,20128.523,0.09,0.967,-0.24,-0.008,-0.018,0.01,-0.025,0.004,0.012,0.36,-1.311,1.711
2024-10-23 22:10:04.995,20128.533,0.09,0.967,-0.24,-0.005,-0.023,0.011,-0.018,0.003,0.007,0.36,-1.311,1.711
2024-10-23 22:10:05.005,20128.543,0.09,0.967,-0.24,-0.005,-0.02,0.013,-0.025,-0.011,-0.002,0.36,-1.312,1.711
2024-10-23 22:10:05.015,20128.553,0.09,0.967,-0.24,-0.002,-0.017,0.017,-0.019,-0.02,-0.014,0.36,-1.312,1.711
2024-10-23 22:10:05.025,20128.563,0.09,0.967,-0.239,0.002,-0.014,0.02,-0.019,-0.024,-0.016,0.359,-1.312,1.71
2024-10-23 22:10:05.035,20128.573,0.09,0.967,-0.239,0.006,-0.012,0.02,-0.02,-0.028,-0.018,0.358,-1.312,1.71
2024-10-23 22:10:05.045,20128.583,0.089,0.967,-0.239,0.008,-0.004,0.018,-0.023,-0.025,-0.018,0.357,-1.313,1.709
2024-10-23 22:10:05.055,20128.593,0.089,0.967,-0.239,0.007,0.003,0.014,-0.018,-0.019,-0.006,0.357,-1.313,1.709
2024-10-23 22:10:05.065,20128.603,0.089,0.967,-0.239,0.005,0.007,0.011,-0.023,-0.019,0.003,0.357,-1.313,1.709
2024-10-23 22:10:05.075,20128.613,0.089,0.967,-0.239,0.002,0.009,0.009,-0.015,-0.018,0.008,0.357,-1.313,1.71
2024-10-23 22:10:05.085,20128.623,0.089,0.967,-0.238,-0.003,0.009,0.006,-0.009,-0.013,0.012,0.357,-1.313,1.71
2024-10-23 22:10:05.095,20128.633,0.089,0.967,-0.238,-0.005,0.011,0.003,-0.003,-0.015,0.013,0.358,-1.314,1.711
2024-10-23 22:10:05.105,20128.643,0.089,0.967,-0.238,-0.007,0.011,-0.003,0.002,-0.01,0.021,0.359,-1.314,1.712
2024-10-23 22:10:05.116,20128.653,0.09,0.967,-0.238,-0.009,0.01,-0.006,-0.001,-0.012,0.019,0.359,-1.313,1.713
2024-10-23 22:10:05.125,20128.663,0.09,0.967,-0.238,-0.01,0.005,-0.005,-0.001,-0.007,0.016,0.36,-1.313,1.714
2024-10-23 22:10:05.135,20128.673,0.09,0.967,-0.238,-0.009,-0.002,-0.004,-0.003,-0.004,0.009,0.361,-1.314,1.714
2024-10-23 22:10:05.145,20128.683,0.09,0.967,-0.238,-0.01,-0.004,-0.0,-0.006,-0.0,0.003,0.361,-1.314,1.715
2024-10-23 22:10:05.155,20128.693,0.09,0.967,-0.238,-0.01,-0.002,0.004,-0.013,-0.003,-0.008,0.361,-1.314,1.715
2024-10-23 22:10:05.165,20128.703,0.09,0.967,-0.238,-0.01,-0.004,0.005,-0.016,-0.004,-0.01,0.361,-1.314,1.715
2024-10-23 22:10:05.175,20128.713,0.09,0.967,-0.237,-0.006,-0.012,0.004,-0.009,-0.008,-0.015,0.361,-1.314,1.714
2024-10-23 22:10:05.185,20128.723,0.089,0.967,-0.237,-0.003,-0.014,0.005,0.003,-0.0,-0.016,0.36,-1.314,1.714
2024-10-23 22:10:05.195,20128.733,0.089,0.967,-0.237,-0.002,-0.007,0.005,0.001,0.006,-0.021,0.359,-1.314,1.713
2024-10-23 22:10:05.205,20128.743,0.089,0.967,-0.237,-0.003,0.001,0.003,-0.005,0.006,-0.023,0.358,-1.314,1.712
2024-10-23 22:10:05.215,20128.753,0.089,0.967,-0.237,-0.003,-0.0,0.003,-0.015,0.006,-0.022,0.358,-1.315,1.711
2024-10-23 22:10:05.225,20128.763,0.088,0.967,-0.237,-0.001,-0.004,0.004,-0.022,0.004,-0.016,0.357,-1.315,1.71
2024-10-23 22:10:05.235,20128.773,0.088,0.968,-0.237,0.001,-0.007,0.002,-0.022,-0.001,-0.017,0.357,-1.315,1.71
2024-10-23 22:10:05.245,20128.783,0.088,0.968,-0.237,0.0,-0.006,0.003,-0.016,0.003,-0.016,0.356,-1.315,1.709
2024-10-23 22:10:05.255,20128.793,0.088,0.968,-0.237,0.002,-0.004,0.002,0.003,-0.001,-0.012,0.356,-1.316,1.709
2024-10-23 22:10:05.265,20128.803,0.088,0.968,-0.237,0.001,-0.0,0.004,0.009,0.005,-0.007,0.355,-1.316,1.708
2024-10-23 22:10:05.275,20128.813,0.088,0.968,-0.237,0.0,0.003,0.009,0.01,0.01,0.001,0.355,-1.315,1.708
2024-10-23 22:10:05.285,20128.823,0.088,0.968,-0.237,0.001,0.005,0.011,-0.003,0.008,0.009,0.355,-1.315,1.708
2024-10-23 22:10:05.295,20128.833,0.088,0.968,-0.237,0.002,0.006,0.013,-0.012,0.009,0.013,0.356,-1.315,1.709
2024-10-23 22:10:05.305,20128.843,0.088,0.968,-0.237,-0.0,0.004,0.013,-0.015,0.012,0.012,0.357,-1.316,1.709
2024-10-23 22:10:05.315,20128.853,0.088,0.968,-0.236,-0.002,0.002,0.011,-0.016,0.019,0.014,0.357,-1.316,1.71
2024-10-23 22:10:05.324,20128.863,0.088,0.968,-0.236,-0.005,0.008,0.006,-0.026,0.019,0.011,0.358,-1.316,1.711
2024-10-23 22:10:05.335,20128.873,0.089,0.968,-0.236,-0.009,0.009,0.001,-0.043,0.014,0.007,0.359,-1.316,1.712
2024-10-23 22:10:05.344,20128.883,0.089,0.968,-0.235,-0.007,0.005,-0.001,-0.062,0.012,0.004,0.361,-1.317,1.713
2024-10-23 22:10:05.354,20128.893,0.089,0.968,-0.235,-0.007,-0.001,-0.002,-0.079,0.008,-0.004,0.362,-1.317,1.714
2024-10-23 22:10:05.364,20128.903,0.089,0.968,-0.234,-0.006,-0.005,-0.0,-0.079,0.005,-0.009,0.363,-1.318,1.715
2024-10-23 22:10:05.375,20128.913,0.089,0.968,-0.233,-0.008,-0.007,0.001,-0.068,0.005,-0.02,0.363,-1.319,1.715
2024-10-23 22:10:05.384,20128.923,0.088,0.969,-0.232,-0.006,-0.011,0.003,-0.054,0.009,-0.021,0.363,-1.319,1.716
2024-10-23 22:10:05.394,20128.933,0.088,0.969,-0.232,-0.004,-0.014,0.006,-0.056,0.0,-0.027,0.363,-1.32,1.715
2024-10-23 22:10:05.404,20128.943,0.088,0.969,-0.231,-0.003,-0.014,0.009,-0.043,-0.002,-0.032,0.363,-1.321,1.715
2024-10-23 22:10:05.414,20128.953,0.087,0.969,-0.231,-0.002,-0.012,0.008,-0.034,-0.002,-0.032,0.362,-1.321,1.714
2024-10-23 22:10:05.424,20128.963,0.087,0.969,-0.231,-0.001,-0.01,0.005,-0.031,0.004,-0.031,0.361,-1.322,1.713
2024-10-23 22:10:05.435,20128.973,0.087,0.969,-0.23,-0.002,-0.006,0.004,-0.031,0.002,-0.028,0.36,-1.322,1.712
2024-10-23 22:10:05.444,20128.983,0.087,0.969,-0.23,-0.002,-0.004,0.006,-0.034,0.003,-0.027,0.36,-1.322,1.712
2024-10-23 22:10:05.454,20128.993,0.086,0.969,-0.23,-0.001,-0.002,0.006,-0.03,0.005,-0.03,0.359,-1.323,1.711
2024-10-23 22:10:05.464,20129.003,0.086,0.969,-0.23,-0.0,0.003,0.006,-0.024,0.006,-0.022,0.358,-1.323,1.71
2024-10-23 22:10:05.474,20129.013,0.086,0.97,-0.229,-0.001,0.004,0.004,-0.024,-0.001,-0.017,0.358,-1.323,1.71
2024-10-23 22:10:05.484,20129.023,0.086,0.97,-0.229,0.001,0.001,0.005,-0.02,0.002,-0.012,0.358,-1.324,1.71
2024-10-23 22:10:05.494,20129.033,0.086,0.97,-0.229,0.003,0.0,0.009,-0.011,0.003,-0.012,0.358,-1.324,1.71
2024-10-23 22:10:05.504,20129.043,0.086,0.97,-0.229,0.0,0.004,0.008,-0.008,0.002,-0.006,0.358,-1.324,1.709
2024-10-23 22:10:05.514,20129.053,0.085,0.97,-0.229,-0.002,0.005,0.005,0.003,0.005,-0.01,0.357,-1.324,1.709
2024-10-23 22:10:05.524,20129.063,0.085,0.97,-0.229,-0.003,0.008,0.003,0.005,-0.001,-0.004,0.357,-1.324,1.709
2024-10-23 22:10:05.534,20129.073,0.085,0.97,-0.229,-0.004,0.007,0.004,0.009,-0.001,-0.003,0.357,-1.324,1.709
2024-10-23 22:10:05.544,20129.082,0.085,0.97,-0.229,-0.002,0.003,0.004,0.011,-0.003,-0.005,0.357,-1.324,1.708
2024-10-23 22:10:05.554,20129.092,0.085,0.97,-0.229,-0.001,0.0,0.007,0.006,-0.006,-0.007,0.356,-1.324,1.708
2024-10-23 22:10:05.564,20129.102,0.085,0.97,-0.229,-0.0,-0.002,0.007,-0.009,-0.013,-0.01,0.356,-1.324,1.708
2024-10-23 22:10:05.574,20129.112,0.085,0.97,-0.229,0.0,-0.002,0.006,-0.009,-0.006,-0.011,0.356,-1.324,1.708
2024-10-23 22:10:05.584,20129.122,0.085,0.97,-0.229,0.0,-0.005,0.005,-0.003,0.005,-0.014,0.355,-1.324,1.707
2024-10-23 22:10:05.594,20129.132,0.085,0.97,-0.229,-0.001,-0.007,0.002,-0.006,0.006,-0.016,0.355,-1.324,1.707
2024-10-23 22:10:05.604,20129.142,0.085,0.97,-0.229,-0.003,-0.006,0.001,-0.014,0.003,-0.019,0.354,-1.324,1.706
2024-10-23 22:10:05.614,20129.152,0.084,0.97,-0.229,-0.002,-0.003,0.001,-0.017,0.007,-0.017,0.354,-1.325,1.706
2024-10-23 22:10:05.624,20129.162,0.084,0.97,-0.228,-0.004,0.0,0.005,-0.009,0.006,-0.017,0.354,-1.325,1.705
2024-10-23 22:10:05.634,20129.172,0.084,0.97,-0.228,-0.005,0.001,0.003,0.005,0.011,-0.02,0.353,-1.325,1.705
2024-10-23 22:10:05.644,20129.182,0.084,0.97,-0.228,-0.004,-0.003,0.004,0.006,0.011,-0.005,0.353,-1.325,1.704
2024-10-23 22:10:05.654,20129.192,0.084,0.97,-0.228,-0.002,-0.002,0.002,-0.001,0.001,-0.01,0.353,-1.325,1.704
2024-10-23 22:10:05.664,20129.202,0.084,0.97,-0.228,-0.002,-0.0,0.004,0.003,0.004,-0.011,0.352,-1.325,1.703
2024-10-23 22:10:05.674,20129.212,0.084,0.97,-0.228,-0.003,-0.001,0.009,0.02,0.007,-0.006,0.352,-1.325,1.703
2024-10-23 22:10:05.684,20129.222,0.084,0.97,-0.229,-0.005,0.0,0.009,0.023,0.009,-0.001,0.351,-1.325,1.702
2024-10-23 22:10:05.694,20129.232,0.084,0.97,-0.229,-0.004,0.005,0.005,0.016,0.007,0.001,0.351,-1.325,1.702
2024-10-23 22:10:05.704,20129.242,0.084,0.97,-0.229,-0.0,0.001,0.004,0.008,0.01,-0.001,0.351,-1.325,1.702
2024-10-23 22:10:05.714,20129.252,0.084,0.97,-0.229,-0.001,-0.003,0.005,0.008,0.009,0.001,0.351,-1.324,1.702
2024-10-23 22:10:05.724,20129.262,0.084,0.97,-0.229,-0.004,-0.0,0.006,0.006,0.006,-0.003,0.351,-1.324,1.702
2024-10-23 22:10:05.734,20129.272,0.084,0.97,-0.229,-0.003,0.002,0.007,0.008,0.006,-0.003,0.351,-1.324,1.701
2024-10-23 22:10:05.744,20129.282,0.084,0.97,-0.229,-0.001,0.003,0.009,0.008,-0.0,0.003,0.351,-1.324,1.701
2024-10-23 22:10:05.755,20129.292,0.084,0.97,-0.229,-0.002,0.002,0.005,0.005,-0.0,-0.001,0.351,-1.324,1.701
2024-10-23 22:10:05.764,20129.302,0.084,0.97,-0.229,-0.001,-0.003,0.006,0.005,-0.005,0.001,0.35,-1.324,1.701
2024-10-23 22:10:05.774,20129.312,0.084,0.97,-0.229,-0.001,-0.003,0.005,0.008,-0.0,-0.001,0.35,-1.324,1.701
2024-10-23 22:10:05.784,20129.322,0.084,0.97,-0.229,-0.002,-0.001,0.006,0.016,-0.0,0.002,0.35,-1.324,1.701
2024-10-23 22:10:05.794,20129.332,0.084,0.97,-0.229,-0.005,0.0,0.009,0.02,-0.001,0.007,0.35,-1.324,1.701
2024-10-23 22:10:05.804,20129.342,0.084,0.97,-0.23,-0.003,-0.001,0.008,0.013,-0.006,0.005,0.35,-1.324,1.701
2024-10-23 22:10:05.814,20129.352,0.084,0.97,-0.23,-0.001,-0.004,0.008,0.01,-0.006,0.002,0.35,-1.324,1.701
2024-10-23 22:10:05.824,20129.362,0.084,0.97,-0.23,-0.003,-0.008,0.008,0.006,-0.006,0.004,0.35,-1.324,1.701
2024-10-23 22:10:05.834,20129.372,0.084,0.97,-0.23,-0.002,-0.006,0.006,0.006,0.001,0.003,0.35,-1.324,1.701
2024-10-23 22:10:05.844,20129.382,0.084,0.97,-0.23,-0.001,0.001,0.004,0.001,-0.001,0.005,0.35,-1.324,1.701
2024-10-23 22:10:05.854,20129.392,0.084,0.97,-0.23,-0.003,0.0,0.004,-0.003,0.003,0.001,0.35,-1.324,1.701
2024-10-23 22:10:05.864,20129.402,0.084,0.97,-0.23,0.002,-0.001,0.003,0.006,-0.0,0.003,0.35,-1.324,1.701
2024-10-23 22:10:05.874,20129.412,0.084,0.97,-0.23,0.001,0.002,0.002,0.015,0.004,0.006,0.35,-1.324,1.701
2024-10-23 22:10:05.884,20129.422,0.084,0.97,-0.23,-0.001,0.006,0.003,0.019,0.009,0.006,0.35,-1.324,1.701
2024-10-23 22:10:05.894,20129.432,0.084,0.97,-0.23,-0.002,0.005,0.004,0.02,0.007,0.011,0.35,-1.323,1.701
2024-10-23 22:10:05.904,20129.442,0.084,0.97,-0.23,-0.002,0.001,0.005,0.006,0.003,0.012,0.351,-1.323,1.701
2024-10-23 22:10:05.913,20129.452,0.084,0.969,-0.23,-0.002,-0.005,0.004,0.003,0.006,0.013,0.351,-1.323,1.702
2024-10-23 22:10:05.923,20129.462,0.084,0.969,-0.23,-0.004,-0.005,0.003,0.001,0.007,0.01,0.352,-1.323,1.702
2024-10-23 22:10:05.934,20129.472,0.085,0.969,-0.23,-0.005,-0.006,0.003,0.01,0.008,0.007,0.352,-1.323,1.702
2024-10-23 22:10:05.944,20129.482,0.085,0.969,-0.23,-0.005,-0.004,0.003,0.011,0.006,0.003,0.352,-1.323,1.702
2024-10-23 22:10:05.953,20129.492,0.085,0.969,-0.23,-0.004,-0.002,0.004,0.008,0.0,0.004,0.352,-1.323,1.702
2024-10-23 22:10:05.963,20129.502,0.085,0.969,-0.23,-0.002,-0.005,0.006,0.008,0.002,0.007,0.352,-1.323,1.703
2024-10-23 22:10:05.973,20129.512,0.085,0.969,-0.23,-0.002,-0.007,0.008,-0.003,-0.0,0.002,0.352,-1.323,1.703
2024-10-23 22:10:05.983,20129.522,0.085,0.969,-0.23,-0.002,-0.007,0.008,-0.006,-0.003,0.004,0.353,-1.323,1.703
2024-10-23 22:10:05.993,20129.532,0.085,0.969,-0.23,-0.002,-0.004,0.008,-0.009,0.001,0.002,0.353,-1.323,1.703
2024-10-23 22:10:06.003,20129.542,0.085,0.969,-0.23,-0.002,-0.0,0.008,-0.005,-0.001,-0.0,0.353,-1.323,1.703
2024-10-23 22:10:06.014,20129.552,0.085,0.969,-0.23,-0.003,0.0,0.003,0.004,0.003,0.002,0.353,-1.323,1.703
2024-10-23 22:10:06.023,20129.562,0.085,0.969,-0.23,-0.003,0.002,0.002,0.011,0.007,-0.001,0.353,-1.323,1.703
2024-10-23 22:10:06.033,20129.572,0.085,0.969,-0.23,-0.003,0.004,0.001,0.007,0.005,0.0,0.353,-1.323,1.703
2024-10-23 22:10:06.043,20129.582,0.085,0.969,-0.23,-0.002,0.005,0.001,-0.002,0.006,-0.0,0.353,-1.323,1.703
2024-10-23 22:10:06.053,20129.592,0.085,0.969,-0.23,-0.003,0.002,0.003,-0.004,0.001,-0.0,0.353,-1.323,1.703
2024-10-23 22:10:06.063,20129.602,0.085,0.969,-0.23,-0.002,-0.003,0.004,0.002,-0.001,-0.0,0.353,-1.323,1.703
2024-10-23 22:10:06.073,20129.612,0.085,0.969,-0.23,-0.0,-0.005,0.008,0.006,0.008,-0.001,0.353,-1.323,1.703
2024-10-23 22:10:06.083,20129.622,0.085,0.969,-0.23,-0.001,-0.003,0.01,0.011,0.009,0.006,0.353,-1.323,1.703
2024-10-23 22:10:06.093,20129.632,0.085,0.969,-0.23,0.0,-0.004,0.011,0.007,0.008,0.0,0.353,-1.323,1.703
2024-10-23 22:10:06.103,20129.642,0.085,0.969,-0.23,-0.002,-0.009,0.011,0.007,-0.004,-0.003,0.353,-1.323,1.703
2024-10-23 22:10:06.113,20129.652,0.085,0.969,-0.23,-0.0,-0.007,0.011,0.006,-0.002,-0.003,0.353,-1.323,1.703
2024-10-23 22:10:06.123,20129.662,0.085,0.969,-0.231,0.002,-0.001,0.009,0.018,-0.002,-0.004,0.352,-1.323,1.702
2024-10-23 22:10:06.133,20129.672,0.085,0.969,-0.231,-0.002,0.003,0.004,0.002,-0.004,-0.012,0.352,-1.323,1.702
2024-10-23 22:10:06.144,20129.681,0.085,0.969,-0.231,-0.003,0.001,0.0,0.006,-0.003,-0.001,0.351,-1.323,1.701
2024-10-23 22:10:06.153,20129.691,0.085,0.969,-0.231,-0.002,0.002,-0.003,0.006,-0.005,-0.004,0.351,-1.323,1.701
2024-10-23 22:10:06.163,20129.701,0.085,0.969,-0.231,0.001,-0.006,-0.0,0.007,-0.004,-0.0,0.351,-1.323,1.701
2024-10-23 22:10:06.173,20129.711,0.085,0.969,-0.231,0.001,-0.004,0.002,0.009,-0.003,-0.0,0.351,-1.322,1.701
2024-10-23 22:10:06.183,20129.721,0.084,0.969,-0.231,-0.002,0.004,0.0,0.008,-0.001,-0.0,0.351,-1.322,1.701
2024-10-23 22:10:06.193,20129.731,0.084,0.969,-0.231,-0.001,0.006,0.005,0.003,0.002,0.001,0.351,-1.322,1.701
2024-10-23 22:10:06.203,20129.741,0.085,0.969,-0.231,-0.002,0.003,0.008,0.001,-0.001,0.002,0.351,-1.322,1.701
2024-10-23 22:10:06.213,20129.751,0.085,0.969,-0.231,-0.003,0.002,0.009,0.003,-0.002,0.002,0.351,-1.322,1.701
2024-10-23 22:10:06.223,20129.761,0.084,0.969,-0.231,-0.002,-0.0,0.009,0.008,0.002,-0.002,0.351,-1.322,1.701
2024-10-23 22:10:06.233,20129.771,0.084,0.969,-0.231,-0.002,-0.001,0.005,0.014,0.001,-0.001,0.351,-1.322,1.701
2024-10-23 22:10:06.243,20129.781,0.084,0.969,-0.231,-0.003,-0.003,0.002,0.008,-0.002,-0.006,0.35,-1.322,1.701
2024-10-23 22:10:06.253,20129.791,0.084,0.969,-0.231,-0.003,-0.004,0.002,0.0,0.0,-0.007,0.35,-1.322,1.7
2024-10-23 22:10:06.263,20129.801,0.084,0.969,-0.231,-0.002,-0.004,0.004,-0.005,0.004,-0.005,0.35,-1.322,1.7
2024-10-23 22:10:06.273,20129.811,0.084,0.969,-0.231,-0.004,-0.004,0.005,-0.008,-0.002,-0.007,0.35,-1.322,1.7
2024-10-23 22:10:06.283,20129.821,0.084,0.969,-0.231,-0.001,-0.005,0.008,0.001,-0.0,-0.006,0.35,-1.322,1.7
2024-10-23 22:10:06.293,20129.831,0.084,0.969,-0.231,-0.003,-0.004,0.008,0.002,0.003,-0.002,0.35,-1.322,1.7
2024-10-23 22:10:06.303,20129.841,0.084,0.969,-0.231,-0.003,-0.001,0.008,0.001,-0.003,0.004,0.35,-1.323,1.7
2024-10-23 22:10:06.313,20129.851,0.084,0.969,-0.231,-0.003,-0.0,0.01,-0.007,-0.011,0.003,0.35,-1.323,1.7
2024-10-23 22:10:06.323,20129.861,0.084,0.969,-0.231,-0.001,-0.003,0.009,-0.001,-0.01,-0.001,0.35,-1.323,1.7
2024-10-23 22:10:06.333,20129.871,0.084,0.969,-0.231,-0.001,-0.003,0.006,0.002,-0.008,0.004,0.35,-1.323,1.7
2024-10-23 22:10:06.343,20129.881,0.084,0.969,-0.231,-0.003,0.001,0.004,-0.007,-0.011,0.006,0.35,-1.323,1.7
2024-10-23 22:10:06.353,20129.891,0.084,0.969,-0.231,-0.004,0.002,0.001,-0.004,-0.008,0.006,0.35,-1.323,1.7
2024-10-23 22:10:06.363,20129.901,0.084,0.969,-0.231,-0.004,-0.005,-0.001,0.005,-0.004,0.004,0.35,-1.323,1.701
2024-10-23 22:10:06.373,20129.911,0.084,0.969,-0.231,-0.001,-0.005,-0.0,0.011,0.004,0.004,0.35,-1.323,1.701
2024-10-23 22:10:06.383,20129.921,0.084,0.969,-0.231,-0.0,-0.0,0.0,0.01,0.007,-0.002,0.35,-1.323,1.701
2024-10-23 22:10:06.393,20129.931,0.084,0.969,-0.231,0.0,0.002,0.003,0.006,-0.002,-0.004,0.35,-1.323,1.7
2024-10-23 22:10:06.403,20129.941,0.084,0.969,-0.231,-0.001,0.0,0.004,0.002,-0.003,-0.002,0.35,-1.323,1.7
2024-10-23 22:10:06.413,20129.951,0.084,0.969,-0.231,0.002,-0.002,0.007,0.002,-0.004,-0.002,0.35,-1.323,1.7
2024-10-23 22:10:06.423,20129.961,0.084,0.969,-0.231,0.002,-0.003,0.009,0.005,-0.001,0.001,0.35,-1.323,1.7
2024-10-23 22:10:06.433,20129.971,0.084,0.969,-0.231,-0.001,-0.003,0.009,-0.002,-0.007,0.003,0.35,-1.323,1.7
2024-10-23 22:10:06.443,20129.981,0.084,0.969,-0.231,-0.0,-0.001,0.007,-0.001,-0.006,-0.0,0.349,-1.323,1.7
2024-10-23 22:10:06.452,20129.991,0.084,0.969,-0.231,-0.002,0.003,0.006,0.012,-0.003,0.002,0.349,-1.323,1.7
2024-10-23 22:10:06.463,20130.001,0.084,0.969,-0.231,-0.004,0.003,0.003,0.027,0.005,0.004,0.349,-1.322,1.7
2024-10-23 22:10:06.473,20130.011,0.084,0.969,-0.231,-0.004,0.003,0.002,0.038,0.004,0.003,0.349,-1.322,1.7
2024-10-23 22:10:06.483,20130.021,0.084,0.969,-0.232,-0.004,0.005,0.003,0.042,0.004,0.004,0.349,-1.322,1.699
2024-10-23 22:10:06.493,20130.031,0.084,0.969,-0.232,-0.004,0.002,0.005,0.047,-0.002,-0.003,0.348,-1.321,1.699
2024-10-23 22:10:06.503,20130.041,0.084,0.969,-0.233,-0.004,-0.002,0.006,0.042,-0.005,-0.003,0.347,-1.321,1.698
2024-10-23 22:10:06.512,20130.051,0.084,0.969,-0.233,-0.003,-0.007,0.003,0.033,-0.006,0.001,0.347,-1.321,1.698
2024-10-23 22:10:06.523,20130.061,0.084,0.969,-0.233,-0.003,-0.006,0.003,0.033,-0.012,-0.008,0.346,-1.32,1.697
2024-10-23 22:10:06.533,20130.071,0.084,0.969,-0.233,-0.003,-0.007,0.007,0.034,-0.01,-0.01,0.345,-1.32,1.696
2024-10-23 22:10:06.542,20130.081,0.084,0.969,-0.234,-0.0,-0.008,0.005,0.043,-0.004,-0.013,0.344,-1.32,1.695
2024-10-23 22:10:06.552,20130.091,0.084,0.969,-0.234,-0.002,-0.003,0.005,0.035,-0.0,-0.019,0.343,-1.319,1.694
2024-10-23 22:10:06.562,20130.101,0.084,0.969,-0.234,-0.004,-0.002,0.003,0.015,0.004,-0.013,0.342,-1.319,1.693
2024-10-23 22:10:06.572,20130.111,0.083,0.969,-0.234,-0.001,-0.003,0.003,0.002,0.001,-0.014,0.342,-1.319,1.692
2024-10-23 22:10:06.582,20130.121,0.083,0.969,-0.234,0.0,-0.002,0.007,-0.007,0.0,-0.013,0.341,-1.319,1.692
2024-10-23 22:10:06.593,20130.131,0.083,0.969,-0.234,-0.002,-0.004,0.005,0.007,0.007,-0.016,0.341,-1.32,1.691
2024-10-23 22:10:06.603,20130.141,0.083,0.969,-0.234,-0.0,-0.003,0.005,0.011,0.014,-0.012,0.34,-1.319,1.691
2024-10-23 22:10:06.613,20130.151,0.083,0.969,-0.234,0.0,0.0,0.006,0.003,0.007,-0.006,0.34,-1.319,1.69
2024-10-23 22:10:06.622,20130.161,0.083,0.969,-0.234,-0.002,0.002,0.006,-0.001,-0.0,-0.006,0.34,-1.319,1.69
2024-10-23 22:10:06.632,20130.171,0.083,0.969,-0.234,-0.001,-0.002,0.007,0.003,-0.004,-0.007,0.339,-1.319,1.69
2024-10-23 22:10:06.642,20130.181,0.083,0.969,-0.235,-0.0,-0.004,0.007,0.015,-0.001,-0.008,0.339,-1.319,1.689
2024-10-23 22:10:06.653,20130.191,0.083,0.969,-0.235,-0.002,0.003,0.007,0.013,0.001,-0.004,0.339,-1.319,1.689
2024-10-23 22:10:06.662,20130.201,0.083,0.969,-0.235,-0.004,0.008,0.005,0.008,-0.004,-0.005,0.338,-1.319,1.689
2024-10-23 22:10:06.672,20130.211,0.083,0.969,-0.235,-0.001,0.001,0.006,0.002,-0.006,-0.006,0.338,-1.319,1.688
2024-10-23 22:10:06.682,20130.221,0.082,0.969,-0.235,0.001,-0.003,0.008,0.003,-0.007,-0.008,0.338,-1.319,1.688
2024-10-23 22:10:06.692,20130.231,0.082,0.969,-0.235,0.002,0.001,0.008,0.003,-0.003,-0.007,0.337,-1.319,1.688
2024-10-23 22:10:06.702,20130.241,0.082,0.969,-0.235,-0.001,0.001,0.005,0.002,-0.004,-0.006,0.337,-1.319,1.688
2024-10-23 22:10:06.712,20130.251,0.082,0.969,-0.235,-0.002,-0.0,0.005,0.004,-0.002,-0.002,0.337,-1.319,1.687
2024-10-23 22:10:06.722,20130.261,0.082,0.969,-0.235,-0.001,-0.002,0.002,0.012,-0.001,-0.001,0.337,-1.319,1.687
2024-10-23 22:10:06.732,20130.27,0.082,0.968,-0.235,-0.002,-0.003,0.002,0.023,-0.001,0.006,0.337,-1.319,1.687
2024-10-23 22:10:06.742,20130.28,0.082,0.968,-0.235,-0.005,-0.001,0.004,0.042,-0.002,0.004,0.336,-1.319,1.687
2024-10-23 22:10:06.752,20130.29,0.082,0.968,-0.236,-0.005,0.002,0.003,0.08,-0.017,-0.003,0.336,-1.318,1.686
2024-10-23 22:10:06.762,20130.3,0.082,0.968,-0.237,-0.004,0.001,0.002,0.103,-0.011,-0.001,0.334,-1.317,1.685
2024-10-23 22:10:06.772,20130.31,0.082,0.968,-0.238,-0.0,0.003,0.001,0.133,-0.004,-0.003,0.333,-1.316,1.684
2024-10-23 22:10:06.782,20130.32,0.082,0.967,-0.239,-0.003,0.006,0.004,0.135,-0.01,-0.002,0.331,-1.315,1.682
2024-10-23 22:10:06.792,20130.33,0.082,0.967,-0.24,-0.003,-0.001,0.005,0.12,-0.006,-0.004,0.329,-1.314,1.68
2024-10-23 22:10:06.802,20130.34,0.082,0.967,-0.241,0.0,-0.003,0.007,0.085,-0.003,-0.002,0.328,-1.313,1.679
2024-10-23 22:10:06.812,20130.35,0.082,0.967,-0.242,0.0,-0.005,0.007,0.041,-0.002,-0.006,0.327,-1.312,1.678
2024-10-23 22:10:06.822,20130.36,0.082,0.967,-0.242,0.001,-0.006,0.011,0.004,-0.005,-0.006,0.326,-1.312,1.677
2024-10-23 22:10:06.832,20130.37,0.082,0.967,-0.242,0.002,-0.007,0.012,-0.006,-0.005,-0.012,0.326,-1.312,1.677
2024-10-23 22:10:06.842,20130.38,0.082,0.967,-0.242,0.002,-0.004,0.01,0.0,-0.0,-0.011,0.326,-1.312,1.677
2024-10-23 22:10:06.852,20130.39,0.082,0.967,-0.242,-0.0,-0.001,0.006,0.006,0.003,-0.009,0.325,-1.312,1.676
2024-10-23 22:10:06.862,20130.4,0.082,0.967,-0.242,-0.001,0.001,0.005,0.002,0.004,-0.009,0.325,-1.313,1.676
2024-10-23 22:10:06.872,20130.41,0.081,0.967,-0.242,-0.001,-0.002,0.003,-0.001,0.0,-0.009,0.325,-1.313,1.675
2024-10-23 22:10:06.882,20130.42,0.081,0.967,-0.242,-0.0,-0.005,0.006,0.004,0.003,-0.009,0.324,-1.313,1.675
2024-10-23 22:10:06.892,20130.43,0.081,0.967,-0.242,-0.002,-0.006,0.006,-0.004,0.001,-0.009,0.324,-1.313,1.675
2024-10-23 22:10:06.902,20130.44,0.081,0.967,-0.242,-0.002,-0.004,0.005,-0.012,-0.0,-0.01,0.324,-1.313,1.675
2024-10-23 22:10:06.912,20130.45,0.081,0.967,-0.242,-0.002,-0.001,0.003,-0.016,-0.007,-0.01,0.324,-1.313,1.674
2024-10-23 22:10:06.922,20130.46,0.081,0.967,-0.242,-0.004,-0.005,0.002,-0.014,-0.008,-0.015,0.323,-1.313,1.674
2024-10-23 22:10:06.932,20130.47,0.081,0.967,-0.241,-0.003,-0.008,0.002,-0.006,-0.002,-0.015,0.323,-1.313,1.674
2024-10-23 22:10:06.942,20130.48,0.081,0.967,-0.241,-0.002,-0.002,0.002,-0.004,0.002,-0.014,0.322,-1.313,1.673
2024-10-23 22:10:06.952,20130.49,0.081,0.967,-0.241,-0.003,0.0,-0.001,-0.01,0.004,-0.01,0.322,-1.314,1.673
2024-10-23 22:10:06.962,20130.5,0.08,0.967,-0.241,-0.002,-0.002,0.001,-0.014,0.003,-0.008,0.322,-1.314,1.673
2024-10-23 22:10:06.972,20130.51,0.08,0.967,-0.241,-0.001,-0.001,0.004,-0.008,0.005,-0.012,0.322,-1.314,1.673
2024-10-23 22:10:06.982,20130.52,0.08,0.967,-0.241,-0.001,-0.003,0.006,-0.008,-0.0,-0.011,0.322,-1.314,1.672
2024-10-23 22:10:06.992,20130.53,0.08,0.967,-0.241,-0.001,-0.003,0.005,-0.007,-0.001,-0.012,0.321,-1.314,1.672
2024-10-23 22:10:07.002,20130.54,0.08,0.967,-0.241,-0.0,0.0,0.006,-0.009,-0.003,-0.013,0.321,-1.314,1.672
2024-10-23 22:10:07.012,20130.55,0.08,0.967,-0.241,0.001,-0.002,0.006,-0.006,0.001,-0.018,0.32,-1.314,1.671
2024-10-23 22:10:07.022,20130.56,0.08,0.967,-0.241,0.003,-0.003,0.006,-0.004,0.004,-0.014,0.32,-1.314,1.671
2024-10-23 22:10:07.032,20130.57,0.08,0.967,-0.241,0.002,-0.001,0.006,-0.01,0.001,-0.012,0.32,-1.315,1.67
2024-10-23 22:10:07.042,20130.58,0.079,0.967,-0.24,-0.0,0.001,0.005,-0.011,-0.0,-0.014,0.319,-1.315,1.67
2024-10-23 22:10:07.052,20130.59,0.079,0.967,-0.24,0.001,0.001,0.007,-0.0,-0.002,-0.008,0.319,-1.315,1.669
2024-10-23 22:10:07.061,20130.6,0.079,0.967,-0.241,-0.0,-0.0,0.002,0.013,-0.001,-0.011,0.318,-1.315,1.669
2024-10-23 22:10:07.071,20130.61,0.079,0.967,-0.241,-0.001,0.001,0.0,0.024,-0.002,-0.01,0.318,-1.315,1.668
2024-10-23 22:10:07.081,20130.62,0.079,0.967,-0.241,-0.003,-0.001,0.0,0.031,0.004,-0.011,0.317,-1.314,1.668
2024-10-23 22:10:07.091,20130.63,0.079,0.967,-0.241,-0.003,-0.002,-0.0,0.029,0.002,-0.007,0.317,-1.314,1.667
2024-10-23 22:10:07.101,20130.64,0.079,0.967,-0.241,-0.005,-0.003,0.0,0.027,-0.0,-0.007,0.316,-1.314,1.667
2024-10-23 22:10:07.111,20130.65,0.079,0.967,-0.242,-0.004,-0.007,0.004,0.035,0.003,-0.01,0.316,-1.314,1.666
2024-10-23 22:10:07.122,20130.66,0.079,0.967,-0.242,-0.003,-0.008,0.005,0.035,0.004,-0.013,0.315,-1.313,1.665
2024-10-23 22:10:07.132,20130.67,0.079,0.967,-0.242,-0.003,-0.004,0.006,0.033,0.003,-0.013,0.314,-1.313,1.664
2024-10-23 22:10:07.142,20130.68,0.079,0.967,-0.243,-0.005,-0.002,0.006,0.03,0.005,-0.012,0.313,-1.313,1.663
2024-10-23 22:10:07.152,20130.69,0.078,0.967,-0.243,-0.004,-0.003,0.005,0.024,0.005,-0.016,0.313,-1.313,1.663
2024-10-23 22:10:07.163,20130.7,0.078,0.967,-0.243,-0.002,0.0,0.006,0.014,0.004,-0.014,0.312,-1.313,1.662
2024-10-23 22:10:07.172,20130.71,0.078,0.967,-0.243,-0.002,-0.0,0.004,0.007,-0.002,-0.015,0.311,-1.313,1.661
2024-10-23 22:10:07.181,20130.72,0.078,0.967,-0.243,-0.001,-0.002,0.004,0.008,-0.002,-0.011,0.31,-1.313,1.66
2024-10-23 22:10:07.191,20130.73,0.078,0.967,-0.243,-0.001,-0.002,0.003,0.005,0.0,-0.009,0.31,-1.313,1.66
2024-10-23 22:10:07.201,20130.74,0.078,0.967,-0.243,0.001,-0.0,0.002,0.012,0.005,-0.009,0.31,-1.312,1.66
2024-10-23 22:10:07.211,20130.75,0.078,0.967,-0.243,0.001,-0.0,0.006,0.012,0.005,-0.006,0.309,-1.312,1.659
2024-10-23 22:10:07.221,20130.76,0.078,0.967,-0.244,-0.002,-0.001,0.007,0.011,0.003,-0.004,0.309,-1.312,1.659
2024-10-23 22:10:07.231,20130.77,0.078,0.967,-0.244,-0.0,0.002,0.006,0.008,0.003,-0.002,0.309,-1.312,1.659
2024-10-23 22:10:07.241,20130.78,0.078,0.967,-0.244,-0.002,0.002,0.01,0.001,-0.001,-0.007,0.309,-1.312,1.658
2024-10-23 22:10:07.251,20130.79,0.078,0.967,-0.244,-0.002,-0.0,0.01,0.002,-0.001,-0.007,0.308,-1.312,1.658
2024-10-23 22:10:07.261,20130.8,0.078,0.967,-0.244,-0.001,-0.002,0.007,-0.001,-0.003,-0.01,0.308,-1.312,1.658
2024-10-23 22:10:07.271,20130.81,0.077,0.967,-0.244,0.002,-0.002,0.005,-0.001,-0.002,-0.011,0.308,-1.312,1.658
2024-10-23 22:10:07.281,20130.82,0.077,0.967,-0.244,0.001,-0.003,0.005,-0.002,-0.0,-0.01,0.307,-1.312,1.657
2024-10-23 22:10:07.291,20130.83,0.077,0.967,-0.243,-0.001,-0.002,0.005,-0.002,0.0,-0.011,0.307,-1.312,1.657
2024-10-23 22:10:07.302,20130.84,0.077,0.967,-0.243,-0.003,-0.001,0.002,-0.001,-0.005,-0.01,0.307,-1.313,1.657
2024-10-23 22:10:07.312,20130.85,0.077,0.967,-0.243,0.0,-0.002,0.003,-0.0,-0.001,-0.008,0.306,-1.313,1.656
2024-10-23 22:10:07.321,20130.86,0.077,0.967,-0.243,-0.001,-0.001,0.003,0.006,0.002,-0.009,0.306,-1.313,1.656
2024-10-23 22:10:07.331,20130.869,0.077,0.967,-0.243,-0.001,0.002,0.004,0.007,0.005,-0.008,0.306,-1.313,1.656
2024-10-23 22:10:07.341,20130.879,0.077,0.967,-0.243,-0.001,0.001,0.003,0.002,0.0,-0.007,0.306,-1.313,1.655
2024-10-23 22:10:07.351,20130.889,0.077,0.967,-0.243,-0.0,-0.0,0.004,0.0,0.008,-0.011,0.305,-1.313,1.655
2024-10-23 22:10:07.361,20130.899,0.077,0.967,-0.243,-0.002,-0.001,0.007,-0.001,0.004,-0.01,0.305,-1.313,1.655
2024-10-23 22:10:07.371,20130.909,0.077,0.967,-0.243,-0.002,-0.002,0.008,-0.009,-0.003,-0.007,0.305,-1.313,1.655
2024-10-23 22:10:07.381,20130.919,0.076,0.967,-0.243,-0.003,-0.004,0.007,-0.01,-0.0,-0.011,0.305,-1.313,1.654
2024-10-23 22:10:07.391,20130.929,0.076,0.967,-0.243,-0.002,-0.006,0.006,-0.008,-0.0,-0.005,0.305,-1.313,1.654
2024-10-23 22:10:07.401,20130.939,0.076,0.967,-0.243,-0.001,-0.007,0.005,-0.001,-0.003,-0.005,0.304,-1.313,1.654
2024-10-23 22:10:07.411,20130.949,0.076,0.967,-0.243,-0.001,-0.002,0.005,0.009,-0.001,-0.006,0.304,-1.313,1.654
2024-10-23 22:10:07.421,20130.959,0.076,0.967,-0.243,-0.001,-0.003,0.004,0.014,-0.002,-0.003,0.304,-1.313,1.654
2024-10-23 22:10:07.431,20130.969,0.076,0.967,-0.243,0.0,-0.002,0.004,0.012,0.005,-0.005,0.304,-1.313,1.653
2024-10-23 22:10:07.441,20130.979,0.076,0.967,-0.243,0.0,0.002,0.002,0.004,0.004,-0.0,0.304,-1.313,1.653
2024-10-23 22:10:07.451,20130.989,0.076,0.967,-0.243,-0.003,0.002,0.001,-0.002,0.005,-0.005,0.303,-1.313,1.653
2024-10-23 22:10:07.461,20130.999,0.076,0.967,-0.243,-0.001,-0.0,0.002,-0.01,-0.003,-0.003,0.303,-1.313,1.653
2024-10-23 22:10:07.471,20131.009,0.076,0.967,-0.243,-0.0,-0.002,0.003,-0.012,-0.003,-0.009,0.303,-1.313,1.653
2024-10-23 22:10:07.481,20131.019,0.076,0.967,-0.243,-0.0,-0.004,0.004,-0.004,-0.001,-0.006,0.303,-1.313,1.653
2024-10-23 22:10:07.491,20131.029,0.076,0.967,-0.243,-0.001,-0.002,0.004,-0.006,0.001,-0.007,0.303,-1.313,1.653
2024-10-23 22:10:07.501,20131.039,0.076,0.967,-0.243,-0.002,-0.001,0.005,-0.012,-0.003,-0.004,0.303,-1.314,1.652
2024-10-23 22:10:07.511,20131.049,0.076,0.967,-0.243,-0.003,-0.003,0.004,-0.01,-0.007,-0.005,0.303,-1.314,1.652
2024-10-23 22:10:07.521,20131.059,0.076,0.967,-0.243,-0.002,-0.005,0.004,0.0,-0.003,-0.007,0.303,-1.314,1.652
2024-10-23 22:10:07.531,20131.069,0.076,0.967,-0.243,-0.002,-0.002,0.004,0.007,0.004,-0.004,0.302,-1.314,1.652
2024-10-23 22:10:07.541,20131.079,0.076,0.967,-0.243,-0.004,0.004,0.002,0.005,0.004,-0.003,0.302,-1.314,1.652
2024-10-23 22:10:07.551,20131.089,0.076,0.967,-0.243,-0.004,0.001,0.005,-0.004,-0.003,-0.007,0.302,-1.314,1.652
2024-10-23 22:10:07.561,20131.099,0.076,0.967,-0.243,-0.001,-0.003,0.004,-0.0,-0.005,-0.005,0.302,-1.314,1.652
2024-10-23 22:10:07.571,20131.109,0.076,0.967,-0.243,0.0,-0.005,0.005,0.002,-0.002,-0.01,0.302,-1.314,1.651
2024-10-23 22:10:07.581,20131.119,0.075,0.967,-0.243,-0.002,-0.005,0.002,-0.002,0.002,-0.005,0.302,-1.314,1.651
2024-10-23 22:10:07.591,20131.129,0.075,0.967,-0.243,-0.002,-0.005,-0.0,-0.008,0.002,-0.011,0.301,-1.314,1.651
2024-10-23 22:10:07.601,20131.139,0.075,0.967,-0.243,0.0,-0.007,-0.0,-0.011,-0.003,-0.008,0.301,-1.314,1.651
2024-10-23 22:10:07.611,20131.149,0.075,0.967,-0.242,-0.0,-0.007,0.002,-0.009,-0.001,-0.01,0.301,-1.314,1.65
2024-10-23 22:10:07.621,20131.159,0.075,0.967,-0.242,0.0,-0.002,0.004,-0.007,-0.003,-0.008,0.301,-1.314,1.65
2024-10-23 22:10:07.631,20131.169,0.075,0.967,-0.242,-0.0,0.0,0.004,-0.002,-0.002,-0.01,0.3,-1.314,1.65
2024-10-23 22:10:07.641,20131.179,0.075,0.967,-0.242,0.002,-0.001,0.003,-0.006,-0.002,-0.007,0.3,-1.314,1.65
2024-10-23 22:10:07.651,20131.189,0.075,0.967,-0.242,0.002,-0.001,0.005,-0.0,-0.001,-0.009,0.3,-1.314,1.649
2024-10-23 22:10:07.661,20131.199,0.075,0.967,-0.242,0.003,-0.001,0.002,-0.005,0.005,-0.007,0.299,-1.315,1.649
2024-10-23 22:10:07.670,20131.209,0.075,0.967,-0.242,0.002,-0.001,0.001,-0.008,0.005,-0.006,0.299,-1.315,1.649
2024-10-23 22:10:07.681,20131.219,0.075,0.967,-0.242,0.0,-0.0,0.003,-0.012,0.006,-0.003,0.299,-1.315,1.649
2024-10-23 22:10:07.691,20131.229,0.075,0.967,-0.242,-0.001,-0.0,0.003,-0.012,0.008,-0.001,0.299,-1.315,1.649
2024-10-23 22:10:07.701,20131.239,0.075,0.967,-0.242,-0.001,-0.001,0.002,-0.009,0.01,-0.001,0.3,-1.315,1.649
2024-10-23 22:10:07.711,20131.249,0.075,0.967,-0.242,-0.002,0.002,0.003,-0.011,0.006,-0.004,0.3,-1.315,1.649
2024-10-23 22:10:07.720,20131.259,0.075,0.968,-0.242,-0.005,0.002,0.004,-0.008,0.002,-0.001,0.3,-1.315,1.649
2024-10-23 22:10:07.731,20131.269,0.075,0.968,-0.242,-0.005,-0.0,0.004,0.002,0.006,-0.0,0.3,-1.315,1.649
2024-10-23 22:10:07.741,20131.279,0.075,0.968,-0.242,-0.004,0.0,0.003,-0.0,0.007,0.001,0.3,-1.315,1.649
2024-10-23 22:10:07.750,20131.289,0.075,0.968,-0.241,-0.004,-0.001,0.006,-0.004,0.001,0.006,0.3,-1.315,1.649
2024-10-23 22:10:07.760,20131.299,0.075,0.968,-0.241,-0.003,-0.002,0.007,-0.012,-0.0,0.002,0.301,-1.315,1.65
2024-10-23 22:10:07.770,20131.309,0.075,0.968,-0.241,-0.001,-0.004,0.008,-0.011,-0.006,0.002,0.301,-1.315,1.65
2024-10-23 22:10:07.781,20131.319,0.075,0.968,-0.241,-0.001,-0.003,0.009,-0.006,-0.001,-0.002,0.301,-1.315,1.65
2024-10-23 22:10:07.790,20131.329,0.075,0.968,-0.241,-0.001,-0.002,0.007,-0.009,-0.001,-0.003,0.301,-1.316,1.65
2024-10-23 22:10:07.800,20131.339,0.075,0.968,-0.241,0.001,-0.005,0.003,-0.009,-0.003,-0.005,0.301,-1.316,1.65
2024-10-23 22:10:07.811,20131.349,0.075,0.968,-0.241,-0.001,-0.005,0.001,-0.011,-0.003,-0.006,0.301,-1.316,1.65
2024-10-23 22:10:07.820,20131.359,0.075,0.968,-0.241,-0.003,-0.004,0.002,-0.011,0.002,-0.005,0.3,-1.316,1.65
2024-10-23 22:10:07.830,20131.369,0.075,0.968,-0.241,-0.0,-0.001,0.003,-0.01,0.004,-0.008,0.3,-1.316,1.649
2024-10-23 22:10:07.840,20131.379,0.074,0.968,-0.241,0.001,-0.002,0.004,-0.008,0.003,-0.004,0.3,-1.316,1.649
2024-10-23 22:10:07.850,20131.389,0.074,0.968,-0.24,-0.001,-0.0,0.003,-0.018,0.002,0.003,0.3,-1.316,1.649
2024-10-23 22:10:07.860,20131.399,0.074,0.968,-0.24,-0.002,0.001,0.006,-0.028,-0.002,0.008,0.301,-1.317,1.65
2024-10-23 22:10:07.870,20131.409,0.075,0.968,-0.24,-0.003,-0.0,0.009,-0.026,0.002,0.01,0.301,-1.317,1.65
2024-10-23 22:10:07.880,20131.419,0.075,0.968,-0.24,-0.002,-0.002,0.008,-0.017,-0.006,0.01,0.302,-1.317,1.651
2024-10-23 22:10:07.890,20131.429,0.075,0.968,-0.24,-0.004,0.001,0.007,-0.011,-0.007,0.006,0.302,-1.317,1.652
2024-10-23 22:10:07.900,20131.439,0.075,0.968,-0.24,-0.004,0.003,0.005,0.003,-0.004,0.007,0.302,-1.317,1.652
2024-10-23 22:10:07.910,20131.449,0.075,0.968,-0.24,-0.001,0.003,0.002,0.008,0.001,0.005,0.303,-1.317,1.652
2024-10-23 22:10:07.920,20131.459,0.075,0.968,-0.24,-0.002,0.004,0.001,0.007,-0.003,0.008,0.303,-1.317,1.652
2024-10-23 22:10:07.931,20131.468,0.075,0.968,-0.24,-0.002,-0.0,-0.002,-0.003,-0.002,0.008,0.303,-1.317,1.652
2024-10-23 22:10:07.940,20131.478,0.075,0.968,-0.24,0.002,-0.003,0.0,-0.007,-0.001,0.004,0.303,-1.317,1.653
2024-10-23 22:10:07.949,20131.488,0.075,0.968,-0.24,0.001,-0.004,0.001,-0.009,0.0,0.0,0.303,-1.317,1.653
2024-10-23 22:10:07.959,20131.498,0.075,0.968,-0.239,-0.001,-0.006,0.0,-0.005,0.006,-0.005,0.303,-1.317,1.653
2024-10-23 22:10:07.970,20131.508,0.075,0.968,-0.239,0.0,-0.005,0.003,-0.004,0.007,-0.009,0.303,-1.317,1.653
2024-10-23 22:10:07.980,20131.518,0.075,0.968,-0.239,0.0,-0.003,0.003,-0.009,0.005,-0.007,0.303,-1.317,1.652
2024-10-23 22:10:07.990,20131.528,0.075,0.968,-0.239,-0.001,-0.004,0.002,-0.007,0.002,-0.009,0.303,-1.317,1.652
2024-10-23 22:10:08.000,20131.538,0.075,0.968,-0.239,0.001,-0.006,0.002,-0.002,0.0,-0.006,0.303,-1.318,1.652
2024-10-23 22:10:08.010,20131.548,0.075,0.968,-0.239,-0.001,-0.006,0.004,0.007,0.004,-0.007,0.302,-1.318,1.652
2024-10-23 22:10:08.020,20131.558,0.075,0.968,-0.239,-0.001,-0.001,0.004,0.005,0.003,-0.002,0.302,-1.317,1.651
2024-10-23 22:10:08.030,20131.568,0.075,0.968,-0.239,-0.003,0.002,0.006,-0.001,0.004,-0.006,0.302,-1.317,1.651
2024-10-23 22:10:08.040,20131.578,0.075,0.968,-0.239,-0.003,-0.002,0.005,-0.009,0.006,-0.005,0.302,-1.318,1.651
2024-10-23 22:10:08.050,20131.588,0.074,0.968,-0.239,-0.001,-0.0,0.004,-0.015,0.007,-0.003,0.302,-1.318,1.651
2024-10-23 22:10:08.060,20131.598,0.074,0.968,-0.239,-0.003,0.001,0.006,-0.019,0.005,-0.002,0.302,-1.318,1.651
2024-10-23 22:10:08.070,20131.608,0.074,0.968,-0.239,-0.001,-0.002,0.007,-0.021,-0.001,-0.003,0.302,-1.318,1.651
2024-10-23 22:10:08.080,20131.618,0.074,0.968,-0.239,0.001,-0.004,0.006,-0.02,0.002,-0.002,0.303,-1.318,1.651
2024-10-23 22:10:08.090,20131.628,0.074,0.968,-0.238,0.001,-0.003,0.006,-0.007,0.007,-0.002,0.303,-1.318,1.652
2024-10-23 22:10:08.100,20131.638,0.074,0.968,-0.238,-0.002,0.0,0.005,0.003,0.003,0.001,0.303,-1.318,1.652
2024-10-23 22:10:08.110,20131.648,0.074,0.968,-0.238,-0.004,0.004,0.004,-0.002,-0.002,0.003,0.303,-1.318,1.652
2024-10-23 22:10:08.120,20131.658,0.074,0.968,-0.238,-0.003,0.0,0.002,-0.009,-0.003,0.002,0.303,-1.318,1.652
2024-10-23 22:10:08.130,20131.668,0.074,0.968,-0.238,0.0,-0.005,0.003,-0.007,-0.001,-0.0,0.303,-1.319,1.652
2024-10-23 22:10:08.140,20131.678,0.074,0.968,-0.238,0.0,-0.004,0.004,-0.002,0.001,-0.0,0.303,-1.319,1.652
2024-10-23 22:10:08.150,20131.688,0.074,0.968,-0.238,-0.001,-0.002,0.004,-0.004,0.001,-0.002,0.303,-1.319,1.652
2024-10-23 22:10:08.160,20131.698,0.074,0.968,-0.238,-0.002,-0.002,0.003,-0.006,0.002,-0.002,0.303,-1.319,1.652
2024-10-23 22:10:08.170,20131.708,0.074,0.968,-0.238,-0.002,-0.004,0.003,-0.016,-0.001,-0.007,0.303,-1.319,1.652
2024-10-23 22:10:08.180,20131.718,0.074,0.968,-0.238,-0.0,-0.003,0.005,-0.023,-0.003,-0.0,0.303,-1.319,1.652
2024-10-23 22:10:08.190,20131.728,0.074,0.969,-0.237,-0.001,-0.001,0.008,-0.031,-0.006,0.002,0.303,-1.319,1.652
2024-10-23 22:10:08.200,20131.738,0.074,0.969,-0.237,-0.002,-0.004,0.006,-0.02,-0.012,0.0,0.304,-1.32,1.653
2024-10-23 22:10:08.210,20131.748,0.074,0.969,-0.237,-0.002,-0.01,0.001,0.002,-0.002,-0.003,0.304,-1.32,1.653
2024-10-23 22:10:08.220,20131.758,0.074,0.969,-0.237,0.0,-0.005,-0.002,0.019,0.007,0.001,0.303,-1.32,1.653
2024-10-23 22:10:08.230,20131.768,0.074,0.969,-0.237,-0.004,0.006,-0.002,0.012,0.005,0.005,0.303,-1.319,1.653
2024-10-23 22:10:08.240,20131.778,0.074,0.969,-0.237,-0.006,0.007,-0.001,-0.01,-0.003,0.005,0.304,-1.319,1.653
2024-10-23 22:10:08.250,20131.788,0.074,0.969,-0.237,-0.002,-0.001,0.002,-0.01,0.002,0.008,0.304,-1.32,1.653
2024-10-23 22:10:08.260,20131.798,0.075,0.969,-0.237,0.001,-0.004,0.005,-0.014,0.0,0.008,0.304,-1.32,1.654
2024-10-23 22:10:08.270,20131.808,0.075,0.969,-0.237,-0.001,-0.003,0.004,-0.009,0.0,0.006,0.305,-1.32,1.654
2024-10-23 22:10:08.280,20131.818,0.075,0.969,-0.237,-0.0,0.001,0.006,-0.01,0.004,0.003,0.305,-1.32,1.654
2024-10-23 22:10:08.290,20131.828,0.075,0.969,-0.237,0.0,-0.0,0.006,-0.009,0.004,0.001,0.305,-1.32,1.654
2024-10-23 22:10:08.300,20131.838,0.075,0.969,-0.237,0.002,0.002,0.005,-0.008,-0.001,-0.003,0.305,-1.32,1.654
2024-10-23 22:10:08.310,20131.848,0.075,0.969,-0.237,0.002,0.002,0.006,-0.01,0.005,-0.008,0.305,-1.32,1.654
2024-10-23 22:10:08.320,20131.858,0.074,0.969,-0.237,0.001,0.001,0.005,-0.012,0.003,-0.008,0.305,-1.32,1.654
2024-10-23 22:10:08.330,20131.868,0.074,0.969,-0.236,-0.0,0.0,0.001,-0.01,0.01,-0.006,0.305,-1.32,1.654
2024-10-23 22:10:08.340,20131.878,0.074,0.969,-0.236,-0.0,-0.002,0.0,-0.018,0.005,-0.006,0.305,-1.32,1.654
2024-10-23 22:10:08.349,20131.888,0.074,0.969,-0.236,-0.001,-0.006,0.001,-0.018,0.003,-0.01,0.305,-1.321,1.654
2024-10-23 22:10:08.359,20131.898,0.074,0.969,-0.236,-0.002,-0.01,0.003,-0.016,0.005,-0.008,0.305,-1.321,1.654
2024-10-23 22:10:08.369,20131.908,0.074,0.969,-0.236,-0.002,-0.006,0.003,-0.018,0.001,-0.005,0.305,-1.321,1.654
2024-10-23 22:10:08.380,20131.918,0.074,0.969,-0.236,-0.004,-0.002,0.005,-0.024,-0.001,-0.002,0.305,-1.321,1.654
2024-10-23 22:10:08.389,20131.928,0.074,0.969,-0.235,-0.004,-0.002,0.006,-0.021,-0.004,0.0,0.305,-1.322,1.654
2024-10-23 22:10:08.399,20131.938,0.074,0.969,-0.235,-0.003,-0.003,0.006,-0.016,-0.003,0.003,0.306,-1.322,1.654
2024-10-23 22:10:08.409,20131.948,0.074,0.969,-0.235,-0.002,-0.002,0.005,-0.004,-0.001,0.002,0.306,-1.322,1.654
2024-10-23 22:10:08.419,20131.958,0.074,0.969,-0.235,-0.004,0.002,0.005,-0.003,0.003,0.003,0.306,-1.322,1.655
2024-10-23 22:10:08.429,20131.968,0.074,0.969,-0.235,-0.003,0.007,0.002,0.0,0.006,0.006,0.306,-1.322,1.655
2024-10-23 22:10:08.439,20131.978,0.074,0.969,-0.235,-0.002,0.005,0.003,-0.002,0.0,0.006,0.306,-1.322,1.655
2024-10-23 22:10:08.450,20131.988,0.074,0.969,-0.235,-0.001,-0.0,0.004,0.005,0.003,0.01,0.306,-1.322,1.655
2024-10-23 22:10:08.458,20131.998,0.074,0.969,-0.235,0.001,-0.004,0.005,0.001,0.003,0.008,0.307,-1.322,1.656
2024-10-23 22:10:08.469,20132.008,0.074,0.969,-0.235,0.001,-0.003,0.005,0.006,0.002,0.004,0.307,-1.322,1.656
2024-10-23 22:10:08.478,20132.018,0.075,0.969,-0.235,-0.001,0.002,0.004,0.005,0.002,0.006,0.307,-1.322,1.656
2024-10-23 22:10:08.489,20132.028,0.075,0.969,-0.235,-0.001,0.003,0.004,0.001,-0.001,0.005,0.307,-1.322,1.656
2024-10-23 22:10:08.499,20132.038,0.075,0.969,-0.235,-0.001,-0.002,0.003,-0.004,-0.002,0.004,0.307,-1.322,1.656
2024-10-23 22:10:08.509,20132.048,0.075,0.969,-0.235,0.0,-0.005,0.004,0.001,-0.002,0.005,0.307,-1.322,1.656
2024-10-23 22:10:08.519,20132.058,0.075,0.969,-0.235,0.001,-0.004,0.005,0.003,0.001,0.004,0.307,-1.322,1.656
2024-10-23 22:10:08.529,20132.067,0.075,0.969,-0.235,-0.001,0.0,0.003,-0.002,-0.004,0.002,0.308,-1.322,1.656
2024-10-23 22:10:08.539,20132.077,0.075,0.969,-0.235,-0.002,-0.001,0.004,-0.001,-0.005,-0.0,0.308,-1.322,1.656
2024-10-23 22:10:08.549,20132.087,0.075,0.969,-0.235,0.001,-0.003,0.005,-0.001,-0.001,0.001,0.308,-1.322,1.656
2024-10-23 22:10:08.559,20132.097,0.075,0.969,-0.235,-0.0,-0.001,0.005,0.006,-0.0,0.005,0.308,-1.322,1.657
2024-10-23 22:10:08.570,20132.107,0.075,0.969,-0.235,-0.002,-0.001,0.006,0.003,-0.002,0.005,0.308,-1.322,1.657
2024-10-23 22:10:08.579,20132.117,0.075,0.969,-0.235,-0.001,-0.004,0.006,0.002,-0.001,0.007,0.308,-1.322,1.657
2024-10-23 22:10:08.589,20132.127,0.075,0.969,-0.235,0.0,-0.005,0.005,0.005,0.002,0.01,0.308,-1.322,1.657
2024-10-23 22:10:08.599,20132.137,0.075,0.969,-0.235,-0.002,-0.002,0.004,0.007,0.006,0.011,0.309,-1.322,1.657
2024-10-23 22:10:08.609,20132.147,0.075,0.969,-0.235,-0.003,-0.001,0.002,0.006,0.003,0.009,0.309,-1.321,1.658
2024-10-23 22:10:08.619,20132.157,0.075,0.969,-0.235,-0.003,-0.003,0.001,0.014,0.008,0.008,0.309,-1.321,1.658
2024-10-23 22:10:08.629,20132.167,0.075,0.969,-0.235,0.0,-0.0,0.001,0.011,0.004,0.009,0.309,-1.321,1.658
2024-10-23 22:10:08.639,20132.177,0.075,0.969,-0.235,-0.001,0.002,0.002,0.014,0.004,0.009,0.31,-1.321,1.658
2024-10-23 22:10:08.649,20132.187,0.075,0.969,-0.235,0.001,0.002,0.001,0.003,0.004,0.004,0.31,-1.321,1.659
2024-10-23 22:10:08.659,20132.197,0.075,0.969,-0.235,0.002,-0.001,0.004,0.006,0.002,0.007,0.31,-1.321,1.659
2024-10-23 22:10:08.669,20132.207,0.076,0.969,-0.235,0.0,-0.002,0.004,0.004,0.004,0.006,0.31,-1.321,1.659
2024-10-23 22:10:08.679,20132.217,0.076,0.969,-0.235,-0.0,-0.001,0.003,0.003,0.004,0.003,0.31,-1.321,1.659
2024-10-23 22:10:08.689,20132.227,0.076,0.969,-0.235,-0.002,-0.002,0.005,-0.001,0.004,0.004,0.311,-1.321,1.659
2024-10-23 22:10:08.699,20132.237,0.076,0.969,-0.235,-0.0,-0.007,0.004,-0.008,0.004,-0.001,0.311,-1.321,1.659
2024-10-23 22:10:08.709,20132.247,0.076,0.969,-0.235,0.0,-0.008,0.006,-0.01,0.003,-0.002,0.311,-1.321,1.659
2024-10-23 22:10:08.719,20132.257,0.075,0.969,-0.235,0.0,-0.005,0.008,-0.003,0.004,-0.009,0.31,-1.321,1.659
2024-10-23 22:10:08.729,20132.267,0.075,0.969,-0.235,-0.001,-0.004,0.007,-0.012,0.001,-0.009,0.31,-1.321,1.659
2024-10-23 22:10:08.739,20132.277,0.075,0.969,-0.235,-0.0,-0.005,0.006,-0.013,0.001,-0.014,0.31,-1.321,1.659
2024-10-23 22:10:08.749,20132.287,0.075,0.969,-0.235,-0.0,-0.006,0.007,-0.008,0.001,-0.013,0.31,-1.322,1.658
2024-10-23 22:10:08.759,20132.297,0.075,0.969,-0.235,-0.002,-0.003,0.005,-0.009,0.003,-0.013,0.31,-1.322,1.658
2024-10-23 22:10:08.769,20132.307,0.075,0.969,-0.235,-0.002,-0.002,0.004,-0.011,0.002,-0.005,0.309,-1.322,1.658
2024-10-23 22:10:08.779,20132.317,0.075,0.969,-0.235,-0.002,-0.003,0.002,-0.011,0.004,-0.009,0.309,-1.322,1.657
2024-10-23 22:10:08.789,20132.327,0.075,0.969,-0.235,-0.001,-0.002,-0.001,-0.012,-0.002,-0.004,0.309,-1.322,1.657
2024-10-23 22:10:08.799,20132.337,0.075,0.969,-0.234,-0.002,-0.002,0.001,-0.009,0.009,-0.007,0.309,-1.322,1.657
2024-10-23 22:10:08.809,20132.347,0.075,0.969,-0.234,0.0,-0.005,0.001,-0.017,0.006,-0.002,0.309,-1.322,1.657
2024-10-23 22:10:08.819,20132.357,0.075,0.969,-0.234,0.0,0.002,0.003,-0.033,-0.0,-0.001,0.31,-1.323,1.658
2024-10-23 22:10:08.829,20132.367,0.075,0.969,-0.234,-0.001,0.001,0.005,-0.028,0.002,-0.002,0.31,-1.323,1.658
2024-10-23 22:10:08.839,20132.377,0.075,0.969,-0.233,0.001,-0.004,0.004,-0.01,0.006,-0.001,0.31,-1.323,1.658
2024-10-23 22:10:08.849,20132.387,0.075,0.97,-0.233,-0.002,0.002,0.001,-0.011,0.007,0.004,0.311,-1.323,1.658
2024-10-23 22:10:08.859,20132.397,0.075,0.97,-0.233,-0.006,0.004,0.0,-0.009,0.007,0.001,0.311,-1.323,1.659
2024-10-23 22:10:08.869,20132.407,0.075,0.97,-0.233,-0.006,0.001,0.002,-0.007,0.01,-0.0,0.311,-1.323,1.659
2024-10-23 22:10:08.878,20132.417,0.075,0.97,-0.233,-0.005,-0.001,0.002,-0.011,0.011,-0.001,0.311,-1.323,1.659
2024-10-23 22:10:08.889,20132.427,0.075,0.97,-0.233,-0.004,0.001,0.003,-0.018,0.006,-0.004,0.311,-1.324,1.659
2024-10-23 22:10:08.899,20132.437,0.075,0.97,-0.233,-0.002,0.0,0.005,-0.028,0.005,-0.001,0.311,-1.324,1.659
2024-10-23 22:10:08.909,20132.447,0.075,0.97,-0.232,-0.001,-0.004,0.006,-0.026,0.002,-0.001,0.312,-1.324,1.659
2024-10-23 22:10:08.919,20132.457,0.075,0.97,-0.232,-0.001,-0.009,0.004,-0.022,0.002,-0.005,0.312,-1.324,1.66
2024-10-23 22:10:08.929,20132.467,0.075,0.97,-0.232,0.002,-0.011,0.003,-0.012,0.006,-0.006,0.312,-1.324,1.659
2024-10-23 22:10:08.939,20132.477,0.075,0.97,-0.232,0.003,-0.005,0.005,-0.01,0.007,-0.008,0.312,-1.325,1.659
2024-10-23 22:10:08.949,20132.487,0.075,0.97,-0.232,0.002,0.004,0.005,-0.015,0.005,-0.006,0.312,-1.325,1.659
2024-10-23 22:10:08.959,20132.497,0.075,0.97,-0.232,0.001,0.003,0.004,-0.02,0.005,0.0,0.312,-1.325,1.659
2024-10-23 22:10:08.968,20132.507,0.075,0.97,-0.231,0.003,-0.001,0.007,-0.013,0.006,0.005,0.312,-1.325,1.659
2024-10-23 22:10:08.978,20132.517,0.075,0.97,-0.231,0.001,-0.0,0.007,-0.006,0.001,0.008,0.313,-1.325,1.66
2024-10-23 22:10:08.988,20132.527,0.075,0.97,-0.231,-0.001,-0.002,0.003,-0.004,0.002,0.007,0.313,-1.325,1.66
2024-10-23 22:10:08.998,20132.537,0.075,0.97,-0.231,-0.001,-0.004,0.002,0.004,-0.0,0.005,0.313,-1.325,1.66
2024-10-23 22:10:09.009,20132.547,0.075,0.97,-0.231,-0.004,0.001,0.001,0.007,0.004,0.004,0.313,-1.325,1.661
2024-10-23 22:10:09.018,20132.557,0.075,0.97,-0.231,-0.006,0.004,0.001,0.0,0.002,0.004,0.314,-1.325,1.661
2024-10-23 22:10:09.028,20132.567,0.075,0.97,-0.231,-0.005,0.001,0.001,-0.002,0.0,0.004,0.314,-1.325,1.661
2024-10-23 22:10:09.038,20132.577,0.075,0.97,-0.231,-0.004,-0.002,0.003,-0.004,-0.002,0.01,0.314,-1.325,1.661
2024-10-23 22:10:09.048,20132.587,0.075,0.97,-0.231,-0.004,-0.004,0.004,0.002,0.002,0.01,0.315,-1.325,1.662
2024-10-23 22:10:09.058,20132.597,0.075,0.97,-0.231,-0.002,-0.001,0.005,0.008,0.007,0.01,0.315,-1.325,1.662
2024-10-23 22:10:09.068,20132.607,0.075,0.97,-0.231,-0.004,0.003,0.007,0.001,0.006,0.014,0.315,-1.325,1.662
2024-10-23 22:10:09.078,20132.617,0.076,0.97,-0.231,-0.002,0.004,0.007,-0.011,0.001,0.016,0.316,-1.325,1.663
2024-10-23 22:10:09.088,20132.627,0.076,0.97,-0.231,-0.002,-0.0,0.008,-0.017,0.009,0.022,0.317,-1.325,1.664
2024-10-23 22:10:09.097,20132.637,0.076,0.97,-0.231,-0.002,-0.007,0.005,-0.014,0.01,0.028,0.318,-1.325,1.665
2024-10-23 22:10:09.108,20132.647,0.076,0.97,-0.231,-0.003,-0.009,0.002,-0.013,-0.006,0.021,0.319,-1.325,1.666
2024-10-23 22:10:09.118,20132.656,0.076,0.97,-0.231,-0.003,-0.005,0.001,0.008,0.003,0.017,0.32,-1.325,1.667
2024-10-23 22:10:09.128,20132.666,0.077,0.97,-0.231,0.002,-0.0,0.001,0.005,0.011,0.021,0.32,-1.325,1.667
2024-10-23 22:10:09.138,20132.676,0.077,0.97,-0.231,0.0,0.005,0.005,-0.013,0.001,0.026,0.321,-1.325,1.668
2024-10-23 22:10:09.148,20132.686,0.077,0.97,-0.231,-0.004,0.003,0.004,-0.019,-0.005,0.023,0.322,-1.325,1.669
2024-10-23 22:10:09.158,20132.696,0.077,0.97,-0.231,0.001,-0.007,0.005,-0.011,-0.009,0.023,0.323,-1.325,1.67
2024-10-23 22:10:09.168,20132.706,0.077,0.97,-0.23,0.002,-0.01,0.002,0.008,0.0,0.017,0.324,-1.325,1.671
2024-10-23 22:10:09.178,20132.716,0.078,0.97,-0.231,-0.001,0.001,0.001,0.012,0.001,0.016,0.324,-1.325,1.672
2024-10-23 22:10:09.188,20132.726,0.078,0.97,-0.231,-0.002,0.009,0.004,0.01,-0.007,0.017,0.325,-1.325,1.672
2024-10-23 22:10:09.198,20132.736,0.078,0.97,-0.231,-0.001,0.006,0.006,0.003,-0.011,0.017,0.325,-1.325,1.673
2024-10-23 22:10:09.208,20132.746,0.078,0.97,-0.231,-0.001,-0.005,0.005,0.003,0.0,0.015,0.326,-1.325,1.673
2024-10-23 22:10:09.218,20132.756,0.078,0.97,-0.231,0.0,-0.004,0.005,0.005,0.003,0.014,0.326,-1.325,1.674
2024-10-23 22:10:09.227,20132.766,0.078,0.97,-0.231,-0.003,0.005,0.005,-0.003,0.007,0.012,0.327,-1.325,1.674
2024-10-23 22:10:09.237,20132.776,0.078,0.97,-0.231,-0.005,-0.001,0.007,-0.008,0.003,0.016,0.327,-1.325,1.675
2024-10-23 22:10:09.247,20132.786,0.078,0.97,-0.231,-0.001,-0.008,0.006,-0.007,0.004,0.015,0.328,-1.325,1.675
2024-10-23 22:10:09.257,20132.796,0.079,0.97,-0.231,0.001,-0.008,0.007,0.002,0.016,0.015,0.329,-1.325,1.676
2024-10-23 22:10:09.267,20132.806,0.079,0.97,-0.231,-0.001,-0.007,0.003,0.008,0.024,0.013,0.329,-1.325,1.676
2024-10-23 22:10:09.278,20132.816,0.079,0.97,-0.231,-0.003,-0.002,0.003,0.004,0.023,0.015,0.33,-1.325,1.677
2024-10-23 22:10:09.288,20132.826,0.079,0.97,-0.231,-0.003,0.001,0.003,-0.0,0.019,0.018,0.331,-1.324,1.678
2024-10-23 22:10:09.298,20132.836,0.079,0.97,-0.231,0.001,-0.003,0.004,0.002,0.014,0.024,0.332,-1.324,1.678
2024-10-23 22:10:09.308,20132.846,0.08,0.97,-0.231,0.003,-0.007,0.003,0.001,0.016,0.041,0.333,-1.324,1.68
2024-10-23 22:10:09.318,20132.856,0.08,0.97,-0.23,0.001,-0.005,0.004,-0.034,0.004,0.051,0.335,-1.324,1.681
2024-10-23 22:10:09.328,20132.866,0.081,0.97,-0.23,0.001,-0.006,0.008,-0.048,-0.008,0.051,0.337,-1.325,1.684
2024-10-23 22:10:09.339,20132.876,0.081,0.97,-0.23,0.001,-0.009,0.005,-0.046,-0.003,0.051,0.34,-1.325,1.687
2024-10-23 22:10:09.348,20132.886,0.082,0.97,-0.229,0.002,-0.005,0.004,-0.033,-0.005,0.048,0.342,-1.325,1.689
2024-10-23 22:10:09.358,20132.896,0.082,0.97,-0.229,-0.001,0.002,0.0,-0.037,-0.02,0.046,0.344,-1.325,1.691
2024-10-23 22:10:09.368,20132.906,0.082,0.97,-0.228,-0.003,-0.003,-0.004,-0.032,-0.022,0.042,0.346,-1.325,1.694
2024-10-23 22:10:09.378,20132.916,0.083,0.97,-0.228,0.003,-0.01,-0.005,-0.019,-0.008,0.036,0.348,-1.326,1.695
2024-10-23 22:10:09.388,20132.926,0.083,0.97,-0.228,0.004,-0.0,-0.002,-0.01,-0.002,0.034,0.349,-1.326,1.697
2024-10-23 22:10:09.398,20132.936,0.083,0.97,-0.228,-0.004,0.007,0.001,-0.032,-0.009,0.038,0.351,-1.326,1.699
2024-10-23 22:10:09.408,20132.946,0.084,0.97,-0.228,-0.004,-0.003,0.005,-0.052,-0.013,0.032,0.353,-1.326,1.701
2024-10-23 22:10:09.418,20132.956,0.084,0.97,-0.227,0.001,-0.012,0.008,-0.038,-0.011,0.016,0.354,-1.326,1.702
2024-10-23 22:10:09.428,20132.966,0.084,0.97,-0.227,-0.001,-0.01,0.009,-0.007,-0.002,0.01,0.355,-1.326,1.703
2024-10-23 22:10:09.438,20132.976,0.084,0.97,-0.227,-0.004,0.005,0.001,0.002,0.003,-0.002,0.355,-1.326,1.703
2024-10-23 22:10:09.447,20132.986,0.084,0.97,-0.227,-0.006,0.016,0.002,-0.004,-0.002,-0.01,0.355,-1.326,1.703
2024-10-23 22:10:09.458,20132.996,0.084,0.97,-0.227,-0.005,0.004,0.008,-0.008,0.001,-0.021,0.354,-1.327,1.702
2024-10-23 22:10:09.468,20133.006,0.084,0.97,-0.227,-0.001,-0.007,0.012,-0.005,0.002,-0.038,0.353,-1.327,1.701
2024-10-23 22:10:09.478,20133.016,0.083,0.97,-0.227,-0.001,-0.002,0.011,0.02,-0.001,-0.049,0.351,-1.327,1.699
2024-10-23 22:10:09.488,20133.026,0.083,0.97,-0.227,-0.003,0.005,0.008,0.039,0.008,-0.056,0.349,-1.327,1.697
2024-10-23 22:10:09.497,20133.036,0.082,0.97,-0.227,-0.003,0.002,0.0,0.036,0.032,-0.062,0.346,-1.327,1.694
2024-10-23 22:10:09.508,20133.046,0.082,0.97,-0.228,-0.003,0.004,-0.002,-0.015,0.041,-0.053,0.344,-1.327,1.692
2024-10-23 22:10:09.517,20133.056,0.081,0.97,-0.227,-0.003,-0.008,-0.003,-0.048,0.056,-0.051,0.343,-1.327,1.69
2024-10-23 22:10:09.527,20133.066,0.081,0.971,-0.227,0.001,-0.02,-0.011,-0.013,0.1,-0.062,0.343,-1.328,1.689
2024-10-23 22:10:09.537,20133.076,0.08,0.971,-0.227,-0.001,-0.008,-0.018,0.027,0.007,-0.108,0.34,-1.328,1.685
2024-10-23 22:10:09.547,20133.086,0.08,0.97,-0.228,-0.008,0.014,-0.019,0.127,0.36,-0.064,0.337,-1.327,1.679
2024-10-23 22:10:09.557,20133.096,0.08,0.971,-0.227,-0.004,0.033,-0.017,-0.212,0.165,-0.007,0.34,-1.328,1.68
2024-10-23 22:10:09.567,20133.106,0.08,0.971,-0.226,0.031,0.057,-0.009,-0.103,0.123,-0.065,0.341,-1.329,1.679
2024-10-23 22:10:09.577,20133.116,0.08,0.971,-0.224,0.01,0.079,0.029,-0.144,0.059,0.021,0.344,-1.33,1.681
2024-10-23 22:10:09.587,20133.126,0.081,0.971,-0.224,0.005,-0.08,-0.015,0.062,0.13,0.04,0.346,-1.331,1.682
2024-10-23 22:10:09.598,20133.136,0.082,0.971,-0.224,0.054,0.019,0.009,-0.018,0.043,0.117,0.35,-1.33,1.686
2024-10-23 22:10:09.608,20133.146,0.083,0.971,-0.224,-0.037,-0.023,0.011,-0.012,-0.027,0.096,0.354,-1.33,1.69
2024-10-23 22:10:09.617,20133.156,0.083,0.971,-0.224,-0.012,-0.09,0.038,0.073,-0.057,0.078,0.356,-1.329,1.693
2024-10-23 22:10:09.627,20133.166,0.084,0.971,-0.225,0.01,-0.095,0.046,0.149,0.0,0.079,0.358,-1.328,1.695
2024-10-23 22:10:09.637,20133.176,0.085,0.97,-0.227,-0.017,-0.051,0.029,0.221,0.049,0.069,0.358,-1.326,1.695
2024-10-23 22:10:09.647,20133.186,0.086,0.97,-0.229,-0.035,0.013,0.029,0.2,0.036,0.052,0.358,-1.324,1.694
2024-10-23 22:10:09.657,20133.196,0.086,0.969,-0.231,-0.032,0.011,0.022,0.134,0.024,0.047,0.358,-1.322,1.694
2024-10-23 22:10:09.667,20133.206,0.087,0.969,-0.231,-0.01,0.006,0.019,0.066,0.038,0.041,0.358,-1.321,1.694
2024-10-23 22:10:09.677,20133.216,0.087,0.969,-0.232,0.004,0.018,0.024,0.044,0.04,0.042,0.36,-1.32,1.695
2024-10-23 22:10:09.687,20133.226,0.088,0.969,-0.232,-0.001,0.028,0.029,-0.008,0.072,0.061,0.361,-1.32,1.696
2024-10-23 22:10:09.697,20133.236,0.088,0.969,-0.232,-0.0,0.022,0.009,-0.095,0.027,0.011,0.365,-1.32,1.699
2024-10-23 22:10:09.707,20133.246,0.088,0.969,-0.231,0.008,0.051,0.003,0.045,-0.022,-0.039,0.364,-1.321,1.698
2024-10-23 22:10:09.717,20133.255,0.088,0.969,-0.232,-0.016,0.066,-0.018,0.128,0.044,-0.014,0.362,-1.32,1.696
2024-10-23 22:10:09.727,20133.265,0.088,0.968,-0.233,0.024,0.041,-0.044,0.139,0.035,-0.026,0.36,-1.319,1.693
2024-10-23 22:10:09.737,20133.275,0.088,0.968,-0.234,0.026,0.073,-0.02,0.054,-0.006,-0.023,0.358,-1.318,1.691
2024-10-23 22:10:09.747,20133.285,0.087,0.968,-0.235,-0.019,-0.01,-0.008,0.014,-0.007,-0.039,0.356,-1.318,1.689
2024-10-23 22:10:09.757,20133.295,0.087,0.968,-0.235,0.024,-0.067,0.007,-0.001,0.005,-0.059,0.354,-1.318,1.688
2024-10-23 22:10:09.767,20133.305,0.086,0.968,-0.235,0.018,-0.038,0.013,0.007,-0.009,-0.105,0.351,-1.318,1.685
2024-10-23 22:10:09.777,20133.315,0.085,0.968,-0.235,-0.019,-0.021,0.004,0.065,0.008,-0.119,0.347,-1.318,1.68
2024-10-23 22:10:09.787,20133.325,0.084,0.968,-0.236,-0.016,-0.014,0.011,0.052,0.061,-0.108,0.342,-1.318,1.675
2024-10-23 22:10:09.797,20133.335,0.083,0.968,-0.236,-0.006,-0.013,0.025,-0.034,0.056,-0.105,0.339,-1.318,1.671
2024-10-23 22:10:09.807,20133.345,0.082,0.968,-0.235,-0.011,-0.012,0.037,-0.069,0.032,-0.121,0.336,-1.319,1.667
2024-10-23 22:10:09.817,20133.355,0.081,0.969,-0.234,-0.016,-0.03,0.033,-0.077,0.04,-0.102,0.333,-1.32,1.664
2024-10-23 22:10:09.827,20133.365,0.08,0.969,-0.234,-0.005,-0.039,0.016,-0.048,0.047,-0.072,0.331,-1.321,1.661
2024-10-23 22:10:09.837,20133.375,0.08,0.969,-0.233,0.002,-0.009,0.007,-0.023,0.024,-0.042,0.33,-1.322,1.66
2024-10-23 22:10:09.847,20133.385,0.08,0.969,-0.233,-0.009,-0.008,-0.0,-0.006,-0.011,-0.014,0.329,-1.322,1.659
2024-10-23 22:10:09.857,20133.395,0.08,0.969,-0.233,0.005,-0.025,-0.01,0.014,-0.021,0.008,0.329,-1.322,1.659
2024-10-23 22:10:09.867,20133.405,0.08,0.969,-0.233,0.016,-0.009,-0.011,0.022,-0.024,0.026,0.329,-1.322,1.659
2024-10-23 22:10:09.877,20133.415,0.08,0.969,-0.234,0.008,0.022,-0.009,0.016,-0.036,0.034,0.33,-1.321,1.66
2024-10-23 22:10:09.887,20133.425,0.08,0.969,-0.234,0.005,0.038,-0.006,0.007,-0.043,0.033,0.33,-1.321,1.661
2024-10-23 22:10:09.897,20133.435,0.08,0.969,-0.234,0.009,0.03,-0.005,-0.003,-0.047,0.038,0.331,-1.321,1.663
2024-10-23 22:10:09.907,20133.445,0.081,0.969,-0.234,0.011,0.018,-0.004,-0.006,-0.047,0.038,0.332,-1.321,1.664
2024-10-23 22:10:09.917,20133.455,0.081,0.969,-0.234,0.011,0.009,-0.003,-0.013,-0.047,0.027,0.333,-1.321,1.666
2024-10-23 22:10:09.927,20133.465,0.081,0.969,-0.234,0.006,0.004,-0.003,-0.024,-0.048,0.019,0.334,-1.321,1.667
2024-10-23 22:10:09.937,20133.475,0.081,0.969,-0.233,0.002,-0.002,-0.006,-0.035,-0.057,0.002,0.334,-1.321,1.668
2024-10-23 22:10:09.947,20133.485,0.081,0.969,-0.233,-0.0,-0.009,-0.008,-0.037,-0.054,-0.01,0.334,-1.322,1.668
2024-10-23 22:10:09.957,20133.495,0.081,0.969,-0.233,-0.003,-0.012,-0.008,-0.036,-0.04,-0.009,0.333,-1.322,1.668
2024-10-23 22:10:09.967,20133.505,0.08,0.969,-0.232,-0.004,-0.009,-0.006,-0.035,-0.039,-0.011,0.333,-1.322,1.668
2024-10-23 22:10:09.978,20133.515,0.08,0.969,-0.232,-0.005,-0.015,-0.004,-0.044,-0.042,-0.013,0.333,-1.323,1.668
2024-10-23 22:10:09.987,20133.525,0.08,0.969,-0.232,-0.003,-0.028,0.002,-0.047,-0.037,-0.015,0.333,-1.323,1.669
2024-10-23 22:10:09.997,20133.535,0.08,0.97,-0.231,0.0,-0.021,0.009,-0.03,-0.026,-0.025,0.332,-1.324,1.669
2024-10-23 22:10:10.006,20133.545,0.08,0.97,-0.231,-0.002,-0.007,0.012,-0.023,-0.014,-0.025,0.332,-1.324,1.668
2024-10-23 22:10:10.016,20133.555,0.079,0.97,-0.231,-0.005,0.005,0.014,-0.033,-0.015,-0.024,0.331,-1.324,1.667
2024-10-23 22:10:10.026,20133.565,0.079,0.97,-0.231,-0.005,0.007,0.014,-0.041,-0.014,-0.028,0.33,-1.325,1.667
2024-10-23 22:10:10.036,20133.575,0.079,0.97,-0.23,-0.001,0.002,0.014,-0.044,-0.011,-0.018,0.33,-1.325,1.667
2024-10-23 22:10:10.046,20133.585,0.079,0.97,-0.23,-0.0,0.0,0.014,-0.033,-0.003,-0.008,0.33,-1.325,1.666
2024-10-23 22:10:10.057,20133.595,0.079,0.97,-0.23,0.0,0.009,0.013,-0.029,0.003,-0.005,0.33,-1.326,1.667
2024-10-23 22:10:10.067,20133.605,0.079,0.97,-0.229,-0.001,0.008,0.01,-0.026,0.013,0.002,0.33,-1.326,1.667
2024-10-23 22:10:10.077,20133.615,0.079,0.97,-0.229,-0.001,0.004,0.005,-0.021,0.013,0.0,0.331,-1.326,1.667
2024-10-23 22:10:10.087,20133.625,0.079,0.97,-0.229,-0.001,0.007,0.005,-0.016,0.016,-0.002,0.331,-1.326,1.668
2024-10-23 22:10:10.097,20133.635,0.079,0.97,-0.229,-0.002,0.011,0.003,0.0,0.02,-0.004,0.331,-1.326,1.668
2024-10-23 22:10:10.107,20133.645,0.079,0.97,-0.229,-0.001,0.011,0.002,0.008,0.016,-0.001,0.331,-1.326,1.667
2024-10-23 22:10:10.117,20133.655,0.079,0.97,-0.229,0.001,0.005,-0.0,-0.017,0.0,0.006,0.332,-1.326,1.668
2024-10-23 22:10:10.127,20133.665,0.079,0.97,-0.228,0.003,-0.002,-0.004,-0.024,-0.009,0.001,0.332,-1.327,1.668
2024-10-23 22:10:10.137,20133.675,0.079,0.97,-0.228,0.006,-0.001,0.0,-0.017,-0.002,0.009,0.332,-1.327,1.669
2024-10-23 22:10:10.146,20133.685,0.079,0.97,-0.228,0.002,-0.004,0.003,-0.008,-0.002,0.016,0.333,-1.327,1.669
2024-10-23 22:10:10.156,20133.695,0.079,0.97,-0.228,-0.003,-0.006,0.003,-0.022,0.0,0.022,0.334,-1.327,1.67
2024-10-23 22:10:10.166,20133.705,0.079,0.971,-0.228,0.0,-0.007,0.003,-0.026,-0.008,0.02,0.335,-1.327,1.671
2024-10-23 22:10:10.176,20133.715,0.079,0.971,-0.227,-0.001,-0.002,0.005,-0.022,-0.006,0.016,0.336,-1.328,1.672
2024-10-23 22:10:10.186,20133.725,0.079,0.971,-0.227,-0.004,-0.0,0.003,-0.02,-0.012,0.012,0.337,-1.328,1.673
2024-10-23 22:10:10.196,20133.735,0.08,0.971,-0.227,-0.002,-0.0,-0.0,-0.025,-0.01,0.004,0.337,-1.328,1.674
2024-10-23 22:10:10.206,20133.745,0.08,0.971,-0.227,-0.003,0.0,-0.0,-0.027,-0.001,-0.0,0.337,-1.328,1.674
2024-10-23 22:10:10.216,20133.755,0.08,0.971,-0.227,-0.004,-0.003,-0.0,-0.027,0.01,-0.003,0.338,-1.328,1.675
2024-10-23 22:10:10.226,20133.765,0.08,0.971,-0.226,-0.002,-0.005,-0.001,-0.025,0.014,-0.001,0.338,-1.329,1.675
2024-10-23 22:10:10.237,20133.775,0.08,0.971,-0.226,0.0,-0.005,-0.001,-0.028,0.022,-0.005,0.339,-1.329,1.675
2024-10-23 22:10:10.246,20133.785,0.08,0.971,-0.226,0.001,-0.004,0.003,-0.016,0.03,-0.003,0.339,-1.329,1.675
2024-10-23 22:10:10.256,20133.795,0.08,0.971,-0.226,0.003,-0.003,0.003,-0.025,0.038,0.0,0.34,-1.329,1.675
2024-10-23 22:10:10.266,20133.805,0.08,0.971,-0.225,0.005,-0.002,0.003,-0.04,0.039,0.001,0.34,-1.33,1.676
2024-10-23 22:10:10.276,20133.815,0.08,0.971,-0.225,0.005,-0.001,0.004,-0.039,0.035,-0.001,0.341,-1.33,1.676
2024-10-23 22:10:10.286,20133.825,0.08,0.971,-0.224,0.002,0.001,0.005,-0.032,0.038,0.001,0.342,-1.33,1.677
2024-10-23 22:10:10.296,20133.835,0.08,0.971,-0.224,-0.0,0.005,0.006,-0.024,0.042,-0.002,0.343,-1.331,1.677
2024-10-23 22:10:10.306,20133.845,0.08,0.971,-0.224,-0.001,0.012,0.004,-0.027,0.048,-0.001,0.343,-1.331,1.677
2024-10-23 22:10:10.316,20133.854,0.08,0.971,-0.224,-0.005,0.01,0.002,-0.038,0.055,-0.005,0.344,-1.331,1.678
2024-10-23 22:10:10.326,20133.864,0.08,0.972,-0.223,-0.007,0.003,0.001,-0.052,0.062,-0.015,0.345,-1.332,1.678
2024-10-23 22:10:10.336,20133.874,0.08,0.972,-0.222,-0.006,-0.006,0.004,-0.078,0.078,-0.022,0.346,-1.332,1.678
2024-10-23 22:10:10.346,20133.884,0.08,0.972,-0.221,-0.003,-0.014,0.007,-0.135,0.088,-0.008,0.347,-1.333,1.679
2024-10-23 22:10:10.356,20133.894,0.08,0.972,-0.22,-0.0,-0.019,0.007,-0.198,0.081,-0.004,0.35,-1.335,1.681
2024-10-23 22:10:10.366,20133.904,0.08,0.973,-0.217,-0.001,-0.037,0.009,-0.268,0.08,-0.006,0.354,-1.337,1.684
2024-10-23 22:10:10.376,20133.914,0.08,0.973,-0.214,0.001,-0.059,0.007,-0.299,0.072,-0.018,0.359,-1.34,1.688
2024-10-23 22:10:10.386,20133.924,0.08,0.974,-0.212,0.008,-0.059,0.004,-0.264,0.063,-0.036,0.363,-1.342,1.691
2024-10-23 22:10:10.396,20133.934,0.08,0.975,-0.209,0.005,-0.041,-0.003,-0.187,0.061,-0.056,0.365,-1.345,1.693
2024-10-23 22:10:10.406,20133.944,0.079,0.975,-0.208,0.004,-0.021,-0.004,-0.088,0.076,-0.071,0.365,-1.346,1.692
2024-10-23 22:10:10.416,20133.954,0.079,0.975,-0.207,0.006,-0.001,-0.003,-0.023,0.082,-0.076,0.363,-1.347,1.69
2024-10-23 22:10:10.427,20133.964,0.078,0.975,-0.207,-0.001,0.004,-0.005,0.002,0.072,-0.078,0.361,-1.347,1.687
2024-10-23 22:10:10.436,20133.974,0.078,0.975,-0.207,-0.002,0.001,-0.004,0.001,0.068,-0.084,0.358,-1.348,1.683
2024-10-23 22:10:10.446,20133.984,0.077,0.975,-0.207,0.004,-0.003,-0.001,-0.011,0.071,-0.084,0.356,-1.348,1.68
2024-10-23 22:10:10.456,20133.994,0.076,0.975,-0.207,0.003,-0.004,-0.001,-0.029,0.077,-0.079,0.353,-1.348,1.677
2024-10-23 22:10:10.466,20134.004,0.076,0.975,-0.207,-0.001,-0.001,0.004,-0.04,0.068,-0.075,0.351,-1.349,1.674
2024-10-23 22:10:10.476,20134.014,0.075,0.976,-0.206,-0.003,0.001,0.005,-0.046,0.066,-0.082,0.35,-1.349,1.671
2024-10-23 22:10:10.486,20134.024,0.075,0.976,-0.206,-0.003,0.007,0.007,-0.017,0.072,-0.078,0.348,-1.35,1.669
2024-10-23 22:10:10.496,20134.034,0.074,0.976,-0.206,-0.008,0.023,0.006,0.018,0.071,-0.076,0.345,-1.35,1.665
2024-10-23 22:10:10.505,20134.044,0.073,0.976,-0.206,-0.011,0.028,0.002,0.036,0.067,-0.072,0.342,-1.35,1.662
2024-10-23 22:10:10.515,20134.054,0.073,0.976,-0.206,-0.009,0.019,-0.001,0.045,0.06,-0.066,0.339,-1.35,1.658
2024-10-23 22:10:10.525,20134.064,0.072,0.976,-0.207,-0.006,0.016,0.003,0.039,0.069,-0.058,0.337,-1.35,1.655
2024-10-23 22:10:10.535,20134.074,0.072,0.976,-0.207,-0.005,0.013,0.008,0.035,0.067,-0.051,0.335,-1.35,1.652
2024-10-23 22:10:10.545,20134.084,0.072,0.976,-0.207,-0.002,0.008,0.013,0.032,0.066,-0.046,0.333,-1.35,1.65
2024-10-23 22:10:10.556,20134.094,0.071,0.976,-0.208,-0.001,0.0,0.016,0.043,0.054,-0.043,0.331,-1.349,1.647
2024-10-23 22:10:10.566,20134.104,0.071,0.976,-0.208,0.001,-0.008,0.012,0.067,0.048,-0.041,0.329,-1.349,1.645
2024-10-23 22:10:10.575,20134.114,0.071,0.975,-0.209,0.004,-0.008,0.005,0.085,0.045,-0.039,0.327,-1.348,1.642
2024-10-23 22:10:10.585,20134.124,0.071,0.975,-0.21,0.001,0.005,0.003,0.098,0.044,-0.041,0.324,-1.348,1.639
2024-10-23 22:10:10.602,20134.134,0.07,0.975,-0.211,-0.003,0.012,-0.005,0.102,0.043,-0.046,0.322,-1.347,1.636
2024-10-23 22:10:10.606,20134.144,0.07,0.975,-0.212,0.0,0.015,-0.01,0.104,0.048,-0.037,0.319,-1.346,1.632
2024-10-23 22:10:10.616,20134.154,0.07,0.975,-0.212,0.004,0.017,-0.01,0.101,0.048,-0.032,0.317,-1.345,1.629
2024-10-23 22:10:10.625,20134.164,0.069,0.975,-0.213,0.006,0.012,-0.009,0.084,0.054,-0.032,0.315,-1.345,1.627
2024-10-23 22:10:10.636,20134.174,0.069,0.974,-0.214,0.008,0.001,-0.003,0.053,0.057,-0.034,0.313,-1.344,1.625
2024-10-23 22:10:10.645,20134.184,0.069,0.974,-0.214,0.008,-0.004,0.004,0.018,0.057,-0.049,0.312,-1.344,1.623
2024-10-23 22:10:10.655,20134.194,0.069,0.974,-0.214,0.004,-0.009,0.009,-0.018,0.031,-0.059,0.31,-1.344,1.62
2024-10-23 22:10:10.665,20134.204,0.068,0.975,-0.214,0.0,-0.02,0.009,-0.039,0.031,-0.059,0.308,-1.345,1.618
2024-10-23 22:10:10.675,20134.214,0.068,0.975,-0.213,-0.004,-0.025,0.004,-0.068,0.038,-0.052,0.307,-1.345,1.617
2024-10-23 22:10:10.686,20134.224,0.067,0.975,-0.212,-0.009,-0.02,-0.003,-0.084,0.053,-0.049,0.306,-1.346,1.616
2024-10-23 22:10:10.696,20134.234,0.067,0.975,-0.211,-0.011,-0.02,-0.005,-0.09,0.032,-0.044,0.306,-1.347,1.615
2024-10-23 22:10:10.706,20134.244,0.066,0.975,-0.211,-0.015,-0.025,-0.005,-0.065,0.02,-0.051,0.306,-1.348,1.614
2024-10-23 22:10:10.715,20134.254,0.066,0.975,-0.21,-0.008,-0.022,-0.006,-0.025,0.029,-0.058,0.304,-1.349,1.613
2024-10-23 22:10:10.725,20134.264,0.065,0.975,-0.21,-0.0,-0.003,-0.005,0.007,0.034,-0.072,0.302,-1.349,1.61
2024-10-23 22:10:10.736,20134.274,0.065,0.975,-0.21,-0.007,0.01,-0.002,0.006,0.033,-0.077,0.299,-1.349,1.607
2024-10-23 22:10:10.746,20134.284,0.064,0.976,-0.21,-0.01,0.001,-0.004,-0.008,0.02,-0.092,0.296,-1.349,1.603
2024-10-23 22:10:10.756,20134.294,0.063,0.976,-0.21,-0.003,-0.015,0.001,-0.037,0.024,-0.106,0.292,-1.35,1.599
2024-10-23 22:10:10.765,20134.304,0.062,0.976,-0.21,0.002,-0.023,0.0,-0.048,0.03,-0.102,0.289,-1.35,1.595
2024-10-23 22:10:10.775,20134.314,0.061,0.976,-0.209,0.003,-0.021,-0.0,-0.032,0.047,-0.083,0.285,-1.351,1.591
2024-10-23 22:10:10.786,20134.324,0.061,0.976,-0.209,-0.001,-0.013,0.006,-0.034,0.083,-0.064,0.283,-1.352,1.588
2024-10-23 22:10:10.795,20134.334,0.06,0.976,-0.208,-0.001,-0.004,0.014,-0.081,0.097,-0.066,0.282,-1.352,1.586
2024-10-23 22:10:10.805,20134.344,0.06,0.976,-0.207,0.002,0.003,0.024,-0.108,0.056,-0.061,0.281,-1.353,1.585
2024-10-23 22:10:10.816,20134.354,0.06,0.977,-0.206,0.0,0.004,0.026,-0.119,0.052,-0.026,0.281,-1.354,1.584
2024-10-23 22:10:10.825,20134.364,0.059,0.977,-0.205,0.003,0.003,0.024,-0.102,0.128,-0.057,0.282,-1.356,1.584
2024-10-23 22:10:10.835,20134.374,0.059,0.977,-0.204,0.005,0.018,0.03,-0.093,0.113,-0.036,0.282,-1.357,1.583
2024-10-23 22:10:10.845,20134.384,0.059,0.977,-0.203,-0.007,0.025,0.008,-0.084,0.085,-0.008,0.283,-1.358,1.583
2024-10-23 22:10:10.855,20134.394,0.059,0.977,-0.203,-0.006,-0.0,-0.003,-0.008,0.045,0.014,0.285,-1.358,1.584
2024-10-23 22:10:10.865,20134.404,0.06,0.977,-0.203,0.009,-0.008,-0.001,0.085,0.042,0.047,0.286,-1.358,1.585
2024-10-23 22:10:10.875,20134.414,0.06,0.977,-0.204,0.015,0.009,-0.003,0.145,0.066,0.053,0.287,-1.356,1.585
2024-10-23 22:10:10.885,20134.424,0.061,0.977,-0.206,0.006,0.033,0.004,0.175,0.064,0.049,0.288,-1.355,1.586
2024-10-23 22:10:10.895,20134.434,0.062,0.976,-0.207,-0.009,0.043,0.012,0.102,0.028,0.067,0.289,-1.353,1.587
2024-10-23 22:10:10.905,20134.444,0.062,0.976,-0.207,-0.008,0.021,0.009,0.008,-0.01,0.051,0.292,-1.353,1.589
2024-10-23 22:10:10.915,20134.453,0.063,0.976,-0.207,0.008,0.007,0.009,-0.042,-0.018,0.043,0.294,-1.353,1.591
2024-10-23 22:10:10.925,20134.463,0.063,0.976,-0.207,0.019,0.003,0.017,-0.018,-0.023,0.039,0.296,-1.353,1.593
2024-10-23 22:10:10.935,20134.473,0.063,0.976,-0.207,0.01,-0.004,0.018,0.015,-0.015,0.036,0.297,-1.353,1.595
2024-10-23 22:10:10.945,20134.483,0.064,0.976,-0.207,-0.001,-0.007,0.016,0.015,-0.031,0.033,0.298,-1.353,1.596
2024-10-23 22:10:10.955,20134.493,0.064,0.976,-0.207,0.004,-0.008,0.007,-0.024,-0.063,0.034,0.299,-1.353,1.598
2024-10-23 22:10:10.965,20134.503,0.064,0.976,-0.206,0.008,-0.01,0.008,-0.127,-0.067,0.046,0.302,-1.353,1.601
2024-10-23 22:10:10.975,20134.513,0.064,0.977,-0.205,0.011,-0.01,0.01,-0.155,-0.064,0.039,0.305,-1.355,1.605
2024-10-23 22:10:10.985,20134.523,0.065,0.977,-0.203,0.02,0.003,0.014,-0.151,-0.061,0.032,0.308,-1.356,1.608
2024-10-23 22:10:10.995,20134.533,0.065,0.977,-0.202,0.01,-0.005,0.016,-0.126,-0.045,0.05,0.311,-1.357,1.612
2024-10-23 22:10:11.005,20134.543,0.065,0.977,-0.201,-0.007,0.002,-0.003,-0.058,-0.04,0.065,0.315,-1.358,1.617
2024-10-23 22:10:11.015,20134.553,0.066,0.978,-0.2,-0.006,0.016,-0.016,-0.055,-0.036,0.08,0.318,-1.358,1.621
2024-10-23 22:10:11.025,20134.563,0.067,0.978,-0.2,0.002,-0.016,-0.026,-0.061,-0.037,0.092,0.323,-1.359,1.625
2024-10-23 22:10:11.035,20134.573,0.068,0.978,-0.199,0.002,-0.033,-0.023,-0.053,-0.046,0.115,0.328,-1.359,1.631
2024-10-23 22:10:11.045,20134.583,0.069,0.978,-0.199,-0.003,-0.019,-0.018,-0.052,-0.046,0.099,0.333,-1.359,1.637
2024-10-23 22:10:11.055,20134.593,0.07,0.978,-0.198,0.001,-0.0,-0.012,-0.089,-0.033,0.078,0.338,-1.359,1.642
2024-10-23 22:10:11.065,20134.603,0.07,0.978,-0.197,-0.001,0.003,-0.004,-0.115,-0.036,0.067,0.342,-1.36,1.647
2024-10-23 22:10:11.075,20134.613,0.071,0.978,-0.196,-0.013,-0.008,0.001,-0.103,-0.027,0.056,0.347,-1.361,1.652
2024-10-23 22:10:11.085,20134.623,0.071,0.978,-0.195,-0.005,-0.003,0.008,-0.084,-0.028,0.05,0.35,-1.362,1.656
2024-10-23 22:10:11.095,20134.633,0.072,0.978,-0.195,0.004,0.007,0.006,-0.029,-0.024,0.04,0.352,-1.362,1.658
2024-10-23 22:10:11.105,20134.643,0.072,0.978,-0.195,0.005,0.01,0.003,0.004,-0.019,0.044,0.354,-1.362,1.66
2024-10-23 22:10:11.115,20134.653,0.072,0.978,-0.195,0.007,0.005,0.003,0.017,-0.021,0.041,0.355,-1.361,1.662
2024-10-23 22:10:11.125,20134.663,0.073,0.978,-0.195,0.01,0.007,0.008,-0.003,-0.027,0.027,0.356,-1.361,1.663
2024-10-23 22:10:11.135,20134.673,0.073,0.978,-0.195,0.015,0.012,0.018,-0.042,-0.036,0.016,0.357,-1.361,1.664
2024-10-23 22:10:11.145,20134.683,0.073,0.978,-0.194,0.01,0.008,0.024,-0.073,-0.058,-0.003,0.358,-1.362,1.665
2024-10-23 22:10:11.155,20134.693,0.072,0.978,-0.194,0.011,0.003,0.023,-0.064,-0.066,-0.005,0.358,-1.362,1.666
2024-10-23 22:10:11.165,20134.703,0.072,0.979,-0.193,0.014,0.004,0.02,-0.085,-0.075,-0.001,0.358,-1.363,1.667
2024-10-23 22:10:11.175,20134.713,0.072,0.979,-0.192,0.011,-0.002,0.014,-0.08,-0.088,0.012,0.359,-1.364,1.669
2024-10-23 22:10:11.185,20134.723,0.072,0.979,-0.192,0.01,-0.003,0.013,-0.116,-0.095,0.018,0.36,-1.365,1.671
2024-10-23 22:10:11.195,20134.733,0.072,0.979,-0.19,0.009,-0.018,0.013,-0.129,-0.116,0.004,0.362,-1.366,1.674
2024-10-23 22:10:11.205,20134.743,0.072,0.979,-0.189,0.003,-0.022,0.018,-0.09,-0.134,-0.01,0.363,-1.367,1.676
2024-10-23 22:10:11.215,20134.753,0.072,0.979,-0.189,-0.007,-0.021,0.014,-0.029,-0.115,-0.009,0.362,-1.368,1.677
2024-10-23 22:10:11.225,20134.763,0.071,0.979,-0.189,-0.011,-0.014,0.011,-0.024,-0.103,-0.004,0.362,-1.368,1.677
2024-10-23 22:10:11.235,20134.773,0.071,0.98,-0.188,-0.018,-0.003,0.011,-0.06,-0.11,-0.017,0.361,-1.368,1.678
2024-10-23 22:10:11.244,20134.783,0.071,0.98,-0.187,-0.024,-0.009,0.013,-0.112,-0.118,-0.029,0.361,-1.369,1.678
2024-10-23 22:10:11.254,20134.793,0.07,0.98,-0.186,-0.023,-0.027,0.019,-0.149,-0.111,-0.02,0.361,-1.371,1.68
2024-10-23 22:10:11.265,20134.803,0.07,0.98,-0.185,-0.025,-0.027,0.014,-0.163,-0.1,-0.018,0.362,-1.372,1.682
2024-10-23 22:10:11.274,20134.813,0.07,0.981,-0.183,-0.028,-0.016,0.005,-0.151,-0.085,-0.007,0.364,-1.374,1.685
2024-10-23 22:10:11.284,20134.823,0.07,0.981,-0.182,-0.03,-0.007,-0.002,-0.131,-0.073,-0.003,0.366,-1.375,1.687
2024-10-23 22:10:11.295,20134.833,0.069,0.981,-0.181,-0.029,0.011,-0.007,-0.108,-0.063,-0.004,0.367,-1.376,1.689
2024-10-23 22:10:11.304,20134.843,0.069,0.981,-0.18,-0.024,0.022,-0.013,-0.089,-0.047,0.001,0.368,-1.377,1.691
2024-10-23 22:10:11.315,20134.853,0.069,0.981,-0.179,-0.021,0.02,-0.013,-0.081,-0.039,0.003,0.369,-1.378,1.692
2024-10-23 22:10:11.325,20134.863,0.069,0.982,-0.178,-0.019,0.015,-0.014,-0.086,-0.014,0.008,0.37,-1.379,1.694
2024-10-23 22:10:11.335,20134.873,0.069,0.982,-0.177,-0.017,0.012,-0.015,-0.101,-0.0,0.004,0.372,-1.379,1.695
2024-10-23 22:10:11.345,20134.883,0.069,0.982,-0.176,-0.017,0.006,-0.014,-0.098,0.009,0.0,0.373,-1.38,1.697
2024-10-23 22:10:11.355,20134.893,0.069,0.982,-0.175,-0.019,0.006,-0.017,-0.096,0.026,-0.002,0.375,-1.381,1.699
2024-10-23 22:10:11.364,20134.903,0.069,0.982,-0.174,-0.015,0.006,-0.016,-0.091,0.035,-0.004,0.376,-1.382,1.7
2024-10-23 22:10:11.374,20134.913,0.069,0.982,-0.173,-0.015,0.001,-0.014,-0.09,0.044,0.001,0.378,-1.383,1.701
2024-10-23 22:10:11.384,20134.923,0.069,0.983,-0.173,-0.012,-0.005,-0.012,-0.09,0.051,0.011,0.38,-1.384,1.702
2024-10-23 22:10:11.395,20134.933,0.069,0.983,-0.172,-0.006,-0.009,-0.004,-0.08,0.048,0.015,0.382,-1.385,1.704
2024-10-23 22:10:11.404,20134.943,0.069,0.983,-0.171,-0.003,-0.007,-0.005,-0.067,0.054,0.021,0.385,-1.385,1.706
2024-10-23 22:10:11.414,20134.953,0.07,0.983,-0.171,0.001,0.001,-0.003,-0.045,0.059,0.032,0.387,-1.386,1.708
2024-10-23 22:10:11.424,20134.963,0.07,0.983,-0.17,-0.005,0.006,0.0,-0.047,0.046,0.026,0.39,-1.386,1.71
2024-10-23 22:10:11.434,20134.973,0.07,0.983,-0.17,0.001,0.003,0.001,-0.028,0.046,0.018,0.391,-1.386,1.712
2024-10-23 22:10:11.444,20134.983,0.07,0.983,-0.17,0.008,0.002,0.006,-0.017,0.054,0.017,0.393,-1.386,1.713
2024-10-23 22:10:11.454,20134.993,0.07,0.983,-0.17,0.006,0.007,0.006,-0.008,0.046,0.011,0.394,-1.386,1.713
2024-10-23 22:10:11.464,20135.003,0.071,0.983,-0.169,0.005,0.005,0.005,-0.023,0.044,0.005,0.395,-1.386,1.713
2024-10-23 22:10:11.474,20135.013,0.071,0.983,-0.169,0.007,-0.003,0.006,-0.025,0.037,-0.002,0.395,-1.386,1.714
2024-10-23 22:10:11.484,20135.023,0.071,0.983,-0.169,0.006,-0.008,0.012,-0.035,0.039,-0.01,0.396,-1.387,1.714
2024-10-23 22:10:11.494,20135.033,0.071,0.983,-0.168,0.005,-0.01,0.011,-0.055,0.034,-0.017,0.397,-1.387,1.714
2024-10-23 22:10:11.504,20135.042,0.07,0.983,-0.168,0.005,-0.01,0.006,-0.058,0.023,-0.032,0.397,-1.388,1.714
2024-10-23 22:10:11.515,20135.052,0.07,0.983,-0.167,0.004,-0.013,0.005,-0.048,0.02,-0.036,0.396,-1.388,1.714
2024-10-23 22:10:11.524,20135.062,0.07,0.984,-0.167,0.002,-0.014,0.007,-0.041,0.017,-0.038,0.396,-1.389,1.713
