Date,TimeStamp,GravityX,GravityY,GravityZ,UserAccelerationX,UserAccelerationY,UserAccelerationZ,RotationRateX,RotationRateY,RotationRateZ,AttitudeRoll,AttitudePitch,AttitudeYaw
2024-10-23 22:04:21.632,19785.183,0.528,0.08,-0.846,-0.012,0.044,0.001,-0.172,-0.038,-0.053,0.558,-0.08,0.864
2024-10-23 22:04:21.644,19785.193,0.528,0.081,-0.846,0.02,0.018,0.014,-0.191,-0.011,-0.013,0.558,-0.081,0.865
2024-10-23 22:04:21.645,19785.203,0.528,0.083,-0.845,0.022,-0.007,0.011,-0.204,0.02,-0.019,0.558,-0.083,0.866
2024-10-23 22:04:21.647,19785.213,0.528,0.085,-0.845,0.004,0.007,0.006,-0.22,0.023,-0.012,0.559,-0.085,0.867
2024-10-23 22:04:21.657,19785.223,0.529,0.087,-0.844,-0.006,0.018,0.003,-0.236,0.035,-0.01,0.559,-0.087,0.868
2024-10-23 22:04:21.667,19785.233,0.529,0.089,-0.844,0.01,0.001,0.01,-0.275,0.04,0.002,0.56,-0.089,0.869
2024-10-23 22:04:21.677,19785.243,0.529,0.092,-0.843,0.006,-0.008,0.011,-0.33,0.046,0.006,0.561,-0.092,0.871
2024-10-23 22:04:21.687,19785.253,0.53,0.095,-0.843,0.001,-0.003,0.009,-0.421,0.039,0.01,0.561,-0.095,0.873
2024-10-23 22:04:21.697,19785.263,0.53,0.099,-0.842,0.001,-0.013,0.013,-0.535,0.041,0.012,0.562,-0.099,0.876
2024-10-23 22:04:21.707,19785.273,0.53,0.104,-0.841,0.001,-0.022,0.014,-0.664,0.035,0.015,0.562,-0.104,0.879
2024-10-23 22:04:21.718,19785.283,0.531,0.11,-0.84,0.003,-0.029,0.014,-0.822,0.017,0.022,0.563,-0.11,0.883
2024-10-23 22:04:21.727,19785.293,0.531,0.118,-0.839,0.005,-0.042,0.014,-0.971,-0.007,0.015,0.564,-0.118,0.888
2024-10-23 22:04:21.738,19785.303,0.531,0.126,-0.838,0.009,-0.052,0.013,-1.094,-0.022,0.018,0.564,-0.126,0.894
2024-10-23 22:04:21.747,19785.313,0.53,0.136,-0.837,0.013,-0.058,0.014,-1.194,-0.033,0.019,0.565,-0.136,0.9
2024-10-23 22:04:21.757,19785.323,0.53,0.146,-0.835,0.014,-0.06,0.011,-1.286,-0.035,0.035,0.566,-0.146,0.907
2024-10-23 22:04:21.769,19785.333,0.53,0.157,-0.833,0.013,-0.053,0.007,-1.374,-0.027,0.057,0.567,-0.157,0.914
2024-10-23 22:04:21.777,19785.343,0.53,0.168,-0.831,0.01,-0.056,0.013,-1.477,-0.02,0.091,0.568,-0.169,0.923
2024-10-23 22:04:21.788,19785.353,0.53,0.18,-0.829,0.01,-0.052,0.022,-1.6,-0.016,0.121,0.569,-0.181,0.932
2024-10-23 22:04:21.798,19785.363,0.53,0.193,-0.826,0.005,-0.036,0.03,-1.739,-0.016,0.143,0.571,-0.195,0.942
2024-10-23 22:04:21.807,19785.373,0.53,0.207,-0.822,0.001,-0.038,0.034,-1.85,-0.009,0.152,0.573,-0.209,0.954
2024-10-23 22:04:21.819,19785.383,0.531,0.222,-0.818,0.004,-0.038,0.045,-1.967,-0.007,0.167,0.576,-0.224,0.965
2024-10-23 22:04:21.827,19785.393,0.531,0.238,-0.813,0.004,-0.035,0.047,-2.111,0.003,0.18,0.578,-0.24,0.978
2024-10-23 22:04:21.838,19785.403,0.531,0.254,-0.808,0.002,-0.035,0.04,-2.249,-0.011,0.191,0.582,-0.257,0.992
2024-10-23 22:04:21.847,19785.413,0.532,0.272,-0.802,0.0,-0.039,0.037,-2.358,-0.012,0.201,0.586,-0.275,1.007
2024-10-23 22:04:21.857,19785.423,0.532,0.29,-0.795,0.006,-0.035,0.033,-2.39,-0.007,0.209,0.59,-0.294,1.022
2024-10-23 22:04:21.869,19785.433,0.533,0.307,-0.788,0.009,-0.029,0.032,-2.342,0.004,0.212,0.595,-0.313,1.038
2024-10-23 22:04:21.877,19785.443,0.534,0.324,-0.781,0.003,-0.015,0.039,-2.219,0.029,0.218,0.6,-0.33,1.053
2024-10-23 22:04:21.887,19785.453,0.535,0.34,-0.774,-0.0,0.013,0.038,-2.069,0.066,0.236,0.605,-0.347,1.068
2024-10-23 22:04:21.897,19785.463,0.537,0.354,-0.766,-0.011,0.037,0.04,-1.986,0.122,0.28,0.611,-0.362,1.083
2024-10-23 22:04:21.907,19785.473,0.539,0.367,-0.758,-0.021,0.06,0.044,-1.988,0.114,0.336,0.618,-0.376,1.098
2024-10-23 22:04:21.919,19785.483,0.541,0.38,-0.75,-0.016,0.078,0.059,-1.969,0.07,0.338,0.624,-0.39,1.113
2024-10-23 22:04:21.927,19785.493,0.542,0.393,-0.743,-0.008,0.059,0.062,-1.874,0.049,0.325,0.631,-0.404,1.128
2024-10-23 22:04:21.937,19785.503,0.544,0.404,-0.735,0.014,0.041,0.066,-1.716,0.056,0.319,0.637,-0.416,1.143
2024-10-23 22:04:21.947,19785.513,0.546,0.415,-0.728,0.029,0.057,0.077,-1.538,0.044,0.322,0.643,-0.427,1.156
2024-10-23 22:04:21.957,19785.523,0.547,0.424,-0.722,0.02,0.068,0.08,-1.483,0.055,0.346,0.649,-0.437,1.169
2024-10-23 22:04:21.969,19785.533,0.549,0.433,-0.715,0.016,0.068,0.075,-1.598,0.062,0.395,0.655,-0.447,1.182
2024-10-23 22:04:21.977,19785.543,0.552,0.443,-0.707,0.018,0.066,0.082,-1.936,0.034,0.447,0.663,-0.459,1.198
2024-10-23 22:04:21.987,19785.553,0.554,0.455,-0.697,0.016,0.033,0.091,-2.333,-0.021,0.428,0.671,-0.473,1.217
2024-10-23 22:04:21.997,19785.563,0.555,0.47,-0.686,0.019,-0.022,0.102,-2.678,-0.081,0.381,0.68,-0.49,1.238
2024-10-23 22:04:22.007,19785.573,0.556,0.487,-0.673,0.027,-0.07,0.109,-2.911,-0.123,0.314,0.69,-0.509,1.261
2024-10-23 22:04:22.017,19785.583,0.557,0.506,-0.659,0.036,-0.101,0.107,-3.017,-0.146,0.253,0.701,-0.53,1.286
2024-10-23 22:04:22.026,19785.593,0.557,0.524,-0.644,0.037,-0.111,0.108,-3.109,-0.165,0.224,0.713,-0.552,1.311
2024-10-23 22:04:22.036,19785.603,0.557,0.543,-0.629,0.031,-0.107,0.115,-3.234,-0.216,0.193,0.725,-0.574,1.337
2024-10-23 22:04:22.047,19785.613,0.556,0.563,-0.611,0.03,-0.088,0.118,-3.461,-0.252,0.162,0.738,-0.598,1.366
2024-10-23 22:04:22.057,19785.623,0.555,0.584,-0.593,0.026,-0.072,0.121,-3.702,-0.346,0.122,0.753,-0.623,1.397
2024-10-23 22:04:22.066,19785.633,0.554,0.605,-0.572,0.022,-0.065,0.134,-3.95,-0.449,0.073,0.769,-0.65,1.43
2024-10-23 22:04:22.076,19785.643,0.551,0.628,-0.55,0.027,-0.064,0.129,-4.088,-0.55,-0.035,0.786,-0.679,1.466
2024-10-23 22:04:22.086,19785.653,0.547,0.65,-0.527,0.035,-0.074,0.111,-4.062,-0.626,-0.125,0.804,-0.708,1.503
2024-10-23 22:04:22.096,19785.663,0.543,0.672,-0.504,0.033,-0.083,0.102,-3.965,-0.661,-0.176,0.822,-0.736,1.541
2024-10-23 22:04:22.107,19785.672,0.538,0.692,-0.481,0.036,-0.075,0.103,-3.877,-0.69,-0.2,0.842,-0.764,1.579
2024-10-23 22:04:22.117,19785.682,0.533,0.711,-0.458,0.034,-0.044,0.106,-3.847,-0.753,-0.241,0.862,-0.791,1.617
2024-10-23 22:04:22.128,19785.692,0.528,0.73,-0.435,0.019,-0.032,0.114,-3.775,-0.85,-0.323,0.882,-0.818,1.657
2024-10-23 22:04:22.137,19785.702,0.521,0.747,-0.412,0.014,-0.049,0.126,-3.676,-0.912,-0.389,0.902,-0.844,1.696
2024-10-23 22:04:22.156,19785.712,0.515,0.764,-0.389,0.017,-0.071,0.14,-3.569,-0.946,-0.421,0.923,-0.869,1.736
2024-10-23 22:04:22.161,19785.722,0.508,0.78,-0.367,0.013,-0.067,0.139,-3.519,-0.951,-0.463,0.945,-0.894,1.777
2024-10-23 22:04:22.167,19785.732,0.501,0.794,-0.344,-0.003,-0.06,0.12,-3.537,-0.948,-0.516,0.969,-0.918,1.819
2024-10-23 22:04:22.178,19785.742,0.493,0.809,-0.32,-0.014,-0.083,0.11,-3.578,-0.973,-0.627,0.994,-0.943,1.863
2024-10-23 22:04:22.187,19785.752,0.484,0.823,-0.296,-0.008,-0.102,0.09,-3.575,-0.996,-0.717,1.022,-0.967,1.909
2024-10-23 22:04:22.197,19785.762,0.475,0.837,-0.271,-0.0,-0.113,0.077,-3.512,-1.011,-0.812,1.052,-0.992,1.957
2024-10-23 22:04:22.207,19785.772,0.465,0.85,-0.247,0.0,-0.12,0.077,-3.312,-1.021,-0.897,1.082,-1.016,2.005
2024-10-23 22:04:22.217,19785.782,0.455,0.862,-0.224,-0.001,-0.13,0.065,-3.124,-1.015,-0.936,1.113,-1.039,2.052
2024-10-23 22:04:22.227,19785.792,0.445,0.872,-0.203,-0.005,-0.125,0.04,-2.947,-0.976,-0.947,1.143,-1.06,2.099
2024-10-23 22:04:22.237,19785.802,0.434,0.882,-0.182,-0.012,-0.082,0.028,-2.78,-0.968,-0.996,1.174,-1.08,2.146
2024-10-23 22:04:22.247,19785.812,0.424,0.891,-0.162,-0.021,-0.058,0.034,-2.648,-0.965,-1.031,1.206,-1.1,2.192
2024-10-23 22:04:22.257,19785.822,0.413,0.899,-0.143,-0.024,-0.057,0.041,-2.539,-0.958,-1.041,1.238,-1.119,2.239
2024-10-23 22:04:22.267,19785.832,0.402,0.907,-0.124,-0.03,-0.04,0.05,-2.459,-0.967,-1.072,1.271,-1.136,2.286
2024-10-23 22:04:22.277,19785.842,0.391,0.914,-0.106,-0.038,-0.031,0.05,-2.374,-0.935,-1.139,1.306,-1.154,2.335
2024-10-23 22:04:22.287,19785.852,0.38,0.921,-0.088,-0.041,-0.044,0.025,-2.326,-0.898,-1.179,1.343,-1.171,2.385
2024-10-23 22:04:22.297,19785.862,0.368,0.927,-0.07,-0.044,-0.039,-0.009,-2.296,-0.886,-1.209,1.383,-1.187,2.438
2024-10-23 22:04:22.307,19785.872,0.356,0.933,-0.052,-0.031,-0.018,-0.048,-2.171,-0.845,-1.239,1.425,-1.203,2.492
2024-10-23 22:04:22.317,19785.882,0.344,0.938,-0.036,-0.02,-0.008,-0.069,-1.96,-0.804,-1.228,1.467,-1.218,2.546
2024-10-23 22:04:22.327,19785.892,0.333,0.943,-0.021,-0.026,-0.009,-0.069,-1.705,-0.794,-1.183,1.507,-1.231,2.597
2024-10-23 22:04:22.337,19785.902,0.322,0.947,-0.009,-0.027,0.004,-0.061,-1.473,-0.79,-1.12,1.543,-1.243,2.644
2024-10-23 22:04:22.347,19785.912,0.311,0.95,0.002,-0.02,0.022,-0.062,-1.315,-0.81,-1.062,1.576,-1.254,2.687
2024-10-23 22:04:22.357,19785.922,0.301,0.953,0.011,-0.027,0.025,-0.056,-1.187,-0.81,-1.031,1.608,-1.265,2.729
2024-10-23 22:04:22.367,19785.932,0.291,0.956,0.019,-0.037,0.017,-0.036,-1.05,-0.792,-1.082,1.638,-1.274,2.768
2024-10-23 22:04:22.377,19785.942,0.281,0.959,0.026,-0.051,0.022,-0.024,-0.77,-0.745,-1.117,1.663,-1.285,2.803
2024-10-23 22:04:22.386,19785.952,0.271,0.962,0.03,-0.071,0.079,-0.021,-0.414,-0.68,-1.088,1.681,-1.295,2.829
2024-10-23 22:04:22.397,19785.962,0.261,0.965,0.03,-0.071,0.157,-0.031,-0.08,-0.661,-1.034,1.687,-1.305,2.842
2024-10-23 22:04:22.407,19785.972,0.251,0.967,0.029,-0.052,0.171,-0.051,0.037,-0.721,-0.903,1.685,-1.315,2.847
2024-10-23 22:04:22.416,19785.982,0.244,0.97,0.026,-0.038,0.145,-0.037,0.071,-0.761,-0.744,1.679,-1.323,2.848
2024-10-23 22:04:22.426,19785.992,0.237,0.971,0.024,-0.037,0.115,-0.0,0.099,-0.812,-0.611,1.67,-1.33,2.848
2024-10-23 22:04:22.437,19786.002,0.232,0.973,0.021,-0.033,0.031,0.005,0.047,-0.841,-0.55,1.661,-1.336,2.847
2024-10-23 22:04:22.447,19786.012,0.227,0.974,0.018,-0.026,-0.034,0.022,0.116,-0.931,-0.523,1.651,-1.341,2.845
2024-10-23 22:04:22.456,19786.022,0.222,0.975,0.015,-0.025,0.008,0.054,0.059,-0.802,-0.528,1.64,-1.346,2.843
2024-10-23 22:04:22.466,19786.032,0.217,0.976,0.012,-0.035,0.046,0.07,0.27,-0.645,-0.494,1.628,-1.352,2.838
2024-10-23 22:04:22.476,19786.042,0.212,0.977,0.007,-0.069,0.08,0.056,0.499,-0.647,-0.547,1.605,-1.357,2.821
2024-10-23 22:04:22.486,19786.052,0.207,0.978,0.001,-0.082,0.193,-0.06,0.565,-0.605,-0.579,1.574,-1.363,2.795
2024-10-23 22:04:22.496,19786.062,0.201,0.98,-0.006,-0.03,0.289,-0.119,0.619,-0.6,-0.527,1.539,-1.368,2.766
2024-10-23 22:04:22.506,19786.072,0.196,0.98,-0.013,-0.0,0.207,-0.109,0.519,-0.552,-0.493,1.503,-1.373,2.735
2024-10-23 22:04:22.517,19786.082,0.191,0.981,-0.018,-0.009,0.039,-0.126,0.299,-0.559,-0.512,1.475,-1.378,2.713
2024-10-23 22:04:22.526,19786.092,0.186,0.982,-0.022,-0.021,0.004,-0.121,0.178,-0.555,-0.518,1.455,-1.382,2.698
2024-10-23 22:04:22.536,19786.102,0.181,0.983,-0.024,-0.022,0.076,-0.092,0.231,-0.527,-0.517,1.436,-1.387,2.684
2024-10-23 22:04:22.546,19786.112,0.176,0.984,-0.029,-0.012,0.072,-0.069,0.494,-0.451,-0.508,1.408,-1.392,2.66
2024-10-23 22:04:22.556,19786.122,0.171,0.985,-0.036,-0.004,0.057,-0.041,0.779,-0.329,-0.467,1.364,-1.395,2.619
2024-10-23 22:04:22.567,19786.132,0.166,0.985,-0.045,0.008,0.086,-0.014,0.975,-0.202,-0.465,1.307,-1.398,2.564
2024-10-23 22:04:22.576,19786.142,0.161,0.985,-0.056,0.016,0.144,0.02,1.172,-0.144,-0.511,1.238,-1.399,2.496
2024-10-23 22:04:22.586,19786.152,0.156,0.985,-0.068,0.005,0.149,0.047,1.243,-0.149,-0.596,1.159,-1.4,2.417
2024-10-23 22:04:22.596,19786.162,0.15,0.985,-0.08,0.016,0.107,0.037,1.226,-0.176,-0.577,1.078,-1.4,2.337
2024-10-23 22:04:22.606,19786.172,0.144,0.985,-0.092,0.052,0.071,0.018,1.073,-0.229,-0.522,1.002,-1.399,2.262
2024-10-23 22:04:22.616,19786.182,0.139,0.985,-0.102,0.073,0.001,0.026,0.781,-0.283,-0.442,0.94,-1.398,2.201
2024-10-23 22:04:22.626,19786.192,0.135,0.985,-0.108,0.054,-0.069,0.057,0.43,-0.345,-0.426,0.894,-1.397,2.158
2024-10-23 22:04:22.636,19786.202,0.13,0.985,-0.112,0.004,-0.095,0.088,0.18,-0.418,-0.412,0.862,-1.399,2.129
2024-10-23 22:04:22.646,19786.212,0.126,0.986,-0.113,-0.028,-0.092,0.106,0.076,-0.466,-0.396,0.837,-1.401,2.109
2024-10-23 22:04:22.656,19786.222,0.121,0.986,-0.114,-0.012,-0.054,0.07,0.006,-0.424,-0.361,0.816,-1.403,2.091
2024-10-23 22:04:22.666,19786.232,0.118,0.986,-0.115,0.015,0.002,0.015,0.024,-0.355,-0.287,0.798,-1.406,2.077
2024-10-23 22:04:22.676,19786.242,0.115,0.987,-0.115,0.021,0.051,-0.015,-0.014,-0.278,-0.241,0.783,-1.407,2.065
2024-10-23 22:04:22.687,19786.252,0.112,0.987,-0.115,-0.002,0.054,-0.032,-0.028,-0.249,-0.196,0.772,-1.409,2.057
2024-10-23 22:04:22.696,19786.261,0.11,0.987,-0.115,-0.026,0.02,-0.044,-0.019,-0.271,-0.134,0.763,-1.41,2.05
2024-10-23 22:04:22.706,19786.271,0.109,0.987,-0.115,-0.012,-0.036,-0.034,-0.103,-0.314,-0.066,0.758,-1.411,2.048
2024-10-23 22:04:22.716,19786.281,0.108,0.988,-0.114,0.024,-0.044,-0.032,-0.126,-0.38,-0.055,0.758,-1.413,2.051
2024-10-23 22:04:22.726,19786.291,0.107,0.988,-0.114,0.038,0.048,-0.033,-0.015,-0.406,-0.029,0.754,-1.414,2.052
2024-10-23 22:04:22.736,19786.301,0.107,0.988,-0.115,0.036,0.124,-0.03,0.03,-0.377,0.082,0.751,-1.413,2.052
2024-10-23 22:04:22.746,19786.311,0.108,0.987,-0.115,0.042,0.123,-0.015,-0.006,-0.339,0.135,0.752,-1.412,2.057
2024-10-23 22:04:22.756,19786.321,0.109,0.987,-0.115,0.042,0.121,-0.014,-0.04,-0.353,0.117,0.756,-1.412,2.064
2024-10-23 22:04:22.766,19786.331,0.109,0.987,-0.116,0.039,0.148,-0.032,0.043,-0.306,0.078,0.757,-1.411,2.069
2024-10-23 22:04:22.776,19786.341,0.11,0.987,-0.117,0.048,0.175,-0.04,0.142,-0.236,0.104,0.754,-1.41,2.069
2024-10-23 22:04:22.786,19786.351,0.111,0.987,-0.119,0.06,0.171,-0.034,0.21,-0.123,0.169,0.751,-1.408,2.068
2024-10-23 22:04:22.796,19786.361,0.113,0.986,-0.121,0.069,0.145,-0.013,0.227,-0.039,0.198,0.749,-1.405,2.067
2024-10-23 22:04:22.806,19786.371,0.115,0.986,-0.123,0.074,0.097,0.02,0.196,0.03,0.178,0.749,-1.402,2.066
2024-10-23 22:04:22.816,19786.381,0.116,0.985,-0.125,0.069,0.053,0.051,0.223,0.084,0.137,0.748,-1.399,2.065
2024-10-23 22:04:22.826,19786.391,0.117,0.985,-0.128,0.052,0.051,0.059,0.315,0.102,0.119,0.744,-1.396,2.06
2024-10-23 22:04:22.836,19786.401,0.119,0.984,-0.131,0.042,0.056,0.036,0.348,0.152,0.171,0.739,-1.393,2.053
2024-10-23 22:04:22.846,19786.411,0.121,0.983,-0.135,0.043,0.05,0.02,0.555,0.218,0.147,0.731,-1.389,2.043
2024-10-23 22:04:22.856,19786.421,0.122,0.983,-0.14,0.038,0.043,0.013,0.628,0.224,0.094,0.718,-1.384,2.028
2024-10-23 22:04:22.866,19786.431,0.124,0.981,-0.147,0.011,0.026,-0.012,0.762,0.177,0.149,0.701,-1.377,2.009
2024-10-23 22:04:22.876,19786.441,0.125,0.98,-0.154,-0.011,0.028,0.014,0.837,0.212,0.056,0.682,-1.371,1.987
2024-10-23 22:04:22.886,19786.451,0.126,0.979,-0.163,-0.028,0.07,0.033,0.904,0.253,0.086,0.66,-1.363,1.962
2024-10-23 22:04:22.896,19786.461,0.128,0.977,-0.171,-0.066,0.124,0.049,0.878,0.218,0.149,0.642,-1.356,1.941
2024-10-23 22:04:22.906,19786.471,0.13,0.975,-0.179,-0.092,0.09,0.027,0.843,0.16,0.179,0.626,-1.348,1.924
2024-10-23 22:04:22.916,19786.481,0.132,0.973,-0.187,-0.076,-0.015,0.034,0.811,0.097,0.171,0.613,-1.34,1.909
2024-10-23 22:04:22.926,19786.491,0.133,0.972,-0.195,-0.046,-0.097,0.041,0.838,0.056,0.16,0.6,-1.332,1.895
2024-10-23 22:04:22.936,19786.501,0.135,0.97,-0.203,-0.038,-0.09,0.053,0.851,0.038,0.188,0.587,-1.324,1.881
2024-10-23 22:04:22.946,19786.511,0.137,0.968,-0.211,-0.047,-0.045,0.049,0.863,0.048,0.186,0.575,-1.316,1.868
2024-10-23 22:04:22.956,19786.521,0.139,0.966,-0.219,-0.043,-0.006,0.057,0.799,0.03,0.157,0.564,-1.308,1.856
2024-10-23 22:04:22.966,19786.531,0.14,0.964,-0.226,-0.03,0.008,0.05,0.662,0.051,0.148,0.555,-1.301,1.846
2024-10-23 22:04:22.976,19786.541,0.142,0.962,-0.232,-0.009,0.01,0.045,0.451,0.077,0.141,0.55,-1.296,1.84
2024-10-23 22:04:22.986,19786.551,0.143,0.961,-0.235,-0.0,-0.003,0.034,0.209,0.071,0.098,0.548,-1.292,1.838
2024-10-23 22:04:22.996,19786.561,0.144,0.961,-0.236,0.002,-0.04,0.024,-0.025,0.038,0.058,0.549,-1.291,1.838
2024-10-23 22:04:23.006,19786.571,0.145,0.961,-0.234,0.013,-0.051,0.026,-0.199,0.01,0.012,0.553,-1.292,1.842
2024-10-23 22:04:23.015,19786.581,0.145,0.962,-0.232,0.026,-0.027,0.002,-0.261,-0.003,-0.001,0.557,-1.294,1.846
2024-10-23 22:04:23.026,19786.591,0.145,0.963,-0.23,0.034,-0.002,-0.029,-0.302,-0.021,-0.003,0.562,-1.296,1.852
2024-10-23 22:04:23.036,19786.601,0.144,0.963,-0.226,0.04,0.003,-0.049,-0.311,-0.078,-0.019,0.568,-1.299,1.858
2024-10-23 22:04:23.045,19786.611,0.144,0.964,-0.223,0.04,0.003,-0.065,-0.434,-0.036,-0.039,0.573,-1.302,1.864
2024-10-23 22:04:23.056,19786.621,0.143,0.965,-0.219,0.042,0.013,-0.083,-0.461,-0.035,-0.082,0.579,-1.306,1.871
2024-10-23 22:04:23.065,19786.631,0.143,0.966,-0.215,0.039,0.047,-0.065,-0.29,-0.031,0.038,0.586,-1.309,1.879
2024-10-23 22:04:23.076,19786.641,0.143,0.967,-0.213,0.047,-0.005,-0.022,-0.27,-0.027,-0.0,0.592,-1.312,1.885
2024-10-23 22:04:23.085,19786.651,0.143,0.967,-0.21,0.096,-0.091,-0.035,-0.21,-0.006,0.031,0.598,-1.313,1.891
2024-10-23 22:04:23.095,19786.661,0.144,0.967,-0.209,0.066,0.002,-0.012,-0.163,-0.002,0.047,0.603,-1.315,1.896
2024-10-23 22:04:23.105,19786.671,0.144,0.968,-0.207,0.03,0.051,-0.018,-0.142,-0.021,0.036,0.607,-1.316,1.901
2024-10-23 22:04:23.115,19786.681,0.144,0.968,-0.206,0.036,0.007,-0.022,-0.141,-0.04,0.042,0.611,-1.317,1.905
2024-10-23 22:04:23.125,19786.691,0.145,0.968,-0.205,0.05,-0.015,-0.016,-0.121,-0.041,0.033,0.615,-1.318,1.91
2024-10-23 22:04:23.135,19786.701,0.145,0.968,-0.204,0.047,0.007,-0.012,-0.076,-0.032,0.04,0.618,-1.318,1.913
2024-10-23 22:04:23.145,19786.711,0.145,0.968,-0.203,0.022,0.026,-0.009,-0.063,-0.001,0.035,0.621,-1.318,1.916
2024-10-23 22:04:23.155,19786.721,0.146,0.968,-0.203,0.013,0.03,-0.002,-0.03,0.024,0.012,0.623,-1.318,1.918
2024-10-23 22:04:23.165,19786.731,0.146,0.968,-0.203,0.017,0.026,0.009,-0.012,0.035,0.013,0.624,-1.318,1.919
2024-10-23 22:04:23.176,19786.741,0.146,0.968,-0.202,0.014,0.02,0.006,-0.039,0.021,0.044,0.626,-1.318,1.921
2024-10-23 22:04:23.185,19786.751,0.147,0.968,-0.202,0.012,0.0,0.007,-0.057,-0.018,0.054,0.629,-1.318,1.924
2024-10-23 22:04:23.195,19786.761,0.147,0.968,-0.202,0.017,-0.033,0.015,-0.058,-0.062,0.049,0.632,-1.318,1.927
2024-10-23 22:04:23.206,19786.771,0.148,0.968,-0.201,0.018,-0.058,0.012,-0.055,-0.065,0.061,0.634,-1.318,1.93
2024-10-23 22:04:23.215,19786.781,0.149,0.968,-0.201,0.019,-0.042,0.012,-0.018,-0.037,0.077,0.637,-1.318,1.933
2024-10-23 22:04:23.225,19786.791,0.149,0.968,-0.201,0.016,-0.012,0.014,0.0,0.0,0.096,0.639,-1.318,1.936
2024-10-23 22:04:23.235,19786.801,0.15,0.968,-0.201,0.012,-0.021,0.022,-0.031,0.017,0.114,0.643,-1.317,1.94
2024-10-23 22:04:23.245,19786.811,0.151,0.968,-0.2,0.016,-0.048,0.027,-0.056,0.032,0.093,0.648,-1.317,1.945
2024-10-23 22:04:23.255,19786.821,0.152,0.968,-0.2,0.024,-0.044,0.03,-0.039,0.048,0.064,0.652,-1.317,1.948
2024-10-23 22:04:23.265,19786.831,0.153,0.968,-0.199,0.02,-0.023,0.027,-0.031,0.06,0.035,0.655,-1.317,1.951
2024-10-23 22:04:23.275,19786.841,0.153,0.968,-0.198,0.012,-0.01,0.023,-0.149,0.041,0.003,0.658,-1.317,1.953
2024-10-23 22:04:23.285,19786.851,0.154,0.968,-0.197,0.009,-0.007,0.024,-0.128,0.051,0.021,0.663,-1.319,1.958
2024-10-23 22:04:23.295,19786.86,0.154,0.969,-0.196,0.006,-0.022,0.04,-0.089,0.042,-0.013,0.666,-1.319,1.961
2024-10-23 22:04:23.305,19786.87,0.154,0.969,-0.195,0.011,-0.044,0.035,-0.12,0.06,0.01,0.669,-1.32,1.963
2024-10-23 22:04:23.315,19786.88,0.154,0.969,-0.193,0.008,-0.035,0.005,-0.1,0.095,0.009,0.673,-1.321,1.967
2024-10-23 22:04:23.325,19786.89,0.154,0.969,-0.192,0.013,-0.002,0.013,-0.159,0.092,0.002,0.677,-1.322,1.97
2024-10-23 22:04:23.335,19786.9,0.155,0.969,-0.19,0.012,-0.005,0.004,-0.133,0.094,-0.001,0.682,-1.323,1.974
2024-10-23 22:04:23.345,19786.91,0.155,0.97,-0.189,0.016,-0.013,0.008,-0.133,0.105,-0.013,0.686,-1.324,1.978
2024-10-23 22:04:23.355,19786.92,0.155,0.97,-0.187,0.02,-0.026,0.004,-0.15,0.11,-0.015,0.691,-1.325,1.981
2024-10-23 22:04:23.365,19786.93,0.155,0.97,-0.186,0.019,-0.027,-0.001,-0.111,0.139,-0.031,0.695,-1.326,1.984
2024-10-23 22:04:23.375,19786.94,0.155,0.971,-0.185,0.022,-0.018,0.013,-0.088,0.16,-0.03,0.698,-1.327,1.986
2024-10-23 22:04:23.385,19786.95,0.155,0.971,-0.183,0.018,-0.024,0.008,-0.128,0.153,-0.043,0.701,-1.328,1.988
2024-10-23 22:04:23.395,19786.96,0.155,0.971,-0.182,0.018,-0.028,0.01,-0.161,0.143,-0.046,0.705,-1.33,1.99
2024-10-23 22:04:23.405,19786.97,0.154,0.972,-0.18,0.022,-0.03,0.019,-0.246,0.128,-0.075,0.71,-1.332,1.994
2024-10-23 22:04:23.415,19786.98,0.154,0.972,-0.177,0.021,-0.032,0.026,-0.215,0.114,-0.073,0.715,-1.334,1.998
2024-10-23 22:04:23.425,19786.99,0.154,0.973,-0.175,0.024,-0.034,0.032,-0.243,0.112,-0.036,0.721,-1.336,2.003
2024-10-23 22:04:23.435,19787.0,0.154,0.973,-0.172,0.034,-0.048,0.034,-0.27,0.102,-0.045,0.728,-1.338,2.009
2024-10-23 22:04:23.445,19787.01,0.153,0.974,-0.169,0.037,-0.037,0.026,-0.283,0.114,-0.048,0.736,-1.34,2.015
2024-10-23 22:04:23.456,19787.02,0.153,0.974,-0.167,0.026,-0.017,0.026,-0.247,0.115,-0.056,0.743,-1.343,2.022
2024-10-23 22:04:23.465,19787.03,0.153,0.975,-0.164,0.021,0.0,0.018,-0.187,0.113,-0.055,0.749,-1.345,2.027
2024-10-23 22:04:23.474,19787.04,0.152,0.975,-0.163,0.024,0.013,0.011,-0.16,0.087,-0.067,0.753,-1.346,2.03
2024-10-23 22:04:23.485,19787.05,0.152,0.975,-0.161,0.028,0.011,0.012,-0.156,0.054,-0.065,0.757,-1.348,2.033
2024-10-23 22:04:23.494,19787.06,0.152,0.976,-0.159,0.028,0.0,0.022,-0.153,0.031,-0.045,0.76,-1.349,2.036
2024-10-23 22:04:23.504,19787.07,0.151,0.976,-0.158,0.026,-0.015,0.028,-0.12,-0.001,-0.045,0.764,-1.35,2.039
2024-10-23 22:04:23.514,19787.08,0.151,0.976,-0.157,0.024,-0.02,0.026,-0.071,-0.012,-0.024,0.766,-1.351,2.042
2024-10-23 22:04:23.524,19787.09,0.151,0.976,-0.157,0.023,-0.013,0.026,0.018,-0.023,-0.005,0.767,-1.351,2.043
2024-10-23 22:04:23.534,19787.1,0.151,0.976,-0.157,0.023,0.006,0.027,0.053,-0.053,-0.031,0.765,-1.351,2.041
2024-10-23 22:04:23.544,19787.11,0.151,0.976,-0.158,0.025,0.029,0.021,0.051,-0.067,-0.035,0.762,-1.351,2.039
2024-10-23 22:04:23.555,19787.12,0.15,0.976,-0.158,0.023,0.044,0.031,0.055,-0.092,-0.032,0.759,-1.351,2.037
2024-10-23 22:04:23.565,19787.13,0.15,0.976,-0.159,0.018,0.02,0.046,0.04,-0.124,-0.04,0.756,-1.351,2.035
2024-10-23 22:04:23.575,19787.14,0.149,0.976,-0.159,0.019,-0.013,0.035,0.047,-0.147,-0.033,0.753,-1.351,2.033
2024-10-23 22:04:23.585,19787.15,0.149,0.976,-0.16,0.027,0.012,0.026,0.041,-0.156,-0.037,0.749,-1.351,2.031
2024-10-23 22:04:23.594,19787.16,0.148,0.976,-0.16,0.033,0.045,0.024,0.035,-0.125,-0.005,0.747,-1.35,2.03
2024-10-23 22:04:23.604,19787.17,0.149,0.976,-0.161,0.03,0.042,0.028,0.029,-0.106,0.03,0.746,-1.35,2.03
2024-10-23 22:04:23.614,19787.18,0.149,0.976,-0.161,0.023,0.024,0.025,0.005,-0.118,0.045,0.746,-1.35,2.031
2024-10-23 22:04:23.624,19787.19,0.149,0.976,-0.161,0.024,0.014,0.034,0.006,-0.143,0.072,0.748,-1.349,2.034
2024-10-23 22:04:23.634,19787.2,0.15,0.975,-0.161,0.035,0.009,0.045,0.053,-0.159,0.103,0.749,-1.349,2.037
2024-10-23 22:04:23.644,19787.21,0.151,0.975,-0.162,0.034,0.002,0.041,0.086,-0.171,0.095,0.749,-1.348,2.039
2024-10-23 22:04:23.654,19787.22,0.151,0.975,-0.163,0.007,-0.0,0.039,0.109,-0.176,0.071,0.748,-1.346,2.039
2024-10-23 22:04:23.664,19787.23,0.152,0.975,-0.164,-0.011,0.017,0.041,0.135,-0.168,0.052,0.745,-1.345,2.038
2024-10-23 22:04:23.674,19787.24,0.152,0.974,-0.166,-0.014,0.032,0.042,0.154,-0.149,0.045,0.742,-1.344,2.036
2024-10-23 22:04:23.685,19787.25,0.152,0.974,-0.168,-0.017,0.024,0.042,0.148,-0.146,0.046,0.738,-1.342,2.033
2024-10-23 22:04:23.694,19787.26,0.153,0.974,-0.169,-0.016,0.011,0.04,0.143,-0.134,0.054,0.734,-1.341,2.031
2024-10-23 22:04:23.704,19787.27,0.153,0.973,-0.17,-0.009,-0.001,0.03,0.144,-0.125,0.053,0.731,-1.34,2.029
2024-10-23 22:04:23.715,19787.28,0.153,0.973,-0.172,-0.01,-0.016,0.017,0.153,-0.107,0.042,0.729,-1.338,2.028
2024-10-23 22:04:23.724,19787.29,0.154,0.973,-0.173,-0.014,-0.022,0.012,0.181,-0.091,0.035,0.725,-1.337,2.025
2024-10-23 22:04:23.734,19787.3,0.154,0.972,-0.175,-0.009,-0.006,0.011,0.178,-0.07,0.038,0.722,-1.336,2.022
2024-10-23 22:04:23.744,19787.31,0.154,0.972,-0.176,-0.0,0.004,0.014,0.152,-0.068,0.039,0.718,-1.334,2.019
2024-10-23 22:04:23.754,19787.32,0.154,0.972,-0.178,0.007,-0.007,0.024,0.127,-0.051,0.031,0.715,-1.333,2.017
2024-10-23 22:04:23.764,19787.33,0.154,0.972,-0.179,0.007,-0.023,0.03,0.126,-0.049,0.037,0.713,-1.332,2.015
2024-10-23 22:04:23.774,19787.34,0.155,0.971,-0.18,0.004,-0.028,0.02,0.121,-0.046,0.036,0.711,-1.331,2.013
2024-10-23 22:04:23.784,19787.35,0.155,0.971,-0.181,0.006,-0.02,0.012,0.113,-0.052,0.014,0.708,-1.331,2.011
2024-10-23 22:04:23.794,19787.36,0.155,0.971,-0.182,0.01,-0.018,0.012,0.115,-0.044,-0.0,0.705,-1.33,2.008
2024-10-23 22:04:23.804,19787.37,0.154,0.971,-0.183,-0.001,-0.023,0.012,0.116,-0.052,-0.01,0.701,-1.329,2.005
2024-10-23 22:04:23.814,19787.38,0.154,0.971,-0.184,-0.006,-0.027,0.007,0.085,-0.04,-0.014,0.698,-1.328,2.002
2024-10-23 22:04:23.824,19787.39,0.154,0.971,-0.184,0.002,-0.021,0.009,0.031,-0.021,-0.01,0.696,-1.328,2.0
2024-10-23 22:04:23.834,19787.4,0.154,0.971,-0.184,0.006,-0.017,0.016,-0.014,-0.004,-0.012,0.695,-1.328,2.0
2024-10-23 22:04:23.844,19787.41,0.154,0.971,-0.184,0.001,-0.018,0.019,-0.02,0.017,-0.011,0.696,-1.328,2.0
2024-10-23 22:04:23.854,19787.42,0.154,0.971,-0.184,-0.007,-0.019,0.015,-0.014,0.035,-0.015,0.696,-1.329,2.001
2024-10-23 22:04:23.864,19787.43,0.154,0.971,-0.184,-0.011,-0.002,0.006,-0.001,0.027,-0.016,0.697,-1.329,2.0
2024-10-23 22:04:23.874,19787.44,0.154,0.971,-0.184,-0.007,0.011,-0.0,-0.002,0.034,-0.013,0.697,-1.329,2.0
2024-10-23 22:04:23.884,19787.449,0.154,0.971,-0.184,0.002,0.006,-0.009,0.003,0.037,-0.021,0.697,-1.329,2.0
2024-10-23 22:04:23.894,19787.459,0.153,0.971,-0.184,0.008,-0.004,-0.01,-0.004,0.058,-0.028,0.696,-1.329,1.999
2024-10-23 22:04:23.904,19787.469,0.153,0.971,-0.183,0.008,-0.002,-0.011,-0.023,0.055,-0.028,0.696,-1.33,1.998
2024-10-23 22:04:23.914,19787.479,0.153,0.971,-0.183,0.011,0.009,-0.015,-0.056,0.055,-0.027,0.697,-1.33,1.999
2024-10-23 22:04:23.924,19787.489,0.153,0.971,-0.182,0.021,0.013,-0.023,-0.088,0.058,-0.038,0.699,-1.331,2.0
2024-10-23 22:04:23.934,19787.499,0.153,0.972,-0.181,0.026,0.002,-0.026,-0.11,0.068,-0.037,0.701,-1.332,2.002
2024-10-23 22:04:23.944,19787.509,0.152,0.972,-0.18,0.028,-0.001,-0.027,-0.108,0.082,-0.039,0.704,-1.333,2.003
2024-10-23 22:04:23.954,19787.519,0.152,0.972,-0.178,0.031,0.006,-0.025,-0.122,0.092,-0.031,0.706,-1.334,2.005
2024-10-23 22:04:23.964,19787.529,0.152,0.972,-0.177,0.031,0.001,-0.02,-0.152,0.091,-0.028,0.71,-1.335,2.008
2024-10-23 22:04:23.974,19787.539,0.152,0.973,-0.175,0.034,-0.008,-0.012,-0.171,0.084,-0.046,0.714,-1.337,2.011
2024-10-23 22:04:23.983,19787.549,0.152,0.973,-0.174,0.038,-0.013,0.006,-0.167,0.082,-0.048,0.718,-1.338,2.014
2024-10-23 22:04:23.993,19787.559,0.151,0.973,-0.172,0.035,-0.013,0.016,-0.144,0.079,-0.048,0.721,-1.34,2.017
2024-10-23 22:04:24.003,19787.569,0.151,0.974,-0.171,0.035,-0.013,0.022,-0.124,0.075,-0.052,0.724,-1.341,2.02
2024-10-23 22:04:24.013,19787.579,0.151,0.974,-0.17,0.034,-0.014,0.029,-0.075,0.076,-0.057,0.726,-1.342,2.021
2024-10-23 22:04:24.023,19787.589,0.151,0.974,-0.169,0.03,-0.01,0.036,-0.027,0.075,-0.061,0.727,-1.342,2.02
2024-10-23 22:04:24.033,19787.599,0.15,0.974,-0.169,0.025,-0.006,0.034,0.002,0.07,-0.054,0.726,-1.343,2.019
2024-10-23 22:04:24.044,19787.609,0.15,0.974,-0.169,0.02,-0.007,0.032,-0.007,0.062,-0.052,0.725,-1.343,2.017
2024-10-23 22:04:24.054,19787.619,0.149,0.974,-0.169,0.022,-0.016,0.033,-0.027,0.052,-0.057,0.724,-1.343,2.016
2024-10-23 22:04:24.064,19787.629,0.149,0.974,-0.168,0.023,-0.024,0.039,-0.054,0.043,-0.053,0.724,-1.344,2.015
2024-10-23 22:04:24.074,19787.639,0.149,0.975,-0.168,0.019,-0.025,0.038,-0.056,0.041,-0.057,0.725,-1.345,2.016
2024-10-23 22:04:24.084,19787.649,0.148,0.975,-0.167,0.017,-0.022,0.035,-0.059,0.035,-0.057,0.725,-1.345,2.016
2024-10-23 22:04:24.094,19787.659,0.148,0.975,-0.167,0.014,-0.017,0.032,-0.064,0.029,-0.06,0.726,-1.346,2.016
2024-10-23 22:04:24.104,19787.669,0.147,0.975,-0.166,0.014,-0.009,0.031,-0.071,0.023,-0.062,0.727,-1.347,2.017
2024-10-23 22:04:24.114,19787.679,0.147,0.975,-0.165,0.015,-0.006,0.029,-0.068,0.016,-0.062,0.728,-1.348,2.017
2024-10-23 22:04:24.123,19787.689,0.146,0.975,-0.164,0.013,-0.012,0.021,-0.053,0.009,-0.065,0.728,-1.349,2.018
2024-10-23 22:04:24.133,19787.699,0.146,0.976,-0.164,0.012,-0.015,0.015,-0.031,0.003,-0.06,0.728,-1.35,2.017
2024-10-23 22:04:24.143,19787.709,0.145,0.976,-0.163,0.017,-0.008,0.013,-0.015,0.004,-0.054,0.727,-1.35,2.017
2024-10-23 22:04:24.153,19787.719,0.145,0.976,-0.163,0.017,0.002,0.014,-0.007,0.004,-0.057,0.727,-1.351,2.016
2024-10-23 22:04:24.164,19787.729,0.145,0.976,-0.163,0.015,0.011,0.019,-0.008,0.001,-0.053,0.726,-1.351,2.014
2024-10-23 22:04:24.173,19787.739,0.144,0.976,-0.163,0.012,0.012,0.018,-0.003,0.004,-0.043,0.725,-1.352,2.014
2024-10-23 22:04:24.183,19787.749,0.144,0.976,-0.163,0.011,0.011,0.012,0.007,0.009,-0.033,0.724,-1.352,2.013
2024-10-23 22:04:24.193,19787.759,0.144,0.976,-0.163,0.01,0.015,0.006,-0.003,0.009,-0.027,0.724,-1.352,2.012
2024-10-23 22:04:24.204,19787.769,0.144,0.976,-0.162,0.01,0.022,-0.0,-0.02,0.005,-0.023,0.724,-1.352,2.012
2024-10-23 22:04:24.214,19787.779,0.143,0.976,-0.162,0.014,0.028,-0.002,-0.016,0.008,-0.019,0.724,-1.353,2.013
2024-10-23 22:04:24.224,19787.789,0.143,0.976,-0.162,0.01,0.024,-0.001,-0.013,0.011,-0.014,0.725,-1.353,2.013
2024-10-23 22:04:24.234,19787.799,0.143,0.976,-0.162,0.004,0.018,-0.001,-0.012,0.02,-0.003,0.725,-1.353,2.013
2024-10-23 22:04:24.244,19787.809,0.144,0.976,-0.162,0.004,0.02,0.001,-0.016,0.016,0.005,0.726,-1.353,2.014
2024-10-23 22:04:24.254,19787.819,0.144,0.976,-0.161,0.006,0.016,0.007,-0.014,-0.0,0.012,0.728,-1.353,2.015
2024-10-23 22:04:24.264,19787.829,0.144,0.976,-0.161,0.005,0.008,0.017,0.016,0.012,0.021,0.728,-1.353,2.016
2024-10-23 22:04:24.273,19787.839,0.144,0.976,-0.161,0.005,0.006,0.028,0.02,0.016,0.031,0.729,-1.353,2.017
2024-10-23 22:04:24.283,19787.849,0.145,0.976,-0.162,0.007,0.008,0.033,0.013,0.003,0.032,0.73,-1.352,2.017
2024-10-23 22:04:24.293,19787.859,0.145,0.976,-0.162,0.005,0.013,0.03,0.011,-0.009,0.025,0.731,-1.352,2.018
2024-10-23 22:04:24.303,19787.869,0.145,0.976,-0.162,0.004,0.006,0.027,0.024,-0.009,0.021,0.731,-1.352,2.018
2024-10-23 22:04:24.313,19787.879,0.145,0.976,-0.162,0.008,-0.004,0.021,0.048,-0.006,0.018,0.73,-1.351,2.018
2024-10-23 22:04:24.323,19787.889,0.145,0.976,-0.163,0.007,0.003,0.014,0.056,-0.008,0.015,0.729,-1.351,2.017
2024-10-23 22:04:24.333,19787.899,0.146,0.976,-0.163,0.006,0.006,0.009,0.067,-0.009,0.018,0.728,-1.35,2.016
2024-10-23 22:04:24.343,19787.909,0.146,0.976,-0.164,0.006,-0.003,0.007,0.068,-0.009,0.025,0.727,-1.35,2.015
2024-10-23 22:04:24.353,19787.919,0.146,0.976,-0.164,0.01,-0.011,0.005,0.067,-0.013,0.02,0.726,-1.349,2.014
2024-10-23 22:04:24.363,19787.929,0.146,0.975,-0.165,0.013,-0.006,0.005,0.066,-0.019,0.019,0.725,-1.349,2.013
2024-10-23 22:04:24.373,19787.939,0.146,0.975,-0.165,0.015,0.0,0.002,0.06,-0.026,0.018,0.724,-1.348,2.012
2024-10-23 22:04:24.383,19787.949,0.146,0.975,-0.166,0.017,-0.004,0.003,0.057,-0.021,0.01,0.723,-1.348,2.011
2024-10-23 22:04:24.393,19787.959,0.146,0.975,-0.166,0.017,-0.008,0.009,0.051,-0.022,0.013,0.722,-1.347,2.01
2024-10-23 22:04:24.403,19787.969,0.147,0.975,-0.167,0.019,-0.014,0.013,0.03,-0.029,0.005,0.721,-1.347,2.01
2024-10-23 22:04:24.413,19787.979,0.147,0.975,-0.167,0.019,-0.01,0.015,0.029,-0.023,-0.009,0.72,-1.347,2.009
2024-10-23 22:04:24.423,19787.989,0.146,0.975,-0.167,0.015,-0.004,0.018,0.024,-0.019,-0.007,0.719,-1.347,2.008
2024-10-23 22:04:24.433,19787.999,0.146,0.975,-0.167,0.009,-0.008,0.011,0.01,-0.007,-0.009,0.718,-1.347,2.008
2024-10-23 22:04:24.443,19788.009,0.146,0.975,-0.168,0.012,-0.011,0.009,0.004,-0.008,-0.013,0.718,-1.347,2.007
2024-10-23 22:04:24.453,19788.019,0.146,0.975,-0.168,0.016,-0.014,0.01,0.003,-0.006,-0.011,0.718,-1.347,2.007
2024-10-23 22:04:24.463,19788.029,0.146,0.975,-0.168,0.016,-0.017,0.01,0.009,-0.006,-0.004,0.717,-1.347,2.007
2024-10-23 22:04:24.473,19788.038,0.146,0.975,-0.168,0.015,-0.019,0.008,0.001,-0.01,-0.007,0.717,-1.347,2.007
2024-10-23 22:04:24.483,19788.048,0.146,0.975,-0.168,0.013,-0.015,0.006,-0.0,-0.012,-0.016,0.717,-1.347,2.007
2024-10-23 22:04:24.493,19788.058,0.146,0.975,-0.168,0.012,-0.011,0.007,0.0,-0.012,-0.021,0.717,-1.347,2.007
2024-10-23 22:04:24.503,19788.068,0.146,0.975,-0.167,0.007,-0.009,0.009,-0.006,-0.011,-0.02,0.717,-1.347,2.006
2024-10-23 22:04:24.513,19788.078,0.146,0.975,-0.167,0.01,-0.011,0.01,-0.026,-0.024,-0.025,0.717,-1.347,2.007
2024-10-23 22:04:24.523,19788.088,0.145,0.975,-0.167,0.009,-0.005,0.014,-0.035,-0.021,-0.023,0.717,-1.347,2.007
2024-10-23 22:04:24.533,19788.098,0.145,0.975,-0.167,0.008,0.004,0.014,-0.028,-0.006,-0.018,0.717,-1.348,2.007
2024-10-23 22:04:24.543,19788.108,0.145,0.975,-0.166,0.009,-0.002,0.017,-0.011,0.002,-0.019,0.717,-1.348,2.008
2024-10-23 22:04:24.553,19788.118,0.145,0.975,-0.166,0.006,-0.0,0.019,-0.006,0.009,-0.013,0.717,-1.348,2.008
2024-10-23 22:04:24.563,19788.128,0.145,0.975,-0.166,0.007,0.009,0.014,0.004,0.001,-0.016,0.717,-1.348,2.008
2024-10-23 22:04:24.573,19788.138,0.145,0.975,-0.166,0.013,0.01,0.01,0.006,-0.008,-0.016,0.717,-1.348,2.007
2024-10-23 22:04:24.583,19788.148,0.145,0.975,-0.166,0.016,0.002,0.005,-0.008,-0.014,-0.013,0.716,-1.348,2.007
2024-10-23 22:04:24.593,19788.158,0.145,0.975,-0.166,0.016,0.002,0.003,-0.006,-0.005,-0.01,0.716,-1.349,2.007
2024-10-23 22:04:24.603,19788.168,0.145,0.975,-0.166,0.017,0.01,0.01,0.007,0.007,-0.008,0.716,-1.349,2.007
2024-10-23 22:04:24.613,19788.178,0.145,0.975,-0.166,0.012,0.01,0.019,0.0,0.013,0.001,0.716,-1.349,2.007
2024-10-23 22:04:24.623,19788.188,0.145,0.975,-0.166,0.01,0.012,0.017,0.011,0.009,0.002,0.717,-1.349,2.007
2024-10-23 22:04:24.633,19788.198,0.145,0.975,-0.166,0.015,0.016,0.017,0.023,0.004,0.001,0.717,-1.349,2.007
2024-10-23 22:04:24.643,19788.208,0.145,0.975,-0.166,0.012,0.001,0.022,0.043,-0.007,0.003,0.716,-1.348,2.006
2024-10-23 22:04:24.653,19788.218,0.145,0.975,-0.167,0.012,-0.009,0.02,0.07,-0.009,0.007,0.715,-1.348,2.005
2024-10-23 22:04:24.663,19788.228,0.145,0.975,-0.168,0.015,-0.006,0.015,0.086,-0.006,0.003,0.713,-1.347,2.003
2024-10-23 22:04:24.673,19788.238,0.145,0.975,-0.169,0.014,-0.004,0.015,0.086,-0.007,-0.003,0.711,-1.346,2.001
2024-10-23 22:04:24.682,19788.248,0.145,0.975,-0.169,0.007,-0.001,0.012,0.084,-0.013,0.002,0.709,-1.346,1.999
2024-10-23 22:04:24.692,19788.258,0.145,0.975,-0.17,0.009,0.002,0.009,0.058,-0.02,0.001,0.707,-1.345,1.997
2024-10-23 22:04:24.702,19788.268,0.145,0.975,-0.17,0.014,-0.002,0.01,0.027,-0.021,-0.006,0.706,-1.345,1.996
2024-10-23 22:04:24.712,19788.278,0.145,0.975,-0.17,0.012,-0.007,0.012,-0.001,-0.018,-0.008,0.705,-1.345,1.996
2024-10-23 22:04:24.722,19788.288,0.145,0.975,-0.17,0.008,-0.006,0.013,-0.014,-0.018,-0.006,0.705,-1.345,1.996
2024-10-23 22:04:24.733,19788.298,0.145,0.975,-0.17,0.009,-0.008,0.014,-0.02,-0.017,-0.013,0.706,-1.345,1.997
2024-10-23 22:04:24.743,19788.308,0.145,0.975,-0.17,0.009,-0.01,0.015,-0.016,-0.015,-0.014,0.706,-1.346,1.997
2024-10-23 22:04:24.752,19788.318,0.145,0.975,-0.17,0.007,-0.009,0.018,-0.01,-0.015,-0.016,0.706,-1.346,1.997
2024-10-23 22:04:24.762,19788.328,0.145,0.975,-0.17,0.005,-0.006,0.018,-0.006,-0.018,-0.014,0.706,-1.346,1.997
2024-10-23 22:04:24.772,19788.338,0.144,0.975,-0.17,0.007,-0.006,0.013,0.006,-0.015,-0.015,0.706,-1.346,1.997
2024-10-23 22:04:24.782,19788.348,0.144,0.975,-0.17,0.005,-0.001,0.011,0.009,-0.007,-0.01,0.705,-1.346,1.997
2024-10-23 22:04:24.792,19788.358,0.144,0.975,-0.17,0.002,0.0,0.01,0.005,-0.012,-0.011,0.705,-1.346,1.996
2024-10-23 22:04:24.803,19788.368,0.144,0.975,-0.17,0.004,0.001,0.006,0.01,-0.01,-0.004,0.704,-1.346,1.996
2024-10-23 22:04:24.812,19788.378,0.144,0.975,-0.17,0.01,-0.001,0.006,0.013,-0.012,-0.01,0.704,-1.346,1.996
2024-10-23 22:04:24.823,19788.388,0.144,0.975,-0.17,0.013,-0.006,0.006,0.012,-0.004,-0.008,0.703,-1.346,1.995
2024-10-23 22:04:24.832,19788.398,0.144,0.975,-0.17,0.014,-0.003,0.007,0.01,-0.002,-0.008,0.703,-1.346,1.995
2024-10-23 22:04:24.842,19788.408,0.144,0.975,-0.17,0.01,0.0,0.012,0.002,-0.001,-0.004,0.703,-1.346,1.995
2024-10-23 22:04:24.852,19788.418,0.144,0.975,-0.17,0.008,0.0,0.013,-0.001,-0.004,-0.005,0.703,-1.346,1.995
2024-10-23 22:04:24.863,19788.428,0.144,0.975,-0.17,0.01,-0.001,0.012,0.003,-0.008,-0.003,0.703,-1.346,1.995
2024-10-23 22:04:24.872,19788.438,0.144,0.975,-0.17,0.011,-0.006,0.009,0.008,-0.008,-0.004,0.703,-1.346,1.995
2024-10-23 22:04:24.881,19788.448,0.144,0.975,-0.17,0.01,-0.006,0.011,0.016,-0.007,0.0,0.702,-1.346,1.995
2024-10-23 22:04:24.892,19788.458,0.144,0.975,-0.17,0.008,0.0,0.011,0.028,-0.014,-0.005,0.702,-1.346,1.994
2024-10-23 22:04:24.902,19788.468,0.144,0.975,-0.171,0.008,0.007,0.011,0.048,-0.018,-0.001,0.701,-1.346,1.993
2024-10-23 22:04:24.912,19788.478,0.144,0.975,-0.171,0.009,0.008,0.008,0.064,-0.012,0.009,0.699,-1.345,1.992
2024-10-23 22:04:24.922,19788.488,0.144,0.975,-0.172,0.007,0.007,0.004,0.061,-0.01,0.01,0.698,-1.345,1.991
2024-10-23 22:04:24.932,19788.498,0.144,0.974,-0.172,0.007,0.006,0.005,0.038,-0.009,0.014,0.697,-1.344,1.99
2024-10-23 22:04:24.942,19788.508,0.144,0.974,-0.173,0.008,0.003,0.007,0.025,-0.011,0.008,0.697,-1.344,1.99
2024-10-23 22:04:24.952,19788.518,0.145,0.974,-0.173,0.01,-0.003,0.012,0.017,-0.009,0.006,0.697,-1.344,1.989
2024-10-23 22:04:24.962,19788.528,0.145,0.974,-0.173,0.009,-0.007,0.014,0.012,-0.009,0.007,0.697,-1.343,1.989
2024-10-23 22:04:24.972,19788.538,0.145,0.974,-0.173,0.008,-0.009,0.009,0.004,-0.006,0.005,0.697,-1.343,1.99
2024-10-23 22:04:24.982,19788.548,0.145,0.974,-0.173,0.009,-0.003,0.009,0.005,-0.002,0.004,0.697,-1.343,1.99
2024-10-23 22:04:24.993,19788.558,0.145,0.974,-0.173,0.008,-0.0,0.008,0.005,-0.0,0.01,0.697,-1.343,1.99
2024-10-23 22:04:25.002,19788.568,0.145,0.974,-0.173,0.006,-0.002,0.008,-0.002,-0.006,0.006,0.697,-1.343,1.99
2024-10-23 22:04:25.012,19788.578,0.145,0.974,-0.173,0.007,-0.004,0.01,0.002,-0.002,0.004,0.698,-1.343,1.991
2024-10-23 22:04:25.022,19788.588,0.145,0.974,-0.173,0.009,-0.004,0.013,0.006,-0.0,0.002,0.698,-1.343,1.991
2024-10-23 22:04:25.032,19788.598,0.145,0.974,-0.173,0.008,-0.006,0.013,0.011,-0.001,-0.001,0.698,-1.343,1.991
2024-10-23 22:04:25.042,19788.608,0.145,0.974,-0.173,0.007,-0.005,0.013,0.016,-0.002,-0.001,0.698,-1.343,1.991
2024-10-23 22:04:25.052,19788.618,0.145,0.974,-0.173,0.008,-0.007,0.016,0.005,-0.002,-0.001,0.697,-1.343,1.99
2024-10-23 22:04:25.062,19788.627,0.145,0.974,-0.173,0.008,-0.009,0.013,-0.001,-0.004,-0.009,0.697,-1.343,1.99
2024-10-23 22:04:25.072,19788.637,0.145,0.974,-0.173,0.008,-0.009,0.013,-0.008,-0.004,-0.009,0.697,-1.343,1.99
2024-10-23 22:04:25.082,19788.647,0.145,0.974,-0.173,0.007,-0.009,0.013,-0.012,-0.003,-0.009,0.697,-1.343,1.991
2024-10-23 22:04:25.092,19788.657,0.145,0.974,-0.173,0.007,-0.006,0.01,-0.01,-0.004,-0.01,0.698,-1.343,1.991
2024-10-23 22:04:25.102,19788.667,0.145,0.974,-0.173,0.011,-0.004,0.007,-0.009,-0.009,-0.012,0.698,-1.343,1.991
2024-10-23 22:04:25.112,19788.677,0.145,0.974,-0.173,0.01,-0.005,0.005,0.003,-0.004,-0.013,0.697,-1.344,1.991
2024-10-23 22:04:25.122,19788.687,0.145,0.974,-0.173,0.01,-0.002,0.005,0.011,0.0,-0.01,0.697,-1.344,1.99
2024-10-23 22:04:25.132,19788.697,0.145,0.974,-0.173,0.009,0.001,0.004,0.014,0.002,-0.011,0.697,-1.344,1.99
2024-10-23 22:04:25.142,19788.707,0.144,0.974,-0.173,0.009,0.002,0.003,0.013,-0.0,-0.01,0.696,-1.344,1.989
2024-10-23 22:04:25.152,19788.717,0.144,0.974,-0.173,0.008,0.002,0.004,0.007,0.007,-0.007,0.696,-1.344,1.989
2024-10-23 22:04:25.162,19788.727,0.144,0.974,-0.173,0.008,0.004,0.008,0.006,0.002,-0.005,0.696,-1.344,1.989
2024-10-23 22:04:25.172,19788.737,0.144,0.974,-0.173,0.008,0.003,0.006,0.023,-0.005,0.002,0.695,-1.343,1.988
2024-10-23 22:04:25.182,19788.747,0.144,0.974,-0.173,0.007,-0.002,0.008,0.032,0.014,0.001,0.695,-1.343,1.988
2024-10-23 22:04:25.192,19788.757,0.145,0.974,-0.174,0.009,-0.004,0.014,0.028,0.013,0.004,0.694,-1.343,1.987
2024-10-23 22:04:25.202,19788.767,0.145,0.974,-0.174,0.007,0.006,0.017,-0.0,0.009,-0.002,0.694,-1.343,1.987
2024-10-23 22:04:25.212,19788.777,0.145,0.974,-0.174,0.005,0.006,0.016,-0.012,-0.004,-0.005,0.694,-1.343,1.987
2024-10-23 22:04:25.222,19788.787,0.145,0.974,-0.174,0.011,-0.01,0.016,0.019,0.001,-0.002,0.694,-1.343,1.987
2024-10-23 22:04:25.232,19788.797,0.145,0.974,-0.174,0.014,-0.017,0.013,0.057,0.006,0.0,0.694,-1.343,1.986
2024-10-23 22:04:25.242,19788.807,0.145,0.974,-0.174,0.01,-0.003,0.008,0.052,0.002,0.005,0.692,-1.342,1.985
2024-10-23 22:04:25.252,19788.817,0.145,0.974,-0.175,0.008,0.011,0.008,0.029,0.002,0.001,0.691,-1.342,1.984
2024-10-23 22:04:25.262,19788.827,0.145,0.974,-0.175,0.012,0.01,0.015,0.021,0.005,0.002,0.691,-1.342,1.983
2024-10-23 22:04:25.272,19788.837,0.145,0.974,-0.175,0.01,-0.001,0.02,0.019,0.005,0.011,0.691,-1.342,1.983
2024-10-23 22:04:25.282,19788.847,0.145,0.974,-0.175,0.006,-0.005,0.019,0.015,0.004,0.013,0.691,-1.341,1.983
2024-10-23 22:04:25.292,19788.857,0.145,0.974,-0.175,0.006,-0.003,0.015,0.022,0.001,0.008,0.691,-1.341,1.984
2024-10-23 22:04:25.302,19788.867,0.145,0.974,-0.176,0.007,-0.001,0.013,0.029,0.003,0.009,0.691,-1.341,1.983
2024-10-23 22:04:25.312,19788.877,0.145,0.974,-0.176,0.006,-0.003,0.009,0.041,0.004,0.011,0.691,-1.341,1.983
2024-10-23 22:04:25.322,19788.887,0.146,0.974,-0.176,0.006,-0.002,0.005,0.049,-0.0,0.011,0.69,-1.34,1.982
2024-10-23 22:04:25.332,19788.897,0.146,0.973,-0.177,0.005,0.001,0.004,0.033,0.002,0.008,0.689,-1.34,1.982
2024-10-23 22:04:25.342,19788.907,0.146,0.973,-0.177,0.005,0.002,0.006,0.026,0.003,0.009,0.689,-1.34,1.981
2024-10-23 22:04:25.352,19788.917,0.146,0.973,-0.177,0.006,-0.0,0.009,0.013,0.016,0.011,0.689,-1.339,1.981
2024-10-23 22:04:25.362,19788.927,0.146,0.973,-0.177,0.005,-0.01,0.013,0.024,0.029,0.015,0.69,-1.339,1.981
2024-10-23 22:04:25.371,19788.937,0.146,0.973,-0.177,0.004,-0.006,0.014,0.004,0.036,0.016,0.69,-1.339,1.982
2024-10-23 22:04:25.382,19788.947,0.146,0.973,-0.177,0.005,-0.003,0.014,0.023,0.027,0.011,0.691,-1.339,1.982
2024-10-23 22:04:25.392,19788.957,0.147,0.973,-0.177,0.011,-0.001,0.016,0.067,0.037,0.014,0.69,-1.338,1.981
2024-10-23 22:04:25.401,19788.967,0.147,0.973,-0.178,0.009,-0.007,0.02,0.089,0.025,0.031,0.69,-1.338,1.98
2024-10-23 22:04:25.411,19788.977,0.147,0.973,-0.179,0.01,-0.011,0.015,0.098,0.03,0.011,0.688,-1.337,1.978
2024-10-23 22:04:25.422,19788.987,0.147,0.973,-0.18,0.012,0.0,0.017,0.055,0.031,0.014,0.687,-1.336,1.977
2024-10-23 22:04:25.431,19788.997,0.147,0.973,-0.18,0.004,0.001,0.014,0.031,0.003,-0.01,0.686,-1.336,1.976
2024-10-23 22:04:25.442,19789.007,0.147,0.972,-0.18,-0.001,0.001,0.014,0.045,-0.011,-0.0,0.685,-1.336,1.975
2024-10-23 22:04:25.452,19789.017,0.147,0.972,-0.181,0.004,-0.012,0.011,0.048,-0.015,0.018,0.684,-1.335,1.974
2024-10-23 22:04:25.462,19789.027,0.148,0.972,-0.181,0.012,-0.015,0.007,0.033,-0.019,0.013,0.683,-1.335,1.973
2024-10-23 22:04:25.471,19789.037,0.148,0.972,-0.181,0.01,-0.001,0.005,0.003,-0.025,0.004,0.683,-1.335,1.973
2024-10-23 22:04:25.482,19789.047,0.148,0.972,-0.181,0.004,0.004,0.008,-0.005,-0.037,-0.002,0.683,-1.335,1.974
2024-10-23 22:04:25.491,19789.057,0.148,0.972,-0.181,0.006,0.001,0.006,-0.004,-0.035,0.0,0.683,-1.335,1.974
2024-10-23 22:04:25.502,19789.067,0.148,0.972,-0.181,0.009,-0.003,0.005,0.003,-0.024,0.002,0.683,-1.335,1.974
2024-10-23 22:04:25.512,19789.077,0.148,0.972,-0.181,0.005,0.002,0.008,0.004,-0.02,-0.006,0.683,-1.335,1.974
2024-10-23 22:04:25.521,19789.087,0.148,0.972,-0.181,0.003,0.005,0.013,0.008,-0.021,-0.004,0.683,-1.335,1.974
2024-10-23 22:04:25.531,19789.097,0.147,0.972,-0.181,0.005,-0.001,0.016,0.008,-0.025,-0.004,0.682,-1.335,1.974
2024-10-23 22:04:25.541,19789.107,0.147,0.972,-0.182,0.01,-0.007,0.015,0.008,-0.019,-0.009,0.682,-1.335,1.974
2024-10-23 22:04:25.551,19789.117,0.147,0.972,-0.182,0.014,-0.004,0.015,0.008,-0.022,-0.009,0.681,-1.335,1.973
2024-10-23 22:04:25.561,19789.127,0.147,0.972,-0.182,0.011,0.002,0.014,0.003,-0.013,-0.006,0.681,-1.335,1.973
2024-10-23 22:04:25.571,19789.137,0.147,0.972,-0.182,0.01,-0.0,0.012,-0.003,-0.02,-0.008,0.68,-1.335,1.973
2024-10-23 22:04:25.581,19789.147,0.147,0.972,-0.182,0.01,-0.003,0.011,-0.009,-0.016,-0.007,0.68,-1.335,1.973
2024-10-23 22:04:25.591,19789.157,0.147,0.972,-0.182,0.01,0.002,0.009,-0.02,-0.011,-0.005,0.68,-1.335,1.973
2024-10-23 22:04:25.601,19789.167,0.147,0.972,-0.181,0.01,0.003,0.005,-0.017,-0.005,0.0,0.681,-1.335,1.974
2024-10-23 22:04:25.611,19789.177,0.147,0.972,-0.181,0.008,0.002,0.005,-0.004,-0.003,0.004,0.681,-1.335,1.974
2024-10-23 22:04:25.621,19789.187,0.147,0.972,-0.181,0.005,-0.002,0.006,-0.002,-0.003,0.005,0.682,-1.335,1.975
2024-10-23 22:04:25.631,19789.197,0.147,0.972,-0.181,0.004,-0.008,0.007,0.001,-0.002,0.002,0.682,-1.335,1.975
2024-10-23 22:04:25.641,19789.207,0.147,0.972,-0.181,0.004,-0.004,0.009,-0.011,-0.007,0.005,0.683,-1.335,1.975
2024-10-23 22:04:25.651,19789.216,0.147,0.972,-0.181,0.002,-0.003,0.008,-0.027,-0.006,-0.0,0.683,-1.335,1.976
2024-10-23 22:04:25.661,19789.226,0.147,0.972,-0.181,0.003,-0.008,0.01,-0.021,-0.001,0.005,0.684,-1.336,1.977
2024-10-23 22:04:25.671,19789.236,0.147,0.972,-0.18,0.004,-0.009,0.011,-0.005,0.001,0.003,0.685,-1.336,1.978
2024-10-23 22:04:25.681,19789.246,0.147,0.972,-0.18,0.004,-0.008,0.01,0.006,-0.001,-0.0,0.685,-1.336,1.978
2024-10-23 22:04:25.691,19789.256,0.147,0.972,-0.181,0.006,-0.006,0.013,0.018,0.0,-0.0,0.685,-1.336,1.977
2024-10-23 22:04:25.701,19789.266,0.147,0.972,-0.181,0.008,0.001,0.011,0.011,0.002,0.004,0.684,-1.335,1.977
2024-10-23 22:04:25.711,19789.276,0.147,0.972,-0.181,0.007,0.002,0.007,0.008,0.0,0.006,0.684,-1.335,1.977
2024-10-23 22:04:25.721,19789.286,0.148,0.972,-0.181,0.008,0.0,0.006,0.01,-0.001,0.006,0.684,-1.335,1.977
2024-10-23 22:04:25.731,19789.296,0.148,0.972,-0.181,0.011,-0.0,0.003,0.017,-0.0,0.005,0.684,-1.335,1.977
2024-10-23 22:04:25.741,19789.306,0.148,0.972,-0.181,0.012,0.002,0.005,0.013,-0.004,0.001,0.684,-1.335,1.977
2024-10-23 22:04:25.751,19789.316,0.148,0.972,-0.181,0.01,0.004,0.005,0.011,-0.003,0.003,0.684,-1.335,1.977
2024-10-23 22:04:25.761,19789.326,0.148,0.972,-0.181,0.013,0.003,0.006,0.002,-0.001,0.003,0.684,-1.335,1.977
2024-10-23 22:04:25.771,19789.336,0.148,0.972,-0.181,0.012,-0.002,0.007,-0.012,0.003,0.003,0.684,-1.335,1.977
2024-10-23 22:04:25.781,19789.346,0.148,0.972,-0.181,0.009,-0.006,0.009,-0.014,0.002,0.001,0.685,-1.335,1.978
2024-10-23 22:04:25.791,19789.356,0.148,0.972,-0.181,0.008,-0.005,0.01,-0.01,0.015,0.004,0.685,-1.335,1.978
2024-10-23 22:04:25.801,19789.366,0.148,0.972,-0.181,0.006,-0.005,0.012,-0.01,0.014,0.001,0.686,-1.335,1.979
2024-10-23 22:04:25.811,19789.376,0.148,0.972,-0.181,0.006,-0.003,0.012,0.012,0.012,0.001,0.686,-1.335,1.979
2024-10-23 22:04:25.821,19789.386,0.148,0.972,-0.181,0.005,0.001,0.013,0.006,0.004,0.004,0.686,-1.335,1.979
2024-10-23 22:04:25.831,19789.396,0.148,0.972,-0.181,0.006,-0.008,0.012,0.009,0.004,0.001,0.686,-1.335,1.979
2024-10-23 22:04:25.841,19789.406,0.148,0.972,-0.181,0.008,-0.006,0.01,0.01,0.009,-0.001,0.686,-1.335,1.979
2024-10-23 22:04:25.851,19789.416,0.148,0.972,-0.181,0.004,0.0,0.009,0.013,0.007,-0.001,0.686,-1.335,1.978
2024-10-23 22:04:25.861,19789.426,0.148,0.972,-0.181,0.002,0.002,0.006,0.014,0.001,-0.001,0.686,-1.335,1.978
2024-10-23 22:04:25.871,19789.436,0.148,0.972,-0.181,0.005,-0.001,0.006,-0.002,0.003,-0.005,0.686,-1.335,1.978
2024-10-23 22:04:25.881,19789.446,0.148,0.972,-0.181,0.006,-0.004,0.005,-0.002,0.002,-0.005,0.686,-1.335,1.978
2024-10-23 22:04:25.891,19789.456,0.148,0.972,-0.181,0.004,-0.004,0.007,-0.014,0.005,-0.005,0.686,-1.335,1.978
2024-10-23 22:04:25.901,19789.466,0.148,0.972,-0.181,0.005,-0.009,0.007,-0.021,0.001,-0.009,0.687,-1.335,1.979
2024-10-23 22:04:25.911,19789.476,0.148,0.972,-0.181,0.009,-0.009,0.008,-0.008,0.007,-0.008,0.687,-1.335,1.979
2024-10-23 22:04:25.921,19789.486,0.148,0.972,-0.18,0.005,-0.004,0.008,-0.008,0.011,-0.0,0.687,-1.335,1.979
2024-10-23 22:04:25.931,19789.496,0.148,0.972,-0.18,0.006,-0.003,0.007,0.001,0.004,-0.005,0.687,-1.335,1.979
2024-10-23 22:04:25.941,19789.506,0.148,0.972,-0.18,0.008,-0.0,0.009,0.013,0.011,-0.0,0.687,-1.335,1.979
2024-10-23 22:04:25.951,19789.516,0.148,0.972,-0.18,0.005,0.001,0.013,0.021,0.008,-0.0,0.687,-1.335,1.979
2024-10-23 22:04:25.961,19789.526,0.148,0.972,-0.181,0.005,0.003,0.014,0.014,0.009,-0.0,0.687,-1.335,1.978
2024-10-23 22:04:25.970,19789.536,0.148,0.972,-0.181,0.008,0.006,0.013,0.0,0.003,-0.006,0.686,-1.335,1.978
2024-10-23 22:04:25.980,19789.546,0.148,0.972,-0.181,0.007,0.006,0.01,-0.008,0.002,-0.002,0.686,-1.335,1.978
2024-10-23 22:04:25.990,19789.556,0.148,0.972,-0.181,0.007,0.003,0.008,-0.018,-0.003,0.002,0.687,-1.335,1.979
2024-10-23 22:04:26.000,19789.566,0.148,0.972,-0.18,0.009,-0.006,0.008,-0.015,-0.001,0.0,0.687,-1.335,1.979
2024-10-23 22:04:26.011,19789.576,0.148,0.972,-0.18,0.008,-0.005,0.007,0.001,0.002,0.0,0.688,-1.335,1.979
2024-10-23 22:04:26.021,19789.586,0.148,0.972,-0.18,0.006,-0.003,0.009,0.005,0.006,-0.003,0.688,-1.335,1.979
2024-10-23 22:04:26.030,19789.596,0.148,0.972,-0.18,0.006,0.001,0.01,-0.006,0.002,-0.007,0.688,-1.335,1.979
2024-10-23 22:04:26.040,19789.606,0.148,0.972,-0.18,0.007,0.001,0.012,0.002,-0.003,-0.009,0.688,-1.335,1.979
2024-10-23 22:04:26.051,19789.616,0.148,0.972,-0.18,0.009,-0.002,0.013,-0.0,-0.002,0.0,0.688,-1.335,1.979
2024-10-23 22:04:26.060,19789.626,0.148,0.972,-0.18,0.008,-0.01,0.01,0.011,-0.001,-0.0,0.688,-1.335,1.979
2024-10-23 22:04:26.070,19789.636,0.148,0.972,-0.18,0.008,-0.004,0.009,0.023,0.006,0.004,0.687,-1.335,1.979
2024-10-23 22:04:26.080,19789.646,0.148,0.972,-0.18,0.005,0.002,0.011,0.007,0.001,0.004,0.687,-1.335,1.979
2024-10-23 22:04:26.090,19789.656,0.148,0.972,-0.18,0.005,-0.002,0.008,-0.004,-0.003,-0.005,0.687,-1.335,1.979
2024-10-23 22:04:26.100,19789.666,0.148,0.972,-0.18,0.007,-0.002,0.009,-0.002,-0.002,-0.002,0.687,-1.335,1.979
2024-10-23 22:04:26.110,19789.676,0.148,0.972,-0.18,0.005,-0.005,0.008,-0.001,-0.002,-0.005,0.687,-1.335,1.979
2024-10-23 22:04:26.120,19789.686,0.148,0.972,-0.18,0.005,-0.005,0.004,-0.0,-0.0,-0.004,0.688,-1.335,1.979
2024-10-23 22:04:26.130,19789.696,0.148,0.972,-0.18,0.006,-0.002,0.002,0.001,0.002,-0.006,0.688,-1.335,1.979
2024-10-23 22:04:26.140,19789.706,0.148,0.972,-0.18,0.006,-0.002,0.003,0.002,0.0,-0.006,0.687,-1.335,1.979
2024-10-23 22:04:26.150,19789.716,0.148,0.972,-0.18,0.005,-0.004,0.003,0.006,0.002,-0.006,0.687,-1.335,1.979
2024-10-23 22:04:26.160,19789.726,0.148,0.972,-0.18,0.007,-0.004,0.003,-0.001,0.003,-0.008,0.687,-1.335,1.978
2024-10-23 22:04:26.169,19789.736,0.148,0.972,-0.18,0.009,-0.004,0.005,-0.004,0.008,-0.009,0.687,-1.336,1.978
2024-10-23 22:04:26.179,19789.746,0.148,0.972,-0.18,0.008,-0.0,0.011,-0.0,0.005,-0.0,0.687,-1.336,1.979
2024-10-23 22:04:26.190,19789.756,0.148,0.972,-0.18,0.004,-0.002,0.013,-0.003,0.003,0.001,0.688,-1.336,1.979
2024-10-23 22:04:26.200,19789.766,0.148,0.972,-0.18,0.004,-0.008,0.013,0.002,0.004,0.0,0.688,-1.336,1.979
2024-10-23 22:04:26.210,19789.776,0.148,0.972,-0.18,0.01,-0.007,0.013,0.01,0.015,0.0,0.688,-1.335,1.979
2024-10-23 22:04:26.220,19789.786,0.148,0.972,-0.18,0.008,0.002,0.012,-0.008,0.031,-0.001,0.688,-1.335,1.979
2024-10-23 22:04:26.230,19789.796,0.148,0.973,-0.18,0.001,0.004,0.009,-0.07,0.059,-0.015,0.689,-1.336,1.98
2024-10-23 22:04:26.240,19789.805,0.148,0.973,-0.179,-0.001,0.003,0.005,-0.145,0.08,-0.051,0.692,-1.337,1.982
2024-10-23 22:04:26.250,19789.815,0.147,0.973,-0.177,-0.004,-0.008,-0.003,-0.232,0.107,-0.086,0.696,-1.339,1.985
2024-10-23 22:04:26.260,19789.825,0.147,0.974,-0.174,-0.012,-0.033,-0.014,-0.302,0.112,-0.087,0.701,-1.341,1.989
2024-10-23 22:04:26.271,19789.835,0.146,0.974,-0.17,-0.019,-0.06,-0.028,-0.373,0.034,-0.027,0.709,-1.344,1.997
2024-10-23 22:04:26.280,19789.845,0.146,0.975,-0.167,-0.004,-0.076,-0.043,-0.394,-0.033,-0.029,0.72,-1.347,2.007
2024-10-23 22:04:26.290,19789.855,0.146,0.976,-0.163,0.038,-0.057,-0.028,-0.341,-0.008,-0.063,0.729,-1.35,2.017
2024-10-23 22:04:26.300,19789.865,0.145,0.976,-0.161,0.054,0.009,0.02,-0.156,0.08,-0.041,0.735,-1.353,2.023
2024-10-23 22:04:26.310,19789.875,0.145,0.976,-0.16,0.012,0.063,0.061,-0.028,0.073,0.011,0.738,-1.353,2.025
2024-10-23 22:04:26.320,19789.885,0.145,0.976,-0.16,-0.021,0.056,0.012,0.028,0.02,0.019,0.739,-1.353,2.026
2024-10-23 22:04:26.330,19789.895,0.146,0.976,-0.16,0.018,0.038,-0.015,0.095,0.008,0.023,0.738,-1.353,2.024
2024-10-23 22:04:26.340,19789.905,0.146,0.976,-0.161,0.041,0.029,0.01,0.148,0.033,0.041,0.735,-1.351,2.022
2024-10-23 22:04:26.350,19789.915,0.147,0.976,-0.163,0.008,0.037,0.022,0.161,0.036,0.064,0.733,-1.35,2.018
2024-10-23 22:04:26.360,19789.925,0.147,0.975,-0.164,-0.014,0.052,0.024,0.135,0.003,0.062,0.73,-1.348,2.016
2024-10-23 22:04:26.370,19789.935,0.148,0.975,-0.166,-0.001,0.037,0.022,0.129,-0.011,0.063,0.729,-1.347,2.014
2024-10-23 22:04:26.380,19789.945,0.148,0.975,-0.167,0.016,0.015,0.023,0.13,-0.02,0.074,0.727,-1.345,2.013
2024-10-23 22:04:26.390,19789.955,0.149,0.974,-0.168,0.011,0.01,0.021,0.145,-0.028,0.078,0.725,-1.344,2.011
2024-10-23 22:04:26.400,19789.965,0.15,0.974,-0.17,0.003,0.013,0.014,0.141,-0.001,0.048,0.723,-1.343,2.009
2024-10-23 22:04:26.410,19789.975,0.15,0.974,-0.171,0.003,0.008,0.013,0.158,0.01,0.066,0.721,-1.341,2.007
2024-10-23 22:04:26.420,19789.985,0.151,0.973,-0.173,-0.007,-0.002,0.018,0.12,-0.005,0.086,0.719,-1.339,2.005
2024-10-23 22:04:26.430,19789.995,0.152,0.973,-0.173,-0.017,-0.025,0.008,0.082,-0.023,0.056,0.719,-1.338,2.005
2024-10-23 22:04:26.440,19790.005,0.152,0.973,-0.174,-0.001,-0.016,0.007,0.073,-0.008,0.04,0.718,-1.337,2.004
2024-10-23 22:04:26.450,19790.015,0.153,0.973,-0.175,0.01,-0.0,0.023,0.044,0.001,0.033,0.718,-1.337,2.004
2024-10-23 22:04:26.460,19790.025,0.153,0.973,-0.175,-0.004,-0.011,0.02,0.012,-0.013,0.03,0.718,-1.336,2.004
2024-10-23 22:04:26.470,19790.035,0.153,0.973,-0.175,-0.0,-0.026,0.014,-0.005,-0.024,0.018,0.719,-1.336,2.005
2024-10-23 22:04:26.480,19790.045,0.153,0.973,-0.175,0.016,-0.043,0.012,0.002,-0.021,0.009,0.719,-1.336,2.006
2024-10-23 22:04:26.490,19790.055,0.153,0.973,-0.175,0.02,-0.039,0.016,0.008,-0.014,0.003,0.719,-1.336,2.006
2024-10-23 22:04:26.499,19790.065,0.153,0.973,-0.175,0.011,-0.018,0.017,0.002,-0.021,-0.005,0.719,-1.336,2.006
2024-10-23 22:04:26.510,19790.075,0.153,0.973,-0.175,0.008,-0.01,0.016,-0.005,-0.023,-0.009,0.718,-1.336,2.006
2024-10-23 22:04:26.519,19790.085,0.153,0.973,-0.175,0.011,-0.018,0.015,-0.007,-0.024,-0.013,0.718,-1.336,2.005
2024-10-23 22:04:26.530,19790.095,0.153,0.973,-0.175,0.009,-0.024,0.008,0.014,-0.017,-0.013,0.717,-1.336,2.005
2024-10-23 22:04:26.540,19790.105,0.153,0.973,-0.175,0.003,-0.015,0.002,0.022,-0.009,-0.015,0.716,-1.336,2.004
2024-10-23 22:04:26.550,19790.115,0.152,0.973,-0.175,0.0,-0.005,-0.004,0.021,-0.006,-0.017,0.715,-1.336,2.003
2024-10-23 22:04:26.560,19790.125,0.152,0.973,-0.176,0.002,-0.001,-0.004,0.011,-0.007,-0.019,0.714,-1.336,2.002
2024-10-23 22:04:26.569,19790.135,0.152,0.973,-0.176,0.003,-0.005,-0.001,0.002,-0.009,-0.019,0.713,-1.336,2.001
2024-10-23 22:04:26.580,19790.145,0.152,0.973,-0.176,0.004,-0.011,0.006,-0.007,-0.007,-0.017,0.713,-1.337,2.001
2024-10-23 22:04:26.590,19790.155,0.152,0.973,-0.175,0.006,-0.011,0.008,-0.008,-0.009,-0.02,0.713,-1.337,2.001
2024-10-23 22:04:26.599,19790.165,0.151,0.973,-0.175,0.004,-0.002,0.005,-0.004,-0.005,-0.019,0.712,-1.337,2.0
2024-10-23 22:04:26.609,19790.175,0.151,0.973,-0.175,0.006,0.001,0.005,0.004,0.003,-0.019,0.712,-1.337,2.0
2024-10-23 22:04:26.619,19790.185,0.151,0.973,-0.176,0.007,0.003,0.007,0.014,0.006,-0.016,0.711,-1.337,1.999
2024-10-23 22:04:26.629,19790.195,0.151,0.973,-0.176,0.006,0.006,0.01,0.025,0.008,-0.013,0.71,-1.337,1.998
2024-10-23 22:04:26.639,19790.205,0.151,0.973,-0.176,0.005,0.005,0.01,0.035,0.008,-0.009,0.709,-1.337,1.997
2024-10-23 22:04:26.649,19790.215,0.151,0.973,-0.176,0.006,0.006,0.007,0.028,0.007,-0.005,0.708,-1.337,1.996
2024-10-23 22:04:26.660,19790.225,0.151,0.973,-0.177,0.007,0.007,0.007,0.022,0.001,-0.005,0.707,-1.336,1.995
2024-10-23 22:04:26.669,19790.235,0.151,0.973,-0.177,0.008,0.008,0.011,0.011,0.004,-0.001,0.707,-1.336,1.994
2024-10-23 22:04:26.679,19790.245,0.151,0.973,-0.177,0.008,0.008,0.011,0.008,0.003,0.001,0.707,-1.336,1.994
2024-10-23 22:04:26.689,19790.255,0.151,0.973,-0.177,0.008,0.006,0.005,0.014,0.002,0.011,0.707,-1.336,1.994
2024-10-23 22:04:26.699,19790.265,0.151,0.973,-0.177,0.008,0.003,0.001,0.009,0.005,0.017,0.707,-1.336,1.994
2024-10-23 22:04:26.709,19790.275,0.151,0.973,-0.177,0.007,0.002,0.004,0.001,-0.002,0.012,0.707,-1.336,1.995
2024-10-23 22:04:26.719,19790.285,0.151,0.972,-0.177,0.011,0.005,0.009,0.012,-0.001,0.018,0.708,-1.336,1.995
2024-10-23 22:04:26.729,19790.295,0.152,0.972,-0.177,0.009,0.003,0.01,0.027,-0.003,0.013,0.708,-1.335,1.995
2024-10-23 22:04:26.739,19790.305,0.152,0.972,-0.178,0.008,0.0,0.008,0.044,0.002,0.01,0.707,-1.335,1.995
2024-10-23 22:04:26.749,19790.315,0.152,0.972,-0.178,0.008,-0.001,0.01,0.051,-0.002,0.014,0.706,-1.335,1.994
2024-10-23 22:04:26.759,19790.325,0.152,0.972,-0.178,0.007,-0.002,0.013,0.049,-0.014,0.005,0.705,-1.334,1.993
2024-10-23 22:04:26.769,19790.335,0.152,0.972,-0.179,0.007,-0.005,0.017,0.042,-0.015,0.01,0.704,-1.334,1.992
2024-10-23 22:04:26.779,19790.345,0.152,0.972,-0.179,0.009,-0.012,0.019,0.04,-0.013,0.011,0.703,-1.333,1.991
2024-10-23 22:04:26.789,19790.355,0.152,0.972,-0.18,0.007,-0.011,0.018,0.034,-0.014,0.0,0.703,-1.333,1.99
2024-10-23 22:04:26.799,19790.365,0.152,0.972,-0.18,0.004,-0.005,0.016,0.037,-0.011,0.002,0.702,-1.333,1.99
2024-10-23 22:04:26.809,19790.375,0.152,0.972,-0.18,0.003,-0.006,0.015,0.03,-0.012,0.004,0.701,-1.333,1.989
2024-10-23 22:04:26.819,19790.385,0.152,0.972,-0.181,0.003,-0.009,0.009,0.02,-0.014,-0.003,0.7,-1.332,1.988
2024-10-23 22:04:26.829,19790.395,0.152,0.972,-0.181,0.004,-0.009,0.005,0.015,-0.01,-0.004,0.7,-1.332,1.988
2024-10-23 22:04:26.839,19790.404,0.152,0.972,-0.181,0.003,-0.007,0.006,0.011,-0.005,-0.008,0.699,-1.332,1.987
2024-10-23 22:04:26.849,19790.414,0.152,0.972,-0.181,0.001,-0.004,0.005,0.01,-0.0,-0.011,0.699,-1.332,1.987
2024-10-23 22:04:26.859,19790.424,0.152,0.972,-0.181,0.002,-0.003,0.005,0.003,0.006,-0.011,0.698,-1.332,1.987
2024-10-23 22:04:26.869,19790.434,0.152,0.972,-0.181,0.001,-0.004,0.002,-0.001,0.003,-0.006,0.698,-1.332,1.987
2024-10-23 22:04:26.879,19790.444,0.152,0.972,-0.181,0.001,-0.003,0.002,-0.01,0.004,-0.011,0.698,-1.332,1.987
2024-10-23 22:04:26.889,19790.454,0.152,0.972,-0.181,0.003,-0.003,0.006,-0.02,0.006,-0.014,0.699,-1.333,1.987
2024-10-23 22:04:26.899,19790.464,0.152,0.972,-0.18,0.006,-0.004,0.009,-0.019,0.01,-0.014,0.699,-1.333,1.987
2024-10-23 22:04:26.909,19790.474,0.152,0.972,-0.18,0.005,-0.004,0.011,-0.018,0.009,-0.015,0.699,-1.333,1.987
2024-10-23 22:04:26.919,19790.484,0.151,0.972,-0.18,0.006,-0.008,0.011,-0.022,-0.003,-0.014,0.699,-1.333,1.987
2024-10-23 22:04:26.929,19790.494,0.151,0.972,-0.18,0.008,-0.01,0.008,-0.016,0.003,-0.016,0.699,-1.334,1.987
2024-10-23 22:04:26.939,19790.504,0.151,0.972,-0.18,0.009,-0.007,0.008,-0.002,0.003,-0.01,0.699,-1.334,1.987
2024-10-23 22:04:26.949,19790.514,0.151,0.972,-0.18,0.009,-0.007,0.006,-0.01,0.006,-0.012,0.699,-1.334,1.987
2024-10-23 22:04:26.959,19790.524,0.151,0.972,-0.18,0.008,-0.006,0.004,-0.014,0.007,-0.013,0.699,-1.334,1.987
2024-10-23 22:04:26.969,19790.534,0.151,0.972,-0.179,0.008,-0.001,0.008,-0.018,0.006,-0.015,0.699,-1.334,1.987
2024-10-23 22:04:26.979,19790.544,0.151,0.972,-0.179,0.008,-0.001,0.009,-0.02,0.006,-0.014,0.699,-1.334,1.987
2024-10-23 22:04:26.989,19790.554,0.151,0.972,-0.179,0.008,-0.004,0.006,-0.023,0.006,-0.019,0.7,-1.335,1.987
2024-10-23 22:04:26.999,19790.564,0.15,0.972,-0.179,0.007,-0.003,0.008,-0.021,0.006,-0.02,0.7,-1.335,1.987
2024-10-23 22:04:27.009,19790.574,0.15,0.972,-0.178,0.007,-0.004,0.008,-0.02,-0.002,-0.02,0.7,-1.335,1.987
2024-10-23 22:04:27.019,19790.584,0.15,0.972,-0.178,0.006,-0.005,0.007,-0.022,-0.005,-0.017,0.7,-1.336,1.987
2024-10-23 22:04:27.029,19790.594,0.15,0.973,-0.178,0.005,-0.008,0.008,-0.019,-0.008,-0.018,0.7,-1.336,1.987
2024-10-23 22:04:27.039,19790.604,0.15,0.973,-0.178,0.007,-0.007,0.009,-0.013,-0.01,-0.018,0.7,-1.336,1.987
2024-10-23 22:04:27.049,19790.614,0.15,0.973,-0.178,0.007,-0.001,0.008,-0.007,-0.005,-0.022,0.699,-1.336,1.987
2024-10-23 22:04:27.059,19790.624,0.149,0.973,-0.178,0.005,0.001,0.006,-0.004,-0.004,-0.018,0.699,-1.336,1.987
2024-10-23 22:04:27.069,19790.634,0.149,0.973,-0.178,0.006,0.001,0.003,-0.01,-0.0,-0.02,0.699,-1.337,1.986
2024-10-23 22:04:27.079,19790.644,0.149,0.973,-0.178,0.005,0.004,0.005,-0.018,0.004,-0.012,0.698,-1.337,1.986
2024-10-23 22:04:27.089,19790.654,0.149,0.973,-0.177,0.004,0.005,0.006,-0.019,-0.001,-0.011,0.699,-1.337,1.986
2024-10-23 22:04:27.099,19790.664,0.149,0.973,-0.177,0.004,-0.0,0.005,-0.023,-0.004,-0.01,0.699,-1.337,1.987
2024-10-23 22:04:27.109,19790.674,0.149,0.973,-0.177,0.003,-0.002,0.009,-0.015,-0.004,-0.002,0.699,-1.337,1.987
2024-10-23 22:04:27.119,19790.684,0.149,0.973,-0.177,0.003,-0.002,0.009,0.001,-0.003,-0.001,0.7,-1.337,1.987
2024-10-23 22:04:27.129,19790.694,0.149,0.973,-0.177,0.003,0.003,0.008,0.016,0.002,0.002,0.7,-1.337,1.987
2024-10-23 22:04:27.138,19790.704,0.149,0.973,-0.177,0.002,0.01,0.011,0.021,0.001,0.005,0.699,-1.337,1.987
2024-10-23 22:04:27.149,19790.714,0.149,0.973,-0.177,0.003,0.01,0.013,0.017,-0.002,0.004,0.699,-1.337,1.987
2024-10-23 22:04:27.159,19790.724,0.149,0.973,-0.177,0.004,0.006,0.011,0.013,-0.006,0.006,0.699,-1.337,1.986
2024-10-23 22:04:27.169,19790.734,0.149,0.973,-0.178,0.006,0.004,0.012,0.009,-0.007,0.006,0.698,-1.337,1.986
2024-10-23 22:04:27.179,19790.744,0.149,0.973,-0.178,0.007,0.003,0.011,0.001,-0.006,0.009,0.699,-1.337,1.986
2024-10-23 22:04:27.189,19790.754,0.149,0.973,-0.178,0.008,0.0,0.01,0.005,-0.008,0.009,0.699,-1.337,1.987
2024-10-23 22:04:27.198,19790.764,0.149,0.973,-0.178,0.007,-0.003,0.009,0.015,-0.005,0.012,0.699,-1.337,1.987
2024-10-23 22:04:27.209,19790.774,0.149,0.973,-0.178,0.007,-0.004,0.004,0.015,-0.003,0.009,0.699,-1.336,1.987
2024-10-23 22:04:27.218,19790.784,0.149,0.973,-0.178,0.008,-0.002,0.005,0.009,0.001,0.004,0.699,-1.336,1.987
2024-10-23 22:04:27.229,19790.794,0.149,0.973,-0.178,0.006,-0.002,0.007,0.001,-0.004,0.002,0.699,-1.336,1.987
2024-10-23 22:04:27.238,19790.804,0.15,0.973,-0.178,0.004,-0.004,0.009,0.006,-0.009,0.005,0.699,-1.336,1.987
2024-10-23 22:04:27.249,19790.814,0.15,0.973,-0.178,0.005,-0.007,0.01,0.001,-0.006,0.001,0.699,-1.336,1.987
2024-10-23 22:04:27.258,19790.824,0.15,0.973,-0.178,0.005,-0.007,0.008,0.001,-0.01,0.0,0.699,-1.336,1.987
2024-10-23 22:04:27.268,19790.834,0.15,0.973,-0.178,0.005,-0.005,0.007,0.003,-0.007,-0.001,0.699,-1.336,1.987
2024-10-23 22:04:27.278,19790.844,0.15,0.973,-0.178,0.003,-0.003,0.008,0.002,-0.002,-0.002,0.699,-1.336,1.987
2024-10-23 22:04:27.288,19790.854,0.15,0.973,-0.178,0.003,-0.003,0.006,0.005,-0.005,-0.003,0.699,-1.336,1.987
2024-10-23 22:04:27.298,19790.864,0.149,0.973,-0.178,0.004,-0.004,0.005,0.004,-0.001,-0.004,0.698,-1.336,1.987
2024-10-23 22:04:27.308,19790.874,0.149,0.973,-0.178,0.005,-0.004,0.007,0.006,-0.002,-0.002,0.698,-1.336,1.987
2024-10-23 22:04:27.318,19790.884,0.149,0.973,-0.178,0.004,-0.005,0.004,0.004,0.002,-0.005,0.698,-1.336,1.986
2024-10-23 22:04:27.328,19790.894,0.149,0.973,-0.178,0.005,-0.006,0.005,-0.009,0.006,-0.004,0.698,-1.336,1.987
2024-10-23 22:04:27.338,19790.904,0.149,0.973,-0.178,0.006,-0.005,0.008,-0.016,0.005,-0.009,0.698,-1.336,1.987
2024-10-23 22:04:27.348,19790.914,0.149,0.973,-0.178,0.007,-0.006,0.008,-0.014,0.002,-0.012,0.699,-1.336,1.987
2024-10-23 22:04:27.359,19790.924,0.149,0.973,-0.178,0.009,-0.008,0.007,-0.012,0.004,-0.013,0.699,-1.337,1.987
2024-10-23 22:04:27.368,19790.934,0.149,0.973,-0.178,0.008,-0.01,0.007,-0.009,0.004,-0.011,0.699,-1.337,1.987
2024-10-23 22:04:27.378,19790.944,0.149,0.973,-0.177,0.006,-0.007,0.006,-0.019,0.003,-0.013,0.699,-1.337,1.987
2024-10-23 22:04:27.388,19790.954,0.149,0.973,-0.177,0.007,-0.006,0.009,-0.017,0.003,-0.013,0.699,-1.337,1.987
2024-10-23 22:04:27.398,19790.964,0.149,0.973,-0.177,0.007,-0.005,0.013,-0.017,0.005,-0.016,0.699,-1.337,1.987
2024-10-23 22:04:27.408,19790.974,0.149,0.973,-0.177,0.005,-0.006,0.011,-0.014,-0.003,-0.019,0.699,-1.338,1.987
2024-10-23 22:04:27.418,19790.984,0.148,0.973,-0.177,0.005,-0.006,0.009,-0.014,0.003,-0.019,0.699,-1.338,1.987
2024-10-23 22:04:27.428,19790.993,0.148,0.973,-0.177,0.006,-0.005,0.009,-0.016,-0.001,-0.024,0.699,-1.338,1.987
2024-10-23 22:04:27.438,19791.003,0.148,0.973,-0.176,0.005,-0.002,0.008,-0.017,-0.001,-0.027,0.698,-1.338,1.986
2024-10-23 22:04:27.448,19791.013,0.148,0.973,-0.176,0.005,-0.002,0.008,-0.017,-0.001,-0.022,0.698,-1.339,1.986
2024-10-23 22:04:27.458,19791.023,0.148,0.973,-0.176,0.004,-0.001,0.009,-0.011,-0.002,-0.016,0.698,-1.339,1.986
2024-10-23 22:04:27.468,19791.033,0.147,0.973,-0.176,0.004,-0.001,0.008,-0.013,-0.004,-0.021,0.698,-1.339,1.986
2024-10-23 22:04:27.478,19791.043,0.147,0.973,-0.176,0.005,-0.002,0.006,-0.008,0.001,-0.018,0.698,-1.339,1.986
2024-10-23 22:04:27.488,19791.053,0.147,0.973,-0.176,0.004,0.0,0.007,-0.002,0.002,-0.018,0.697,-1.34,1.985
2024-10-23 22:04:27.498,19791.063,0.147,0.973,-0.176,0.002,0.004,0.007,-0.002,0.003,-0.016,0.697,-1.34,1.985
2024-10-23 22:04:27.508,19791.073,0.147,0.973,-0.176,0.002,0.003,0.006,-0.002,0.001,-0.016,0.697,-1.34,1.985
2024-10-23 22:04:27.518,19791.083,0.147,0.973,-0.176,0.003,0.002,0.007,-0.003,-0.002,-0.014,0.696,-1.34,1.984
2024-10-23 22:04:27.528,19791.093,0.147,0.973,-0.176,0.005,0.001,0.008,-0.002,0.001,-0.006,0.696,-1.34,1.984
2024-10-23 22:04:27.538,19791.103,0.147,0.974,-0.175,0.004,-0.001,0.003,-0.007,0.006,-0.003,0.696,-1.34,1.984
2024-10-23 22:04:27.548,19791.113,0.147,0.974,-0.175,0.004,-0.0,0.004,-0.003,0.002,-0.008,0.696,-1.34,1.984
2024-10-23 22:04:27.557,19791.123,0.147,0.974,-0.175,0.005,0.003,0.005,-0.004,0.003,-0.003,0.696,-1.34,1.984
2024-10-23 22:04:27.567,19791.133,0.147,0.974,-0.175,0.004,0.003,0.006,-0.001,0.001,-0.002,0.696,-1.34,1.984
2024-10-23 22:04:27.577,19791.143,0.146,0.974,-0.175,0.006,0.002,0.005,-0.004,-0.001,-0.006,0.696,-1.34,1.984
2024-10-23 22:04:27.587,19791.153,0.146,0.974,-0.175,0.007,0.0,0.005,-0.001,0.003,-0.004,0.696,-1.34,1.984
2024-10-23 22:04:27.597,19791.163,0.146,0.974,-0.175,0.007,-0.001,0.006,-0.0,0.005,-0.008,0.696,-1.34,1.984
2024-10-23 22:04:27.608,19791.173,0.146,0.974,-0.175,0.008,-0.004,0.006,-0.01,0.007,-0.012,0.696,-1.341,1.984
2024-10-23 22:04:27.618,19791.183,0.146,0.974,-0.175,0.009,-0.005,0.006,-0.018,0.008,-0.016,0.696,-1.341,1.984
2024-10-23 22:04:27.628,19791.193,0.146,0.974,-0.175,0.005,-0.002,0.007,-0.023,0.002,-0.012,0.696,-1.341,1.984
2024-10-23 22:04:27.638,19791.203,0.146,0.974,-0.175,0.004,-0.005,0.009,-0.025,-0.003,-0.011,0.697,-1.341,1.984
2024-10-23 22:04:27.648,19791.213,0.146,0.974,-0.174,0.005,-0.01,0.012,-0.024,-0.004,-0.012,0.697,-1.342,1.985
2024-10-23 22:04:27.658,19791.223,0.146,0.974,-0.174,0.006,-0.011,0.015,-0.014,-0.005,-0.012,0.697,-1.342,1.985
2024-10-23 22:04:27.668,19791.233,0.146,0.974,-0.174,0.004,-0.007,0.014,-0.01,-0.004,-0.013,0.697,-1.342,1.985
2024-10-23 22:04:27.677,19791.243,0.145,0.974,-0.174,0.004,-0.002,0.013,-0.007,-0.001,-0.015,0.697,-1.342,1.985
2024-10-23 22:04:27.688,19791.253,0.145,0.974,-0.174,0.003,-0.001,0.01,-0.016,-0.001,-0.015,0.697,-1.342,1.984
2024-10-23 22:04:27.697,19791.263,0.145,0.974,-0.174,0.001,-0.003,0.005,-0.012,0.001,-0.01,0.697,-1.342,1.984
2024-10-23 22:04:27.707,19791.273,0.145,0.974,-0.174,0.004,-0.003,0.005,-0.021,0.003,-0.007,0.697,-1.343,1.985
2024-10-23 22:04:27.717,19791.283,0.145,0.974,-0.173,0.005,-0.002,0.003,-0.02,0.002,-0.01,0.697,-1.343,1.985
2024-10-23 22:04:27.727,19791.293,0.145,0.974,-0.173,0.005,-0.002,0.004,-0.02,0.005,-0.01,0.698,-1.343,1.985
2024-10-23 22:04:27.737,19791.303,0.145,0.974,-0.173,0.003,-0.005,0.004,-0.015,0.002,-0.01,0.698,-1.343,1.986
2024-10-23 22:04:27.748,19791.313,0.145,0.974,-0.173,0.003,-0.001,0.005,-0.003,0.006,-0.007,0.698,-1.343,1.986
2024-10-23 22:04:27.758,19791.323,0.145,0.974,-0.173,0.005,0.005,0.007,-0.008,0.002,-0.01,0.698,-1.343,1.986
2024-10-23 22:04:27.768,19791.333,0.145,0.974,-0.173,0.007,0.004,0.009,-0.009,-0.001,-0.008,0.698,-1.344,1.986
2024-10-23 22:04:27.777,19791.343,0.145,0.974,-0.172,0.006,0.003,0.011,-0.009,-0.0,-0.002,0.698,-1.344,1.986
2024-10-23 22:04:27.787,19791.353,0.145,0.974,-0.172,0.005,0.004,0.01,-0.001,-0.001,0.003,0.698,-1.344,1.986
2024-10-23 22:04:27.797,19791.363,0.145,0.974,-0.172,0.004,0.002,0.007,-0.002,-0.002,0.005,0.699,-1.344,1.986
2024-10-23 22:04:27.808,19791.373,0.145,0.974,-0.172,0.005,0.0,0.005,-0.001,0.004,0.005,0.699,-1.344,1.987
2024-10-23 22:04:27.817,19791.383,0.145,0.974,-0.172,0.006,0.002,0.006,-0.003,0.002,0.005,0.699,-1.344,1.987
2024-10-23 22:04:27.827,19791.393,0.145,0.974,-0.172,0.004,0.003,0.007,-0.008,0.0,0.001,0.699,-1.344,1.987
2024-10-23 22:04:27.837,19791.403,0.145,0.974,-0.172,0.006,-0.0,0.007,-0.009,-0.002,-0.004,0.7,-1.344,1.987
2024-10-23 22:04:27.847,19791.413,0.145,0.974,-0.172,0.007,-0.003,0.007,-0.012,-0.002,-0.002,0.7,-1.344,1.988
2024-10-23 22:04:27.857,19791.423,0.145,0.974,-0.172,0.004,-0.005,0.007,-0.014,-0.002,-0.001,0.7,-1.344,1.988
2024-10-23 22:04:27.867,19791.433,0.145,0.974,-0.172,0.003,-0.007,0.006,-0.005,-0.002,-0.006,0.701,-1.344,1.988
2024-10-23 22:04:27.878,19791.443,0.145,0.974,-0.172,0.006,-0.007,0.004,-0.005,0.001,-0.001,0.701,-1.344,1.988
2024-10-23 22:04:27.887,19791.453,0.145,0.974,-0.172,0.007,-0.007,0.005,0.002,0.005,-0.003,0.701,-1.344,1.988
2024-10-23 22:04:27.897,19791.463,0.145,0.974,-0.172,0.004,-0.004,0.008,0.002,0.003,-0.004,0.701,-1.344,1.988
2024-10-23 22:04:27.907,19791.473,0.145,0.974,-0.172,0.005,-0.002,0.008,-0.005,0.005,-0.005,0.701,-1.344,1.988
2024-10-23 22:04:27.917,19791.483,0.145,0.974,-0.172,0.004,-0.004,0.007,-0.005,-0.001,-0.007,0.701,-1.344,1.988
2024-10-23 22:04:27.927,19791.493,0.145,0.974,-0.172,0.004,-0.007,0.01,-0.008,0.002,-0.009,0.701,-1.344,1.988
2024-10-23 22:04:27.937,19791.503,0.145,0.975,-0.171,0.006,-0.006,0.011,-0.008,0.0,-0.008,0.701,-1.345,1.988
2024-10-23 22:04:27.947,19791.513,0.145,0.975,-0.171,0.004,-0.002,0.009,-0.007,0.005,-0.01,0.7,-1.345,1.988
2024-10-23 22:04:27.957,19791.523,0.144,0.975,-0.171,0.004,-0.002,0.008,-0.004,-0.001,-0.01,0.7,-1.345,1.988
2024-10-23 22:04:27.967,19791.533,0.144,0.975,-0.171,0.005,-0.004,0.007,0.003,0.001,-0.01,0.7,-1.345,1.988
2024-10-23 22:04:27.977,19791.543,0.144,0.975,-0.171,0.006,-0.003,0.008,-0.001,0.003,-0.011,0.7,-1.345,1.987
2024-10-23 22:04:27.987,19791.553,0.144,0.975,-0.171,0.004,-0.003,0.008,0.001,-0.002,-0.01,0.7,-1.345,1.987
2024-10-23 22:04:27.997,19791.563,0.144,0.975,-0.171,0.007,0.0,0.006,-0.004,-0.001,-0.008,0.7,-1.345,1.987
2024-10-23 22:04:28.007,19791.573,0.144,0.975,-0.171,0.004,0.001,0.007,0.003,0.003,-0.004,0.699,-1.345,1.987
2024-10-23 22:04:28.017,19791.582,0.144,0.975,-0.171,0.005,-0.0,0.008,0.002,-0.003,-0.002,0.699,-1.345,1.987
2024-10-23 22:04:28.027,19791.592,0.144,0.975,-0.171,0.006,-0.002,0.005,0.004,-0.001,0.0,0.699,-1.345,1.987
2024-10-23 22:04:28.037,19791.602,0.144,0.975,-0.171,0.004,0.003,0.005,0.005,-0.0,0.001,0.699,-1.345,1.987
2024-10-23 22:04:28.047,19791.612,0.144,0.975,-0.171,0.003,0.002,0.003,0.006,0.001,-0.001,0.699,-1.345,1.987
2024-10-23 22:04:28.057,19791.622,0.144,0.975,-0.171,0.005,0.001,0.005,0.005,0.002,0.001,0.699,-1.345,1.987
2024-10-23 22:04:28.068,19791.632,0.144,0.975,-0.171,0.005,0.002,0.008,-0.022,0.009,0.006,0.7,-1.345,1.987
2024-10-23 22:04:28.077,19791.642,0.144,0.975,-0.171,0.003,0.002,0.006,-0.021,-0.005,0.001,0.7,-1.345,1.988
2024-10-23 22:04:28.087,19791.652,0.144,0.975,-0.171,0.003,-0.006,0.006,-0.031,-0.002,0.003,0.701,-1.345,1.989
2024-10-23 22:04:28.097,19791.662,0.144,0.975,-0.171,0.006,-0.015,0.002,-0.014,0.011,-0.001,0.702,-1.345,1.989
2024-10-23 22:04:28.107,19791.672,0.144,0.975,-0.171,0.004,-0.01,0.003,-0.004,-0.001,0.002,0.702,-1.345,1.99
2024-10-23 22:04:28.117,19791.682,0.144,0.975,-0.171,0.002,-0.006,0.001,0.017,-0.006,0.006,0.702,-1.345,1.99
2024-10-23 22:04:28.127,19791.692,0.144,0.975,-0.171,0.002,-0.001,0.0,0.018,-0.008,0.01,0.702,-1.345,1.989
2024-10-23 22:04:28.137,19791.702,0.145,0.975,-0.171,0.002,0.0,0.003,0.05,0.008,0.024,0.701,-1.345,1.989
2024-10-23 22:04:28.146,19791.712,0.145,0.974,-0.172,0.002,0.002,0.009,0.037,0.005,0.021,0.701,-1.344,1.989
2024-10-23 22:04:28.157,19791.722,0.145,0.974,-0.172,0.004,0.002,0.009,0.033,-0.004,0.027,0.701,-1.344,1.988
2024-10-23 22:04:28.167,19791.732,0.145,0.974,-0.172,0.002,0.002,0.008,0.052,-0.009,0.016,0.701,-1.343,1.988
2024-10-23 22:04:28.177,19791.742,0.146,0.974,-0.173,0.003,-0.001,0.007,0.064,-0.004,0.024,0.7,-1.343,1.987
2024-10-23 22:04:28.187,19791.752,0.146,0.974,-0.173,0.006,0.001,0.002,0.059,-0.015,0.033,0.699,-1.342,1.986
2024-10-23 22:04:28.197,19791.762,0.146,0.974,-0.174,-0.001,0.006,0.002,0.047,-0.01,0.024,0.698,-1.342,1.986
2024-10-23 22:04:28.206,19791.772,0.146,0.974,-0.174,0.001,0.003,0.002,0.044,-0.023,0.018,0.698,-1.341,1.985
2024-10-23 22:04:28.217,19791.782,0.146,0.974,-0.175,0.004,-0.007,0.004,0.028,-0.014,0.031,0.697,-1.341,1.985
2024-10-23 22:04:28.227,19791.792,0.147,0.974,-0.175,0.006,0.001,0.004,0.0,-0.009,0.017,0.698,-1.34,1.986
2024-10-23 22:04:28.237,19791.802,0.147,0.974,-0.175,0.006,0.004,0.009,-0.004,-0.035,0.011,0.698,-1.34,1.986
2024-10-23 22:04:28.247,19791.812,0.147,0.974,-0.175,0.001,-0.008,0.006,0.04,-0.045,0.002,0.697,-1.34,1.986
2024-10-23 22:04:28.257,19791.822,0.147,0.973,-0.176,0.004,-0.016,0.007,0.071,-0.044,0.009,0.696,-1.34,1.985
2024-10-23 22:04:28.267,19791.832,0.147,0.973,-0.177,0.006,-0.006,0.005,0.1,-0.054,0.009,0.693,-1.339,1.983
2024-10-23 22:04:28.277,19791.842,0.147,0.973,-0.178,0.005,0.013,0.01,0.067,-0.065,0.014,0.691,-1.338,1.981
2024-10-23 22:04:28.287,19791.852,0.147,0.973,-0.178,-0.0,0.01,0.008,0.009,-0.06,0.013,0.69,-1.338,1.98
2024-10-23 22:04:28.297,19791.862,0.147,0.973,-0.178,0.002,-0.003,0.007,-0.042,-0.056,0.003,0.69,-1.338,1.981
2024-10-23 22:04:28.307,19791.872,0.147,0.973,-0.177,0.007,-0.013,0.029,-0.063,-0.049,-0.003,0.691,-1.339,1.983
2024-10-23 22:04:28.316,19791.882,0.147,0.973,-0.177,-0.001,-0.008,0.015,-0.031,-0.054,-0.006,0.692,-1.339,1.984
2024-10-23 22:04:28.326,19791.892,0.146,0.973,-0.177,0.002,-0.003,0.018,-0.01,-0.062,-0.002,0.692,-1.339,1.985
2024-10-23 22:04:28.336,19791.902,0.146,0.973,-0.177,0.007,0.009,0.003,-0.013,-0.048,0.002,0.692,-1.339,1.985
2024-10-23 22:04:28.346,19791.912,0.146,0.973,-0.177,0.01,0.02,-0.007,-0.033,-0.055,-0.005,0.691,-1.339,1.985
2024-10-23 22:04:28.356,19791.922,0.146,0.973,-0.176,0.013,-0.003,-0.005,-0.056,-0.062,0.019,0.693,-1.34,1.987
2024-10-23 22:04:28.366,19791.932,0.146,0.973,-0.176,0.007,-0.025,-0.004,-0.018,-0.047,0.022,0.694,-1.34,1.989
2024-10-23 22:04:28.376,19791.942,0.147,0.973,-0.176,0.003,-0.029,0.008,-0.015,-0.035,0.035,0.695,-1.34,1.99
2024-10-23 22:04:28.386,19791.952,0.147,0.973,-0.176,-0.005,-0.023,-0.003,-0.033,-0.036,0.029,0.696,-1.34,1.992
2024-10-23 22:04:28.396,19791.962,0.147,0.973,-0.175,-0.004,0.0,0.003,-0.036,-0.042,0.012,0.698,-1.34,1.994
2024-10-23 22:04:28.406,19791.972,0.147,0.974,-0.175,0.004,0.007,0.011,-0.041,-0.036,0.014,0.699,-1.34,1.996
2024-10-23 22:04:28.416,19791.982,0.147,0.974,-0.175,0.002,0.005,0.01,-0.024,-0.033,0.02,0.7,-1.34,1.997
2024-10-23 22:04:28.426,19791.992,0.147,0.974,-0.175,0.003,0.008,0.009,-0.016,-0.015,0.012,0.7,-1.34,1.998
2024-10-23 22:04:28.436,19792.002,0.147,0.974,-0.174,0.006,0.007,0.023,-0.052,-0.004,0.027,0.702,-1.341,2.0
2024-10-23 22:04:28.447,19792.012,0.148,0.974,-0.174,-0.001,0.01,0.011,-0.082,-0.012,0.033,0.705,-1.341,2.003
2024-10-23 22:04:28.456,19792.022,0.148,0.974,-0.173,0.005,-0.009,0.006,-0.098,-0.032,0.02,0.708,-1.341,2.006
2024-10-23 22:04:28.466,19792.032,0.148,0.974,-0.172,0.01,-0.045,0.005,-0.094,-0.022,0.012,0.711,-1.342,2.009
2024-10-23 22:04:28.477,19792.042,0.148,0.974,-0.171,0.003,-0.039,0.005,-0.088,-0.001,0.002,0.713,-1.343,2.012
2024-10-23 22:04:28.486,19792.052,0.148,0.974,-0.17,0.001,0.0,0.007,-0.045,-0.003,-0.008,0.715,-1.343,2.014
2024-10-23 22:04:28.496,19792.062,0.148,0.974,-0.17,-0.003,0.021,0.004,-0.002,0.002,-0.014,0.716,-1.343,2.014
2024-10-23 22:04:28.506,19792.072,0.148,0.974,-0.17,0.002,0.012,0.004,-0.018,0.01,-0.013,0.715,-1.344,2.014
2024-10-23 22:04:28.516,19792.082,0.148,0.974,-0.17,0.01,0.006,0.009,-0.023,0.013,-0.019,0.716,-1.344,2.015
2024-10-23 22:04:28.526,19792.092,0.147,0.974,-0.17,0.011,0.009,0.014,-0.001,-0.003,-0.017,0.716,-1.344,2.014
2024-10-23 22:04:28.536,19792.102,0.147,0.974,-0.17,0.009,-0.002,0.009,0.011,0.002,-0.014,0.715,-1.344,2.014
2024-10-23 22:04:28.546,19792.112,0.147,0.974,-0.17,0.011,-0.007,0.008,0.018,0.01,-0.005,0.714,-1.344,2.013
2024-10-23 22:04:28.556,19792.122,0.147,0.974,-0.17,0.009,0.008,0.015,0.017,0.005,-0.007,0.714,-1.344,2.012
2024-10-23 22:04:28.566,19792.132,0.147,0.974,-0.17,0.005,0.005,0.018,0.001,0.005,-0.019,0.713,-1.344,2.012
2024-10-23 22:04:28.576,19792.142,0.147,0.974,-0.17,0.006,-0.014,0.014,0.004,0.001,-0.026,0.713,-1.344,2.011
2024-10-23 22:04:28.586,19792.152,0.147,0.974,-0.17,0.006,-0.011,0.009,0.007,0.005,-0.021,0.712,-1.344,2.01
2024-10-23 22:04:28.596,19792.162,0.147,0.974,-0.17,0.005,0.002,0.005,0.015,0.009,-0.014,0.711,-1.344,2.009
2024-10-23 22:04:28.606,19792.171,0.146,0.974,-0.17,0.003,0.006,0.004,0.01,0.0,-0.01,0.71,-1.344,2.009
2024-10-23 22:04:28.616,19792.181,0.146,0.974,-0.17,0.001,-0.01,0.001,-0.018,0.001,-0.014,0.71,-1.344,2.008
2024-10-23 22:04:28.626,19792.191,0.146,0.975,-0.17,0.005,-0.023,0.002,-0.022,0.013,-0.019,0.711,-1.345,2.009
2024-10-23 22:04:28.636,19792.201,0.146,0.975,-0.17,0.005,-0.014,0.004,-0.039,0.014,-0.026,0.711,-1.345,2.009
2024-10-23 22:04:28.646,19792.211,0.146,0.975,-0.169,0.003,-0.011,-0.0,-0.031,0.001,-0.031,0.711,-1.346,2.009
2024-10-23 22:04:28.656,19792.221,0.145,0.975,-0.169,0.002,-0.012,0.001,-0.003,0.001,-0.033,0.711,-1.346,2.008
2024-10-23 22:04:28.666,19792.231,0.145,0.975,-0.169,0.002,-0.01,0.002,-0.003,0.008,-0.034,0.71,-1.346,2.007
2024-10-23 22:04:28.676,19792.241,0.145,0.975,-0.169,0.004,-0.004,0.005,-0.018,0.016,-0.034,0.709,-1.346,2.007
2024-10-23 22:04:28.686,19792.251,0.145,0.975,-0.168,0.005,0.004,0.009,-0.056,0.024,-0.031,0.709,-1.347,2.006
2024-10-23 22:04:28.696,19792.261,0.144,0.975,-0.168,0.004,-0.002,0.009,-0.091,0.023,-0.036,0.71,-1.348,2.008
2024-10-23 22:04:28.706,19792.271,0.144,0.975,-0.167,0.003,-0.012,0.006,-0.105,0.019,-0.046,0.712,-1.349,2.009
2024-10-23 22:04:28.716,19792.281,0.144,0.976,-0.166,0.006,-0.014,0.007,-0.092,0.007,-0.041,0.714,-1.35,2.011
2024-10-23 22:04:28.726,19792.291,0.143,0.976,-0.165,0.008,-0.004,0.006,-0.071,0.018,-0.037,0.715,-1.351,2.012
2024-10-23 22:04:28.736,19792.301,0.143,0.976,-0.164,0.007,0.008,0.007,-0.077,0.013,-0.022,0.716,-1.351,2.013
2024-10-23 22:04:28.746,19792.311,0.143,0.976,-0.164,0.005,0.007,0.005,-0.066,-0.006,-0.017,0.718,-1.352,2.014
2024-10-23 22:04:28.756,19792.321,0.143,0.976,-0.163,0.007,-0.002,0.006,-0.077,-0.007,-0.011,0.719,-1.353,2.016
2024-10-23 22:04:28.766,19792.331,0.143,0.976,-0.162,0.007,-0.014,0.002,-0.045,-0.003,-0.01,0.721,-1.353,2.018
2024-10-23 22:04:28.776,19792.341,0.142,0.976,-0.162,0.002,-0.01,0.007,-0.003,0.014,-0.01,0.721,-1.353,2.018
2024-10-23 22:04:28.786,19792.351,0.142,0.976,-0.162,-0.004,0.005,0.013,0.014,0.012,-0.004,0.721,-1.353,2.018
2024-10-23 22:04:28.796,19792.361,0.142,0.976,-0.162,-0.008,0.022,0.003,0.023,0.013,-0.005,0.72,-1.353,2.017
2024-10-23 22:04:28.806,19792.371,0.142,0.976,-0.162,0.002,0.021,0.004,0.005,0.004,-0.001,0.72,-1.353,2.017
2024-10-23 22:04:28.816,19792.381,0.142,0.976,-0.162,0.006,0.005,0.008,-0.014,0.002,-0.001,0.72,-1.353,2.017
2024-10-23 22:04:28.826,19792.391,0.142,0.976,-0.162,0.009,-0.001,0.011,-0.04,0.01,0.007,0.721,-1.353,2.018
2024-10-23 22:04:28.836,19792.401,0.143,0.977,-0.162,0.005,-0.002,0.009,-0.049,0.001,0.018,0.723,-1.354,2.02
2024-10-23 22:04:28.846,19792.411,0.143,0.977,-0.161,0.005,-0.006,0.002,-0.077,-0.003,0.016,0.726,-1.354,2.022
2024-10-23 22:04:28.856,19792.421,0.143,0.977,-0.16,0.011,-0.016,-0.0,-0.054,-0.002,0.008,0.728,-1.354,2.025
2024-10-23 22:04:28.865,19792.431,0.143,0.977,-0.16,0.009,-0.014,0.007,-0.023,0.001,0.016,0.73,-1.355,2.026
2024-10-23 22:04:28.875,19792.441,0.143,0.977,-0.16,0.0,0.001,0.003,0.007,0.007,0.013,0.731,-1.355,2.027
2024-10-23 22:04:28.885,19792.451,0.143,0.977,-0.16,0.002,0.011,0.0,-0.001,-0.002,0.011,0.731,-1.354,2.027
2024-10-23 22:04:28.895,19792.461,0.143,0.977,-0.16,0.004,0.002,0.005,-0.007,-0.002,0.005,0.731,-1.354,2.028
2024-10-23 22:04:28.905,19792.471,0.143,0.977,-0.16,0.005,-0.005,0.009,-0.009,-0.005,0.007,0.732,-1.354,2.029
2024-10-23 22:04:28.915,19792.481,0.144,0.977,-0.16,0.0,-0.008,0.011,-0.014,-0.01,0.006,0.733,-1.355,2.029
2024-10-23 22:04:28.926,19792.491,0.144,0.977,-0.159,-0.002,-0.007,0.011,-0.021,-0.003,0.013,0.733,-1.355,2.03
2024-10-23 22:04:28.935,19792.501,0.144,0.977,-0.159,0.0,-0.006,0.013,-0.017,-0.005,0.007,0.734,-1.355,2.031
2024-10-23 22:04:28.945,19792.511,0.144,0.977,-0.159,0.004,-0.008,0.018,-0.021,-0.003,0.004,0.735,-1.355,2.032
2024-10-23 22:04:28.956,19792.521,0.144,0.977,-0.159,0.003,-0.011,0.016,-0.013,-0.005,-0.003,0.736,-1.355,2.033
2024-10-23 22:04:28.966,19792.531,0.144,0.977,-0.159,0.003,-0.007,0.01,-0.014,-0.005,-0.004,0.736,-1.355,2.033
2024-10-23 22:04:28.975,19792.541,0.144,0.977,-0.159,0.008,-0.008,0.008,-0.027,0.002,-0.007,0.736,-1.355,2.033
2024-10-23 22:04:28.985,19792.551,0.144,0.977,-0.158,0.004,-0.004,0.006,-0.032,0.001,-0.011,0.737,-1.355,2.034
2024-10-23 22:04:28.995,19792.561,0.144,0.977,-0.158,-0.0,-0.002,0.004,-0.039,0.004,-0.01,0.738,-1.356,2.035
2024-10-23 22:04:29.005,19792.571,0.143,0.977,-0.157,0.002,-0.004,0.003,-0.034,0.011,-0.01,0.739,-1.356,2.036
2024-10-23 22:04:29.015,19792.581,0.143,0.977,-0.157,0.004,0.001,0.005,-0.035,0.01,-0.011,0.74,-1.357,2.037
2024-10-23 22:04:29.025,19792.591,0.143,0.977,-0.157,0.007,0.004,0.005,-0.037,0.012,-0.016,0.741,-1.357,2.037
2024-10-23 22:04:29.035,19792.601,0.143,0.977,-0.156,0.004,0.003,0.008,-0.037,0.006,-0.017,0.741,-1.357,2.038
2024-10-23 22:04:29.045,19792.611,0.143,0.977,-0.156,0.002,0.003,0.01,-0.019,0.01,-0.014,0.742,-1.358,2.039
2024-10-23 22:04:29.055,19792.621,0.143,0.977,-0.156,0.005,0.002,0.011,-0.023,0.01,-0.006,0.742,-1.358,2.039
2024-10-23 22:04:29.065,19792.631,0.143,0.977,-0.156,0.006,-0.0,0.01,-0.026,0.004,-0.007,0.743,-1.358,2.04
2024-10-23 22:04:29.075,19792.641,0.143,0.977,-0.155,0.005,-0.001,0.009,-0.028,0.0,-0.004,0.744,-1.358,2.04
2024-10-23 22:04:29.086,19792.651,0.143,0.978,-0.155,0.005,0.005,0.01,-0.026,0.011,-0.004,0.744,-1.358,2.041
2024-10-23 22:04:29.095,19792.661,0.143,0.978,-0.155,0.001,0.008,0.009,-0.034,0.007,0.001,0.745,-1.359,2.042
2024-10-23 22:04:29.105,19792.671,0.143,0.978,-0.154,0.0,0.006,0.009,-0.04,-0.002,0.003,0.747,-1.359,2.043
2024-10-23 22:04:29.115,19792.681,0.143,0.978,-0.154,0.003,-0.001,0.008,-0.035,-0.001,0.013,0.748,-1.359,2.045
2024-10-23 22:04:29.125,19792.691,0.143,0.978,-0.154,0.003,-0.006,0.008,-0.047,0.001,0.012,0.75,-1.359,2.047
2024-10-23 22:04:29.135,19792.701,0.143,0.978,-0.153,0.002,-0.01,0.005,-0.033,-0.002,0.01,0.752,-1.36,2.048
2024-10-23 22:04:29.145,19792.711,0.143,0.978,-0.153,0.004,-0.007,0.007,-0.025,-0.004,0.011,0.753,-1.36,2.05
2024-10-23 22:04:29.155,19792.721,0.143,0.978,-0.153,0.004,-0.001,0.007,-0.015,-0.003,0.013,0.754,-1.36,2.051
2024-10-23 22:04:29.165,19792.731,0.143,0.978,-0.153,0.003,0.004,0.011,-0.01,-0.002,0.008,0.755,-1.36,2.052
2024-10-23 22:04:29.175,19792.741,0.144,0.978,-0.152,0.003,0.006,0.011,-0.013,-0.009,0.008,0.756,-1.36,2.052
2024-10-23 22:04:29.185,19792.751,0.144,0.978,-0.152,0.004,0.001,0.007,-0.01,-0.014,0.009,0.756,-1.36,2.053
2024-10-23 22:04:29.195,19792.761,0.144,0.978,-0.152,0.004,0.0,0.007,-0.012,-0.008,0.007,0.757,-1.36,2.054
2024-10-23 22:04:29.205,19792.77,0.144,0.978,-0.152,0.006,0.002,0.007,-0.011,-0.005,-0.0,0.757,-1.36,2.054
2024-10-23 22:04:29.216,19792.78,0.144,0.978,-0.152,0.003,0.004,0.005,0.001,-0.004,0.005,0.757,-1.36,2.055
2024-10-23 22:04:29.225,19792.79,0.144,0.978,-0.152,0.003,0.006,0.004,0.002,-0.001,0.012,0.758,-1.36,2.055
2024-10-23 22:04:29.235,19792.8,0.144,0.978,-0.152,0.004,0.005,0.005,-0.007,-0.004,0.012,0.758,-1.36,2.055
2024-10-23 22:04:29.245,19792.81,0.144,0.978,-0.152,0.003,0.0,0.005,-0.008,-0.006,0.013,0.759,-1.36,2.056
2024-10-23 22:04:29.255,19792.82,0.144,0.978,-0.152,0.004,-0.003,0.008,-0.004,-0.011,0.012,0.76,-1.36,2.057
2024-10-23 22:04:29.265,19792.83,0.144,0.978,-0.152,0.004,-0.008,0.007,0.005,-0.008,0.009,0.76,-1.36,2.057
2024-10-23 22:04:29.275,19792.84,0.144,0.978,-0.152,0.002,-0.009,0.008,0.005,-0.002,0.009,0.76,-1.36,2.057
2024-10-23 22:04:29.285,19792.85,0.144,0.978,-0.152,0.001,-0.003,0.008,-0.006,-0.002,-0.001,0.76,-1.36,2.058
2024-10-23 22:04:29.295,19792.86,0.145,0.978,-0.152,0.001,-0.003,0.008,-0.012,-0.003,0.005,0.761,-1.36,2.058
2024-10-23 22:04:29.305,19792.87,0.145,0.978,-0.152,0.002,-0.008,0.006,-0.018,-0.003,0.002,0.761,-1.36,2.059
2024-10-23 22:04:29.315,19792.88,0.145,0.978,-0.152,0.005,-0.012,0.005,-0.01,-0.004,0.007,0.762,-1.36,2.059
2024-10-23 22:04:29.325,19792.89,0.145,0.978,-0.151,0.004,-0.01,0.007,-0.006,-0.011,0.009,0.762,-1.36,2.06
2024-10-23 22:04:29.335,19792.9,0.145,0.978,-0.151,0.005,-0.01,0.006,0.001,-0.01,0.007,0.763,-1.36,2.061
2024-10-23 22:04:29.345,19792.91,0.145,0.978,-0.151,0.005,-0.005,0.009,0.007,-0.005,0.005,0.763,-1.36,2.061
2024-10-23 22:04:29.355,19792.92,0.145,0.978,-0.152,0.005,0.005,0.011,0.0,-0.009,0.001,0.763,-1.36,2.061
2024-10-23 22:04:29.365,19792.93,0.145,0.978,-0.152,0.003,0.01,0.012,-0.001,-0.005,-0.003,0.763,-1.36,2.061
2024-10-23 22:04:29.374,19792.94,0.145,0.978,-0.152,0.003,0.008,0.014,-0.003,-0.008,-0.003,0.763,-1.36,2.061
2024-10-23 22:04:29.384,19792.95,0.145,0.978,-0.152,0.004,0.005,0.01,0.001,0.0,-0.002,0.762,-1.36,2.061
2024-10-23 22:04:29.394,19792.96,0.145,0.978,-0.152,0.005,0.005,0.006,0.006,-0.004,-0.002,0.762,-1.36,2.06
2024-10-23 22:04:29.404,19792.97,0.145,0.978,-0.152,0.003,0.006,0.005,0.01,-0.002,-0.001,0.762,-1.36,2.06
2024-10-23 22:04:29.415,19792.98,0.145,0.978,-0.152,0.003,0.005,0.007,-0.002,-0.0,-0.009,0.762,-1.36,2.06
2024-10-23 22:04:29.424,19792.99,0.145,0.978,-0.152,0.004,0.0,0.008,-0.007,0.002,-0.012,0.762,-1.36,2.06
2024-10-23 22:04:29.435,19793.0,0.144,0.978,-0.151,0.005,-0.003,0.008,-0.014,-0.001,-0.005,0.762,-1.36,2.06
2024-10-23 22:04:29.445,19793.01,0.144,0.978,-0.151,0.005,-0.008,0.008,-0.001,0.001,-0.007,0.762,-1.36,2.06
2024-10-23 22:04:29.455,19793.02,0.144,0.978,-0.151,0.004,-0.012,0.007,0.002,-0.0,-0.014,0.762,-1.36,2.06
2024-10-23 22:04:29.465,19793.03,0.144,0.978,-0.151,0.001,-0.013,0.006,0.009,0.004,-0.008,0.761,-1.36,2.059
2024-10-23 22:04:29.475,19793.04,0.144,0.978,-0.151,-0.0,-0.005,0.005,0.011,0.003,-0.004,0.761,-1.36,2.059
2024-10-23 22:04:29.485,19793.05,0.144,0.978,-0.151,-0.001,-0.004,0.002,-0.01,-0.007,-0.005,0.761,-1.36,2.059
2024-10-23 22:04:29.494,19793.06,0.144,0.978,-0.151,0.002,-0.01,0.003,-0.03,-0.013,-0.007,0.761,-1.36,2.059
2024-10-23 22:04:29.504,19793.07,0.144,0.978,-0.151,0.004,-0.009,0.001,-0.057,-0.009,-0.012,0.762,-1.361,2.06
2024-10-23 22:04:29.514,19793.08,0.144,0.978,-0.15,0.006,-0.002,-0.009,-0.108,-0.01,-0.003,0.764,-1.361,2.063
2024-10-23 22:04:29.524,19793.09,0.144,0.978,-0.149,0.012,-0.001,-0.023,-0.135,0.002,0.013,0.768,-1.362,2.067
2024-10-23 22:04:29.535,19793.1,0.144,0.979,-0.147,0.011,-0.011,-0.033,-0.183,-0.057,0.038,0.775,-1.363,2.073
2024-10-23 22:04:29.545,19793.11,0.145,0.979,-0.146,-0.003,-0.025,-0.024,-0.104,-0.163,0.096,0.781,-1.364,2.081
2024-10-23 22:04:29.555,19793.12,0.146,0.979,-0.146,-0.001,-0.019,-0.016,0.06,-0.104,0.119,0.784,-1.363,2.086
2024-10-23 22:04:29.564,19793.13,0.147,0.978,-0.147,-0.001,0.029,0.027,0.185,-0.015,0.099,0.783,-1.362,2.085
2024-10-23 22:04:29.574,19793.14,0.147,0.978,-0.149,-0.017,0.102,0.076,0.274,0.032,0.078,0.778,-1.359,2.08
2024-10-23 22:04:29.585,19793.15,0.148,0.977,-0.151,-0.005,0.115,0.098,0.037,0.126,0.035,0.775,-1.358,2.077
2024-10-23 22:04:29.594,19793.16,0.148,0.977,-0.15,0.027,0.03,0.045,-0.216,0.097,0.001,0.78,-1.358,2.08
2024-10-23 22:04:29.605,19793.17,0.149,0.978,-0.147,0.032,-0.081,0.02,-0.273,0.021,0.026,0.79,-1.36,2.089
2024-10-23 22:04:29.614,19793.18,0.149,0.978,-0.145,0.011,-0.17,-0.005,-0.195,-0.086,0.057,0.8,-1.361,2.1
2024-10-23 22:04:29.624,19793.19,0.149,0.978,-0.145,-0.003,-0.155,-0.041,0.137,0.007,-0.022,0.8,-1.362,2.101
2024-10-23 22:04:29.634,19793.2,0.149,0.978,-0.147,-0.01,0.016,-0.033,0.356,0.101,0.075,0.793,-1.36,2.093
2024-10-23 22:04:29.644,19793.21,0.15,0.977,-0.15,-0.03,0.126,0.008,0.245,0.067,0.091,0.787,-1.357,2.085
2024-10-23 22:04:29.654,19793.22,0.151,0.977,-0.152,-0.036,0.07,-0.001,0.086,-0.004,0.016,0.783,-1.355,2.082
2024-10-23 22:04:29.664,19793.23,0.151,0.977,-0.152,-0.011,-0.037,0.027,0.085,-0.013,0.016,0.781,-1.355,2.08
2024-10-23 22:04:29.674,19793.24,0.151,0.977,-0.153,-0.003,-0.039,0.031,0.148,0.03,0.022,0.778,-1.354,2.077
2024-10-23 22:04:29.684,19793.25,0.152,0.976,-0.155,-0.004,0.044,0.015,0.172,0.047,0.024,0.774,-1.352,2.072
2024-10-23 22:04:29.694,19793.26,0.152,0.976,-0.156,-0.007,0.075,0.002,0.118,0.011,0.012,0.771,-1.351,2.068
2024-10-23 22:04:29.704,19793.27,0.152,0.976,-0.157,0.002,0.033,-0.001,0.126,-0.043,-0.004,0.767,-1.35,2.065
2024-10-23 22:04:29.714,19793.28,0.152,0.976,-0.159,0.027,-0.009,0.005,0.069,-0.025,0.02,0.764,-1.349,2.062
2024-10-23 22:04:29.724,19793.29,0.152,0.976,-0.159,0.044,-0.022,0.008,-0.004,-0.033,0.015,0.763,-1.349,2.061
2024-10-23 22:04:29.734,19793.3,0.152,0.976,-0.159,0.027,-0.009,0.008,-0.038,-0.038,-0.015,0.764,-1.349,2.062
2024-10-23 22:04:29.744,19793.31,0.152,0.976,-0.159,-0.003,-0.007,0.007,-0.005,-0.029,-0.016,0.763,-1.35,2.062
2024-10-23 22:04:29.754,19793.32,0.152,0.976,-0.159,-0.003,-0.009,0.004,0.033,-0.021,0.002,0.763,-1.35,2.062
2024-10-23 22:04:29.764,19793.33,0.152,0.976,-0.159,0.009,0.002,0.004,0.042,-0.021,0.0,0.761,-1.349,2.06
2024-10-23 22:04:29.774,19793.34,0.152,0.975,-0.16,0.008,-0.001,0.006,0.061,-0.015,0.002,0.76,-1.349,2.059
2024-10-23 22:04:29.784,19793.35,0.152,0.975,-0.16,0.002,-0.012,0.011,0.081,-0.009,0.014,0.758,-1.348,2.057
2024-10-23 22:04:29.794,19793.359,0.152,0.975,-0.161,-0.001,-0.02,0.013,0.077,-0.018,0.017,0.756,-1.348,2.055
2024-10-23 22:04:29.804,19793.369,0.152,0.975,-0.162,0.003,-0.021,0.014,0.061,-0.01,0.011,0.754,-1.347,2.053
2024-10-23 22:04:29.814,19793.379,0.152,0.975,-0.162,0.004,-0.013,0.021,0.026,-0.006,0.006,0.753,-1.347,2.052
2024-10-23 22:04:29.824,19793.389,0.152,0.975,-0.162,-0.001,-0.006,0.023,-0.007,-0.007,0.004,0.753,-1.346,2.052
2024-10-23 22:04:29.834,19793.399,0.152,0.975,-0.162,-0.001,-0.005,0.018,-0.036,-0.011,-0.005,0.753,-1.347,2.053
2024-10-23 22:04:29.844,19793.409,0.152,0.975,-0.162,0.001,-0.005,0.009,-0.027,-0.003,-0.008,0.754,-1.347,2.054
2024-10-23 22:04:29.855,19793.419,0.152,0.975,-0.162,0.003,0.001,0.001,-0.012,0.012,0.005,0.755,-1.347,2.054
2024-10-23 22:04:29.864,19793.429,0.152,0.975,-0.162,0.004,0.005,-0.007,0.016,0.005,0.009,0.755,-1.347,2.055
2024-10-23 22:04:29.874,19793.439,0.152,0.975,-0.162,0.007,0.006,-0.008,0.01,0.012,0.008,0.755,-1.347,2.055
2024-10-23 22:04:29.884,19793.449,0.152,0.975,-0.162,0.01,-0.0,-0.008,0.022,0.024,0.003,0.755,-1.347,2.054
2024-10-23 22:04:29.894,19793.459,0.152,0.975,-0.162,0.009,-0.004,-0.001,0.037,0.029,0.002,0.755,-1.347,2.054
2024-10-23 22:04:29.904,19793.469,0.152,0.975,-0.162,0.005,-0.005,0.002,0.045,0.032,0.005,0.754,-1.346,2.053
2024-10-23 22:04:29.914,19793.479,0.153,0.975,-0.163,0.003,-0.002,0.004,0.065,0.049,0.012,0.753,-1.346,2.051
2024-10-23 22:04:29.924,19793.489,0.153,0.975,-0.163,0.005,0.005,0.012,0.07,0.071,0.016,0.752,-1.345,2.05
2024-10-23 22:04:29.934,19793.499,0.153,0.975,-0.164,0.007,0.004,0.012,0.046,0.093,0.025,0.752,-1.345,2.049
2024-10-23 22:04:29.944,19793.509,0.154,0.974,-0.164,0.004,0.007,0.009,0.012,0.11,0.042,0.753,-1.344,2.049
2024-10-23 22:04:29.954,19793.519,0.154,0.974,-0.164,0.001,0.016,0.008,-0.01,0.105,0.054,0.756,-1.344,2.05
2024-10-23 22:04:29.964,19793.529,0.155,0.974,-0.164,-0.0,0.019,0.007,0.004,0.114,0.068,0.759,-1.344,2.053
2024-10-23 22:04:29.974,19793.539,0.156,0.974,-0.163,0.008,0.01,0.003,0.008,0.112,0.068,0.762,-1.343,2.054
2024-10-23 22:04:29.984,19793.549,0.157,0.974,-0.163,0.016,-0.001,-0.004,-0.038,0.086,0.085,0.765,-1.343,2.057
2024-10-23 22:04:29.993,19793.559,0.158,0.974,-0.162,0.016,-0.014,-0.009,-0.082,0.064,0.081,0.771,-1.342,2.062
2024-10-23 22:04:30.003,19793.569,0.159,0.974,-0.162,0.015,-0.02,0.006,-0.068,0.064,0.074,0.776,-1.343,2.067
2024-10-23 22:04:30.013,19793.579,0.159,0.974,-0.161,0.004,-0.009,0.019,-0.018,0.078,0.086,0.781,-1.342,2.071
2024-10-23 22:04:30.023,19793.589,0.16,0.974,-0.161,-0.008,0.012,0.023,0.025,0.105,0.097,0.784,-1.342,2.073
2024-10-23 22:04:30.033,19793.599,0.162,0.974,-0.161,-0.005,0.022,0.026,0.049,0.129,0.113,0.787,-1.341,2.075
2024-10-23 22:04:30.044,19793.609,0.163,0.973,-0.161,-0.003,0.002,0.035,0.054,0.151,0.131,0.791,-1.339,2.077
2024-10-23 22:04:30.054,19793.619,0.165,0.973,-0.162,-0.007,-0.019,0.048,0.083,0.186,0.14,0.795,-1.338,2.08
2024-10-23 22:04:30.064,19793.629,0.166,0.973,-0.162,-0.012,-0.01,0.052,0.114,0.211,0.119,0.797,-1.336,2.08
2024-10-23 22:04:30.074,19793.639,0.168,0.972,-0.163,-0.013,0.007,0.034,0.067,0.182,0.121,0.8,-1.335,2.081
2024-10-23 22:04:30.084,19793.649,0.169,0.972,-0.163,-0.01,0.022,0.001,-0.012,0.109,0.083,0.804,-1.334,2.083
2024-10-23 22:04:30.094,19793.659,0.17,0.972,-0.162,0.008,-0.007,-0.002,-0.078,0.049,0.038,0.808,-1.334,2.087
2024-10-23 22:04:30.104,19793.669,0.17,0.972,-0.162,0.012,-0.044,0.004,-0.048,0.016,0.02,0.811,-1.334,2.09
2024-10-23 22:04:30.114,19793.679,0.17,0.972,-0.161,0.006,-0.026,0.011,0.011,0.02,0.022,0.812,-1.334,2.091
2024-10-23 22:04:30.124,19793.689,0.17,0.972,-0.162,0.0,0.004,0.008,0.063,0.029,0.019,0.812,-1.334,2.091
2024-10-23 22:04:30.134,19793.699,0.171,0.972,-0.162,-0.003,0.013,0.008,0.134,0.031,0.01,0.81,-1.333,2.088
2024-10-23 22:04:30.144,19793.709,0.171,0.972,-0.164,-0.008,-0.001,0.009,0.186,0.004,0.004,0.806,-1.332,2.084
2024-10-23 22:04:30.154,19793.719,0.171,0.971,-0.166,-0.008,-0.017,0.0,0.201,-0.013,-0.015,0.8,-1.331,2.078
2024-10-23 22:04:30.163,19793.729,0.17,0.971,-0.168,-0.005,-0.014,-0.007,0.249,-0.04,-0.032,0.793,-1.329,2.07
2024-10-23 22:04:30.174,19793.739,0.17,0.971,-0.171,-0.006,-0.003,-0.005,0.335,-0.055,-0.06,0.782,-1.328,2.06
2024-10-23 22:04:30.184,19793.749,0.169,0.97,-0.174,-0.006,0.006,-0.001,0.425,-0.02,-0.049,0.77,-1.325,2.048
2024-10-23 22:04:30.193,19793.759,0.169,0.969,-0.179,-0.004,0.011,0.002,0.495,-0.027,-0.091,0.755,-1.322,2.033
2024-10-23 22:04:30.203,19793.769,0.167,0.969,-0.184,0.001,0.015,0.001,0.527,-0.034,-0.11,0.738,-1.319,2.016
2024-10-23 22:04:30.213,19793.779,0.166,0.968,-0.189,-0.002,0.019,-0.014,0.548,-0.04,-0.074,0.722,-1.316,1.999
2024-10-23 22:04:30.223,19793.789,0.166,0.967,-0.194,-0.008,-0.0,-0.012,0.538,-0.06,-0.085,0.706,-1.312,1.983
2024-10-23 22:04:30.233,19793.799,0.165,0.966,-0.2,0.004,-0.044,-0.006,0.507,-0.043,-0.081,0.69,-1.309,1.967
2024-10-23 22:04:30.244,19793.809,0.164,0.965,-0.204,0.01,-0.045,0.015,0.496,-0.042,-0.081,0.676,-1.306,1.953
2024-10-23 22:04:30.253,19793.819,0.163,0.964,-0.209,0.01,-0.006,0.021,0.49,-0.046,-0.06,0.662,-1.302,1.939
2024-10-23 22:04:30.263,19793.829,0.163,0.963,-0.214,0.008,0.02,0.008,0.423,-0.055,-0.034,0.65,-1.299,1.927
2024-10-23 22:04:30.273,19793.839,0.162,0.962,-0.218,0.015,0.021,0.02,0.347,-0.083,-0.02,0.64,-1.296,1.918
2024-10-23 22:04:30.283,19793.849,0.162,0.962,-0.221,0.022,0.021,0.031,0.255,-0.1,0.002,0.633,-1.294,1.911
2024-10-23 22:04:30.293,19793.859,0.162,0.961,-0.223,0.027,0.009,0.036,0.122,-0.121,0.035,0.628,-1.292,1.908
2024-10-23 22:04:30.303,19793.869,0.162,0.961,-0.224,0.033,-0.001,0.042,0.029,-0.119,0.069,0.627,-1.291,1.908
2024-10-23 22:04:30.313,19793.879,0.162,0.961,-0.223,0.021,-0.012,0.022,-0.156,-0.175,0.052,0.629,-1.291,1.911
2024-10-23 22:04:30.323,19793.889,0.162,0.962,-0.221,0.01,-0.039,0.005,-0.237,-0.164,0.035,0.633,-1.293,1.916
2024-10-23 22:04:30.333,19793.899,0.162,0.962,-0.22,0.012,-0.025,0.026,-0.179,-0.151,0.014,0.636,-1.294,1.922
2024-10-23 22:04:30.343,19793.909,0.162,0.962,-0.219,0.007,0.001,0.024,-0.029,-0.143,0.017,0.637,-1.295,1.924
2024-10-23 22:04:30.353,19793.919,0.162,0.962,-0.22,-0.007,0.014,-0.003,0.132,-0.079,0.021,0.636,-1.294,1.924
2024-10-23 22:04:30.363,19793.929,0.162,0.962,-0.221,0.002,0.013,0.006,0.217,0.043,-0.007,0.632,-1.293,1.92
2024-10-23 22:04:30.373,19793.939,0.162,0.961,-0.224,0.004,0.005,0.013,0.388,0.109,-0.058,0.626,-1.291,1.913
2024-10-23 22:04:30.383,19793.948,0.162,0.96,-0.228,-0.012,0.002,0.01,0.581,0.187,-0.033,0.616,-1.287,1.902
2024-10-23 22:04:30.393,19793.958,0.162,0.959,-0.234,-0.014,0.01,0.019,0.531,0.128,-0.016,0.606,-1.282,1.889
2024-10-23 22:04:30.403,19793.968,0.161,0.958,-0.239,0.003,0.049,0.029,0.665,-0.023,-0.179,0.593,-1.278,1.875
2024-10-23 22:04:30.413,19793.978,0.159,0.956,-0.247,0.023,0.108,0.075,1.119,0.114,-0.376,0.571,-1.273,1.852
2024-10-23 22:04:30.423,19793.988,0.157,0.954,-0.256,0.042,0.126,0.111,0.622,0.332,-0.112,0.551,-1.266,1.828
2024-10-23 22:04:30.433,19793.998,0.156,0.953,-0.26,0.045,0.096,0.126,0.414,0.152,-0.317,0.54,-1.263,1.814
2024-10-23 22:04:30.443,19794.008,0.152,0.953,-0.263,0.007,0.134,0.072,0.394,0.12,-0.411,0.525,-1.262,1.797
2024-10-23 22:04:30.453,19794.018,0.149,0.952,-0.267,-0.038,0.066,-0.001,0.401,0.114,-0.288,0.51,-1.26,1.78
2024-10-23 22:04:30.463,19794.028,0.148,0.951,-0.27,-0.002,-0.024,-0.069,0.227,0.103,-0.074,0.502,-1.258,1.77
2024-10-23 22:04:30.473,19794.038,0.148,0.951,-0.271,0.007,0.023,-0.109,0.022,0.056,0.026,0.5,-1.257,1.767
2024-10-23 22:04:30.483,19794.048,0.149,0.951,-0.27,-0.042,-0.101,-0.127,-0.256,-0.05,0.106,0.503,-1.258,1.771
2024-10-23 22:04:30.493,19794.058,0.15,0.952,-0.267,-0.055,-0.315,-0.145,-0.341,-0.109,0.151,0.511,-1.26,1.78
2024-10-23 22:04:30.502,19794.068,0.151,0.952,-0.265,-0.019,-0.339,-0.112,-0.124,-0.066,0.122,0.518,-1.261,1.788
2024-10-23 22:04:30.512,19794.078,0.152,0.952,-0.265,-0.01,-0.259,-0.078,0.167,-0.047,0.118,0.52,-1.26,1.791
2024-10-23 22:04:30.522,19794.088,0.153,0.952,-0.267,-0.028,-0.197,-0.059,0.146,-0.05,0.142,0.52,-1.258,1.792
2024-10-23 22:04:30.534,19794.098,0.153,0.951,-0.268,-0.016,-0.087,0.011,0.055,-0.054,-0.013,0.52,-1.257,1.792
2024-10-23 22:04:30.543,19794.108,0.153,0.951,-0.268,0.011,0.086,0.103,-0.017,-0.107,0.052,0.519,-1.257,1.792
2024-10-23 22:04:30.553,19794.118,0.154,0.951,-0.267,0.008,0.16,0.142,-0.299,-0.146,0.111,0.523,-1.258,1.797
2024-10-23 22:04:30.563,19794.128,0.154,0.952,-0.263,0.021,0.092,0.124,-0.539,-0.183,0.079,0.53,-1.261,1.807
2024-10-23 22:04:30.573,19794.138,0.154,0.954,-0.258,0.031,0.058,0.113,-0.671,-0.22,0.078,0.54,-1.266,1.819
2024-10-23 22:04:30.582,19794.148,0.155,0.955,-0.252,0.03,0.052,0.072,-0.677,-0.216,0.106,0.552,-1.271,1.834
2024-10-23 22:04:30.592,19794.158,0.155,0.957,-0.246,0.052,0.077,0.026,-0.595,-0.175,0.126,0.564,-1.276,1.849
2024-10-23 22:04:30.602,19794.168,0.156,0.958,-0.241,0.053,0.104,-0.013,-0.503,-0.129,0.122,0.576,-1.28,1.862
2024-10-23 22:04:30.612,19794.178,0.157,0.959,-0.237,0.033,0.097,-0.048,-0.376,-0.122,0.098,0.586,-1.283,1.874
2024-10-23 22:04:30.622,19794.188,0.157,0.959,-0.234,0.013,0.078,-0.069,-0.139,-0.133,0.054,0.592,-1.285,1.882
2024-10-23 22:04:30.632,19794.198,0.158,0.959,-0.234,0.005,0.062,-0.063,0.096,-0.114,0.039,0.592,-1.284,1.883
2024-10-23 22:04:30.642,19794.208,0.158,0.959,-0.236,0.001,0.058,-0.045,0.242,-0.084,0.034,0.589,-1.283,1.881
2024-10-23 22:04:30.652,19794.218,0.158,0.958,-0.239,-0.002,0.076,-0.016,0.343,-0.108,0.008,0.583,-1.28,1.876
2024-10-23 22:04:30.662,19794.228,0.157,0.957,-0.243,-0.009,0.066,0.008,0.424,-0.131,0.006,0.575,-1.277,1.869
2024-10-23 22:04:30.671,19794.238,0.157,0.956,-0.248,-0.012,-0.005,0.025,0.47,-0.16,-0.001,0.566,-1.273,1.861
2024-10-23 22:04:30.681,19794.248,0.157,0.955,-0.252,-0.004,-0.073,0.047,0.485,-0.164,0.002,0.556,-1.269,1.852
2024-10-23 22:04:30.691,19794.258,0.156,0.954,-0.257,-0.001,-0.093,0.067,0.477,-0.159,0.004,0.546,-1.265,1.844
2024-10-23 22:04:30.701,19794.268,0.156,0.953,-0.261,-0.006,-0.083,0.071,0.327,-0.139,0.008,0.538,-1.261,1.837
2024-10-23 22:04:30.712,19794.278,0.156,0.952,-0.264,-0.01,-0.068,0.059,0.143,-0.133,-0.01,0.533,-1.259,1.833
2024-10-23 22:04:30.721,19794.288,0.155,0.952,-0.265,-0.008,-0.056,0.048,-0.013,-0.158,-0.029,0.53,-1.259,1.831
2024-10-23 22:04:30.732,19794.298,0.154,0.952,-0.264,-0.003,-0.068,0.027,-0.08,-0.167,-0.045,0.528,-1.26,1.831
2024-10-23 22:04:30.742,19794.308,0.154,0.952,-0.264,0.005,-0.075,0.013,-0.091,-0.143,-0.045,0.527,-1.261,1.831
2024-10-23 22:04:30.753,19794.318,0.153,0.953,-0.263,0.009,-0.047,-0.003,-0.077,-0.118,-0.036,0.526,-1.261,1.831
2024-10-23 22:04:30.762,19794.328,0.152,0.953,-0.263,0.007,-0.004,-0.012,-0.103,-0.116,-0.045,0.525,-1.262,1.832
2024-10-23 22:04:30.772,19794.338,0.151,0.953,-0.261,0.005,0.014,-0.017,-0.161,-0.114,-0.012,0.525,-1.264,1.833
2024-10-23 22:04:30.782,19794.348,0.151,0.954,-0.261,0.001,0.01,-0.009,-0.041,-0.073,0.019,0.526,-1.265,1.835
2024-10-23 22:04:30.792,19794.358,0.151,0.954,-0.261,-0.001,0.005,0.018,-0.02,-0.08,-0.001,0.526,-1.265,1.836
2024-10-23 22:04:30.801,19794.368,0.151,0.954,-0.26,0.003,0.016,-0.006,-0.016,-0.065,0.014,0.525,-1.265,1.836
2024-10-23 22:04:30.812,19794.378,0.151,0.954,-0.26,0.014,0.051,0.001,-0.004,-0.068,0.023,0.526,-1.265,1.837
2024-10-23 22:04:30.821,19794.388,0.151,0.954,-0.26,0.016,0.052,0.015,-0.061,-0.036,-0.052,0.525,-1.265,1.837
2024-10-23 22:04:30.832,19794.398,0.151,0.954,-0.26,0.01,0.027,0.005,-0.04,0.147,-0.378,0.526,-1.266,1.839
2024-10-23 22:04:30.842,19794.408,0.151,0.954,-0.26,0.004,0.024,0.016,-0.035,-0.132,-0.386,0.526,-1.266,1.84
2024-10-23 22:04:30.852,19794.418,0.151,0.954,-0.259,0.037,0.019,0.026,-0.046,-0.32,-0.035,0.527,-1.266,1.842
2024-10-23 22:04:30.862,19794.428,0.151,0.954,-0.259,0.016,0.028,0.015,-0.02,-0.094,-0.001,0.528,-1.266,1.843
2024-10-23 22:04:30.872,19794.438,0.151,0.954,-0.259,-0.006,0.031,0.007,-0.04,-0.026,0.048,0.529,-1.266,1.844
2024-10-23 22:04:30.882,19794.448,0.152,0.954,-0.259,0.012,-0.002,0.0,-0.063,-0.021,0.033,0.53,-1.266,1.847
2024-10-23 22:04:30.892,19794.458,0.152,0.954,-0.258,0.018,-0.016,0.003,-0.061,-0.03,0.043,0.532,-1.267,1.849
2024-10-23 22:04:30.902,19794.468,0.152,0.954,-0.258,0.01,-0.02,0.002,-0.045,-0.045,0.057,0.534,-1.267,1.851
2024-10-23 22:04:30.912,19794.478,0.153,0.954,-0.257,-0.001,-0.03,0.005,-0.047,-0.046,0.059,0.536,-1.267,1.854
2024-10-23 22:04:30.923,19794.488,0.153,0.954,-0.257,-0.001,-0.024,0.018,-0.059,-0.046,0.055,0.538,-1.267,1.856
2024-10-23 22:04:30.932,19794.498,0.154,0.954,-0.256,-0.007,-0.014,0.026,-0.076,-0.05,0.05,0.54,-1.267,1.859
2024-10-23 22:04:30.942,19794.508,0.154,0.954,-0.255,-0.012,-0.005,0.025,-0.086,-0.049,0.035,0.542,-1.268,1.862
2024-10-23 22:04:30.952,19794.518,0.154,0.955,-0.255,-0.008,-0.002,0.021,-0.071,-0.054,0.02,0.544,-1.269,1.864
2024-10-23 22:04:30.962,19794.528,0.154,0.955,-0.254,-0.001,-0.009,0.014,-0.068,-0.051,0.022,0.545,-1.269,1.866
2024-10-23 22:04:30.972,19794.538,0.154,0.955,-0.254,0.004,-0.012,0.009,-0.061,-0.01,-0.046,0.546,-1.269,1.867
2024-10-23 22:04:30.982,19794.547,0.154,0.955,-0.253,0.009,-0.004,0.014,-0.051,0.351,-0.536,0.547,-1.27,1.868
2024-10-23 22:04:30.991,19794.557,0.154,0.955,-0.253,0.003,0.001,0.012,-0.013,0.593,-0.88,0.547,-1.27,1.869
2024-10-23 22:04:31.002,19794.567,0.154,0.955,-0.252,0.03,-0.002,0.011,-0.032,0.124,-0.31,0.548,-1.271,1.87
2024-10-23 22:04:31.012,19794.577,0.154,0.955,-0.252,0.019,-0.004,0.008,-0.042,-0.08,0.002,0.548,-1.271,1.871
2024-10-23 22:04:31.022,19794.587,0.154,0.955,-0.252,0.012,0.004,0.009,-0.035,-0.056,0.032,0.549,-1.271,1.872
2024-10-23 22:04:31.032,19794.597,0.154,0.955,-0.252,0.007,0.001,0.003,-0.029,-0.05,0.021,0.55,-1.271,1.873
2024-10-23 22:04:31.042,19794.607,0.154,0.956,-0.251,0.017,-0.002,0.004,-0.034,-0.094,0.058,0.55,-1.271,1.875
2024-10-23 22:04:31.052,19794.617,0.154,0.956,-0.251,0.006,-0.004,0.006,-0.04,-0.213,0.119,0.551,-1.272,1.876
2024-10-23 22:04:31.062,19794.627,0.154,0.956,-0.251,0.011,-0.002,0.002,-0.033,-0.331,0.204,0.551,-1.272,1.877
2024-10-23 22:04:31.072,19794.637,0.154,0.956,-0.251,0.017,-0.005,0.002,-0.005,-0.369,0.28,0.552,-1.272,1.878
2024-10-23 22:04:31.082,19794.647,0.154,0.956,-0.251,0.01,-0.01,0.006,0.028,-0.295,0.31,0.551,-1.271,1.878
2024-10-23 22:04:31.092,19794.657,0.155,0.955,-0.252,0.002,-0.004,0.005,0.047,-0.102,0.257,0.551,-1.271,1.878
2024-10-23 22:04:31.102,19794.667,0.155,0.955,-0.252,0.0,0.002,0.002,0.048,0.182,0.105,0.55,-1.271,1.878
2024-10-23 22:04:31.112,19794.677,0.155,0.955,-0.252,-0.0,0.003,0.005,0.035,0.512,-0.126,0.55,-1.27,1.878
2024-10-23 22:04:31.122,19794.687,0.155,0.955,-0.253,0.001,0.001,0.012,0.028,0.799,-0.391,0.549,-1.27,1.879
2024-10-23 22:04:31.132,19794.697,0.155,0.955,-0.253,0.001,0.001,0.017,0.034,0.962,-0.627,0.549,-1.27,1.879
2024-10-23 22:04:31.142,19794.707,0.155,0.955,-0.253,0.002,0.004,0.019,0.03,0.901,-0.737,0.549,-1.27,1.88
2024-10-23 22:04:31.152,19794.717,0.155,0.955,-0.253,0.007,0.005,0.021,0.019,0.592,-0.661,0.549,-1.27,1.88
2024-10-23 22:04:31.161,19794.727,0.155,0.955,-0.253,0.016,0.003,0.021,0.009,0.181,-0.484,0.548,-1.269,1.881
2024-10-23 22:04:31.172,19794.737,0.155,0.955,-0.254,0.015,-0.005,0.022,0.001,-0.243,-0.227,0.548,-1.269,1.881
2024-10-23 22:04:31.182,19794.747,0.155,0.955,-0.254,0.016,-0.012,0.023,-0.016,-0.607,0.043,0.548,-1.269,1.882
2024-10-23 22:04:31.191,19794.757,0.155,0.955,-0.254,0.013,-0.012,0.023,-0.018,-0.845,0.291,0.547,-1.269,1.882
2024-10-23 22:04:31.202,19794.767,0.155,0.955,-0.254,0.01,-0.009,0.013,-0.001,-0.939,0.473,0.546,-1.269,1.882
2024-10-23 22:04:31.212,19794.777,0.155,0.955,-0.255,0.003,-0.011,-0.003,-0.003,-0.875,0.561,0.545,-1.268,1.881
2024-10-23 22:04:31.221,19794.787,0.154,0.955,-0.255,-0.004,-0.017,-0.006,-0.0,-0.672,0.545,0.545,-1.268,1.881
2024-10-23 22:04:31.231,19794.797,0.154,0.955,-0.255,-0.009,-0.007,-0.001,0.017,-0.376,0.44,0.544,-1.268,1.881
2024-10-23 22:04:31.242,19794.807,0.154,0.954,-0.255,-0.014,0.003,0.005,0.023,-0.049,0.266,0.543,-1.268,1.881
2024-10-23 22:04:31.251,19794.817,0.154,0.954,-0.255,-0.015,0.005,0.007,0.03,0.241,0.067,0.543,-1.268,1.881
2024-10-23 22:04:31.263,19794.827,0.154,0.954,-0.256,-0.009,0.0,0.011,0.032,0.446,-0.121,0.542,-1.268,1.881
2024-10-23 22:04:31.271,19794.837,0.154,0.954,-0.256,-0.005,-0.011,0.012,0.036,0.542,-0.265,0.542,-1.268,1.881
2024-10-23 22:04:31.282,19794.847,0.154,0.954,-0.256,0.0,-0.017,0.008,0.031,0.528,-0.349,0.541,-1.267,1.881
2024-10-23 22:04:31.291,19794.857,0.154,0.954,-0.256,0.003,-0.011,0.006,0.024,0.428,-0.359,0.541,-1.267,1.881
2024-10-23 22:04:31.302,19794.867,0.154,0.954,-0.257,0.002,0.001,0.004,0.016,0.254,-0.305,0.54,-1.267,1.881
2024-10-23 22:04:31.312,19794.877,0.154,0.954,-0.257,0.001,0.008,0.001,0.017,0.056,-0.206,0.54,-1.267,1.881
2024-10-23 22:04:31.322,19794.887,0.154,0.954,-0.257,0.005,0.005,-0.001,0.008,-0.129,-0.081,0.54,-1.267,1.881
2024-10-23 22:04:31.332,19794.897,0.154,0.954,-0.257,0.007,-0.003,-0.003,-0.002,-0.274,0.029,0.539,-1.266,1.881
2024-10-23 22:04:31.341,19794.907,0.154,0.954,-0.257,0.005,-0.002,0.001,-0.01,-0.342,0.131,0.539,-1.266,1.881
2024-10-23 22:04:31.351,19794.917,0.154,0.954,-0.257,0.003,0.006,0.006,0.004,-0.342,0.195,0.539,-1.266,1.881
2024-10-23 22:04:31.361,19794.927,0.154,0.954,-0.257,-0.001,0.007,0.011,-0.005,-0.293,0.21,0.54,-1.266,1.882
2024-10-23 22:04:31.371,19794.937,0.154,0.954,-0.257,-0.001,-0.006,0.011,-0.006,-0.208,0.182,0.54,-1.266,1.882
2024-10-23 22:04:31.381,19794.947,0.154,0.954,-0.257,-0.001,-0.013,0.013,0.007,-0.091,0.13,0.54,-1.266,1.883
2024-10-23 22:04:31.391,19794.957,0.155,0.954,-0.258,-0.004,-0.006,0.011,0.025,-0.003,0.073,0.54,-1.266,1.883
2024-10-23 22:04:31.401,19794.967,0.155,0.954,-0.258,-0.008,0.002,0.006,0.035,0.057,0.024,0.54,-1.265,1.883
2024-10-23 22:04:31.411,19794.977,0.155,0.954,-0.258,-0.008,0.006,0.008,0.032,0.074,-0.005,0.54,-1.265,1.883
2024-10-23 22:04:31.421,19794.987,0.155,0.954,-0.258,-0.004,0.005,0.006,0.032,0.063,-0.011,0.54,-1.265,1.882
2024-10-23 22:04:31.431,19794.997,0.155,0.953,-0.259,-0.001,0.003,0.004,0.028,0.034,-0.006,0.539,-1.265,1.882
2024-10-23 22:04:31.441,19795.007,0.155,0.953,-0.259,0.002,0.001,0.002,0.027,-0.003,0.01,0.539,-1.264,1.882
2024-10-23 22:04:31.451,19795.017,0.155,0.953,-0.259,0.005,0.001,-0.0,0.024,-0.005,0.008,0.539,-1.264,1.882
2024-10-23 22:04:31.461,19795.027,0.155,0.953,-0.259,0.006,-0.001,0.001,0.021,0.007,0.005,0.539,-1.264,1.882
2024-10-23 22:04:31.470,19795.037,0.155,0.953,-0.26,0.005,-0.002,0.003,0.017,0.011,0.005,0.539,-1.264,1.881
2024-10-23 22:04:31.481,19795.047,0.155,0.953,-0.26,0.002,-0.004,0.004,0.009,0.017,0.003,0.539,-1.264,1.881
2024-10-23 22:04:31.491,19795.057,0.155,0.953,-0.26,-0.001,-0.007,0.002,0.013,0.013,-0.003,0.539,-1.263,1.881
2024-10-23 22:04:31.501,19795.067,0.155,0.953,-0.26,-0.0,-0.008,0.003,0.025,0.015,-0.004,0.538,-1.263,1.881
2024-10-23 22:04:31.510,19795.077,0.155,0.953,-0.26,0.002,-0.001,-0.001,0.035,0.027,-0.002,0.538,-1.263,1.88
2024-10-23 22:04:31.522,19795.087,0.155,0.953,-0.26,0.001,0.008,-0.001,0.03,0.033,-0.003,0.538,-1.263,1.88
2024-10-23 22:04:31.531,19795.097,0.155,0.953,-0.261,-0.001,0.005,0.0,0.015,0.032,-0.01,0.538,-1.263,1.879
2024-10-23 22:04:31.541,19795.107,0.155,0.953,-0.261,-0.001,-0.003,0.005,0.012,0.03,-0.015,0.538,-1.263,1.879
2024-10-23 22:04:31.551,19795.117,0.155,0.953,-0.261,-0.002,-0.007,0.012,0.015,0.032,-0.012,0.537,-1.263,1.878
2024-10-23 22:04:31.561,19795.127,0.155,0.953,-0.261,-0.002,-0.005,0.015,0.006,0.041,-0.016,0.537,-1.263,1.877
2024-10-23 22:04:31.571,19795.136,0.155,0.953,-0.261,-0.005,-0.005,0.016,0.008,0.045,-0.022,0.537,-1.263,1.877
2024-10-23 22:04:31.581,19795.146,0.155,0.953,-0.261,-0.008,-0.012,0.014,0.011,0.043,-0.026,0.537,-1.263,1.876
2024-10-23 22:04:31.591,19795.156,0.155,0.953,-0.261,-0.012,-0.019,0.012,-0.011,0.067,-0.023,0.536,-1.263,1.875
2024-10-23 22:04:31.601,19795.166,0.155,0.953,-0.261,-0.012,-0.012,0.008,-0.002,0.063,-0.027,0.536,-1.263,1.875
2024-10-23 22:04:31.617,19795.176,0.155,0.953,-0.26,-0.013,-0.001,0.007,-0.005,0.066,-0.038,0.536,-1.263,1.874
2024-10-23 22:04:31.622,19795.186,0.155,0.953,-0.26,-0.016,-0.005,0.0,-0.001,0.081,-0.036,0.536,-1.263,1.873
2024-10-23 22:04:31.631,19795.196,0.155,0.953,-0.26,-0.014,-0.006,-0.003,0.006,0.096,-0.03,0.536,-1.263,1.872
2024-10-23 22:04:31.640,19795.206,0.154,0.953,-0.26,-0.012,0.007,-0.006,0.009,0.105,-0.029,0.536,-1.264,1.871
2024-10-23 22:04:31.651,19795.216,0.154,0.953,-0.26,-0.013,0.012,-0.009,0.006,0.104,-0.028,0.536,-1.264,1.87
2024-10-23 22:04:31.661,19795.226,0.154,0.953,-0.26,-0.009,0.005,-0.008,0.002,0.11,-0.027,0.536,-1.264,1.869
2024-10-23 22:04:31.671,19795.236,0.154,0.953,-0.26,-0.005,0.0,-0.006,0.012,0.111,-0.028,0.537,-1.264,1.868
2024-10-23 22:04:31.681,19795.246,0.155,0.953,-0.26,-0.006,0.001,-0.004,0.024,0.117,-0.024,0.537,-1.264,1.867
2024-10-23 22:04:31.691,19795.256,0.155,0.953,-0.26,-0.004,0.003,-0.001,0.029,0.118,-0.022,0.537,-1.264,1.866
2024-10-23 22:04:31.701,19795.266,0.155,0.953,-0.26,0.0,0.008,0.004,0.027,0.115,-0.024,0.537,-1.264,1.865
2024-10-23 22:04:31.711,19795.276,0.155,0.953,-0.26,0.003,0.008,0.008,0.016,0.111,-0.026,0.537,-1.264,1.864
2024-10-23 22:04:31.721,19795.286,0.155,0.953,-0.26,0.008,0.002,0.012,0.026,0.102,-0.028,0.537,-1.264,1.862
2024-10-23 22:04:31.731,19795.296,0.155,0.953,-0.26,0.013,-0.006,0.013,0.033,0.097,-0.026,0.537,-1.263,1.861
2024-10-23 22:04:31.741,19795.306,0.155,0.953,-0.26,0.017,-0.007,0.015,0.037,0.098,-0.027,0.536,-1.263,1.86
2024-10-23 22:04:31.751,19795.316,0.155,0.953,-0.26,0.017,-0.003,0.016,0.032,0.092,-0.029,0.536,-1.263,1.858
2024-10-23 22:04:31.760,19795.326,0.155,0.953,-0.261,0.017,-0.001,0.017,0.017,0.081,-0.032,0.535,-1.263,1.857
2024-10-23 22:04:31.771,19795.336,0.154,0.953,-0.261,0.021,-0.005,0.017,0.009,0.073,-0.029,0.535,-1.263,1.856
2024-10-23 22:04:31.780,19795.346,0.154,0.953,-0.26,0.022,-0.007,0.017,-0.005,0.065,-0.027,0.535,-1.263,1.855
2024-10-23 22:04:31.790,19795.356,0.154,0.953,-0.26,0.023,-0.011,0.014,0.003,0.057,-0.027,0.535,-1.263,1.854
2024-10-23 22:04:31.800,19795.366,0.154,0.953,-0.26,0.021,-0.014,0.012,0.005,0.054,-0.027,0.535,-1.264,1.854
2024-10-23 22:04:31.810,19795.376,0.154,0.953,-0.26,0.021,-0.018,0.012,0.013,0.047,-0.027,0.535,-1.264,1.853
2024-10-23 22:04:31.820,19795.386,0.154,0.953,-0.26,0.022,-0.013,0.013,0.022,0.039,-0.024,0.534,-1.264,1.852
2024-10-23 22:04:31.830,19795.396,0.154,0.953,-0.26,0.021,-0.01,0.017,0.019,0.035,-0.032,0.534,-1.264,1.851
2024-10-23 22:04:31.841,19795.406,0.154,0.953,-0.26,0.018,-0.009,0.015,0.006,0.028,-0.031,0.533,-1.264,1.85
2024-10-23 22:04:31.851,19795.416,0.153,0.953,-0.26,0.016,-0.006,0.015,-0.012,0.026,-0.029,0.533,-1.264,1.849
2024-10-23 22:04:31.861,19795.426,0.153,0.953,-0.26,0.015,-0.006,0.013,-0.017,0.02,-0.03,0.533,-1.264,1.849
2024-10-23 22:04:31.870,19795.436,0.153,0.953,-0.26,0.014,-0.011,0.007,-0.019,0.007,-0.035,0.532,-1.264,1.849
2024-10-23 22:04:31.881,19795.446,0.153,0.953,-0.26,0.016,-0.016,0.004,0.005,0.01,-0.024,0.532,-1.265,1.848
2024-10-23 22:04:31.890,19795.456,0.153,0.953,-0.26,0.013,-0.004,0.006,0.015,0.018,-0.018,0.531,-1.265,1.847
2024-10-23 22:04:31.900,19795.466,0.153,0.954,-0.26,0.01,0.01,0.004,0.007,0.011,-0.022,0.531,-1.265,1.847
2024-10-23 22:04:31.911,19795.476,0.152,0.954,-0.26,0.011,0.01,0.007,-0.003,0.002,-0.019,0.53,-1.265,1.846
2024-10-23 22:04:31.920,19795.486,0.152,0.954,-0.26,0.012,0.003,0.009,-0.006,-0.003,-0.015,0.53,-1.265,1.846
2024-10-23 22:04:31.930,19795.496,0.152,0.954,-0.26,0.014,0.001,0.009,0.001,-0.003,-0.014,0.53,-1.265,1.845
2024-10-23 22:04:31.941,19795.506,0.152,0.954,-0.26,0.014,0.006,0.01,0.01,-0.0,-0.009,0.53,-1.265,1.845
2024-10-23 22:04:31.950,19795.516,0.152,0.954,-0.26,0.011,0.007,0.007,0.001,-0.007,-0.001,0.53,-1.265,1.845
2024-10-23 22:04:31.960,19795.526,0.152,0.954,-0.26,0.009,0.004,0.006,0.007,-0.019,0.007,0.53,-1.265,1.845
2024-10-23 22:04:31.971,19795.536,0.152,0.954,-0.26,0.009,-0.001,0.007,0.0,-0.024,0.004,0.529,-1.265,1.845
2024-10-23 22:04:31.980,19795.546,0.152,0.954,-0.26,0.008,-0.01,0.007,0.005,-0.017,-0.002,0.529,-1.265,1.845
2024-10-23 22:04:31.990,19795.556,0.152,0.953,-0.26,0.004,-0.005,0.009,0.009,-0.007,0.001,0.529,-1.265,1.845
2024-10-23 22:04:32.000,19795.566,0.152,0.953,-0.26,-0.002,0.005,0.011,-0.002,-0.014,0.004,0.529,-1.265,1.846
2024-10-23 22:04:32.010,19795.576,0.152,0.954,-0.26,-0.002,0.003,0.011,-0.009,-0.017,-0.002,0.529,-1.265,1.846
2024-10-23 22:04:32.020,19795.586,0.152,0.954,-0.26,-0.001,-0.003,0.01,-0.015,-0.016,0.001,0.529,-1.265,1.846
2024-10-23 22:04:32.031,19795.596,0.152,0.954,-0.26,-0.002,-0.006,0.006,-0.012,-0.009,0.003,0.53,-1.265,1.846
2024-10-23 22:04:32.040,19795.606,0.152,0.954,-0.26,-0.001,-0.002,0.001,-0.003,-0.006,0.004,0.53,-1.265,1.847
2024-10-23 22:04:32.050,19795.616,0.152,0.954,-0.26,-0.001,0.002,-0.001,0.003,-0.006,0.002,0.53,-1.265,1.847
2024-10-23 22:04:32.060,19795.626,0.152,0.954,-0.26,0.001,0.004,-0.001,0.001,-0.01,0.005,0.53,-1.265,1.847
2024-10-23 22:04:32.071,19795.636,0.152,0.954,-0.26,0.003,0.003,0.003,0.001,-0.013,0.003,0.53,-1.265,1.847
2024-10-23 22:04:32.080,19795.646,0.152,0.954,-0.26,0.006,0.003,0.005,0.007,-0.007,0.002,0.53,-1.265,1.847
2024-10-23 22:04:32.090,19795.656,0.152,0.954,-0.26,0.006,0.004,0.007,0.007,-0.013,-0.0,0.53,-1.265,1.847
2024-10-23 22:04:32.100,19795.666,0.152,0.954,-0.26,0.004,0.0,0.007,-0.003,-0.015,-0.002,0.53,-1.265,1.847
2024-10-23 22:04:32.110,19795.676,0.152,0.954,-0.26,0.003,-0.001,0.007,0.006,-0.018,0.007,0.53,-1.265,1.847
2024-10-23 22:04:32.120,19795.686,0.152,0.954,-0.26,0.003,-0.0,0.011,0.001,-0.013,0.004,0.53,-1.265,1.847
2024-10-23 22:04:32.130,19795.696,0.152,0.954,-0.26,0.001,-0.006,0.009,-0.004,-0.012,0.004,0.53,-1.265,1.847
2024-10-23 22:04:32.140,19795.706,0.152,0.954,-0.26,0.0,-0.006,0.011,0.003,-0.007,0.003,0.53,-1.265,1.847
2024-10-23 22:04:32.150,19795.716,0.152,0.954,-0.26,-0.002,-0.001,0.011,0.001,-0.009,0.004,0.529,-1.265,1.848
2024-10-23 22:04:32.160,19795.725,0.152,0.954,-0.26,-0.002,-0.002,0.009,0.005,-0.011,0.004,0.529,-1.265,1.848
2024-10-23 22:04:32.170,19795.735,0.152,0.954,-0.26,-0.001,-0.003,0.007,0.003,-0.005,0.005,0.529,-1.265,1.848
2024-10-23 22:04:32.180,19795.745,0.152,0.953,-0.26,-0.001,-0.002,0.004,-0.0,0.002,0.007,0.53,-1.265,1.848
2024-10-23 22:04:32.190,19795.755,0.152,0.953,-0.26,-0.001,-0.001,0.005,0.001,0.001,0.008,0.53,-1.265,1.848
2024-10-23 22:04:32.200,19795.765,0.152,0.953,-0.26,-0.0,0.0,0.005,-0.005,0.001,0.01,0.53,-1.265,1.848
2024-10-23 22:04:32.210,19795.775,0.153,0.953,-0.26,0.002,-0.005,0.005,0.001,-0.004,0.008,0.53,-1.265,1.849
2024-10-23 22:04:32.220,19795.785,0.153,0.953,-0.26,0.002,-0.008,0.007,0.007,0.001,0.01,0.531,-1.265,1.849
2024-10-23 22:04:32.230,19795.795,0.153,0.953,-0.26,0.001,-0.003,0.009,0.007,0.007,0.007,0.531,-1.264,1.849
2024-10-23 22:04:32.240,19795.805,0.153,0.953,-0.26,0.001,0.003,0.007,0.015,0.008,0.008,0.531,-1.264,1.849
2024-10-23 22:04:32.250,19795.815,0.153,0.953,-0.26,0.004,0.008,0.009,0.003,0.008,0.008,0.531,-1.264,1.849
2024-10-23 22:04:32.260,19795.825,0.153,0.953,-0.26,0.004,0.004,0.008,0.0,0.012,0.007,0.531,-1.264,1.849
2024-10-23 22:04:32.270,19795.835,0.153,0.953,-0.26,0.004,0.003,0.008,0.001,0.007,0.007,0.532,-1.264,1.85
2024-10-23 22:04:32.280,19795.845,0.153,0.953,-0.26,0.005,0.002,0.006,0.004,0.01,0.01,0.532,-1.264,1.85
2024-10-23 22:04:32.290,19795.855,0.153,0.953,-0.26,0.006,0.002,0.006,0.0,0.004,0.013,0.532,-1.264,1.85
2024-10-23 22:04:32.300,19795.865,0.153,0.953,-0.26,0.008,0.0,0.006,0.003,-0.001,0.012,0.533,-1.264,1.851
2024-10-23 22:04:32.310,19795.875,0.154,0.953,-0.26,0.009,-0.004,0.008,-0.005,-0.002,0.013,0.533,-1.264,1.851
2024-10-23 22:04:32.320,19795.885,0.154,0.953,-0.26,0.008,-0.007,0.01,0.006,0.003,0.011,0.533,-1.264,1.851
2024-10-23 22:04:32.330,19795.895,0.154,0.953,-0.26,0.007,-0.001,0.012,0.008,0.007,0.009,0.534,-1.264,1.851
2024-10-23 22:04:32.340,19795.905,0.154,0.953,-0.26,0.005,0.003,0.013,0.01,0.005,0.008,0.534,-1.264,1.852
2024-10-23 22:04:32.350,19795.915,0.154,0.953,-0.26,0.006,-0.003,0.011,0.002,-0.002,0.003,0.534,-1.264,1.852
2024-10-23 22:04:32.360,19795.925,0.154,0.953,-0.26,0.007,-0.011,0.013,0.0,-0.008,-0.004,0.534,-1.264,1.852
2024-10-23 22:04:32.370,19795.935,0.154,0.953,-0.26,0.009,-0.011,0.014,0.005,-0.006,-0.007,0.534,-1.264,1.852
2024-10-23 22:04:32.379,19795.945,0.154,0.953,-0.26,0.006,-0.004,0.012,0.006,-0.007,-0.005,0.533,-1.264,1.851
2024-10-23 22:04:32.390,19795.955,0.154,0.953,-0.26,0.005,-0.004,0.006,-0.003,-0.007,-0.001,0.533,-1.264,1.851
2024-10-23 22:04:32.400,19795.965,0.154,0.953,-0.26,0.006,-0.008,0.003,0.001,-0.004,-0.0,0.533,-1.264,1.851
2024-10-23 22:04:32.410,19795.975,0.154,0.953,-0.26,0.007,-0.007,0.003,-0.0,-0.001,0.0,0.533,-1.264,1.851
2024-10-23 22:04:32.420,19795.985,0.154,0.953,-0.26,0.006,-0.002,0.002,-0.003,-0.003,-0.003,0.533,-1.264,1.852
2024-10-23 22:04:32.430,19795.995,0.154,0.953,-0.26,0.004,-0.004,-0.0,0.003,-0.0,-0.004,0.533,-1.264,1.852
2024-10-23 22:04:32.440,19796.005,0.154,0.953,-0.26,0.003,-0.003,0.002,0.009,0.004,-0.004,0.533,-1.264,1.851
2024-10-23 22:04:32.450,19796.015,0.154,0.953,-0.26,0.002,0.0,0.006,0.003,0.002,-0.008,0.533,-1.264,1.851
2024-10-23 22:04:32.460,19796.025,0.154,0.953,-0.26,0.002,-0.001,0.008,0.004,0.001,-0.006,0.533,-1.264,1.851
2024-10-23 22:04:32.469,19796.035,0.154,0.953,-0.26,0.003,-0.003,0.012,0.0,-0.002,-0.005,0.533,-1.264,1.851
2024-10-23 22:04:32.480,19796.045,0.153,0.953,-0.26,0.003,-0.003,0.013,-0.003,-0.0,-0.006,0.533,-1.264,1.851
2024-10-23 22:04:32.489,19796.055,0.153,0.953,-0.26,0.003,-0.001,0.012,0.001,-0.002,-0.005,0.533,-1.264,1.851
2024-10-23 22:04:32.500,19796.065,0.153,0.953,-0.26,0.003,0.004,0.01,0.007,0.0,-0.002,0.532,-1.264,1.85
2024-10-23 22:04:32.509,19796.075,0.153,0.953,-0.26,0.003,0.002,0.008,0.003,0.002,-0.007,0.532,-1.264,1.85
2024-10-23 22:04:32.519,19796.085,0.153,0.953,-0.261,0.003,0.0,0.01,0.006,0.005,-0.007,0.532,-1.264,1.85
2024-10-23 22:04:32.529,19796.095,0.153,0.953,-0.261,0.004,0.001,0.009,0.004,0.006,-0.002,0.532,-1.264,1.85
2024-10-23 22:04:32.539,19796.105,0.153,0.953,-0.261,0.004,0.001,0.006,0.004,0.006,-0.001,0.532,-1.264,1.85
2024-10-23 22:04:32.549,19796.115,0.153,0.953,-0.261,0.003,-0.005,0.003,0.003,0.002,-0.002,0.532,-1.264,1.85
2024-10-23 22:04:32.560,19796.125,0.153,0.953,-0.261,0.003,-0.008,0.004,0.009,0.006,-0.002,0.532,-1.264,1.85
2024-10-23 22:04:32.569,19796.135,0.153,0.953,-0.261,0.002,-0.006,0.003,0.008,0.006,0.0,0.532,-1.264,1.85
2024-10-23 22:04:32.579,19796.145,0.153,0.953,-0.261,0.001,-0.001,0.003,0.002,0.006,0.0,0.532,-1.264,1.849
