Date,TimeStamp,GravityX,GravityY,GravityZ,UserAccelerationX,UserAccelerationY,UserAccelerationZ,RotationRateX,RotationRateY,RotationRateZ,AttitudeRoll,AttitudePitch,AttitudeYaw
2024-10-15 14:27:43.108,76414.555,0.449,-0.005,-0.894,0.018,-0.006,0.037,-0.116,-0.001,-0.016,0.465,0.005,1.457
2024-10-15 14:27:43.122,76414.565,0.449,-0.004,-0.894,0.005,0.011,0.028,-0.132,-0.019,-0.01,0.465,0.004,1.457
2024-10-15 14:27:43.125,76414.575,0.448,-0.003,-0.894,0.003,0.012,0.018,-0.131,-0.021,-0.012,0.465,0.003,1.458
2024-10-15 14:27:43.127,76414.585,0.448,-0.002,-0.894,0.009,0.014,0.013,-0.126,-0.021,-0.017,0.465,0.002,1.458
2024-10-15 14:27:43.137,76414.595,0.448,-0.0,-0.894,0.004,0.017,0.007,-0.126,-0.02,-0.016,0.465,0.0,1.458
2024-10-15 14:27:43.147,76414.605,0.448,0.001,-0.894,0.002,0.01,0.005,-0.133,-0.016,-0.007,0.465,-0.001,1.459
2024-10-15 14:27:43.157,76414.615,0.448,0.002,-0.894,-0.001,-0.001,0.012,-0.145,-0.024,-0.006,0.464,-0.002,1.459
2024-10-15 14:27:43.167,76414.625,0.448,0.003,-0.894,0.001,-0.011,0.018,-0.147,-0.033,-0.004,0.464,-0.003,1.46
2024-10-15 14:27:43.177,76414.635,0.447,0.005,-0.894,0.0,-0.015,0.022,-0.143,-0.04,-0.009,0.464,-0.005,1.461
2024-10-15 14:27:43.187,76414.645,0.447,0.006,-0.895,0.001,-0.015,0.021,-0.133,-0.048,-0.015,0.463,-0.006,1.461
2024-10-15 14:27:43.197,76414.655,0.447,0.007,-0.895,0.001,-0.013,0.018,-0.12,-0.04,-0.024,0.463,-0.007,1.462
2024-10-15 14:27:43.209,76414.665,0.446,0.008,-0.895,-0.003,-0.007,0.017,-0.097,-0.031,-0.017,0.463,-0.008,1.462
2024-10-15 14:27:43.217,76414.675,0.446,0.009,-0.895,-0.005,-0.001,0.017,-0.079,-0.018,-0.015,0.462,-0.009,1.462
2024-10-15 14:27:43.228,76414.685,0.446,0.01,-0.895,-0.005,0.0,0.011,-0.09,-0.025,-0.005,0.462,-0.01,1.462
2024-10-15 14:27:43.238,76414.695,0.446,0.011,-0.895,-0.005,0.002,0.008,-0.076,-0.023,0.007,0.462,-0.011,1.463
2024-10-15 14:27:43.247,76414.705,0.445,0.011,-0.895,-0.003,0.003,0.006,-0.071,-0.023,0.005,0.462,-0.011,1.463
2024-10-15 14:27:43.259,76414.715,0.445,0.012,-0.895,-0.007,0.004,0.002,-0.067,-0.028,-0.002,0.461,-0.012,1.463
2024-10-15 14:27:43.267,76414.725,0.445,0.012,-0.895,-0.0,-0.003,-0.003,-0.046,-0.018,-0.006,0.461,-0.012,1.464
2024-10-15 14:27:43.278,76414.735,0.445,0.013,-0.895,-0.003,-0.001,-0.007,-0.05,-0.009,-0.003,0.461,-0.013,1.464
2024-10-15 14:27:43.287,76414.745,0.445,0.013,-0.895,-0.009,0.001,-0.007,-0.073,-0.016,-0.004,0.461,-0.013,1.464
2024-10-15 14:27:43.297,76414.755,0.445,0.014,-0.896,-0.004,-0.01,-0.002,-0.077,-0.014,-0.009,0.461,-0.014,1.464
2024-10-15 14:27:43.308,76414.765,0.445,0.014,-0.896,0.0,-0.013,0.004,-0.067,-0.008,-0.003,0.461,-0.014,1.465
2024-10-15 14:27:43.317,76414.775,0.445,0.015,-0.896,-0.002,-0.013,0.014,-0.066,-0.009,-0.001,0.461,-0.015,1.465
2024-10-15 14:27:43.328,76414.785,0.444,0.016,-0.896,0.001,-0.017,0.021,-0.061,-0.018,-0.001,0.461,-0.016,1.465
2024-10-15 14:27:43.338,76414.795,0.444,0.016,-0.896,0.002,-0.018,0.021,-0.056,-0.025,-0.001,0.46,-0.016,1.465
2024-10-15 14:27:43.348,76414.805,0.444,0.017,-0.896,0.004,-0.014,0.021,-0.044,-0.02,0.0,0.46,-0.017,1.466
2024-10-15 14:27:43.358,76414.815,0.444,0.017,-0.896,0.001,-0.01,0.021,-0.043,-0.029,-0.002,0.46,-0.017,1.466
2024-10-15 14:27:43.367,76414.825,0.444,0.017,-0.896,0.003,-0.01,0.018,-0.036,-0.025,-0.004,0.46,-0.017,1.466
2024-10-15 14:27:43.378,76414.835,0.443,0.018,-0.896,0.003,-0.009,0.015,-0.037,-0.029,-0.001,0.459,-0.018,1.466
2024-10-15 14:27:43.387,76414.845,0.443,0.018,-0.896,0.001,-0.004,0.015,-0.019,-0.035,-0.002,0.459,-0.018,1.466
2024-10-15 14:27:43.397,76414.855,0.443,0.018,-0.896,0.001,-0.001,0.013,-0.009,-0.026,0.003,0.459,-0.018,1.466
2024-10-15 14:27:43.407,76414.865,0.443,0.018,-0.897,-0.002,0.004,0.008,-0.006,-0.03,0.009,0.459,-0.018,1.466
2024-10-15 14:27:43.417,76414.875,0.442,0.018,-0.897,-0.002,0.0,0.009,0.006,-0.031,0.002,0.458,-0.018,1.466
2024-10-15 14:27:43.427,76414.885,0.442,0.018,-0.897,0.003,-0.004,0.008,0.013,-0.027,0.007,0.458,-0.018,1.466
2024-10-15 14:27:43.437,76414.895,0.442,0.017,-0.897,-0.001,0.001,0.008,0.007,-0.025,0.01,0.458,-0.017,1.466
2024-10-15 14:27:43.447,76414.905,0.442,0.017,-0.897,-0.001,-0.004,0.012,0.002,-0.028,0.005,0.458,-0.017,1.466
2024-10-15 14:27:43.457,76414.915,0.442,0.017,-0.897,0.003,-0.007,0.012,-0.006,-0.033,-0.004,0.457,-0.017,1.466
2024-10-15 14:27:43.467,76414.925,0.441,0.017,-0.897,0.0,-0.003,0.009,-0.013,-0.037,-0.002,0.457,-0.017,1.466
2024-10-15 14:27:43.478,76414.935,0.441,0.018,-0.897,-0.001,-0.003,0.008,-0.02,-0.034,-0.004,0.457,-0.018,1.466
2024-10-15 14:27:43.487,76414.945,0.441,0.018,-0.897,0.001,-0.005,0.008,-0.022,-0.036,-0.008,0.456,-0.018,1.467
2024-10-15 14:27:43.496,76414.955,0.44,0.018,-0.898,-0.001,-0.009,0.005,-0.011,-0.031,-0.017,0.456,-0.018,1.466
2024-10-15 14:27:43.506,76414.965,0.44,0.018,-0.898,-0.002,-0.004,-0.003,-0.006,-0.023,-0.013,0.456,-0.018,1.466
2024-10-15 14:27:43.516,76414.975,0.44,0.018,-0.898,-0.004,0.001,-0.006,-0.003,-0.015,-0.012,0.456,-0.018,1.466
2024-10-15 14:27:43.526,76414.985,0.44,0.018,-0.898,-0.007,0.0,-0.006,-0.003,-0.013,-0.017,0.456,-0.018,1.466
2024-10-15 14:27:43.536,76414.995,0.44,0.018,-0.898,-0.009,0.001,-0.009,0.003,0.002,-0.015,0.456,-0.018,1.466
2024-10-15 14:27:43.546,76415.004,0.44,0.018,-0.898,-0.009,0.004,-0.009,0.022,0.01,-0.02,0.456,-0.018,1.466
2024-10-15 14:27:43.556,76415.014,0.44,0.018,-0.898,-0.009,0.005,-0.006,0.036,0.028,-0.013,0.456,-0.018,1.466
2024-10-15 14:27:43.566,76415.024,0.44,0.018,-0.898,-0.012,0.006,-0.004,0.032,0.029,-0.016,0.456,-0.018,1.465
2024-10-15 14:27:43.576,76415.034,0.441,0.018,-0.898,-0.007,0.003,0.001,0.023,0.024,-0.009,0.456,-0.018,1.465
2024-10-15 14:27:43.586,76415.044,0.441,0.017,-0.897,-0.004,-0.002,0.002,0.017,0.029,-0.009,0.457,-0.017,1.465
2024-10-15 14:27:43.596,76415.054,0.441,0.017,-0.897,-0.007,0.002,-0.001,0.013,0.033,-0.012,0.457,-0.017,1.465
2024-10-15 14:27:43.607,76415.064,0.441,0.017,-0.897,-0.005,0.0,-0.001,0.003,0.036,-0.011,0.457,-0.017,1.465
2024-10-15 14:27:43.627,76415.074,0.442,0.017,-0.897,-0.003,-0.002,0.001,-0.005,0.033,-0.014,0.458,-0.017,1.464
2024-10-15 14:27:43.632,76415.084,0.442,0.018,-0.897,-0.004,-0.003,0.001,-0.017,0.031,-0.012,0.458,-0.018,1.464
2024-10-15 14:27:43.637,76415.094,0.442,0.018,-0.897,-0.001,0.001,0.003,-0.021,0.028,-0.011,0.458,-0.018,1.464
2024-10-15 14:27:43.647,76415.104,0.442,0.018,-0.897,-0.001,0.002,0.005,-0.01,0.026,-0.016,0.458,-0.018,1.464
2024-10-15 14:27:43.657,76415.114,0.443,0.018,-0.897,-0.001,0.001,0.006,0.005,0.029,-0.017,0.459,-0.018,1.464
2024-10-15 14:27:43.667,76415.124,0.443,0.018,-0.896,0.001,0.004,0.009,0.004,0.031,-0.019,0.459,-0.018,1.464
2024-10-15 14:27:43.677,76415.134,0.443,0.018,-0.896,-0.002,0.006,0.012,0.006,0.026,-0.01,0.459,-0.018,1.464
2024-10-15 14:27:43.687,76415.144,0.443,0.018,-0.896,-0.003,0.006,0.014,-0.0,0.018,-0.007,0.459,-0.018,1.464
2024-10-15 14:27:43.697,76415.154,0.443,0.018,-0.896,-0.002,0.007,0.017,-0.002,0.015,-0.004,0.459,-0.018,1.464
2024-10-15 14:27:43.707,76415.164,0.443,0.018,-0.896,-0.0,0.009,0.018,-0.002,0.013,0.005,0.46,-0.018,1.464
2024-10-15 14:27:43.717,76415.174,0.444,0.018,-0.896,0.002,0.009,0.021,-0.001,0.002,0.002,0.46,-0.018,1.464
2024-10-15 14:27:43.728,76415.184,0.444,0.018,-0.896,-0.0,0.002,0.021,-0.002,-0.003,-0.001,0.46,-0.018,1.464
2024-10-15 14:27:43.737,76415.194,0.443,0.018,-0.896,0.002,-0.002,0.02,0.004,-0.002,-0.004,0.46,-0.018,1.464
2024-10-15 14:27:43.746,76415.204,0.443,0.018,-0.896,0.001,-0.002,0.019,0.004,-0.002,-0.013,0.46,-0.018,1.464
2024-10-15 14:27:43.756,76415.214,0.443,0.018,-0.896,0.001,-0.004,0.017,0.002,-0.013,-0.02,0.46,-0.018,1.464
2024-10-15 14:27:43.766,76415.224,0.443,0.019,-0.896,0.002,-0.003,0.011,0.002,-0.013,-0.017,0.459,-0.019,1.463
2024-10-15 14:27:43.776,76415.234,0.443,0.019,-0.896,-0.002,-0.003,0.01,-0.005,-0.016,-0.016,0.459,-0.019,1.463
2024-10-15 14:27:43.786,76415.244,0.443,0.019,-0.896,-0.002,-0.003,0.013,-0.014,-0.021,-0.029,0.459,-0.019,1.463
2024-10-15 14:27:43.797,76415.254,0.443,0.019,-0.896,-0.001,-0.003,0.013,-0.015,-0.024,-0.02,0.459,-0.019,1.463
2024-10-15 14:27:43.806,76415.264,0.443,0.019,-0.896,-0.004,0.001,0.011,-0.005,-0.017,-0.025,0.459,-0.019,1.463
2024-10-15 14:27:43.816,76415.274,0.443,0.019,-0.897,-0.004,0.007,0.012,-0.0,-0.018,-0.024,0.459,-0.019,1.463
2024-10-15 14:27:43.826,76415.284,0.442,0.019,-0.897,-0.001,0.008,0.011,-0.001,-0.02,-0.02,0.458,-0.019,1.462
2024-10-15 14:27:43.837,76415.294,0.442,0.02,-0.897,0.0,0.009,0.011,-0.009,-0.026,-0.018,0.458,-0.02,1.462
2024-10-15 14:27:43.846,76415.304,0.442,0.02,-0.897,0.001,0.006,0.011,-0.009,-0.027,-0.027,0.458,-0.02,1.462
2024-10-15 14:27:43.857,76415.314,0.442,0.02,-0.897,0.001,0.006,0.007,-0.008,-0.022,-0.025,0.458,-0.02,1.462
2024-10-15 14:27:43.867,76415.324,0.442,0.02,-0.897,0.001,0.008,0.005,0.001,-0.021,-0.019,0.458,-0.02,1.462
2024-10-15 14:27:43.876,76415.334,0.442,0.02,-0.897,-0.002,0.011,0.005,0.002,-0.007,-0.024,0.457,-0.02,1.461
2024-10-15 14:27:43.886,76415.344,0.441,0.02,-0.897,-0.004,0.011,0.001,-0.0,-0.014,-0.017,0.457,-0.02,1.461
2024-10-15 14:27:43.896,76415.354,0.441,0.02,-0.897,-0.003,0.007,0.003,-0.011,-0.013,-0.018,0.457,-0.02,1.461
2024-10-15 14:27:43.907,76415.364,0.441,0.021,-0.897,-0.002,0.004,0.007,0.001,-0.006,-0.013,0.457,-0.021,1.461
2024-10-15 14:27:43.916,76415.374,0.441,0.021,-0.897,-0.004,0.006,0.007,0.012,0.001,-0.011,0.457,-0.021,1.461
2024-10-15 14:27:43.926,76415.384,0.441,0.02,-0.897,-0.005,0.011,0.007,0.013,-0.001,-0.005,0.457,-0.02,1.461
2024-10-15 14:27:43.936,76415.394,0.441,0.02,-0.897,-0.006,0.007,0.009,0.006,-0.005,-0.007,0.457,-0.02,1.461
2024-10-15 14:27:43.946,76415.404,0.441,0.02,-0.897,-0.002,0.004,0.008,0.003,-0.008,-0.004,0.457,-0.02,1.461
2024-10-15 14:27:43.956,76415.414,0.441,0.02,-0.897,-0.002,0.005,0.006,0.004,-0.012,-0.004,0.457,-0.02,1.461
2024-10-15 14:27:43.966,76415.424,0.441,0.02,-0.897,-0.002,0.006,0.005,0.003,-0.01,-0.0,0.457,-0.02,1.46
2024-10-15 14:27:43.976,76415.434,0.441,0.02,-0.897,-0.003,0.007,0.005,-0.005,-0.011,-0.004,0.457,-0.02,1.46
2024-10-15 14:27:43.986,76415.444,0.441,0.021,-0.897,-0.001,0.005,0.008,-0.012,-0.011,-0.004,0.456,-0.021,1.46
2024-10-15 14:27:43.997,76415.454,0.441,0.021,-0.897,-0.002,0.003,0.007,-0.009,-0.002,0.005,0.456,-0.021,1.461
2024-10-15 14:27:44.006,76415.464,0.441,0.021,-0.897,-0.005,0.007,0.009,-0.005,-0.008,0.013,0.456,-0.021,1.461
2024-10-15 14:27:44.016,76415.474,0.441,0.021,-0.897,-0.003,0.009,0.011,0.009,-0.006,0.011,0.456,-0.021,1.461
2024-10-15 14:27:44.026,76415.484,0.441,0.021,-0.898,-0.002,0.007,0.01,0.013,-0.0,0.016,0.456,-0.021,1.461
2024-10-15 14:27:44.036,76415.494,0.441,0.02,-0.897,-0.003,0.005,0.011,0.006,0.0,0.014,0.456,-0.02,1.461
2024-10-15 14:27:44.046,76415.504,0.441,0.02,-0.898,-0.001,-0.001,0.012,-0.007,-0.004,0.011,0.456,-0.02,1.461
2024-10-15 14:27:44.056,76415.514,0.44,0.02,-0.898,-0.0,-0.007,0.013,-0.022,-0.007,0.007,0.456,-0.02,1.461
2024-10-15 14:27:44.066,76415.524,0.44,0.021,-0.898,-0.001,-0.009,0.013,-0.032,-0.005,-0.005,0.456,-0.021,1.461
2024-10-15 14:27:44.076,76415.534,0.44,0.021,-0.898,-0.001,-0.012,0.014,-0.057,-0.01,-0.005,0.456,-0.021,1.462
2024-10-15 14:27:44.086,76415.544,0.44,0.022,-0.898,-0.0,-0.015,0.012,-0.059,-0.019,-0.015,0.456,-0.022,1.462
2024-10-15 14:27:44.096,76415.554,0.44,0.022,-0.898,-0.001,-0.013,0.009,-0.039,-0.017,-0.029,0.456,-0.022,1.462
2024-10-15 14:27:44.106,76415.564,0.44,0.023,-0.898,-0.003,-0.005,0.008,-0.021,-0.014,-0.028,0.456,-0.023,1.462
2024-10-15 14:27:44.116,76415.573,0.44,0.023,-0.898,-0.006,0.002,0.008,-0.011,-0.014,-0.026,0.456,-0.023,1.461
2024-10-15 14:27:44.126,76415.583,0.44,0.023,-0.898,-0.005,0.001,0.009,0.011,-0.007,-0.018,0.455,-0.023,1.461
2024-10-15 14:27:44.136,76415.593,0.44,0.023,-0.898,-0.005,0.003,0.007,0.038,0.002,-0.013,0.455,-0.023,1.461
2024-10-15 14:27:44.146,76415.603,0.44,0.022,-0.898,-0.005,0.013,0.005,0.059,0.007,-0.014,0.455,-0.022,1.461
2024-10-15 14:27:44.156,76415.613,0.44,0.022,-0.898,-0.003,0.014,0.006,0.058,-0.0,-0.012,0.456,-0.022,1.46
2024-10-15 14:27:44.166,76415.623,0.44,0.021,-0.898,-0.001,0.009,0.006,0.052,-0.002,-0.007,0.456,-0.021,1.46
2024-10-15 14:27:44.176,76415.633,0.44,0.021,-0.898,0.002,0.007,0.008,0.049,-0.001,-0.007,0.456,-0.021,1.46
2024-10-15 14:27:44.186,76415.643,0.44,0.021,-0.898,-0.001,0.002,0.009,0.05,-0.001,-0.005,0.456,-0.021,1.459
2024-10-15 14:27:44.196,76415.653,0.44,0.02,-0.898,0.001,0.0,0.01,0.046,-0.004,-0.002,0.455,-0.02,1.459
2024-10-15 14:27:44.206,76415.663,0.44,0.02,-0.898,0.0,0.0,0.011,0.03,-0.013,0.006,0.455,-0.02,1.459
2024-10-15 14:27:44.216,76415.673,0.44,0.02,-0.898,0.001,0.0,0.014,0.012,-0.021,0.01,0.455,-0.02,1.459
2024-10-15 14:27:44.226,76415.683,0.439,0.02,-0.898,0.003,0.0,0.014,-0.003,-0.024,0.014,0.455,-0.02,1.459
2024-10-15 14:27:44.236,76415.693,0.439,0.02,-0.898,-0.002,0.003,0.014,-0.012,-0.025,0.014,0.455,-0.02,1.459
2024-10-15 14:27:44.246,76415.703,0.439,0.02,-0.898,-0.003,0.002,0.014,-0.02,-0.029,0.015,0.455,-0.02,1.459
2024-10-15 14:27:44.256,76415.713,0.439,0.02,-0.898,0.001,0.0,0.014,-0.024,-0.029,0.02,0.454,-0.02,1.46
2024-10-15 14:27:44.266,76415.723,0.438,0.02,-0.899,-0.0,-0.002,0.008,-0.028,-0.037,0.02,0.454,-0.02,1.46
2024-10-15 14:27:44.276,76415.733,0.438,0.02,-0.899,0.001,-0.002,0.007,-0.025,-0.037,0.014,0.454,-0.02,1.46
2024-10-15 14:27:44.286,76415.743,0.438,0.02,-0.899,0.001,-0.001,0.007,-0.017,-0.036,0.018,0.453,-0.02,1.461
2024-10-15 14:27:44.296,76415.753,0.438,0.02,-0.899,-0.001,0.003,0.006,-0.001,-0.028,0.016,0.453,-0.02,1.461
2024-10-15 14:27:44.306,76415.763,0.437,0.02,-0.899,-0.004,0.004,0.003,0.008,-0.024,0.02,0.453,-0.02,1.461
2024-10-15 14:27:44.316,76415.773,0.437,0.02,-0.899,-0.005,0.002,0.004,0.012,-0.025,0.015,0.453,-0.02,1.461
2024-10-15 14:27:44.326,76415.783,0.437,0.02,-0.899,-0.004,0.002,0.004,0.021,-0.022,0.015,0.452,-0.02,1.461
2024-10-15 14:27:44.336,76415.793,0.437,0.02,-0.899,-0.006,0.002,-0.001,0.021,-0.018,0.01,0.452,-0.02,1.461
2024-10-15 14:27:44.346,76415.803,0.437,0.019,-0.899,-0.007,0.001,-0.002,0.01,-0.01,0.004,0.452,-0.019,1.461
2024-10-15 14:27:44.356,76415.813,0.437,0.019,-0.899,-0.005,-0.006,-0.003,0.003,-0.008,-0.0,0.452,-0.019,1.461
2024-10-15 14:27:44.365,76415.823,0.437,0.019,-0.899,-0.004,-0.007,-0.001,0.005,-0.006,-0.007,0.452,-0.019,1.461
2024-10-15 14:27:44.376,76415.833,0.437,0.019,-0.899,-0.004,-0.002,0.001,0.003,0.003,-0.011,0.452,-0.019,1.461
2024-10-15 14:27:44.385,76415.843,0.437,0.019,-0.899,-0.006,-0.003,0.003,0.002,0.001,-0.02,0.452,-0.019,1.461
2024-10-15 14:27:44.395,76415.853,0.437,0.02,-0.899,-0.003,-0.009,0.006,0.002,0.009,-0.019,0.452,-0.02,1.461
2024-10-15 14:27:44.406,76415.863,0.437,0.02,-0.899,-0.003,-0.004,0.005,0.011,0.023,-0.013,0.452,-0.02,1.46
2024-10-15 14:27:44.415,76415.873,0.437,0.02,-0.899,-0.008,0.002,0.005,0.009,0.025,-0.016,0.452,-0.02,1.46
2024-10-15 14:27:44.425,76415.883,0.437,0.02,-0.899,-0.004,-0.001,0.007,0.008,0.021,-0.022,0.453,-0.02,1.46
2024-10-15 14:27:44.435,76415.893,0.437,0.02,-0.899,-0.002,-0.004,0.004,0.009,0.022,-0.022,0.453,-0.02,1.46
2024-10-15 14:27:44.446,76415.903,0.438,0.019,-0.899,-0.004,-0.002,0.002,0.015,0.024,-0.018,0.453,-0.019,1.46
2024-10-15 14:27:44.455,76415.913,0.438,0.019,-0.899,-0.003,0.001,0.001,0.013,0.022,-0.014,0.453,-0.019,1.459
2024-10-15 14:27:44.465,76415.923,0.438,0.019,-0.899,-0.003,0.003,-0.002,0.012,0.024,-0.008,0.453,-0.019,1.459
2024-10-15 14:27:44.476,76415.933,0.438,0.019,-0.899,-0.007,0.003,-0.001,0.009,0.027,-0.008,0.454,-0.019,1.459
2024-10-15 14:27:44.485,76415.943,0.438,0.019,-0.899,-0.006,0.004,0.002,0.013,0.025,-0.007,0.454,-0.019,1.459
2024-10-15 14:27:44.496,76415.953,0.439,0.019,-0.898,-0.004,0.004,0.007,0.007,0.022,-0.005,0.454,-0.019,1.459
2024-10-15 14:27:44.505,76415.963,0.439,0.019,-0.898,-0.002,0.001,0.011,0.007,0.017,-0.005,0.454,-0.019,1.459
2024-10-15 14:27:44.515,76415.973,0.439,0.019,-0.898,-0.002,0.0,0.013,0.01,0.02,-0.008,0.454,-0.019,1.459
2024-10-15 14:27:44.524,76415.983,0.439,0.019,-0.898,-0.003,0.003,0.014,0.008,0.02,-0.01,0.455,-0.019,1.459
2024-10-15 14:27:44.534,76415.993,0.439,0.019,-0.898,-0.003,0.0,0.015,0.005,0.012,-0.013,0.455,-0.019,1.458
2024-10-15 14:27:44.545,76416.003,0.439,0.019,-0.898,0.0,-0.003,0.012,0.0,0.013,-0.014,0.455,-0.019,1.458
2024-10-15 14:27:44.555,76416.013,0.439,0.019,-0.898,-0.0,-0.002,0.012,0.006,0.014,-0.01,0.455,-0.019,1.458
2024-10-15 14:27:44.565,76416.023,0.439,0.019,-0.898,-0.003,0.001,0.011,0.004,0.01,-0.016,0.455,-0.019,1.458
2024-10-15 14:27:44.575,76416.033,0.44,0.019,-0.898,-0.0,-0.003,0.013,-0.001,0.0,-0.012,0.455,-0.019,1.458
2024-10-15 14:27:44.585,76416.043,0.44,0.019,-0.898,0.001,-0.003,0.014,-0.0,-0.004,-0.01,0.455,-0.019,1.458
2024-10-15 14:27:44.595,76416.053,0.44,0.019,-0.898,-0.002,0.001,0.01,0.01,0.004,-0.01,0.455,-0.019,1.458
2024-10-15 14:27:44.605,76416.063,0.44,0.019,-0.898,-0.004,0.003,0.009,0.006,-0.0,-0.009,0.455,-0.019,1.458
2024-10-15 14:27:44.615,76416.073,0.44,0.019,-0.898,-0.004,0.004,0.01,0.009,0.001,-0.01,0.455,-0.019,1.457
2024-10-15 14:27:44.625,76416.083,0.44,0.019,-0.898,-0.003,0.002,0.007,0.011,-0.001,-0.01,0.455,-0.019,1.457
2024-10-15 14:27:44.635,76416.093,0.44,0.019,-0.898,-0.004,0.004,0.007,0.003,0.002,-0.005,0.455,-0.019,1.457
2024-10-15 14:27:44.645,76416.103,0.44,0.019,-0.898,-0.002,0.002,0.006,0.006,0.003,-0.006,0.455,-0.019,1.457
2024-10-15 14:27:44.655,76416.113,0.44,0.019,-0.898,-0.001,0.001,0.005,0.008,0.005,-0.01,0.455,-0.019,1.457
2024-10-15 14:27:44.665,76416.123,0.44,0.019,-0.898,-0.003,0.001,0.006,0.014,0.009,-0.006,0.455,-0.019,1.457
2024-10-15 14:27:44.675,76416.133,0.44,0.019,-0.898,-0.003,0.002,0.006,0.009,0.012,-0.006,0.456,-0.019,1.457
2024-10-15 14:27:44.685,76416.143,0.44,0.019,-0.898,-0.003,0.002,0.006,0.01,0.011,-0.008,0.456,-0.019,1.457
2024-10-15 14:27:44.695,76416.152,0.44,0.019,-0.898,-0.002,0.001,0.007,0.008,0.013,-0.006,0.456,-0.019,1.457
2024-10-15 14:27:44.705,76416.162,0.44,0.019,-0.898,-0.002,-0.0,0.007,0.005,0.009,-0.011,0.456,-0.019,1.457
2024-10-15 14:27:44.715,76416.172,0.44,0.019,-0.898,-0.003,-0.005,0.006,0.004,0.013,-0.02,0.456,-0.019,1.456
2024-10-15 14:27:44.725,76416.182,0.44,0.019,-0.898,-0.002,-0.002,0.004,0.004,0.014,-0.015,0.456,-0.019,1.456
2024-10-15 14:27:44.735,76416.192,0.441,0.019,-0.898,-0.004,0.003,0.005,0.001,0.019,-0.012,0.456,-0.019,1.456
2024-10-15 14:27:44.745,76416.202,0.441,0.019,-0.897,-0.003,0.0,0.005,0.001,0.012,-0.017,0.456,-0.019,1.456
2024-10-15 14:27:44.755,76416.212,0.441,0.019,-0.897,-0.002,-0.001,0.003,0.004,0.017,-0.011,0.457,-0.019,1.456
2024-10-15 14:27:44.765,76416.222,0.441,0.019,-0.897,-0.003,0.002,0.004,0.001,0.02,-0.01,0.457,-0.019,1.456
2024-10-15 14:27:44.775,76416.232,0.441,0.019,-0.897,-0.004,-0.0,0.006,-0.002,0.013,-0.016,0.457,-0.019,1.456
2024-10-15 14:27:44.784,76416.242,0.441,0.019,-0.897,-0.003,-0.004,0.003,-0.0,0.018,-0.022,0.457,-0.019,1.455
2024-10-15 14:27:44.795,76416.252,0.441,0.019,-0.897,-0.003,-0.005,0.004,0.004,0.022,-0.019,0.457,-0.019,1.455
2024-10-15 14:27:44.805,76416.262,0.442,0.019,-0.897,-0.004,-0.006,0.003,-0.005,0.026,-0.032,0.458,-0.019,1.455
2024-10-15 14:27:44.815,76416.272,0.442,0.02,-0.897,-0.002,-0.011,0.002,-0.002,0.028,-0.035,0.458,-0.02,1.455
2024-10-15 14:27:44.825,76416.282,0.442,0.02,-0.897,-0.002,-0.015,0.002,0.007,0.031,-0.048,0.458,-0.02,1.454
2024-10-15 14:27:44.835,76416.292,0.442,0.02,-0.897,-0.004,-0.019,-0.003,0.012,0.038,-0.059,0.458,-0.02,1.454
2024-10-15 14:27:44.844,76416.302,0.443,0.02,-0.896,-0.006,-0.018,-0.004,0.007,0.046,-0.065,0.459,-0.02,1.453
2024-10-15 14:27:44.854,76416.312,0.443,0.02,-0.896,-0.008,-0.018,-0.005,0.006,0.05,-0.068,0.459,-0.02,1.453
2024-10-15 14:27:44.864,76416.322,0.444,0.021,-0.896,-0.009,-0.017,-0.005,0.015,0.065,-0.083,0.46,-0.021,1.452
2024-10-15 14:27:44.874,76416.332,0.444,0.021,-0.896,-0.012,-0.018,-0.006,0.02,0.071,-0.088,0.46,-0.021,1.451
2024-10-15 14:27:44.885,76416.342,0.445,0.021,-0.895,-0.012,-0.017,-0.011,0.027,0.077,-0.092,0.461,-0.021,1.45
2024-10-15 14:27:44.895,76416.352,0.446,0.021,-0.895,-0.008,-0.017,-0.014,0.024,0.084,-0.097,0.462,-0.021,1.449
2024-10-15 14:27:44.905,76416.362,0.446,0.021,-0.895,-0.008,-0.015,-0.017,0.017,0.098,-0.102,0.463,-0.021,1.448
2024-10-15 14:27:44.915,76416.372,0.447,0.022,-0.894,-0.01,-0.018,-0.015,0.004,0.103,-0.112,0.464,-0.022,1.447
2024-10-15 14:27:44.924,76416.382,0.448,0.022,-0.894,-0.01,-0.018,-0.01,-0.009,0.106,-0.109,0.465,-0.022,1.446
2024-10-15 14:27:44.934,76416.392,0.449,0.023,-0.893,-0.012,-0.017,-0.006,-0.018,0.112,-0.109,0.466,-0.023,1.445
2024-10-15 14:27:44.945,76416.402,0.45,0.023,-0.893,-0.012,-0.013,0.001,-0.024,0.111,-0.107,0.467,-0.023,1.444
2024-10-15 14:27:44.955,76416.412,0.451,0.024,-0.892,-0.008,-0.009,0.006,-0.025,0.101,-0.103,0.468,-0.024,1.444
2024-10-15 14:27:44.964,76416.422,0.452,0.025,-0.892,-0.005,-0.005,0.007,-0.017,0.109,-0.105,0.469,-0.025,1.443
2024-10-15 14:27:44.974,76416.432,0.453,0.025,-0.891,-0.003,-0.003,0.007,-0.014,0.108,-0.101,0.47,-0.025,1.442
2024-10-15 14:27:44.984,76416.442,0.453,0.026,-0.891,-0.002,-0.002,0.005,-0.022,0.109,-0.096,0.471,-0.026,1.441
2024-10-15 14:27:44.994,76416.452,0.454,0.026,-0.89,0.001,-0.0,0.005,-0.03,0.109,-0.094,0.472,-0.026,1.44
2024-10-15 14:27:45.005,76416.462,0.455,0.027,-0.89,0.001,0.003,0.006,-0.035,0.108,-0.089,0.473,-0.027,1.44
2024-10-15 14:27:45.014,76416.472,0.456,0.028,-0.889,-0.003,0.002,0.006,-0.042,0.11,-0.083,0.474,-0.028,1.439
2024-10-15 14:27:45.024,76416.482,0.457,0.028,-0.889,-0.006,-0.002,0.009,-0.043,0.112,-0.088,0.475,-0.028,1.439
2024-10-15 14:27:45.034,76416.492,0.458,0.029,-0.888,-0.004,-0.007,0.011,-0.045,0.111,-0.093,0.476,-0.029,1.438
2024-10-15 14:27:45.044,76416.502,0.459,0.03,-0.888,-0.003,-0.012,0.013,-0.058,0.109,-0.1,0.477,-0.03,1.437
2024-10-15 14:27:45.054,76416.512,0.46,0.031,-0.888,-0.001,-0.012,0.016,-0.072,0.098,-0.111,0.478,-0.031,1.437
2024-10-15 14:27:45.064,76416.522,0.461,0.032,-0.887,-0.0,-0.013,0.017,-0.094,0.089,-0.12,0.479,-0.032,1.436
2024-10-15 14:27:45.074,76416.532,0.461,0.034,-0.887,-0.002,-0.014,0.017,-0.098,0.08,-0.124,0.48,-0.034,1.435
2024-10-15 14:27:45.084,76416.542,0.462,0.035,-0.886,-0.001,-0.01,0.02,-0.092,0.07,-0.129,0.48,-0.035,1.435
2024-10-15 14:27:45.094,76416.552,0.462,0.037,-0.886,-0.001,-0.004,0.017,-0.068,0.076,-0.131,0.481,-0.037,1.434
2024-10-15 14:27:45.105,76416.562,0.463,0.038,-0.886,-0.004,0.004,0.011,-0.032,0.082,-0.134,0.482,-0.038,1.433
2024-10-15 14:27:45.114,76416.572,0.464,0.038,-0.885,-0.01,0.007,0.008,-0.019,0.091,-0.138,0.483,-0.038,1.432
2024-10-15 14:27:45.124,76416.582,0.465,0.039,-0.885,-0.01,0.007,0.006,-0.021,0.093,-0.148,0.483,-0.039,1.431
2024-10-15 14:27:45.136,76416.592,0.465,0.04,-0.884,-0.006,0.005,0.003,-0.025,0.092,-0.157,0.484,-0.04,1.43
2024-10-15 14:27:45.144,76416.602,0.466,0.041,-0.884,-0.006,0.003,0.002,-0.039,0.088,-0.159,0.485,-0.041,1.428
2024-10-15 14:27:45.154,76416.612,0.467,0.042,-0.883,-0.005,0.003,0.007,-0.047,0.096,-0.161,0.486,-0.042,1.427
2024-10-15 14:27:45.164,76416.622,0.468,0.043,-0.883,-0.004,0.004,0.01,-0.055,0.093,-0.161,0.487,-0.043,1.426
2024-10-15 14:27:45.173,76416.632,0.468,0.044,-0.882,-0.005,0.003,0.012,-0.058,0.088,-0.162,0.488,-0.044,1.425
2024-10-15 14:27:45.184,76416.642,0.469,0.046,-0.882,-0.006,0.008,0.013,-0.049,0.1,-0.146,0.489,-0.046,1.424
2024-10-15 14:27:45.194,76416.652,0.47,0.047,-0.882,-0.009,0.014,0.01,-0.047,0.091,-0.147,0.49,-0.047,1.423
2024-10-15 14:27:45.204,76416.662,0.47,0.048,-0.881,-0.008,0.015,0.005,-0.054,0.092,-0.14,0.49,-0.048,1.422
2024-10-15 14:27:45.214,76416.672,0.471,0.049,-0.881,-0.009,0.011,0.001,-0.05,0.09,-0.139,0.491,-0.049,1.421
2024-10-15 14:27:45.224,76416.682,0.472,0.05,-0.88,-0.003,0.016,-0.002,-0.031,0.095,-0.143,0.492,-0.05,1.42
2024-10-15 14:27:45.234,76416.692,0.473,0.051,-0.88,-0.004,0.022,-0.006,0.001,0.111,-0.138,0.493,-0.051,1.418
2024-10-15 14:27:45.244,76416.702,0.474,0.051,-0.879,-0.009,0.028,-0.005,0.007,0.118,-0.135,0.494,-0.051,1.417
2024-10-15 14:27:45.254,76416.712,0.475,0.052,-0.879,-0.008,0.024,-0.002,-0.001,0.116,-0.122,0.495,-0.052,1.416
2024-10-15 14:27:45.264,76416.722,0.476,0.053,-0.878,-0.003,0.02,-0.001,-0.005,0.13,-0.121,0.496,-0.053,1.415
2024-10-15 14:27:45.274,76416.731,0.477,0.053,-0.878,-0.003,0.022,0.002,-0.006,0.135,-0.113,0.498,-0.053,1.414
2024-10-15 14:27:45.284,76416.741,0.478,0.054,-0.877,-0.005,0.021,0.003,-0.017,0.135,-0.111,0.499,-0.054,1.413
2024-10-15 14:27:45.294,76416.751,0.479,0.055,-0.876,-0.001,0.013,0.006,-0.038,0.131,-0.107,0.5,-0.055,1.412
2024-10-15 14:27:45.304,76416.761,0.48,0.056,-0.876,0.002,0.008,0.008,-0.059,0.136,-0.104,0.501,-0.056,1.412
2024-10-15 14:27:45.314,76416.771,0.481,0.057,-0.875,-0.0,0.006,0.009,-0.095,0.12,-0.098,0.502,-0.057,1.411
2024-10-15 14:27:45.324,76416.781,0.482,0.058,-0.874,0.002,0.009,0.012,-0.12,0.117,-0.086,0.504,-0.058,1.411
2024-10-15 14:27:45.334,76416.791,0.483,0.06,-0.874,0.003,0.012,0.016,-0.136,0.114,-0.079,0.505,-0.06,1.411
2024-10-15 14:27:45.344,76416.801,0.484,0.061,-0.873,-0.002,0.014,0.017,-0.134,0.105,-0.066,0.506,-0.061,1.411
2024-10-15 14:27:45.354,76416.811,0.484,0.063,-0.873,0.002,0.016,0.018,-0.12,0.098,-0.063,0.507,-0.063,1.411
2024-10-15 14:27:45.364,76416.821,0.485,0.064,-0.872,0.004,0.016,0.015,-0.111,0.1,-0.06,0.508,-0.064,1.411
2024-10-15 14:27:45.374,76416.831,0.486,0.065,-0.872,0.001,0.017,0.012,-0.096,0.1,-0.065,0.509,-0.065,1.411
2024-10-15 14:27:45.384,76416.841,0.487,0.066,-0.871,-0.002,0.016,0.012,-0.065,0.088,-0.072,0.51,-0.066,1.41
2024-10-15 14:27:45.394,76416.851,0.488,0.067,-0.871,-0.001,0.022,0.009,-0.027,0.099,-0.072,0.511,-0.067,1.41
2024-10-15 14:27:45.404,76416.861,0.488,0.067,-0.87,-0.004,0.03,0.009,-0.001,0.095,-0.067,0.511,-0.068,1.409
2024-10-15 14:27:45.414,76416.871,0.489,0.068,-0.87,-0.005,0.027,0.017,0.018,0.098,-0.053,0.512,-0.068,1.409
2024-10-15 14:27:45.424,76416.881,0.49,0.068,-0.869,-0.001,0.024,0.022,0.022,0.092,-0.038,0.513,-0.068,1.408
2024-10-15 14:27:45.434,76416.891,0.491,0.068,-0.869,0.0,0.024,0.026,0.034,0.08,-0.031,0.514,-0.068,1.408
2024-10-15 14:27:45.444,76416.901,0.491,0.068,-0.868,0.002,0.02,0.028,0.042,0.071,-0.033,0.515,-0.068,1.408
2024-10-15 14:27:45.453,76416.911,0.492,0.067,-0.868,0.003,0.017,0.028,0.046,0.062,-0.029,0.516,-0.067,1.407
2024-10-15 14:27:45.464,76416.921,0.492,0.067,-0.868,0.001,0.013,0.024,0.039,0.054,-0.026,0.516,-0.067,1.407
2024-10-15 14:27:45.474,76416.931,0.493,0.067,-0.868,-0.0,0.006,0.02,0.026,0.052,-0.028,0.517,-0.067,1.406
2024-10-15 14:27:45.484,76416.941,0.493,0.067,-0.867,-0.001,-0.0,0.017,0.012,0.039,-0.03,0.517,-0.067,1.406
2024-10-15 14:27:45.493,76416.951,0.493,0.067,-0.867,0.003,-0.004,0.018,0.007,0.038,-0.031,0.517,-0.067,1.406
2024-10-15 14:27:45.504,76416.961,0.494,0.067,-0.867,0.002,-0.007,0.018,0.012,0.034,-0.029,0.518,-0.067,1.405
2024-10-15 14:27:45.519,76416.971,0.494,0.067,-0.867,-0.0,-0.004,0.023,0.021,0.023,-0.029,0.518,-0.067,1.405
2024-10-15 14:27:45.524,76416.981,0.494,0.067,-0.867,0.003,-0.002,0.022,0.039,0.023,-0.03,0.518,-0.067,1.405
2024-10-15 14:27:45.534,76416.991,0.494,0.067,-0.867,0.001,-0.001,0.021,0.051,0.019,-0.016,0.518,-0.067,1.404
2024-10-15 14:27:45.544,76417.001,0.495,0.067,-0.867,0.002,0.004,0.022,0.052,0.024,-0.012,0.519,-0.067,1.404
2024-10-15 14:27:45.554,76417.011,0.495,0.066,-0.866,0.002,0.002,0.024,0.057,0.025,-0.011,0.519,-0.066,1.403
2024-10-15 14:27:45.563,76417.021,0.495,0.066,-0.866,0.002,0.001,0.021,0.061,0.019,-0.021,0.519,-0.066,1.403
2024-10-15 14:27:45.573,76417.031,0.495,0.065,-0.866,0.004,0.003,0.019,0.057,0.009,-0.022,0.519,-0.065,1.402
2024-10-15 14:27:45.583,76417.041,0.495,0.065,-0.866,0.006,0.001,0.019,0.053,0.006,-0.022,0.519,-0.065,1.402
2024-10-15 14:27:45.593,76417.051,0.495,0.065,-0.866,0.005,0.003,0.019,0.038,0.001,-0.021,0.519,-0.065,1.402
2024-10-15 14:27:45.603,76417.061,0.495,0.065,-0.866,0.006,0.002,0.019,0.027,-0.004,-0.017,0.519,-0.065,1.401
2024-10-15 14:27:45.613,76417.071,0.495,0.064,-0.866,0.004,-0.001,0.018,0.022,-0.008,-0.017,0.519,-0.064,1.401
2024-10-15 14:27:45.623,76417.081,0.495,0.064,-0.866,0.003,-0.003,0.017,0.021,-0.007,-0.013,0.519,-0.064,1.401
2024-10-15 14:27:45.633,76417.091,0.495,0.064,-0.867,0.002,-0.005,0.019,0.006,-0.008,-0.005,0.519,-0.064,1.401
2024-10-15 14:27:45.643,76417.101,0.495,0.064,-0.867,0.002,-0.005,0.019,-0.004,-0.016,-0.007,0.519,-0.064,1.401
2024-10-15 14:27:45.653,76417.111,0.495,0.064,-0.867,0.004,-0.01,0.02,-0.004,-0.025,-0.005,0.519,-0.064,1.401
2024-10-15 14:27:45.663,76417.121,0.495,0.064,-0.867,0.007,-0.01,0.02,0.007,-0.026,-0.008,0.519,-0.064,1.4
2024-10-15 14:27:45.673,76417.131,0.494,0.064,-0.867,0.006,-0.006,0.019,0.014,-0.024,0.005,0.518,-0.064,1.4
2024-10-15 14:27:45.683,76417.141,0.494,0.064,-0.867,0.001,0.002,0.019,0.013,-0.025,0.013,0.518,-0.064,1.4
2024-10-15 14:27:45.693,76417.151,0.494,0.064,-0.867,0.003,0.003,0.017,0.013,-0.032,0.015,0.518,-0.064,1.4
2024-10-15 14:27:45.703,76417.161,0.494,0.064,-0.867,0.004,0.0,0.013,0.02,-0.035,0.018,0.517,-0.064,1.401
2024-10-15 14:27:45.713,76417.171,0.493,0.063,-0.867,0.0,0.001,0.008,0.027,-0.03,0.016,0.517,-0.063,1.401
2024-10-15 14:27:45.723,76417.181,0.493,0.063,-0.868,-0.003,-0.0,0.006,0.021,-0.031,0.018,0.517,-0.063,1.401
2024-10-15 14:27:45.733,76417.191,0.493,0.063,-0.868,-0.002,-0.002,0.006,0.008,-0.027,0.016,0.517,-0.063,1.401
2024-10-15 14:27:45.743,76417.201,0.493,0.063,-0.868,-0.003,-0.01,0.005,-0.006,-0.032,0.019,0.516,-0.063,1.401
2024-10-15 14:27:45.753,76417.211,0.493,0.063,-0.868,-0.004,-0.012,0.006,-0.006,-0.027,0.013,0.516,-0.063,1.401
2024-10-15 14:27:45.763,76417.221,0.492,0.063,-0.868,-0.002,-0.013,0.008,-0.01,-0.03,0.011,0.516,-0.063,1.401
2024-10-15 14:27:45.773,76417.231,0.492,0.063,-0.868,-0.004,-0.011,0.008,-0.011,-0.028,0.009,0.516,-0.063,1.401
2024-10-15 14:27:45.783,76417.241,0.492,0.063,-0.868,-0.005,-0.013,0.009,-0.016,-0.034,0.002,0.515,-0.063,1.401
2024-10-15 14:27:45.793,76417.251,0.492,0.063,-0.868,-0.004,-0.012,0.003,-0.001,-0.026,0.0,0.515,-0.063,1.402
2024-10-15 14:27:45.803,76417.261,0.492,0.063,-0.869,-0.004,-0.008,0.001,0.007,-0.016,-0.001,0.515,-0.063,1.401
2024-10-15 14:27:45.812,76417.271,0.491,0.063,-0.869,-0.004,-0.005,0.001,0.001,-0.015,-0.001,0.515,-0.063,1.401
2024-10-15 14:27:45.823,76417.281,0.491,0.063,-0.869,-0.004,-0.006,-0.003,0.001,-0.01,-0.004,0.515,-0.063,1.401
2024-10-15 14:27:45.832,76417.291,0.491,0.063,-0.869,-0.0,-0.005,-0.004,0.003,-0.006,-0.001,0.515,-0.063,1.401
2024-10-15 14:27:45.843,76417.301,0.491,0.063,-0.869,-0.002,-0.005,-0.003,0.01,-0.005,-0.005,0.515,-0.063,1.401
2024-10-15 14:27:45.853,76417.31,0.491,0.063,-0.869,-0.003,-0.003,-0.003,0.022,0.009,-0.005,0.515,-0.063,1.401
2024-10-15 14:27:45.863,76417.32,0.491,0.063,-0.869,-0.004,-0.001,-0.003,0.012,0.007,-0.003,0.515,-0.063,1.401
2024-10-15 14:27:45.873,76417.33,0.491,0.063,-0.869,-0.004,-0.005,0.001,0.001,0.008,-0.005,0.515,-0.063,1.401
2024-10-15 14:27:45.883,76417.34,0.491,0.063,-0.869,-0.002,-0.01,0.003,-0.002,0.006,-0.007,0.515,-0.063,1.401
2024-10-15 14:27:45.893,76417.35,0.491,0.063,-0.869,-0.003,-0.005,0.003,-0.005,0.015,-0.007,0.515,-0.063,1.401
2024-10-15 14:27:45.904,76417.36,0.492,0.063,-0.869,-0.005,0.0,0.006,-0.014,0.014,-0.007,0.515,-0.063,1.401
2024-10-15 14:27:45.913,76417.37,0.492,0.063,-0.868,-0.004,-0.0,0.007,-0.014,0.015,-0.012,0.515,-0.063,1.401
2024-10-15 14:27:45.922,76417.38,0.492,0.063,-0.868,-0.002,0.002,0.006,-0.009,0.018,-0.006,0.515,-0.063,1.401
2024-10-15 14:27:45.933,76417.39,0.492,0.063,-0.868,-0.004,0.004,0.004,-0.006,0.021,-0.0,0.516,-0.063,1.401
2024-10-15 14:27:45.943,76417.4,0.492,0.063,-0.868,-0.004,0.006,0.005,-0.003,0.022,-0.002,0.516,-0.063,1.401
2024-10-15 14:27:45.953,76417.41,0.492,0.063,-0.868,-0.004,0.006,0.006,-0.005,0.027,0.003,0.516,-0.063,1.401
2024-10-15 14:27:45.963,76417.42,0.493,0.063,-0.868,-0.006,0.004,0.006,-0.007,0.02,0.005,0.516,-0.063,1.401
2024-10-15 14:27:45.972,76417.43,0.493,0.063,-0.868,-0.003,0.006,0.007,-0.001,0.017,0.006,0.516,-0.063,1.401
2024-10-15 14:27:45.983,76417.44,0.493,0.063,-0.868,-0.004,0.007,0.006,0.005,0.018,0.007,0.517,-0.063,1.401
2024-10-15 14:27:45.993,76417.45,0.493,0.063,-0.868,-0.006,0.004,0.01,0.003,0.02,0.004,0.517,-0.063,1.401
2024-10-15 14:27:46.003,76417.46,0.493,0.063,-0.868,-0.003,0.002,0.011,0.005,0.019,-0.001,0.517,-0.063,1.401
2024-10-15 14:27:46.013,76417.47,0.493,0.063,-0.868,-0.003,0.007,0.01,0.007,0.022,-0.001,0.517,-0.063,1.401
2024-10-15 14:27:46.023,76417.48,0.494,0.063,-0.867,-0.003,0.01,0.011,-0.005,0.019,-0.002,0.517,-0.063,1.401
2024-10-15 14:27:46.033,76417.49,0.494,0.063,-0.867,-0.002,0.008,0.011,-0.001,0.014,-0.001,0.517,-0.063,1.401
2024-10-15 14:27:46.043,76417.5,0.494,0.063,-0.867,-0.001,0.007,0.011,-0.002,0.015,0.003,0.518,-0.063,1.401
2024-10-15 14:27:46.053,76417.51,0.494,0.063,-0.867,-0.002,0.009,0.013,-0.004,0.007,0.004,0.518,-0.063,1.401
2024-10-15 14:27:46.063,76417.52,0.494,0.063,-0.867,-0.002,0.009,0.012,-0.002,0.008,0.01,0.518,-0.063,1.401
2024-10-15 14:27:46.073,76417.53,0.494,0.063,-0.867,-0.001,0.01,0.01,0.003,0.008,0.015,0.518,-0.063,1.401
2024-10-15 14:27:46.082,76417.54,0.494,0.063,-0.867,-0.003,0.01,0.008,0.003,0.008,0.018,0.518,-0.063,1.401
2024-10-15 14:27:46.092,76417.55,0.494,0.063,-0.867,-0.004,0.01,0.005,0.014,0.011,0.024,0.518,-0.063,1.402
2024-10-15 14:27:46.103,76417.56,0.494,0.063,-0.867,-0.003,0.009,0.005,0.018,0.012,0.022,0.518,-0.063,1.402
2024-10-15 14:27:46.113,76417.57,0.494,0.062,-0.867,-0.001,0.008,0.004,0.02,0.014,0.012,0.518,-0.062,1.402
2024-10-15 14:27:46.123,76417.58,0.495,0.062,-0.867,-0.001,0.007,0.005,0.014,0.014,0.013,0.518,-0.062,1.402
2024-10-15 14:27:46.132,76417.59,0.495,0.062,-0.867,-0.0,0.009,0.007,0.011,0.015,0.015,0.519,-0.062,1.402
2024-10-15 14:27:46.142,76417.6,0.495,0.062,-0.867,-0.001,0.01,0.009,0.009,0.018,0.018,0.519,-0.062,1.402
2024-10-15 14:27:46.153,76417.61,0.495,0.062,-0.867,-0.001,0.008,0.011,0.008,0.022,0.013,0.519,-0.062,1.402
2024-10-15 14:27:46.163,76417.62,0.495,0.062,-0.867,-0.001,0.008,0.012,0.01,0.025,0.014,0.519,-0.062,1.402
2024-10-15 14:27:46.173,76417.63,0.495,0.061,-0.866,-0.002,0.012,0.01,0.012,0.019,0.019,0.519,-0.061,1.402
2024-10-15 14:27:46.182,76417.64,0.496,0.061,-0.866,-0.001,0.008,0.01,0.012,0.027,0.021,0.52,-0.061,1.402
2024-10-15 14:27:46.192,76417.65,0.496,0.061,-0.866,-0.001,0.002,0.006,0.015,0.025,0.019,0.52,-0.061,1.402
2024-10-15 14:27:46.203,76417.66,0.496,0.061,-0.866,0.0,0.003,0.005,0.006,0.024,0.009,0.52,-0.061,1.402
2024-10-15 14:27:46.213,76417.67,0.496,0.061,-0.866,0.002,-0.0,0.006,0.002,0.02,0.008,0.52,-0.061,1.402
2024-10-15 14:27:46.222,76417.68,0.497,0.061,-0.866,0.002,-0.004,0.009,0.001,0.023,0.008,0.521,-0.061,1.403
2024-10-15 14:27:46.232,76417.69,0.497,0.061,-0.866,-0.001,0.001,0.007,0.006,0.023,0.008,0.521,-0.061,1.403
2024-10-15 14:27:46.242,76417.7,0.497,0.061,-0.866,-0.002,0.004,0.006,-0.001,0.023,0.009,0.521,-0.061,1.403
2024-10-15 14:27:46.252,76417.71,0.497,0.061,-0.866,-0.002,0.006,0.009,-0.003,0.022,0.007,0.521,-0.061,1.403
2024-10-15 14:27:46.262,76417.72,0.497,0.061,-0.865,-0.004,0.005,0.008,0.006,0.023,0.003,0.522,-0.061,1.403
2024-10-15 14:27:46.272,76417.73,0.498,0.061,-0.865,-0.003,0.007,0.007,0.018,0.025,0.003,0.522,-0.061,1.403
2024-10-15 14:27:46.282,76417.74,0.498,0.06,-0.865,-0.002,0.007,0.006,0.021,0.029,0.001,0.522,-0.06,1.403
2024-10-15 14:27:46.292,76417.75,0.498,0.06,-0.865,-0.003,0.001,0.005,0.016,0.031,0.004,0.522,-0.06,1.403
2024-10-15 14:27:46.302,76417.76,0.498,0.06,-0.865,-0.004,0.002,0.005,0.014,0.023,0.004,0.523,-0.06,1.402
2024-10-15 14:27:46.312,76417.77,0.499,0.06,-0.865,-0.002,-0.0,0.009,0.009,0.026,-0.004,0.523,-0.06,1.402
2024-10-15 14:27:46.322,76417.78,0.499,0.06,-0.865,-0.001,-0.001,0.013,0.004,0.018,-0.003,0.523,-0.06,1.402
2024-10-15 14:27:46.332,76417.79,0.499,0.06,-0.865,-0.003,0.0,0.014,0.005,0.019,0.003,0.523,-0.06,1.402
2024-10-15 14:27:46.342,76417.8,0.499,0.06,-0.865,-0.003,0.002,0.012,0.014,0.02,0.004,0.524,-0.06,1.402
2024-10-15 14:27:46.352,76417.81,0.499,0.06,-0.864,-0.006,0.004,0.012,0.013,0.023,0.002,0.524,-0.06,1.402
2024-10-15 14:27:46.362,76417.82,0.499,0.06,-0.864,-0.005,0.003,0.01,0.011,0.018,0.001,0.524,-0.06,1.402
2024-10-15 14:27:46.372,76417.83,0.5,0.06,-0.864,-0.005,-0.001,0.006,0.003,0.017,0.008,0.524,-0.06,1.402
2024-10-15 14:27:46.382,76417.84,0.5,0.06,-0.864,-0.004,-0.001,0.006,-0.011,0.013,0.003,0.524,-0.06,1.402
2024-10-15 14:27:46.392,76417.85,0.5,0.06,-0.864,-0.003,-0.005,0.008,-0.011,0.012,0.006,0.524,-0.06,1.402
2024-10-15 14:27:46.402,76417.86,0.5,0.06,-0.864,-0.001,-0.005,0.013,-0.008,0.007,0.002,0.525,-0.06,1.402
2024-10-15 14:27:46.412,76417.87,0.5,0.06,-0.864,-0.002,-0.005,0.014,-0.004,0.005,0.0,0.525,-0.06,1.403
2024-10-15 14:27:46.422,76417.879,0.5,0.06,-0.864,-0.002,-0.003,0.015,-0.006,0.004,-0.002,0.525,-0.06,1.403
2024-10-15 14:27:46.432,76417.889,0.5,0.06,-0.864,0.001,-0.004,0.015,-0.001,-0.001,0.001,0.525,-0.06,1.403
2024-10-15 14:27:46.442,76417.899,0.5,0.06,-0.864,0.001,-0.002,0.011,-0.001,0.004,-0.001,0.525,-0.06,1.403
2024-10-15 14:27:46.452,76417.909,0.5,0.06,-0.864,-0.001,0.0,0.008,-0.001,0.0,-0.007,0.525,-0.06,1.403
2024-10-15 14:27:46.462,76417.919,0.5,0.06,-0.864,0.001,-0.002,0.007,0.007,0.015,0.003,0.525,-0.06,1.402
2024-10-15 14:27:46.472,76417.929,0.5,0.06,-0.864,-0.002,-0.0,0.007,0.01,0.013,0.003,0.525,-0.06,1.402
2024-10-15 14:27:46.482,76417.939,0.5,0.06,-0.864,-0.001,0.002,0.009,0.008,0.008,-0.001,0.525,-0.06,1.402
2024-10-15 14:27:46.492,76417.949,0.5,0.06,-0.864,0.002,-0.003,0.011,0.003,0.009,-0.006,0.525,-0.06,1.402
2024-10-15 14:27:46.502,76417.959,0.501,0.06,-0.864,0.001,-0.005,0.013,0.009,0.014,-0.008,0.525,-0.06,1.402
2024-10-15 14:27:46.512,76417.969,0.501,0.059,-0.864,-0.002,-0.002,0.013,0.013,0.01,-0.016,0.525,-0.06,1.402
2024-10-15 14:27:46.522,76417.979,0.501,0.059,-0.864,0.0,-0.002,0.01,0.009,0.014,-0.012,0.525,-0.06,1.402
2024-10-15 14:27:46.532,76417.989,0.501,0.059,-0.863,-0.002,-0.003,0.009,0.005,0.014,-0.007,0.526,-0.059,1.402
2024-10-15 14:27:46.543,76417.999,0.501,0.059,-0.863,-0.003,-0.004,0.013,0.006,0.013,-0.011,0.526,-0.06,1.402
2024-10-15 14:27:46.552,76418.009,0.501,0.059,-0.863,-0.0,-0.002,0.011,0.014,0.017,-0.011,0.526,-0.059,1.402
2024-10-15 14:27:46.562,76418.019,0.501,0.059,-0.863,-0.002,0.0,0.01,0.009,0.012,-0.009,0.526,-0.059,1.401
2024-10-15 14:27:46.572,76418.029,0.501,0.059,-0.863,-0.002,0.002,0.008,0.003,0.004,-0.006,0.526,-0.059,1.401
2024-10-15 14:27:46.583,76418.039,0.501,0.059,-0.863,0.002,0.002,0.009,-0.001,0.002,-0.007,0.526,-0.059,1.401
2024-10-15 14:27:46.592,76418.049,0.501,0.058,-0.863,0.0,0.004,0.011,0.237,0.073,0.057,0.526,-0.058,1.401
2024-10-15 14:27:46.601,76418.059,0.502,0.057,-0.863,-0.009,0.007,0.013,0.11,0.033,0.021,0.527,-0.057,1.401
2024-10-15 14:27:46.611,76418.069,0.502,0.056,-0.863,-0.016,0.022,0.025,0.165,0.056,0.016,0.527,-0.056,1.4
2024-10-15 14:27:46.621,76418.079,0.503,0.054,-0.863,0.015,0.002,0.022,0.124,0.033,0.015,0.528,-0.054,1.399
2024-10-15 14:27:46.631,76418.089,0.503,0.053,-0.863,-0.004,0.022,0.026,0.089,-0.015,-0.007,0.528,-0.053,1.399
2024-10-15 14:27:46.641,76418.099,0.503,0.053,-0.863,0.017,0.006,0.023,0.067,-0.037,-0.028,0.528,-0.053,1.398
2024-10-15 14:27:46.651,76418.109,0.502,0.053,-0.863,0.018,0.008,0.023,0.02,-0.063,-0.029,0.527,-0.053,1.398
2024-10-15 14:27:46.662,76418.119,0.502,0.053,-0.863,0.011,0.009,0.021,-0.042,-0.084,-0.021,0.526,-0.053,1.398
2024-10-15 14:27:46.672,76418.129,0.501,0.054,-0.864,0.008,-0.003,0.015,-0.143,-0.11,-0.036,0.525,-0.054,1.398
2024-10-15 14:27:46.682,76418.139,0.5,0.056,-0.864,0.008,-0.015,0.012,-0.239,-0.125,-0.042,0.524,-0.056,1.399
2024-10-15 14:27:46.693,76418.149,0.499,0.058,-0.865,0.01,-0.025,0.004,-0.229,-0.06,0.067,0.523,-0.058,1.4
2024-10-15 14:27:46.710,76418.159,0.499,0.058,-0.865,-0.011,0.001,-0.009,-0.007,0.0,0.085,0.523,-0.058,1.401
2024-10-15 14:27:50.745,76422.2,0.499,0.061,-0.864,0.005,0.005,0.01,-0.078,-0.006,-0.011,0.524,-0.061,1.395
2024-10-15 14:27:50.757,76422.21,0.499,0.061,-0.864,0.011,-0.029,0.018,-0.088,0.004,0.009,0.524,-0.061,1.395
2024-10-15 14:27:50.762,76422.22,0.499,0.062,-0.864,-0.015,-0.004,0.011,-0.113,-0.002,0.013,0.524,-0.062,1.396
2024-10-15 14:27:50.772,76422.23,0.499,0.063,-0.864,-0.011,-0.002,0.004,-0.131,-0.003,-0.008,0.524,-0.063,1.397
2024-10-15 14:27:50.782,76422.24,0.499,0.064,-0.864,-0.003,-0.006,0.001,-0.145,-0.005,-0.005,0.524,-0.064,1.397
2024-10-15 14:27:50.797,76422.25,0.499,0.065,-0.864,-0.006,-0.004,-0.005,-0.144,0.001,0.002,0.524,-0.065,1.398
2024-10-15 14:27:50.802,76422.26,0.499,0.067,-0.864,-0.009,-0.002,-0.007,-0.122,0.004,-0.002,0.524,-0.067,1.399
2024-10-15 14:27:50.812,76422.27,0.499,0.068,-0.864,-0.01,0.004,-0.006,-0.122,0.002,0.01,0.524,-0.068,1.399
2024-10-15 14:27:50.822,76422.28,0.499,0.069,-0.864,-0.01,0.009,-0.003,-0.114,0.015,0.031,0.524,-0.069,1.4
2024-10-15 14:27:50.832,76422.29,0.499,0.069,-0.864,-0.013,0.003,0.003,-0.092,0.003,0.003,0.524,-0.069,1.401
2024-10-15 14:27:50.842,76422.3,0.499,0.07,-0.864,-0.009,0.005,0.006,-0.078,-0.001,0.027,0.524,-0.07,1.401
2024-10-15 14:27:50.853,76422.31,0.499,0.07,-0.863,-0.001,0.009,0.012,-0.04,0.015,0.036,0.524,-0.07,1.402
2024-10-15 14:27:50.862,76422.32,0.5,0.07,-0.863,-0.015,0.012,0.009,-0.026,0.018,0.03,0.525,-0.07,1.403
2024-10-15 14:27:50.873,76422.33,0.5,0.07,-0.863,-0.004,0.013,0.012,-0.016,0.012,0.027,0.525,-0.07,1.403
2024-10-15 14:27:50.883,76422.34,0.5,0.07,-0.863,-0.0,0.005,0.014,0.003,0.013,0.02,0.525,-0.07,1.403
2024-10-15 14:27:50.893,76422.35,0.5,0.07,-0.863,-0.002,0.008,0.012,0.009,0.008,0.015,0.525,-0.07,1.403
2024-10-15 14:27:50.903,76422.36,0.5,0.07,-0.863,-0.002,0.009,0.012,0.025,-0.001,0.005,0.525,-0.07,1.403
2024-10-15 14:27:50.912,76422.37,0.5,0.07,-0.863,-0.001,0.007,0.015,0.038,-0.001,0.006,0.525,-0.07,1.403
2024-10-15 14:27:50.923,76422.38,0.5,0.069,-0.863,-0.002,0.009,0.02,0.041,-0.003,0.012,0.525,-0.069,1.403
2024-10-15 14:27:50.932,76422.39,0.5,0.069,-0.863,-0.001,0.008,0.022,0.056,-0.008,0.01,0.525,-0.069,1.403
2024-10-15 14:27:50.942,76422.4,0.5,0.068,-0.863,0.001,0.01,0.026,0.064,-0.016,0.013,0.525,-0.068,1.403
2024-10-15 14:27:50.953,76422.41,0.5,0.068,-0.864,0.001,0.01,0.026,0.054,-0.026,0.019,0.524,-0.068,1.402
2024-10-15 14:27:50.962,76422.42,0.499,0.067,-0.864,0.003,0.004,0.023,0.04,-0.031,0.021,0.524,-0.067,1.402
2024-10-15 14:27:50.973,76422.43,0.499,0.067,-0.864,0.005,0.003,0.022,0.028,-0.037,0.015,0.524,-0.067,1.402
2024-10-15 14:27:50.982,76422.44,0.499,0.067,-0.864,0.004,0.002,0.02,0.013,-0.045,0.017,0.523,-0.067,1.402
2024-10-15 14:27:50.992,76422.45,0.498,0.067,-0.864,0.003,-0.002,0.02,-0.002,-0.045,0.016,0.523,-0.067,1.403
2024-10-15 14:27:51.003,76422.46,0.498,0.067,-0.865,0.002,0.0,0.016,-0.013,-0.049,0.014,0.523,-0.067,1.403
2024-10-15 14:27:51.012,76422.47,0.498,0.067,-0.865,-0.001,-0.0,0.011,-0.014,-0.047,0.016,0.522,-0.067,1.403
2024-10-15 14:27:51.024,76422.48,0.497,0.067,-0.865,-0.006,-0.001,0.007,-0.005,-0.045,0.013,0.522,-0.067,1.403
2024-10-15 14:27:51.032,76422.49,0.497,0.067,-0.865,-0.009,0.001,0.003,-0.001,-0.042,0.014,0.521,-0.067,1.403
2024-10-15 14:27:51.042,76422.5,0.497,0.067,-0.865,-0.012,0.004,-0.002,-0.007,-0.039,0.019,0.521,-0.067,1.403
2024-10-15 14:27:51.053,76422.51,0.496,0.067,-0.866,-0.012,0.001,-0.002,-0.022,-0.041,0.02,0.521,-0.067,1.404
2024-10-15 14:27:51.061,76422.52,0.496,0.067,-0.866,-0.011,-0.005,-0.002,-0.029,-0.038,0.015,0.52,-0.067,1.404
2024-10-15 14:27:51.072,76422.53,0.496,0.067,-0.866,-0.013,-0.006,-0.004,-0.021,-0.029,0.015,0.52,-0.067,1.404
2024-10-15 14:27:51.082,76422.54,0.496,0.067,-0.866,-0.013,-0.003,-0.002,-0.03,-0.027,0.011,0.52,-0.067,1.404
2024-10-15 14:27:51.092,76422.55,0.496,0.067,-0.866,-0.011,-0.006,0.001,-0.036,-0.025,0.008,0.52,-0.067,1.405
2024-10-15 14:27:51.102,76422.56,0.495,0.068,-0.866,-0.01,-0.008,0.001,-0.03,-0.028,0.002,0.519,-0.068,1.405
2024-10-15 14:27:51.112,76422.57,0.495,0.068,-0.866,-0.01,-0.005,-0.002,-0.017,-0.025,-0.001,0.519,-0.068,1.405
2024-10-15 14:27:51.123,76422.58,0.495,0.068,-0.866,-0.01,-0.0,-0.0,-0.013,-0.021,-0.004,0.519,-0.068,1.405
2024-10-15 14:27:51.132,76422.59,0.495,0.068,-0.866,-0.011,0.0,-0.001,-0.014,-0.015,-0.006,0.519,-0.068,1.405
2024-10-15 14:27:51.142,76422.6,0.495,0.068,-0.866,-0.011,-0.001,-0.002,-0.01,-0.006,-0.002,0.519,-0.068,1.405
2024-10-15 14:27:51.153,76422.61,0.494,0.068,-0.867,-0.007,0.0,-0.001,-0.015,-0.005,-0.003,0.519,-0.068,1.405
2024-10-15 14:27:51.162,76422.62,0.494,0.068,-0.867,-0.007,0.001,-0.002,-0.019,-0.006,-0.005,0.518,-0.068,1.405
2024-10-15 14:27:51.172,76422.63,0.494,0.069,-0.867,-0.008,0.002,0.001,-0.049,-0.005,-0.006,0.518,-0.069,1.405
2024-10-15 14:27:51.181,76422.64,0.494,0.069,-0.867,-0.007,0.0,0.01,-0.071,0.004,0.012,0.518,-0.069,1.406
2024-10-15 14:27:51.192,76422.65,0.494,0.07,-0.866,-0.007,-0.001,0.01,-0.105,-0.006,0.005,0.518,-0.07,1.406
2024-10-15 14:27:51.201,76422.66,0.494,0.071,-0.866,-0.006,-0.006,0.01,-0.114,0.004,0.02,0.519,-0.071,1.407
2024-10-15 14:27:51.211,76422.67,0.494,0.072,-0.866,-0.008,-0.001,0.017,-0.132,-0.011,0.016,0.518,-0.072,1.407
2024-10-15 14:27:51.221,76422.68,0.494,0.073,-0.866,-0.001,-0.008,0.023,-0.143,-0.01,0.023,0.518,-0.073,1.408
2024-10-15 14:27:51.231,76422.69,0.494,0.074,-0.866,-0.001,-0.013,0.027,-0.144,-0.026,0.025,0.518,-0.074,1.409
2024-10-15 14:27:51.241,76422.7,0.494,0.075,-0.866,0.002,-0.011,0.027,-0.157,-0.034,0.029,0.518,-0.075,1.41
2024-10-15 14:27:51.251,76422.71,0.493,0.076,-0.866,0.006,-0.007,0.03,-0.171,-0.043,0.032,0.518,-0.076,1.411
2024-10-15 14:27:51.261,76422.72,0.493,0.078,-0.867,0.003,-0.002,0.028,-0.177,-0.058,0.038,0.517,-0.078,1.412
2024-10-15 14:27:51.271,76422.729,0.492,0.079,-0.867,0.0,0.003,0.026,-0.205,-0.056,0.045,0.517,-0.079,1.414
2024-10-15 14:27:51.282,76422.739,0.492,0.081,-0.867,0.003,0.003,0.028,-0.244,-0.081,0.06,0.516,-0.081,1.415
2024-10-15 14:27:51.292,76422.749,0.491,0.083,-0.867,0.003,-0.002,0.033,-0.283,-0.079,0.057,0.516,-0.083,1.417
2024-10-15 14:27:51.302,76422.759,0.491,0.085,-0.867,0.011,0.005,0.033,-0.328,-0.094,0.06,0.515,-0.085,1.419
2024-10-15 14:27:51.318,76422.769,0.49,0.088,-0.867,0.006,0.004,0.03,-0.359,-0.116,0.07,0.514,-0.088,1.421
2024-10-15 14:27:51.323,76422.779,0.489,0.09,-0.868,0.009,0.002,0.031,-0.391,-0.12,0.074,0.513,-0.091,1.424
2024-10-15 14:27:51.332,76422.789,0.488,0.093,-0.868,0.01,0.004,0.03,-0.398,-0.135,0.07,0.512,-0.094,1.426
2024-10-15 14:27:51.342,76422.799,0.487,0.097,-0.868,0.007,0.004,0.029,-0.429,-0.128,0.077,0.511,-0.097,1.429
2024-10-15 14:27:51.352,76422.809,0.486,0.1,-0.868,0.006,-0.0,0.033,-0.524,-0.121,0.118,0.51,-0.1,1.432
2024-10-15 14:27:51.362,76422.819,0.485,0.105,-0.868,0.001,-0.008,0.039,-0.647,-0.141,0.146,0.509,-0.105,1.436
2024-10-15 14:27:51.372,76422.829,0.484,0.11,-0.868,0.004,-0.016,0.043,-0.768,-0.155,0.155,0.508,-0.11,1.441
2024-10-15 14:27:51.382,76422.839,0.483,0.116,-0.868,0.011,-0.021,0.048,-0.853,-0.169,0.156,0.507,-0.117,1.446
2024-10-15 14:27:51.392,76422.849,0.481,0.123,-0.868,0.009,-0.028,0.047,-0.888,-0.173,0.156,0.506,-0.124,1.452
2024-10-15 14:27:51.402,76422.859,0.48,0.13,-0.868,0.01,-0.025,0.045,-0.938,-0.153,0.167,0.505,-0.131,1.458
2024-10-15 14:27:51.412,76422.869,0.479,0.138,-0.867,0.009,-0.023,0.05,-1.043,-0.141,0.188,0.505,-0.138,1.464
2024-10-15 14:27:51.422,76422.879,0.478,0.147,-0.866,0.008,-0.035,0.051,-1.14,-0.159,0.198,0.504,-0.147,1.471
2024-10-15 14:27:51.431,76422.889,0.477,0.156,-0.865,0.009,-0.04,0.042,-1.193,-0.174,0.186,0.504,-0.156,1.479
2024-10-15 14:27:51.442,76422.899,0.476,0.165,-0.864,0.012,-0.022,0.035,-1.175,-0.178,0.171,0.503,-0.166,1.486
2024-10-15 14:27:51.451,76422.909,0.474,0.174,-0.863,0.007,-0.002,0.028,-1.149,-0.162,0.184,0.503,-0.175,1.493
2024-10-15 14:27:51.461,76422.919,0.473,0.183,-0.862,0.001,0.006,0.021,-1.154,-0.147,0.211,0.503,-0.184,1.501
2024-10-15 14:27:51.471,76422.929,0.473,0.192,-0.86,-0.001,-0.002,0.017,-1.197,-0.138,0.238,0.503,-0.194,1.508
2024-10-15 14:27:51.481,76422.939,0.472,0.202,-0.858,0.011,-0.006,0.014,-1.281,-0.116,0.248,0.503,-0.203,1.517
2024-10-15 14:27:51.492,76422.949,0.472,0.212,-0.856,0.017,-0.013,-0.001,-1.453,-0.077,0.29,0.504,-0.214,1.526
2024-10-15 14:27:51.502,76422.959,0.472,0.224,-0.853,0.01,-0.028,-0.004,-1.629,-0.067,0.275,0.505,-0.226,1.536
2024-10-15 14:27:51.512,76422.969,0.472,0.237,-0.849,0.01,-0.052,0.003,-1.757,-0.026,0.25,0.507,-0.24,1.547
2024-10-15 14:27:51.521,76422.979,0.472,0.251,-0.845,0.004,-0.066,0.018,-1.877,0.009,0.262,0.51,-0.254,1.558
2024-10-15 14:27:51.532,76422.989,0.473,0.266,-0.84,-0.018,-0.075,0.032,-2.012,0.029,0.284,0.513,-0.27,1.571
2024-10-15 14:27:51.542,76422.999,0.474,0.282,-0.834,-0.027,-0.091,0.038,-2.134,0.036,0.281,0.517,-0.286,1.584
2024-10-15 14:27:51.551,76423.009,0.475,0.299,-0.827,-0.017,-0.116,0.028,-2.223,0.041,0.257,0.522,-0.304,1.598
2024-10-15 14:27:51.562,76423.019,0.477,0.317,-0.82,-0.018,-0.126,0.012,-2.27,0.079,0.232,0.527,-0.322,1.612
2024-10-15 14:27:51.571,76423.029,0.478,0.334,-0.812,-0.024,-0.12,0.007,-2.34,0.167,0.203,0.532,-0.341,1.626
2024-10-15 14:27:51.581,76423.039,0.48,0.353,-0.803,-0.035,-0.126,0.007,-2.422,0.183,0.159,0.539,-0.36,1.641
2024-10-15 14:27:51.591,76423.049,0.483,0.372,-0.793,-0.036,-0.139,0.005,-2.517,0.236,0.1,0.547,-0.381,1.656
2024-10-15 14:27:51.601,76423.059,0.485,0.391,-0.782,-0.033,-0.14,0.008,-2.631,0.318,0.068,0.555,-0.402,1.671
2024-10-15 14:27:51.611,76423.069,0.488,0.412,-0.769,-0.045,-0.131,0.023,-2.794,0.392,0.039,0.565,-0.425,1.687
2024-10-15 14:27:51.621,76423.079,0.492,0.434,-0.755,-0.051,-0.116,0.027,-3.055,0.481,0.022,0.577,-0.449,1.705
2024-10-15 14:27:51.631,76423.089,0.495,0.458,-0.738,-0.053,-0.098,0.027,-3.333,0.511,-0.006,0.591,-0.476,1.725
2024-10-15 14:27:51.641,76423.099,0.499,0.483,-0.719,-0.059,-0.099,0.029,-3.54,0.542,-0.055,0.606,-0.504,1.746
2024-10-15 14:27:51.651,76423.109,0.503,0.509,-0.699,-0.047,-0.092,0.023,-3.656,0.577,-0.103,0.623,-0.534,1.769
2024-10-15 14:27:51.661,76423.119,0.506,0.535,-0.677,-0.044,-0.07,0.02,-3.66,0.572,-0.141,0.642,-0.564,1.794
2024-10-15 14:27:51.671,76423.129,0.509,0.56,-0.654,-0.037,-0.044,0.022,-3.659,0.575,-0.189,0.661,-0.594,1.819
2024-10-15 14:27:51.681,76423.139,0.511,0.585,-0.63,-0.023,-0.014,0.032,-3.676,0.582,-0.233,0.682,-0.624,1.844
2024-10-15 14:27:51.692,76423.149,0.513,0.609,-0.605,-0.028,-0.007,0.053,-3.711,0.556,-0.251,0.704,-0.654,1.871
2024-10-15 14:27:51.701,76423.159,0.515,0.632,-0.579,-0.022,-0.007,0.066,-3.731,0.471,-0.282,0.726,-0.684,1.899
2024-10-15 14:27:51.711,76423.169,0.515,0.654,-0.553,-0.006,0.009,0.075,-3.693,0.4,-0.305,0.75,-0.714,1.929
2024-10-15 14:27:51.721,76423.179,0.515,0.676,-0.527,0.004,0.039,0.081,-3.571,0.34,-0.31,0.774,-0.742,1.96
2024-10-15 14:27:51.731,76423.189,0.515,0.695,-0.501,0.01,0.063,0.077,-3.508,0.328,-0.292,0.799,-0.769,1.991
2024-10-15 14:27:51.741,76423.199,0.514,0.714,-0.475,0.01,0.073,0.097,-3.482,0.252,-0.293,0.825,-0.795,2.024
2024-10-15 14:27:51.751,76423.209,0.513,0.731,-0.449,0.013,0.067,0.112,-3.406,0.146,-0.285,0.852,-0.82,2.058
2024-10-15 14:27:51.761,76423.219,0.512,0.747,-0.424,0.028,0.067,0.113,-3.344,0.121,-0.283,0.879,-0.844,2.093
2024-10-15 14:27:51.771,76423.229,0.51,0.762,-0.399,0.029,0.089,0.084,-3.177,0.049,-0.306,0.907,-0.867,2.129
2024-10-15 14:27:51.781,76423.239,0.508,0.776,-0.375,-0.023,0.111,0.023,-3.023,0.097,-0.192,0.935,-0.888,2.165
2024-10-15 14:27:51.792,76423.249,0.507,0.788,-0.351,-0.026,0.108,0.004,-3.063,0.129,-0.22,0.966,-0.907,2.203
2024-10-15 14:27:51.801,76423.259,0.505,0.799,-0.327,0.059,0.074,0.031,-2.815,0.034,-0.298,0.997,-0.925,2.241
2024-10-15 14:27:51.811,76423.269,0.503,0.809,-0.305,0.011,0.096,-0.021,-2.666,0.144,-0.221,1.027,-0.942,2.277
2024-10-15 14:27:51.821,76423.279,0.501,0.818,-0.283,-0.029,0.155,-0.038,-2.595,-0.118,-0.231,1.057,-0.957,2.314
2024-10-15 14:27:51.831,76423.289,0.499,0.826,-0.263,0.033,0.097,-0.003,-2.441,-0.148,-0.216,1.086,-0.971,2.351
2024-10-15 14:27:51.841,76423.299,0.497,0.832,-0.245,0.031,0.006,0.042,-2.154,-0.23,-0.201,1.113,-0.984,2.386
2024-10-15 14:27:51.851,76423.308,0.495,0.838,-0.229,0.038,0.015,0.027,-1.929,-0.221,-0.176,1.137,-0.994,2.418
2024-10-15 14:27:51.861,76423.318,0.493,0.843,-0.215,0.02,0.112,0.015,-1.836,-0.255,-0.142,1.16,-1.003,2.448
2024-10-15 14:27:51.871,76423.328,0.491,0.848,-0.2,0.003,0.112,-0.003,-1.838,-0.302,-0.121,1.183,-1.011,2.479
2024-10-15 14:27:51.881,76423.338,0.49,0.852,-0.186,0.015,0.039,-0.021,-1.823,-0.318,-0.113,1.207,-1.019,2.51
2024-10-15 14:27:51.891,76423.348,0.488,0.855,-0.173,0.018,0.033,-0.018,-1.697,-0.321,-0.109,1.23,-1.026,2.541
2024-10-15 14:27:51.901,76423.358,0.487,0.859,-0.16,0.009,0.058,-0.025,-1.61,-0.311,-0.113,1.252,-1.033,2.571
2024-10-15 14:27:51.911,76423.368,0.485,0.862,-0.148,0.004,0.057,-0.03,-1.623,-0.321,-0.138,1.275,-1.039,2.6
2024-10-15 14:27:51.921,76423.378,0.483,0.865,-0.136,-0.013,0.037,-0.036,-1.652,-0.35,-0.154,1.297,-1.045,2.63
2024-10-15 14:27:51.931,76423.388,0.482,0.868,-0.123,-0.036,0.006,-0.038,-1.56,-0.385,-0.166,1.32,-1.051,2.661
2024-10-15 14:27:51.941,76423.398,0.48,0.87,-0.113,-0.053,0.002,-0.044,-1.361,-0.449,-0.147,1.34,-1.056,2.689
2024-10-15 14:27:51.950,76423.408,0.478,0.872,-0.104,-0.055,0.036,-0.064,-1.106,-0.491,-0.127,1.356,-1.06,2.713
2024-10-15 14:27:51.961,76423.418,0.477,0.874,-0.098,-0.047,0.07,-0.066,-0.849,-0.492,-0.093,1.368,-1.063,2.732
2024-10-15 14:27:51.970,76423.428,0.475,0.875,-0.094,-0.042,0.089,-0.051,-0.667,-0.487,-0.06,1.376,-1.065,2.747
2024-10-15 14:27:51.981,76423.438,0.475,0.876,-0.091,-0.038,0.11,-0.036,-0.496,-0.491,-0.041,1.381,-1.067,2.758
2024-10-15 14:27:51.991,76423.448,0.474,0.876,-0.09,-0.032,0.1,-0.025,-0.359,-0.513,-0.003,1.384,-1.068,2.767
2024-10-15 14:27:52.001,76423.458,0.474,0.876,-0.089,-0.023,0.083,-0.027,-0.282,-0.538,0.08,1.385,-1.068,2.773
2024-10-15 14:27:52.010,76423.468,0.474,0.876,-0.09,-0.023,0.077,-0.005,-0.117,-0.549,0.149,1.383,-1.067,2.778
2024-10-15 14:27:52.021,76423.478,0.475,0.875,-0.093,-0.03,0.05,-0.003,0.073,-0.572,0.176,1.379,-1.065,2.779
2024-10-15 14:27:52.030,76423.488,0.476,0.874,-0.097,-0.03,0.052,0.001,0.273,-0.616,0.207,1.37,-1.063,2.776
2024-10-15 14:27:52.040,76423.498,0.478,0.873,-0.103,-0.031,0.094,0.018,0.496,-0.634,0.2,1.358,-1.06,2.77
2024-10-15 14:27:52.051,76423.508,0.479,0.871,-0.111,-0.039,0.127,0.022,0.653,-0.638,0.235,1.342,-1.057,2.759
2024-10-15 14:27:52.060,76423.518,0.48,0.869,-0.121,-0.045,0.139,0.022,0.804,-0.569,0.236,1.325,-1.053,2.746
2024-10-15 14:27:52.071,76423.528,0.481,0.867,-0.131,-0.023,0.14,-0.017,0.839,-0.578,0.215,1.306,-1.049,2.73
2024-10-15 14:27:52.080,76423.538,0.483,0.865,-0.14,-0.01,0.13,-0.053,0.797,-0.502,0.258,1.288,-1.044,2.716
2024-10-15 14:27:52.091,76423.548,0.484,0.862,-0.149,-0.006,0.077,-0.066,0.783,-0.445,0.261,1.272,-1.04,2.703
2024-10-15 14:27:52.100,76423.558,0.486,0.86,-0.158,-0.01,0.023,-0.112,0.784,-0.463,0.262,1.256,-1.035,2.689
2024-10-15 14:27:52.111,76423.568,0.487,0.857,-0.167,-0.007,0.023,-0.126,0.796,-0.369,0.299,1.241,-1.03,2.677
2024-10-15 14:27:52.120,76423.578,0.489,0.854,-0.176,-0.003,0.068,-0.072,0.903,-0.306,0.317,1.226,-1.024,2.663
2024-10-15 14:27:52.130,76423.588,0.492,0.851,-0.185,-0.01,0.107,-0.047,0.85,-0.196,0.305,1.212,-1.018,2.65
2024-10-15 14:27:52.140,76423.598,0.494,0.848,-0.192,-0.018,0.089,0.002,0.763,-0.196,0.341,1.199,-1.012,2.637
2024-10-15 14:27:52.149,76423.608,0.496,0.845,-0.2,-0.006,0.024,0.015,0.799,-0.152,0.288,1.188,-1.006,2.626
2024-10-15 14:27:52.160,76423.618,0.498,0.842,-0.208,0.013,-0.029,0.043,1.118,-0.141,0.176,1.174,-1.001,2.611
2024-10-15 14:27:52.170,76423.628,0.499,0.838,-0.219,-0.025,0.028,-0.02,1.26,-0.178,0.212,1.157,-0.994,2.592
2024-10-15 14:27:52.181,76423.638,0.5,0.834,-0.231,-0.052,0.135,-0.045,1.281,-0.103,0.152,1.139,-0.987,2.573
2024-10-15 14:27:52.191,76423.648,0.502,0.831,-0.241,-0.083,0.08,0.05,1.083,-0.057,0.158,1.123,-0.981,2.554
2024-10-15 14:27:52.200,76423.658,0.503,0.828,-0.249,-0.092,-0.061,0.076,0.828,-0.137,0.129,1.11,-0.975,2.54
2024-10-15 14:27:52.210,76423.668,0.503,0.826,-0.256,-0.042,-0.122,0.111,0.535,-0.168,0.109,1.1,-0.971,2.53
2024-10-15 14:27:52.220,76423.678,0.503,0.824,-0.26,-0.01,-0.114,0.111,0.392,-0.208,0.088,1.093,-0.968,2.524
2024-10-15 14:27:52.230,76423.688,0.504,0.822,-0.264,-0.026,-0.106,0.069,0.341,-0.206,0.084,1.087,-0.966,2.519
2024-10-15 14:27:52.240,76423.698,0.504,0.821,-0.268,-0.033,-0.088,0.021,0.363,-0.213,0.08,1.081,-0.963,2.514
2024-10-15 14:27:52.250,76423.708,0.504,0.82,-0.272,-0.017,-0.052,-0.018,0.382,-0.19,0.11,1.075,-0.961,2.509
2024-10-15 14:27:52.260,76423.718,0.504,0.818,-0.276,0.002,-0.047,-0.033,0.363,-0.178,0.108,1.069,-0.958,2.505
2024-10-15 14:27:52.270,76423.728,0.505,0.817,-0.28,0.006,-0.051,-0.032,0.304,-0.162,0.116,1.064,-0.956,2.5
2024-10-15 14:27:52.280,76423.738,0.505,0.815,-0.283,0.014,-0.032,-0.01,0.231,-0.105,0.142,1.06,-0.953,2.497
2024-10-15 14:27:52.290,76423.748,0.506,0.814,-0.285,0.014,-0.017,0.009,0.112,-0.012,0.147,1.059,-0.951,2.496
2024-10-15 14:27:52.300,76423.758,0.508,0.813,-0.285,0.011,-0.019,0.022,0.006,0.03,0.16,1.059,-0.949,2.496
2024-10-15 14:27:52.310,76423.768,0.509,0.812,-0.285,0.013,-0.035,0.014,-0.07,0.046,0.182,1.061,-0.948,2.498
2024-10-15 14:27:52.320,76423.778,0.511,0.811,-0.284,0.022,-0.033,-0.001,-0.091,0.078,0.219,1.064,-0.947,2.501
2024-10-15 14:27:52.330,76423.788,0.513,0.811,-0.282,0.018,-0.036,-0.02,-0.151,0.085,0.233,1.068,-0.945,2.505
2024-10-15 14:27:52.340,76423.798,0.515,0.81,-0.281,0.008,-0.039,-0.034,-0.187,-0.008,0.219,1.072,-0.944,2.509
2024-10-15 14:27:52.350,76423.808,0.517,0.809,-0.28,0.006,-0.034,-0.057,-0.073,-0.135,0.256,1.074,-0.943,2.513
2024-10-15 14:27:52.360,76423.818,0.519,0.808,-0.279,0.017,-0.002,-0.065,-0.12,0.014,0.236,1.077,-0.941,2.517
2024-10-15 14:27:52.370,76423.828,0.52,0.807,-0.279,0.017,0.051,0.006,-0.035,-0.051,0.124,1.079,-0.94,2.52
2024-10-15 14:27:52.380,76423.838,0.521,0.807,-0.279,-0.035,0.043,-0.052,0.104,0.003,0.094,1.079,-0.939,2.52
2024-10-15 14:27:52.390,76423.848,0.522,0.806,-0.28,-0.034,-0.01,-0.064,-0.051,-0.016,0.237,1.079,-0.937,2.521
2024-10-15 14:27:52.400,76423.858,0.524,0.805,-0.278,0.011,-0.016,-0.02,-0.276,-0.06,0.178,1.082,-0.936,2.525
2024-10-15 14:27:52.410,76423.868,0.525,0.805,-0.277,-0.016,-0.079,-0.002,-0.156,0.023,0.108,1.086,-0.936,2.53
2024-10-15 14:27:52.420,76423.877,0.526,0.805,-0.276,-0.061,0.0,-0.063,0.024,0.048,0.134,1.087,-0.935,2.531
2024-10-15 14:27:52.431,76423.887,0.527,0.804,-0.276,-0.046,0.098,-0.094,0.113,0.051,0.127,1.088,-0.933,2.531
2024-10-15 14:27:52.440,76423.897,0.528,0.803,-0.277,-0.037,0.032,-0.102,0.163,0.008,0.1,1.087,-0.932,2.53
2024-10-15 14:27:52.450,76423.907,0.529,0.802,-0.279,-0.034,-0.038,-0.096,0.226,-0.029,0.09,1.085,-0.93,2.528
2024-10-15 14:27:52.460,76423.917,0.529,0.8,-0.281,-0.015,-0.003,-0.084,0.35,-0.026,0.063,1.082,-0.928,2.524
2024-10-15 14:27:52.470,76423.927,0.53,0.799,-0.285,-0.016,0.037,-0.067,0.44,0.027,0.042,1.078,-0.926,2.519
2024-10-15 14:27:52.480,76423.937,0.53,0.797,-0.288,-0.028,0.033,-0.061,0.453,0.033,0.054,1.073,-0.923,2.512
2024-10-15 14:27:52.490,76423.947,0.531,0.796,-0.291,-0.02,-0.014,-0.006,0.442,0.05,0.044,1.068,-0.921,2.506
2024-10-15 14:27:52.500,76423.957,0.531,0.794,-0.294,-0.004,-0.036,0.039,0.382,0.065,0.044,1.065,-0.918,2.501
2024-10-15 14:27:52.510,76423.967,0.532,0.793,-0.297,0.001,-0.027,0.048,0.277,0.068,0.044,1.062,-0.916,2.496
2024-10-15 14:27:52.520,76423.977,0.532,0.792,-0.298,-0.009,-0.019,0.04,0.231,0.099,0.023,1.06,-0.915,2.493
2024-10-15 14:27:52.529,76423.987,0.533,0.792,-0.299,-0.025,-0.018,0.018,0.196,0.136,0.029,1.059,-0.913,2.49
2024-10-15 14:27:52.540,76423.997,0.533,0.791,-0.3,-0.025,-0.005,0.013,0.188,0.146,0.046,1.058,-0.912,2.488
2024-10-15 14:27:52.550,76424.007,0.534,0.79,-0.301,-0.015,-0.014,0.018,0.177,0.136,0.058,1.058,-0.911,2.486
2024-10-15 14:27:52.560,76424.017,0.535,0.789,-0.301,-0.009,-0.032,0.016,0.175,0.143,0.076,1.058,-0.909,2.484
2024-10-15 14:27:52.570,76424.027,0.536,0.788,-0.302,-0.003,-0.008,0.016,0.178,0.161,0.073,1.058,-0.908,2.481
2024-10-15 14:27:52.580,76424.037,0.537,0.787,-0.302,0.001,0.016,0.019,0.148,0.161,0.07,1.058,-0.906,2.479
2024-10-15 14:27:52.590,76424.047,0.538,0.786,-0.303,0.005,0.009,0.043,0.135,0.172,0.059,1.059,-0.905,2.478
2024-10-15 14:27:52.600,76424.057,0.539,0.786,-0.303,0.006,-0.006,0.062,0.11,0.188,0.053,1.06,-0.904,2.476
2024-10-15 14:27:52.609,76424.067,0.54,0.785,-0.302,0.002,-0.005,0.071,0.093,0.201,0.048,1.061,-0.903,2.475
2024-10-15 14:27:52.619,76424.077,0.541,0.785,-0.302,-0.003,0.003,0.073,0.04,0.224,0.056,1.062,-0.902,2.475
2024-10-15 14:27:52.630,76424.087,0.542,0.784,-0.301,-0.007,-0.002,0.075,-0.019,0.245,0.049,1.065,-0.902,2.475
2024-10-15 14:27:52.639,76424.097,0.544,0.784,-0.299,-0.015,-0.029,0.072,-0.075,0.252,0.028,1.068,-0.902,2.476
2024-10-15 14:27:52.649,76424.107,0.544,0.785,-0.297,-0.009,-0.054,0.058,-0.143,0.258,-0.001,1.072,-0.902,2.478
2024-10-15 14:27:52.659,76424.117,0.545,0.785,-0.294,-0.002,-0.06,0.046,-0.196,0.281,-0.006,1.077,-0.903,2.48
2024-10-15 14:27:52.669,76424.127,0.546,0.786,-0.291,-0.006,-0.07,0.042,-0.207,0.299,-0.013,1.082,-0.904,2.483
2024-10-15 14:27:52.679,76424.137,0.547,0.786,-0.287,-0.011,-0.071,0.036,-0.15,0.303,-0.021,1.087,-0.905,2.485
2024-10-15 14:27:52.690,76424.147,0.547,0.787,-0.285,-0.004,-0.048,0.031,-0.086,0.301,-0.028,1.091,-0.906,2.487
2024-10-15 14:27:52.700,76424.157,0.548,0.787,-0.282,0.004,-0.017,0.026,-0.118,0.346,-0.013,1.095,-0.906,2.488
2024-10-15 14:27:52.709,76424.167,0.549,0.788,-0.279,-0.0,-0.001,0.019,-0.178,0.377,-0.001,1.1,-0.907,2.49
2024-10-15 14:27:52.720,76424.177,0.55,0.788,-0.276,-0.009,-0.022,0.007,-0.182,0.37,0.004,1.106,-0.908,2.493
2024-10-15 14:27:52.730,76424.187,0.551,0.789,-0.272,-0.002,-0.02,-0.018,-0.14,0.368,0.012,1.112,-0.909,2.495
2024-10-15 14:27:52.739,76424.197,0.552,0.789,-0.27,0.01,0.013,-0.04,-0.08,0.37,0.035,1.117,-0.909,2.497
2024-10-15 14:27:52.749,76424.207,0.554,0.789,-0.267,0.012,0.03,-0.045,-0.067,0.387,0.062,1.122,-0.909,2.498
2024-10-15 14:27:52.759,76424.217,0.555,0.789,-0.264,0.006,0.017,-0.047,-0.115,0.38,0.11,1.127,-0.908,2.5
2024-10-15 14:27:52.769,76424.227,0.557,0.788,-0.261,0.002,0.007,-0.031,-0.162,0.377,0.144,1.133,-0.908,2.503
2024-10-15 14:27:52.779,76424.237,0.56,0.788,-0.257,0.003,-0.001,-0.01,-0.186,0.353,0.158,1.139,-0.907,2.507
2024-10-15 14:27:52.789,76424.247,0.562,0.787,-0.254,0.005,0.013,0.012,-0.22,0.329,0.187,1.146,-0.907,2.511
2024-10-15 14:27:52.799,76424.257,0.564,0.787,-0.25,0.004,0.05,0.031,-0.213,0.315,0.211,1.153,-0.906,2.516
2024-10-15 14:27:52.809,76424.267,0.567,0.786,-0.247,-0.003,0.039,0.011,-0.144,0.269,0.222,1.159,-0.904,2.52
2024-10-15 14:27:52.819,76424.277,0.569,0.785,-0.245,-0.01,-0.01,-0.022,-0.046,0.232,0.208,1.164,-0.903,2.523
2024-10-15 14:27:52.829,76424.287,0.571,0.784,-0.244,-0.014,0.018,-0.031,-0.032,0.184,0.239,1.167,-0.901,2.524
2024-10-15 14:27:52.839,76424.297,0.573,0.782,-0.243,-0.01,0.084,-0.02,0.085,0.184,0.234,1.17,-0.899,2.526
2024-10-15 14:27:52.849,76424.307,0.575,0.781,-0.243,-0.002,0.08,0.01,0.171,0.211,0.137,1.171,-0.896,2.525
2024-10-15 14:27:52.859,76424.317,0.577,0.78,-0.243,-0.018,0.043,0.028,0.27,0.281,0.107,1.172,-0.894,2.522
2024-10-15 14:27:52.869,76424.327,0.578,0.778,-0.244,-0.039,0.066,0.02,0.256,0.272,0.147,1.172,-0.892,2.519
2024-10-15 14:27:52.879,76424.337,0.58,0.777,-0.244,-0.014,0.022,0.027,0.127,0.253,0.18,1.173,-0.89,2.517
2024-10-15 14:27:52.889,76424.347,0.582,0.776,-0.243,0.018,-0.087,0.055,0.02,0.231,0.167,1.176,-0.888,2.517
2024-10-15 14:27:52.899,76424.357,0.584,0.775,-0.242,0.009,-0.127,0.066,0.079,0.254,0.211,1.179,-0.886,2.518
2024-10-15 14:27:52.909,76424.367,0.587,0.773,-0.241,0.003,-0.076,0.057,0.18,0.28,0.252,1.181,-0.884,2.517
2024-10-15 14:27:52.919,76424.377,0.589,0.771,-0.241,0.012,-0.001,0.046,0.295,0.304,0.228,1.182,-0.88,2.515
2024-10-15 14:27:52.929,76424.387,0.592,0.769,-0.242,-0.005,0.035,0.045,0.475,0.34,0.214,1.182,-0.877,2.511
2024-10-15 14:27:52.939,76424.397,0.594,0.766,-0.244,-0.017,0.045,0.013,0.593,0.344,0.193,1.181,-0.873,2.504
2024-10-15 14:27:52.949,76424.407,0.597,0.763,-0.247,-0.009,0.076,-0.014,0.615,0.374,0.259,1.179,-0.869,2.497
2024-10-15 14:27:52.959,76424.417,0.6,0.76,-0.249,-0.006,0.05,0.002,0.599,0.401,0.315,1.177,-0.864,2.49
2024-10-15 14:27:52.969,76424.427,0.603,0.757,-0.251,-0.0,-0.029,0.015,0.598,0.412,0.335,1.176,-0.858,2.484
2024-10-15 14:27:52.979,76424.437,0.607,0.753,-0.253,0.005,-0.046,0.018,0.633,0.416,0.313,1.175,-0.853,2.477
2024-10-15 14:27:52.989,76424.447,0.61,0.75,-0.256,0.001,-0.0,0.013,0.67,0.424,0.273,1.174,-0.848,2.47
2024-10-15 14:27:52.999,76424.456,0.613,0.747,-0.259,-0.022,0.049,0.01,0.775,0.367,0.185,1.172,-0.843,2.461
2024-10-15 14:27:53.009,76424.466,0.615,0.743,-0.263,-0.031,0.078,-0.014,0.889,0.28,0.138,1.167,-0.838,2.45
2024-10-15 14:27:53.019,76424.476,0.617,0.74,-0.268,-0.018,0.092,-0.048,0.993,0.178,0.129,1.16,-0.833,2.438
2024-10-15 14:27:53.029,76424.486,0.618,0.737,-0.275,0.012,0.087,-0.055,1.072,0.084,0.12,1.152,-0.828,2.425
2024-10-15 14:27:53.039,76424.496,0.619,0.733,-0.283,0.022,0.053,-0.05,1.126,0.021,0.113,1.142,-0.822,2.411
2024-10-15 14:27:53.049,76424.506,0.62,0.729,-0.291,0.016,0.047,-0.03,1.129,-0.036,0.112,1.131,-0.817,2.397
2024-10-15 14:27:53.060,76424.516,0.62,0.725,-0.299,0.012,0.076,-0.023,1.065,-0.061,0.093,1.121,-0.811,2.383
2024-10-15 14:27:53.068,76424.526,0.621,0.721,-0.307,0.007,0.097,-0.021,1.034,-0.066,0.072,1.111,-0.806,2.37
2024-10-15 14:27:53.078,76424.536,0.621,0.718,-0.315,0.003,0.077,-0.028,1.057,-0.07,0.059,1.101,-0.8,2.357
2024-10-15 14:27:53.088,76424.546,0.621,0.714,-0.323,0.023,0.057,-0.042,1.092,-0.077,0.023,1.091,-0.795,2.343
2024-10-15 14:27:53.098,76424.556,0.621,0.71,-0.332,0.036,0.042,-0.049,1.036,-0.1,-0.008,1.08,-0.79,2.33
2024-10-15 14:27:53.109,76424.566,0.62,0.707,-0.339,0.016,0.026,-0.044,0.91,-0.092,-0.031,1.07,-0.786,2.318
2024-10-15 14:27:53.119,76424.576,0.62,0.705,-0.346,-0.004,0.033,0.001,0.794,-0.092,-0.06,1.062,-0.782,2.307
2024-10-15 14:27:53.128,76424.586,0.619,0.703,-0.351,-0.007,0.002,0.038,0.649,-0.07,-0.104,1.055,-0.779,2.298
2024-10-15 14:27:53.139,76424.596,0.618,0.701,-0.356,-0.004,-0.04,0.059,0.497,-0.089,-0.121,1.048,-0.777,2.29
2024-10-15 14:27:53.149,76424.606,0.616,0.701,-0.36,-0.011,-0.059,0.08,0.462,-0.16,-0.211,1.042,-0.776,2.283
2024-10-15 14:27:53.158,76424.616,0.614,0.7,-0.364,-0.019,-0.052,0.054,0.385,-0.182,-0.18,1.036,-0.776,2.276
2024-10-15 14:27:53.168,76424.626,0.612,0.7,-0.368,-0.024,-0.029,0.024,0.322,-0.262,-0.156,1.03,-0.775,2.271
2024-10-15 14:27:53.179,76424.636,0.61,0.7,-0.371,-0.015,-0.023,0.011,0.175,-0.288,-0.212,1.024,-0.776,2.267
2024-10-15 14:27:53.189,76424.646,0.607,0.701,-0.373,-0.026,-0.055,0.016,-0.066,-0.302,-0.197,1.02,-0.777,2.264
2024-10-15 14:27:53.200,76424.656,0.605,0.703,-0.374,-0.036,-0.074,0.05,-0.206,-0.263,-0.241,1.017,-0.78,2.265
2024-10-15 14:27:53.209,76424.666,0.602,0.706,-0.374,-0.038,-0.082,0.068,-0.312,-0.203,-0.273,1.015,-0.783,2.266
2024-10-15 14:27:53.219,76424.676,0.6,0.709,-0.372,-0.031,-0.092,0.06,-0.481,-0.115,-0.197,1.016,-0.787,2.269
2024-10-15 14:27:53.229,76424.686,0.598,0.711,-0.369,-0.016,-0.102,0.049,-0.528,-0.028,-0.167,1.019,-0.792,2.274
2024-10-15 14:27:53.239,76424.696,0.597,0.714,-0.365,-0.013,-0.132,0.002,-0.503,-0.026,-0.179,1.022,-0.796,2.279
2024-10-15 14:27:53.249,76424.706,0.596,0.717,-0.362,0.004,-0.096,-0.044,-0.428,-0.026,-0.157,1.025,-0.8,2.283
2024-10-15 14:27:53.258,76424.716,0.595,0.719,-0.359,0.013,-0.047,-0.061,-0.291,0.006,-0.109,1.027,-0.803,2.286
2024-10-15 14:27:53.268,76424.726,0.594,0.721,-0.357,-0.002,-0.067,-0.065,-0.259,0.073,-0.098,1.03,-0.805,2.289
2024-10-15 14:27:53.278,76424.736,0.594,0.722,-0.355,0.013,-0.057,-0.036,-0.211,0.031,-0.091,1.032,-0.807,2.291
2024-10-15 14:27:53.289,76424.746,0.593,0.723,-0.354,0.047,-0.045,-0.017,-0.211,-0.044,-0.031,1.033,-0.808,2.293
2024-10-15 14:27:53.298,76424.756,0.593,0.724,-0.352,0.055,-0.03,0.01,-0.231,-0.036,-0.015,1.035,-0.81,2.296
2024-10-15 14:27:53.308,76424.766,0.593,0.725,-0.351,0.022,0.012,0.024,-0.137,-0.003,-0.029,1.036,-0.811,2.298
2024-10-15 14:27:53.318,76424.776,0.593,0.725,-0.35,-0.004,0.028,-0.012,-0.085,0.009,-0.001,1.037,-0.812,2.299
2024-10-15 14:27:53.329,76424.786,0.593,0.726,-0.35,0.017,0.018,-0.025,-0.039,0.003,0.004,1.038,-0.812,2.3
2024-10-15 14:27:53.338,76424.796,0.593,0.726,-0.349,0.036,-0.008,-0.013,-0.075,-0.027,0.018,1.038,-0.812,2.301
2024-10-15 14:27:53.348,76424.806,0.593,0.726,-0.349,0.036,-0.018,0.003,-0.023,-0.04,0.015,1.038,-0.812,2.302
2024-10-15 14:27:53.358,76424.816,0.593,0.726,-0.35,0.019,-0.003,-0.004,0.042,-0.067,0.01,1.038,-0.812,2.302
2024-10-15 14:27:53.369,76424.826,0.593,0.725,-0.35,-0.001,0.004,-0.026,0.11,-0.034,0.043,1.037,-0.812,2.301
2024-10-15 14:27:53.378,76424.836,0.593,0.725,-0.352,-0.005,-0.011,-0.027,0.136,-0.051,0.052,1.036,-0.81,2.3
2024-10-15 14:27:53.388,76424.846,0.593,0.724,-0.353,-0.005,-0.028,-0.032,0.035,-0.1,0.067,1.034,-0.809,2.299
2024-10-15 14:27:53.398,76424.856,0.593,0.724,-0.353,0.005,-0.043,0.006,-0.112,-0.125,0.042,1.034,-0.809,2.3
2024-10-15 14:27:53.408,76424.866,0.593,0.724,-0.353,-0.009,-0.047,0.016,-0.105,-0.073,0.061,1.034,-0.809,2.302
2024-10-15 14:27:53.418,76424.876,0.593,0.724,-0.353,-0.024,-0.019,0.026,0.006,-0.032,0.015,1.034,-0.809,2.303
2024-10-15 14:27:53.428,76424.886,0.593,0.723,-0.353,-0.03,0.006,0.01,0.068,0.01,0.004,1.034,-0.809,2.302
2024-10-15 14:27:53.438,76424.896,0.593,0.723,-0.354,-0.021,0.018,0.014,0.143,0.047,-0.015,1.033,-0.808,2.301
2024-10-15 14:27:53.448,76424.906,0.593,0.723,-0.355,-0.003,-0.004,0.019,0.149,0.03,-0.048,1.032,-0.808,2.299
2024-10-15 14:27:53.458,76424.916,0.593,0.723,-0.355,0.001,-0.026,0.0,0.082,0.021,-0.048,1.031,-0.808,2.297
2024-10-15 14:27:53.468,76424.926,0.593,0.723,-0.356,0.005,-0.016,0.002,0.03,0.039,-0.085,1.03,-0.808,2.296
2024-10-15 14:27:53.478,76424.936,0.592,0.723,-0.356,-0.008,-0.026,0.001,0.005,0.03,-0.065,1.03,-0.808,2.294
2024-10-15 14:27:53.488,76424.946,0.592,0.723,-0.355,-0.003,-0.033,0.014,0.056,0.054,-0.084,1.03,-0.809,2.293
2024-10-15 14:27:53.498,76424.956,0.592,0.724,-0.355,0.01,-0.006,0.027,0.013,0.069,-0.073,1.03,-0.809,2.292
2024-10-15 14:27:53.508,76424.966,0.591,0.724,-0.355,0.018,-0.002,0.049,-0.069,0.05,-0.08,1.03,-0.81,2.292
2024-10-15 14:27:53.518,76424.976,0.591,0.725,-0.354,0.035,-0.033,0.072,-0.133,-0.019,-0.085,1.031,-0.811,2.293
2024-10-15 14:27:53.528,76424.986,0.59,0.726,-0.353,0.037,-0.06,0.071,-0.086,-0.077,-0.08,1.031,-0.813,2.294
2024-10-15 14:27:53.538,76424.996,0.589,0.727,-0.353,0.029,-0.033,0.052,-0.008,-0.085,-0.063,1.03,-0.813,2.294
2024-10-15 14:27:53.548,76425.006,0.588,0.727,-0.354,0.017,0.001,0.033,0.079,-0.101,-0.062,1.029,-0.814,2.293
2024-10-15 14:27:53.558,76425.016,0.587,0.727,-0.356,0.01,0.008,0.023,0.186,-0.168,-0.056,1.026,-0.814,2.291
2024-10-15 14:27:53.568,76425.026,0.586,0.726,-0.359,0.023,0.014,-0.003,0.251,-0.221,-0.022,1.022,-0.813,2.288
2024-10-15 14:27:53.578,76425.035,0.586,0.725,-0.362,0.04,0.033,-0.006,0.233,-0.273,0.027,1.017,-0.811,2.285
2024-10-15 14:27:53.589,76425.045,0.585,0.724,-0.365,0.045,0.054,0.017,0.149,-0.292,0.048,1.013,-0.81,2.283
2024-10-15 14:27:53.598,76425.055,0.585,0.723,-0.367,0.037,0.058,0.039,0.081,-0.282,0.084,1.01,-0.809,2.282
2024-10-15 14:27:53.608,76425.065,0.584,0.723,-0.369,0.027,0.052,0.05,0.019,-0.315,0.143,1.007,-0.808,2.282
2024-10-15 14:27:53.618,76425.075,0.584,0.722,-0.371,0.028,0.056,0.05,-0.012,-0.332,0.183,1.005,-0.806,2.284
2024-10-15 14:27:53.628,76425.085,0.585,0.72,-0.373,0.024,0.053,0.052,-0.037,-0.324,0.226,1.003,-0.804,2.286
2024-10-15 14:27:53.638,76425.095,0.585,0.719,-0.374,0.007,0.049,0.054,-0.005,-0.298,0.232,1.002,-0.803,2.288
2024-10-15 14:27:53.648,76425.105,0.586,0.718,-0.376,-0.007,0.042,0.053,0.058,-0.279,0.245,1.0,-0.801,2.289
2024-10-15 14:27:53.657,76425.115,0.587,0.716,-0.378,-0.013,0.023,0.043,0.1,-0.248,0.233,0.998,-0.798,2.29
2024-10-15 14:27:53.668,76425.125,0.587,0.714,-0.38,-0.012,0.003,0.034,0.062,-0.236,0.226,0.996,-0.796,2.291
2024-10-15 14:27:53.678,76425.135,0.588,0.713,-0.382,-0.009,-0.03,0.032,0.007,-0.25,0.214,0.995,-0.794,2.292
2024-10-15 14:27:53.688,76425.145,0.589,0.712,-0.383,-0.004,-0.061,0.04,-0.088,-0.246,0.202,0.994,-0.792,2.294
2024-10-15 14:27:53.698,76425.155,0.589,0.711,-0.384,-0.002,-0.075,0.05,-0.102,-0.244,0.188,0.993,-0.791,2.297
2024-10-15 14:27:53.708,76425.165,0.589,0.711,-0.385,-0.009,-0.072,0.054,-0.18,-0.254,0.174,0.993,-0.79,2.3
2024-10-15 14:27:53.718,76425.175,0.589,0.71,-0.385,-0.005,-0.055,0.06,-0.162,-0.237,0.14,0.993,-0.79,2.303
2024-10-15 14:27:53.728,76425.185,0.59,0.71,-0.385,-0.016,-0.053,0.049,-0.115,-0.206,0.145,0.992,-0.79,2.306
2024-10-15 14:27:53.738,76425.195,0.59,0.71,-0.385,-0.021,-0.064,0.042,-0.155,-0.196,0.132,0.992,-0.789,2.309
2024-10-15 14:27:53.748,76425.205,0.59,0.71,-0.385,-0.01,-0.052,0.042,-0.131,-0.183,0.077,0.992,-0.789,2.311
2024-10-15 14:27:53.758,76425.215,0.59,0.71,-0.386,-0.008,-0.047,0.026,-0.124,-0.182,0.048,0.992,-0.789,2.313
2024-10-15 14:27:53.768,76425.225,0.589,0.71,-0.386,-0.01,-0.042,0.002,-0.137,-0.158,0.018,0.991,-0.79,2.315
2024-10-15 14:27:53.778,76425.235,0.589,0.711,-0.385,-0.013,-0.03,-0.007,-0.16,-0.134,-0.01,0.991,-0.79,2.317
2024-10-15 14:27:53.788,76425.245,0.588,0.711,-0.385,-0.016,-0.03,-0.016,-0.205,-0.117,-0.017,0.991,-0.791,2.319
2024-10-15 14:27:53.798,76425.255,0.587,0.712,-0.384,-0.011,-0.024,-0.019,-0.23,-0.127,-0.01,0.992,-0.793,2.321
2024-10-15 14:27:53.807,76425.265,0.587,0.713,-0.383,-0.004,-0.029,-0.022,-0.255,-0.128,0.009,0.992,-0.794,2.324
2024-10-15 14:27:53.817,76425.275,0.587,0.714,-0.382,-0.006,-0.046,-0.032,-0.357,-0.126,0.03,0.994,-0.796,2.328
2024-10-15 14:27:53.827,76425.285,0.586,0.716,-0.379,-0.012,-0.029,-0.03,-0.464,-0.106,0.024,0.996,-0.798,2.333
2024-10-15 14:27:53.838,76425.295,0.586,0.717,-0.377,-0.022,0.0,-0.026,-0.488,-0.09,0.025,1.0,-0.8,2.339
2024-10-15 14:27:53.848,76425.305,0.586,0.719,-0.374,-0.028,0.014,-0.028,-0.475,-0.086,0.03,1.003,-0.802,2.345
2024-10-15 14:27:53.857,76425.315,0.586,0.721,-0.371,-0.023,0.025,-0.024,-0.45,-0.09,0.02,1.006,-0.805,2.351
2024-10-15 14:27:53.867,76425.325,0.586,0.722,-0.368,-0.021,0.025,-0.023,-0.426,-0.106,0.029,1.01,-0.807,2.357
2024-10-15 14:27:53.877,76425.335,0.586,0.723,-0.366,-0.024,0.024,-0.022,-0.386,-0.1,0.043,1.012,-0.809,2.362
2024-10-15 14:27:53.888,76425.345,0.585,0.724,-0.364,-0.026,0.021,-0.019,-0.348,-0.115,0.038,1.015,-0.81,2.367
2024-10-15 14:27:53.898,76425.355,0.585,0.725,-0.362,-0.022,0.035,-0.01,-0.305,-0.092,0.042,1.017,-0.812,2.371
2024-10-15 14:27:53.907,76425.365,0.585,0.726,-0.361,-0.016,0.049,0.01,-0.268,-0.087,0.047,1.019,-0.813,2.375
2024-10-15 14:27:53.917,76425.375,0.585,0.727,-0.359,-0.007,0.044,0.019,-0.204,-0.118,0.045,1.02,-0.814,2.378
2024-10-15 14:27:53.928,76425.385,0.585,0.727,-0.359,0.004,0.038,0.017,-0.133,-0.136,0.053,1.021,-0.814,2.381
2024-10-15 14:27:53.937,76425.395,0.585,0.727,-0.359,0.011,0.05,0.019,-0.07,-0.14,0.074,1.02,-0.814,2.382
2024-10-15 14:27:53.947,76425.405,0.585,0.727,-0.359,0.008,0.065,0.019,-0.035,-0.13,0.086,1.02,-0.814,2.383
2024-10-15 14:27:53.957,76425.415,0.585,0.726,-0.36,-0.001,0.049,0.018,-0.037,-0.126,0.099,1.02,-0.813,2.385
2024-10-15 14:27:53.968,76425.425,0.586,0.726,-0.36,-0.005,0.028,0.011,-0.035,-0.147,0.122,1.019,-0.812,2.386
2024-10-15 14:27:53.977,76425.435,0.586,0.725,-0.361,-0.007,0.015,0.005,-0.061,-0.152,0.134,1.019,-0.811,2.387
2024-10-15 14:27:53.987,76425.445,0.587,0.725,-0.361,-0.012,0.016,0.006,-0.069,-0.144,0.133,1.019,-0.811,2.389
2024-10-15 14:27:53.997,76425.455,0.587,0.724,-0.362,-0.017,0.025,0.011,-0.07,-0.142,0.136,1.019,-0.81,2.391
2024-10-15 14:27:54.007,76425.465,0.588,0.724,-0.362,-0.016,0.017,0.016,-0.068,-0.162,0.139,1.018,-0.809,2.393
2024-10-15 14:27:54.017,76425.475,0.588,0.723,-0.363,-0.014,-0.001,0.017,-0.074,-0.18,0.135,1.018,-0.808,2.395
2024-10-15 14:27:54.027,76425.485,0.588,0.723,-0.363,-0.014,-0.009,0.011,-0.095,-0.19,0.129,1.018,-0.808,2.397
2024-10-15 14:27:54.037,76425.495,0.588,0.722,-0.363,-0.016,-0.001,0.014,-0.118,-0.178,0.124,1.018,-0.807,2.399
2024-10-15 14:27:54.047,76425.505,0.589,0.722,-0.363,-0.021,0.001,0.014,-0.134,-0.187,0.126,1.018,-0.807,2.402
2024-10-15 14:27:54.057,76425.515,0.589,0.722,-0.363,-0.017,-0.009,0.016,-0.169,-0.201,0.111,1.018,-0.807,2.405
2024-10-15 14:27:54.067,76425.525,0.589,0.722,-0.363,-0.011,-0.02,0.015,-0.144,-0.191,0.109,1.018,-0.807,2.407
2024-10-15 14:27:54.077,76425.535,0.589,0.722,-0.364,-0.014,-0.016,0.012,-0.1,-0.186,0.089,1.017,-0.807,2.41
2024-10-15 14:27:54.087,76425.545,0.589,0.722,-0.364,-0.015,-0.011,-0.003,-0.085,-0.167,0.081,1.017,-0.807,2.411
2024-10-15 14:27:54.097,76425.555,0.589,0.722,-0.364,-0.014,-0.007,-0.002,-0.053,-0.154,0.08,1.016,-0.806,2.413
2024-10-15 14:27:54.107,76425.565,0.588,0.721,-0.365,-0.008,-0.017,-0.0,-0.065,-0.147,0.061,1.016,-0.806,2.414
2024-10-15 14:27:54.117,76425.575,0.588,0.721,-0.365,-0.003,-0.028,-0.003,-0.105,-0.141,0.059,1.015,-0.806,2.416
2024-10-15 14:27:54.127,76425.585,0.588,0.722,-0.365,0.001,-0.04,-0.012,-0.079,-0.176,0.048,1.015,-0.806,2.417
2024-10-15 14:27:54.137,76425.595,0.588,0.722,-0.366,0.005,-0.042,-0.022,-0.051,-0.157,0.036,1.014,-0.806,2.418
2024-10-15 14:27:54.147,76425.605,0.588,0.721,-0.366,-0.001,-0.007,-0.021,-0.003,-0.128,0.046,1.013,-0.806,2.419
2024-10-15 14:27:54.157,76425.614,0.587,0.721,-0.367,-0.004,-0.002,-0.021,0.006,-0.128,0.043,1.012,-0.805,2.419
2024-10-15 14:27:54.167,76425.624,0.587,0.721,-0.368,-0.001,-0.025,-0.029,-0.049,-0.131,0.03,1.011,-0.805,2.42
2024-10-15 14:27:54.177,76425.634,0.587,0.721,-0.368,-0.003,-0.024,-0.028,-0.037,-0.119,0.022,1.011,-0.805,2.421
2024-10-15 14:27:54.187,76425.644,0.587,0.721,-0.369,-0.006,-0.017,-0.031,-0.053,-0.108,0.019,1.01,-0.805,2.421
2024-10-15 14:27:54.197,76425.654,0.587,0.721,-0.369,-0.01,-0.008,-0.027,-0.04,-0.089,0.012,1.009,-0.805,2.422
2024-10-15 14:27:54.207,76425.664,0.586,0.721,-0.369,-0.011,0.002,-0.023,-0.018,-0.059,0.004,1.009,-0.805,2.422
2024-10-15 14:27:54.217,76425.674,0.586,0.721,-0.369,-0.015,0.003,-0.024,0.001,-0.041,0.007,1.009,-0.805,2.422
2024-10-15 14:27:54.227,76425.684,0.586,0.721,-0.37,-0.006,-0.002,-0.011,-0.007,-0.053,-0.005,1.008,-0.805,2.422
2024-10-15 14:27:54.237,76425.694,0.586,0.721,-0.37,0.003,-0.017,0.001,-0.008,-0.075,-0.019,1.007,-0.805,2.422
2024-10-15 14:27:54.247,76425.704,0.585,0.721,-0.371,0.001,-0.026,0.004,-0.001,-0.066,-0.015,1.006,-0.805,2.422
2024-10-15 14:27:54.257,76425.714,0.585,0.721,-0.371,-0.006,-0.023,0.005,-0.005,-0.034,-0.01,1.006,-0.805,2.422
2024-10-15 14:27:54.267,76425.724,0.585,0.721,-0.371,-0.016,-0.011,0.004,-0.044,0.004,-0.029,1.006,-0.806,2.422
2024-10-15 14:27:54.277,76425.734,0.585,0.722,-0.371,-0.016,-0.015,-0.005,-0.091,0.014,-0.047,1.006,-0.806,2.422
2024-10-15 14:27:54.287,76425.744,0.584,0.722,-0.37,-0.007,-0.03,-0.007,-0.081,-0.012,-0.065,1.006,-0.807,2.423
2024-10-15 14:27:54.297,76425.754,0.584,0.723,-0.37,-0.003,-0.026,-0.014,-0.012,0.018,-0.067,1.006,-0.808,2.423
2024-10-15 14:27:54.307,76425.764,0.583,0.723,-0.37,-0.013,0.005,-0.018,0.016,0.041,-0.068,1.006,-0.809,2.422
2024-10-15 14:27:54.317,76425.774,0.583,0.724,-0.37,-0.018,0.017,-0.009,0.041,0.042,-0.058,1.006,-0.809,2.422
2024-10-15 14:27:54.326,76425.784,0.583,0.724,-0.369,-0.014,-0.028,-0.006,-0.011,0.016,-0.057,1.006,-0.809,2.421
2024-10-15 14:27:54.337,76425.794,0.582,0.724,-0.369,-0.008,-0.042,-0.004,-0.008,0.002,-0.07,1.006,-0.81,2.421
2024-10-15 14:27:54.346,76425.804,0.582,0.725,-0.369,-0.009,-0.015,-0.001,0.009,0.014,-0.063,1.005,-0.81,2.42
2024-10-15 14:27:54.357,76425.814,0.582,0.725,-0.369,-0.011,0.008,0.001,0.03,0.034,-0.068,1.005,-0.811,2.419
2024-10-15 14:27:54.367,76425.824,0.581,0.725,-0.369,-0.012,0.015,0.008,0.03,0.046,-0.073,1.005,-0.811,2.418
2024-10-15 14:27:54.377,76425.834,0.581,0.725,-0.369,-0.008,0.007,0.015,0.01,0.048,-0.083,1.004,-0.812,2.417
2024-10-15 14:27:54.387,76425.844,0.58,0.726,-0.369,-0.001,0.001,0.018,-0.016,0.043,-0.097,1.004,-0.812,2.417
2024-10-15 14:27:54.397,76425.854,0.58,0.727,-0.369,0.002,-0.004,0.016,-0.012,0.036,-0.11,1.004,-0.813,2.416
2024-10-15 14:27:54.406,76425.864,0.579,0.727,-0.369,-0.003,0.001,0.009,0.002,0.053,-0.103,1.004,-0.814,2.415
2024-10-15 14:27:54.416,76425.874,0.579,0.728,-0.368,-0.008,0.012,0.008,0.017,0.072,-0.096,1.004,-0.815,2.414
2024-10-15 14:27:54.427,76425.884,0.578,0.728,-0.368,-0.014,0.014,0.008,0.018,0.075,-0.085,1.004,-0.816,2.413
2024-10-15 14:27:54.436,76425.894,0.578,0.729,-0.368,-0.011,0.002,0.01,0.027,0.054,-0.078,1.004,-0.816,2.413
2024-10-15 14:27:54.446,76425.904,0.577,0.729,-0.368,-0.003,-0.008,0.012,0.017,0.043,-0.068,1.004,-0.817,2.412
2024-10-15 14:27:54.456,76425.914,0.577,0.729,-0.368,-0.005,-0.006,0.016,0.027,0.05,-0.071,1.004,-0.817,2.411
2024-10-15 14:27:54.466,76425.924,0.577,0.73,-0.367,-0.013,0.013,0.019,0.042,0.074,-0.066,1.004,-0.818,2.41
2024-10-15 14:27:54.476,76425.934,0.577,0.73,-0.367,-0.015,0.023,0.023,0.058,0.073,-0.074,1.004,-0.818,2.409
2024-10-15 14:27:54.487,76425.944,0.576,0.73,-0.367,-0.012,0.019,0.019,0.046,0.069,-0.083,1.003,-0.818,2.408
2024-10-15 14:27:54.496,76425.954,0.576,0.73,-0.367,-0.007,0.01,0.007,0.006,0.063,-0.084,1.003,-0.819,2.407
2024-10-15 14:27:54.506,76425.964,0.575,0.731,-0.367,-0.002,0.009,0.001,-0.007,0.06,-0.093,1.004,-0.82,2.406
2024-10-15 14:27:54.516,76425.974,0.575,0.732,-0.366,-0.007,0.008,-0.003,-0.005,0.074,-0.093,1.004,-0.821,2.405
2024-10-15 14:27:54.526,76425.984,0.575,0.732,-0.366,-0.012,0.009,-0.003,-0.028,0.087,-0.081,1.004,-0.821,2.405
2024-10-15 14:27:54.536,76425.994,0.574,0.733,-0.365,-0.013,0.013,0.007,-0.051,0.094,-0.086,1.005,-0.822,2.405
2024-10-15 14:27:54.546,76426.004,0.574,0.733,-0.364,-0.012,0.013,0.014,-0.03,0.091,-0.101,1.006,-0.823,2.405
2024-10-15 14:27:54.556,76426.014,0.574,0.734,-0.363,-0.008,0.002,0.012,-0.01,0.073,-0.091,1.006,-0.824,2.404
2024-10-15 14:27:54.566,76426.024,0.573,0.735,-0.363,-0.008,-0.009,0.01,-0.019,0.068,-0.085,1.007,-0.825,2.404
2024-10-15 14:27:54.576,76426.034,0.573,0.735,-0.362,-0.012,-0.001,0.017,0.011,0.074,-0.091,1.007,-0.826,2.403
2024-10-15 14:27:54.586,76426.044,0.572,0.736,-0.362,-0.018,0.004,0.022,0.017,0.081,-0.096,1.007,-0.827,2.402
2024-10-15 14:27:54.596,76426.054,0.572,0.736,-0.362,-0.017,0.01,0.027,0.021,0.076,-0.095,1.007,-0.828,2.401
2024-10-15 14:27:54.606,76426.064,0.572,0.737,-0.361,-0.013,0.007,0.03,0.017,0.075,-0.091,1.007,-0.828,2.4
2024-10-15 14:27:54.616,76426.074,0.571,0.737,-0.361,-0.012,0.002,0.027,0.01,0.07,-0.091,1.007,-0.829,2.399
2024-10-15 14:27:54.626,76426.084,0.571,0.738,-0.361,-0.008,0.008,0.023,0.008,0.071,-0.088,1.007,-0.83,2.398
2024-10-15 14:27:54.636,76426.094,0.57,0.738,-0.36,-0.004,0.009,0.017,0.0,0.074,-0.087,1.007,-0.83,2.397
2024-10-15 14:27:54.646,76426.104,0.57,0.739,-0.36,-0.001,0.008,0.014,-0.018,0.073,-0.083,1.008,-0.831,2.397
2024-10-15 14:27:54.656,76426.114,0.57,0.739,-0.359,-0.001,0.007,0.011,-0.031,0.074,-0.078,1.008,-0.832,2.397
2024-10-15 14:27:54.666,76426.124,0.569,0.74,-0.358,-0.0,0.006,0.004,-0.039,0.076,-0.077,1.009,-0.833,2.396
2024-10-15 14:27:54.676,76426.134,0.569,0.741,-0.358,0.001,0.004,-0.004,-0.032,0.059,-0.076,1.009,-0.834,2.396
2024-10-15 14:27:54.686,76426.144,0.569,0.741,-0.357,-0.001,-0.004,-0.015,-0.027,0.056,-0.066,1.01,-0.835,2.396
2024-10-15 14:27:54.696,76426.154,0.568,0.741,-0.357,-0.001,0.002,-0.013,-0.012,0.057,-0.054,1.01,-0.835,2.396
2024-10-15 14:27:54.706,76426.164,0.568,0.742,-0.356,-0.004,0.019,-0.007,0.015,0.06,-0.048,1.011,-0.836,2.396
2024-10-15 14:27:54.716,76426.174,0.568,0.742,-0.356,-0.007,0.025,-0.002,0.02,0.057,-0.039,1.011,-0.836,2.395
2024-10-15 14:27:54.726,76426.184,0.568,0.742,-0.356,-0.005,0.02,0.001,0.017,0.039,-0.029,1.011,-0.836,2.395
2024-10-15 14:27:54.737,76426.193,0.568,0.742,-0.356,-0.001,0.012,0.005,0.032,0.036,-0.017,1.011,-0.836,2.394
2024-10-15 14:27:54.746,76426.203,0.568,0.742,-0.356,-0.0,0.014,0.005,0.073,0.039,-0.01,1.011,-0.836,2.393
2024-10-15 14:27:54.756,76426.213,0.568,0.742,-0.356,0.001,0.02,0.001,0.078,0.047,0.002,1.011,-0.836,2.392
2024-10-15 14:27:54.766,76426.223,0.568,0.742,-0.357,0.001,0.022,0.006,0.06,0.046,0.009,1.01,-0.835,2.391
2024-10-15 14:27:54.776,76426.233,0.568,0.741,-0.357,0.007,0.009,0.006,0.031,0.035,0.009,1.01,-0.835,2.391
2024-10-15 14:27:54.786,76426.243,0.569,0.741,-0.357,0.007,-0.003,-0.001,0.031,0.037,0.01,1.01,-0.835,2.391
2024-10-15 14:27:54.796,76426.253,0.569,0.741,-0.357,0.004,-0.001,-0.005,0.05,0.038,0.01,1.01,-0.835,2.39
2024-10-15 14:27:54.806,76426.263,0.569,0.741,-0.357,0.002,-0.003,-0.008,0.053,0.036,0.014,1.01,-0.834,2.39
2024-10-15 14:27:54.816,76426.273,0.569,0.741,-0.357,0.002,-0.01,-0.008,0.048,0.033,0.016,1.01,-0.834,2.389
2024-10-15 14:27:54.826,76426.283,0.569,0.74,-0.357,0.002,-0.012,-0.004,0.038,0.032,0.013,1.01,-0.834,2.389
2024-10-15 14:27:54.836,76426.293,0.57,0.74,-0.357,0.002,-0.014,-0.003,0.024,0.031,0.008,1.01,-0.833,2.388
2024-10-15 14:27:54.846,76426.303,0.57,0.74,-0.357,0.0,-0.018,0.001,-0.001,0.025,0.004,1.011,-0.833,2.388
2024-10-15 14:27:54.856,76426.313,0.57,0.74,-0.357,-0.002,-0.019,0.004,-0.004,0.02,0.006,1.011,-0.833,2.388
2024-10-15 14:27:54.866,76426.323,0.57,0.74,-0.357,-0.003,-0.02,0.008,0.014,0.02,0.006,1.011,-0.833,2.388
2024-10-15 14:27:54.876,76426.333,0.57,0.74,-0.357,-0.004,-0.022,0.008,0.021,0.021,0.001,1.011,-0.833,2.388
2024-10-15 14:27:54.886,76426.343,0.57,0.74,-0.357,-0.004,-0.021,0.009,0.011,0.012,0.002,1.011,-0.833,2.388
2024-10-15 14:27:54.896,76426.353,0.57,0.74,-0.357,-0.0,-0.02,0.009,-0.004,0.01,-0.008,1.011,-0.833,2.388
2024-10-15 14:27:54.906,76426.363,0.57,0.74,-0.357,0.0,-0.02,0.008,-0.006,0.013,-0.012,1.011,-0.833,2.388
2024-10-15 14:27:54.916,76426.373,0.57,0.74,-0.357,-0.001,-0.02,0.005,-0.011,0.02,-0.015,1.012,-0.833,2.388
2024-10-15 14:27:54.925,76426.383,0.57,0.74,-0.357,-0.001,-0.02,0.004,-0.011,0.013,-0.018,1.012,-0.833,2.388
2024-10-15 14:27:54.936,76426.393,0.57,0.74,-0.357,0.002,-0.021,0.004,-0.001,0.008,-0.02,1.012,-0.833,2.388
2024-10-15 14:27:54.945,76426.403,0.57,0.74,-0.356,0.004,-0.016,0.005,-0.013,0.008,-0.022,1.012,-0.834,2.388
2024-10-15 14:27:54.955,76426.413,0.57,0.741,-0.356,0.003,-0.009,0.008,-0.012,0.004,-0.021,1.012,-0.834,2.388
2024-10-15 14:27:54.966,76426.423,0.57,0.741,-0.356,0.002,-0.004,0.01,-0.018,0.001,-0.02,1.012,-0.834,2.388
2024-10-15 14:27:54.975,76426.433,0.569,0.741,-0.356,0.002,-0.005,0.01,-0.021,-0.007,-0.021,1.012,-0.834,2.388
2024-10-15 14:27:54.985,76426.443,0.569,0.741,-0.356,0.004,-0.005,0.009,-0.023,-0.014,-0.017,1.012,-0.835,2.388
2024-10-15 14:27:54.996,76426.453,0.569,0.741,-0.356,0.004,-0.004,0.01,-0.026,-0.013,-0.007,1.012,-0.835,2.388
2024-10-15 14:27:55.005,76426.463,0.569,0.741,-0.356,0.002,-0.002,0.009,-0.026,-0.015,-0.001,1.012,-0.835,2.388
2024-10-15 14:27:55.015,76426.473,0.569,0.741,-0.356,0.0,0.001,0.008,-0.014,-0.019,0.003,1.012,-0.835,2.389
2024-10-15 14:27:55.025,76426.483,0.569,0.741,-0.356,-0.0,-0.003,0.0,-0.027,-0.026,0.017,1.012,-0.835,2.389
2024-10-15 14:27:55.035,76426.493,0.569,0.741,-0.356,-0.001,-0.004,-0.003,-0.036,-0.042,0.022,1.012,-0.835,2.39
2024-10-15 14:27:55.045,76426.503,0.569,0.741,-0.356,-0.0,-0.016,-0.011,-0.0,-0.062,0.052,1.012,-0.835,2.39
2024-10-15 14:27:55.055,76426.513,0.57,0.741,-0.356,-0.004,-0.053,-0.026,-0.076,-0.067,0.075,1.012,-0.834,2.391
2024-10-15 14:27:55.066,76426.523,0.57,0.741,-0.356,-0.005,-0.02,-0.008,-0.04,-0.053,0.051,1.013,-0.834,2.393
2024-10-15 14:27:55.075,76426.533,0.57,0.741,-0.356,-0.009,0.025,0.004,-0.032,-0.052,0.045,1.013,-0.834,2.393
2024-10-15 14:27:55.085,76426.543,0.57,0.741,-0.356,-0.004,0.032,0.005,-0.037,-0.056,0.043,1.013,-0.834,2.394
2024-10-15 14:27:55.095,76426.553,0.57,0.74,-0.356,0.003,0.015,0.01,-0.045,-0.04,0.043,1.013,-0.834,2.395
2024-10-15 14:27:55.105,76426.563,0.571,0.74,-0.356,0.001,-0.002,0.012,-0.018,-0.022,0.043,1.014,-0.834,2.396
2024-10-15 14:27:55.115,76426.573,0.571,0.74,-0.356,-0.002,0.002,0.01,-0.014,-0.013,0.04,1.014,-0.833,2.396
2024-10-15 14:27:55.126,76426.583,0.571,0.74,-0.356,-0.002,0.014,0.014,-0.031,-0.009,0.034,1.014,-0.833,2.397
2024-10-15 14:27:55.135,76426.593,0.571,0.74,-0.355,-0.001,0.013,0.022,-0.068,-0.003,0.026,1.014,-0.833,2.398
2024-10-15 14:27:55.145,76426.603,0.571,0.74,-0.355,-0.001,0.002,0.024,-0.069,-0.007,0.017,1.015,-0.833,2.399
2024-10-15 14:27:55.155,76426.613,0.571,0.74,-0.354,-0.001,-0.007,0.02,-0.059,0.004,0.014,1.016,-0.833,2.4
2024-10-15 14:27:55.165,76426.623,0.572,0.74,-0.353,-0.004,-0.001,0.012,-0.134,0.056,0.01,1.017,-0.834,2.401
2024-10-15 14:27:55.175,76426.633,0.572,0.741,-0.352,-0.005,-0.003,0.006,-0.139,0.04,-0.009,1.019,-0.835,2.403
2024-10-15 14:27:55.185,76426.643,0.572,0.741,-0.351,0.001,-0.026,-0.019,0.014,0.012,-0.022,1.02,-0.835,2.403
2024-10-15 14:27:55.195,76426.653,0.572,0.741,-0.352,0.007,-0.012,-0.024,0.143,0.043,-0.015,1.019,-0.835,2.402
2024-10-15 14:27:55.205,76426.663,0.572,0.741,-0.353,0.008,0.053,-0.004,0.168,0.05,-0.041,1.018,-0.834,2.4
2024-10-15 14:27:55.215,76426.673,0.571,0.74,-0.354,-0.009,0.094,-0.003,0.308,0.046,-0.108,1.016,-0.834,2.397
2024-10-15 14:27:55.225,76426.683,0.571,0.74,-0.357,-0.025,0.106,0.008,0.537,0.071,-0.136,1.012,-0.833,2.39
2024-10-15 14:27:55.235,76426.693,0.57,0.738,-0.361,-0.013,0.133,0.037,0.825,0.199,-0.136,1.006,-0.83,2.381
2024-10-15 14:27:55.247,76426.703,0.57,0.736,-0.364,0.004,0.1,0.061,0.198,0.219,0.042,1.003,-0.827,2.374
2024-10-15 14:27:55.255,76426.713,0.571,0.736,-0.363,0.019,-0.008,0.041,-0.075,0.0,-0.102,1.004,-0.828,2.374
2024-10-15 14:27:55.264,76426.723,0.57,0.737,-0.364,-0.022,-0.114,-0.003,0.156,0.021,-0.096,1.003,-0.828,2.372
2024-10-15 14:27:55.274,76426.733,0.57,0.736,-0.365,-0.022,-0.064,-0.035,0.359,0.051,-0.057,1.001,-0.828,2.368
2024-10-15 14:27:55.285,76426.743,0.569,0.735,-0.368,-0.021,0.141,-0.019,0.573,0.092,-0.017,0.997,-0.825,2.362
2024-10-15 14:27:55.294,76426.753,0.57,0.733,-0.372,-0.045,-0.023,-0.024,0.507,0.021,0.028,0.992,-0.822,2.355
2024-10-15 14:27:55.304,76426.763,0.57,0.731,-0.375,-0.04,-0.21,-0.04,0.376,-0.064,0.062,0.988,-0.82,2.35
2024-10-15 14:27:55.314,76426.772,0.57,0.729,-0.378,-0.024,-0.171,-0.024,0.357,-0.083,0.07,0.985,-0.817,2.347
2024-10-15 14:27:55.325,76426.782,0.57,0.727,-0.381,-0.028,-0.121,-0.015,0.359,-0.038,0.074,0.982,-0.815,2.343
2024-10-15 14:27:55.335,76426.792,0.571,0.726,-0.384,-0.042,-0.084,-0.002,0.397,0.009,0.05,0.978,-0.812,2.339
2024-10-15 14:27:55.345,76426.802,0.571,0.724,-0.387,-0.037,0.003,0.039,0.418,0.015,0.012,0.975,-0.809,2.334
2024-10-15 14:27:55.355,76426.812,0.571,0.722,-0.39,-0.003,0.082,0.062,0.43,-0.01,-0.035,0.972,-0.807,2.329
2024-10-15 14:27:55.365,76426.822,0.571,0.721,-0.393,0.026,0.064,0.071,0.324,-0.0,-0.041,0.968,-0.805,2.324
2024-10-15 14:27:55.376,76426.832,0.571,0.72,-0.394,0.034,-0.012,0.061,0.072,0.008,-0.015,0.966,-0.804,2.321
2024-10-15 14:27:55.385,76426.842,0.571,0.721,-0.394,0.026,-0.048,0.039,-0.135,0.015,-0.003,0.966,-0.805,2.322
2024-10-15 14:27:55.394,76426.852,0.57,0.721,-0.393,0.019,-0.033,0.016,-0.194,0.005,-0.064,0.968,-0.806,2.324
2024-10-15 14:27:55.405,76426.862,0.57,0.722,-0.391,0.014,0.011,-0.009,-0.149,0.06,-0.041,0.969,-0.807,2.325
2024-10-15 14:27:55.415,76426.872,0.57,0.723,-0.389,0.007,0.006,-0.023,-0.321,0.079,-0.004,0.972,-0.809,2.328
2024-10-15 14:27:55.425,76426.882,0.57,0.725,-0.386,0.002,0.012,-0.011,-0.444,0.086,-0.02,0.976,-0.811,2.332
2024-10-15 14:27:55.435,76426.892,0.571,0.727,-0.382,-0.01,-0.018,-0.015,-0.467,0.057,-0.029,0.981,-0.814,2.338
2024-10-15 14:27:55.445,76426.902,0.571,0.729,-0.379,-0.009,-0.013,-0.024,-0.359,0.011,-0.018,0.984,-0.816,2.342
2024-10-15 14:27:55.455,76426.912,0.57,0.73,-0.377,-0.002,0.022,-0.011,-0.235,-0.026,-0.018,0.987,-0.818,2.346
2024-10-15 14:27:55.465,76426.922,0.57,0.731,-0.376,-0.006,0.026,0.001,-0.144,-0.046,-0.009,0.988,-0.819,2.348
2024-10-15 14:27:55.475,76426.932,0.57,0.731,-0.375,-0.017,0.014,0.015,-0.131,-0.044,-0.013,0.989,-0.82,2.35
2024-10-15 14:27:55.485,76426.942,0.57,0.732,-0.374,-0.022,0.013,0.029,-0.155,-0.031,-0.015,0.99,-0.821,2.351
2024-10-15 14:27:55.495,76426.952,0.569,0.733,-0.373,-0.022,0.003,0.035,-0.209,-0.04,-0.017,0.991,-0.822,2.353
2024-10-15 14:27:55.505,76426.962,0.569,0.734,-0.372,-0.011,-0.01,0.03,-0.237,-0.056,-0.027,0.992,-0.823,2.356
2024-10-15 14:27:55.515,76426.972,0.569,0.735,-0.37,-0.003,-0.013,0.017,-0.25,-0.055,-0.027,0.994,-0.825,2.359
2024-10-15 14:27:55.525,76426.982,0.568,0.736,-0.369,0.002,-0.011,0.004,-0.251,-0.047,-0.027,0.995,-0.827,2.361
2024-10-15 14:27:55.534,76426.992,0.568,0.737,-0.367,0.0,-0.007,-0.006,-0.243,-0.034,-0.03,0.997,-0.828,2.364
2024-10-15 14:27:55.544,76427.002,0.567,0.738,-0.366,0.002,-0.006,-0.012,-0.229,-0.021,-0.032,0.998,-0.83,2.367
2024-10-15 14:27:55.554,76427.012,0.567,0.739,-0.364,0.003,-0.01,-0.015,-0.223,-0.022,-0.039,1.0,-0.831,2.369
2024-10-15 14:27:55.564,76427.022,0.567,0.74,-0.363,0.004,-0.005,-0.019,-0.195,-0.024,-0.05,1.001,-0.833,2.372
2024-10-15 14:27:55.574,76427.032,0.566,0.741,-0.361,0.004,0.005,-0.013,-0.149,-0.019,-0.053,1.003,-0.834,2.373
2024-10-15 14:27:55.584,76427.042,0.566,0.742,-0.361,0.001,0.012,-0.006,-0.122,-0.01,-0.051,1.003,-0.835,2.375
2024-10-15 14:27:55.594,76427.052,0.565,0.742,-0.36,-0.002,0.012,0.003,-0.084,-0.004,-0.062,1.004,-0.836,2.376
2024-10-15 14:27:55.604,76427.062,0.565,0.743,-0.359,-0.006,-0.003,0.008,-0.075,-0.003,-0.05,1.004,-0.837,2.376
2024-10-15 14:27:55.614,76427.072,0.565,0.743,-0.359,-0.006,-0.011,0.011,-0.083,0.003,-0.044,1.005,-0.838,2.377
2024-10-15 14:27:55.624,76427.082,0.564,0.744,-0.358,-0.006,-0.002,0.015,-0.071,-0.001,-0.049,1.005,-0.839,2.377
2024-10-15 14:27:55.635,76427.092,0.564,0.744,-0.358,-0.007,-0.001,0.013,-0.074,0.005,-0.031,1.006,-0.839,2.378
2024-10-15 14:27:55.644,76427.102,0.564,0.745,-0.357,-0.006,-0.004,0.014,-0.119,0.017,-0.033,1.006,-0.84,2.379
2024-10-15 14:27:55.654,76427.112,0.564,0.745,-0.356,-0.005,-0.004,0.017,-0.157,0.02,-0.037,1.008,-0.841,2.38
2024-10-15 14:27:55.664,76427.122,0.563,0.746,-0.355,-0.005,-0.011,0.005,-0.187,0.024,-0.034,1.009,-0.842,2.382
2024-10-15 14:27:55.674,76427.132,0.563,0.747,-0.353,-0.001,-0.008,0.0,-0.197,0.02,-0.03,1.011,-0.844,2.384
2024-10-15 14:27:55.684,76427.142,0.563,0.748,-0.352,0.0,0.004,-0.0,-0.172,0.006,-0.031,1.013,-0.845,2.386
2024-10-15 14:27:55.694,76427.152,0.563,0.749,-0.35,-0.002,-0.001,-0.006,-0.127,-0.001,-0.024,1.014,-0.846,2.388
2024-10-15 14:27:55.705,76427.162,0.563,0.749,-0.349,-0.002,-0.013,-0.009,-0.12,0.003,-0.019,1.015,-0.847,2.389
2024-10-15 14:27:55.714,76427.172,0.563,0.75,-0.349,-0.005,-0.004,-0.005,-0.099,0.004,-0.025,1.016,-0.848,2.391
2024-10-15 14:27:55.724,76427.182,0.562,0.75,-0.348,-0.007,0.006,0.001,-0.094,0.006,-0.024,1.017,-0.848,2.392
2024-10-15 14:27:55.735,76427.192,0.562,0.751,-0.347,-0.006,0.013,0.014,-0.075,0.005,-0.021,1.018,-0.849,2.393
2024-10-15 14:27:55.744,76427.202,0.562,0.751,-0.347,-0.004,0.012,0.018,-0.081,-0.0,-0.016,1.018,-0.849,2.393
2024-10-15 14:27:55.754,76427.212,0.562,0.751,-0.346,-0.002,0.005,0.021,-0.078,-0.008,-0.02,1.019,-0.85,2.394
2024-10-15 14:27:55.765,76427.222,0.562,0.752,-0.346,-0.001,0.006,0.016,-0.064,-0.007,-0.02,1.019,-0.851,2.395
2024-10-15 14:27:55.774,76427.232,0.562,0.752,-0.345,-0.002,0.012,0.01,-0.051,-0.007,-0.019,1.02,-0.851,2.396
2024-10-15 14:27:55.784,76427.242,0.562,0.752,-0.345,-0.004,0.01,0.007,-0.046,-0.008,-0.018,1.02,-0.851,2.396
2024-10-15 14:27:55.794,76427.252,0.561,0.752,-0.345,-0.005,0.004,0.005,-0.045,0.003,-0.016,1.02,-0.852,2.397
2024-10-15 14:27:55.804,76427.262,0.561,0.753,-0.344,-0.004,0.005,0.004,-0.032,0.002,-0.015,1.02,-0.852,2.397
2024-10-15 14:27:55.814,76427.272,0.561,0.753,-0.344,-0.006,0.01,0.005,-0.024,0.005,-0.018,1.021,-0.852,2.397
2024-10-15 14:27:55.824,76427.282,0.561,0.753,-0.344,-0.004,0.007,0.004,-0.021,-0.0,-0.019,1.021,-0.853,2.397
2024-10-15 14:27:55.834,76427.292,0.561,0.753,-0.344,-0.002,-0.005,0.001,-0.032,-0.009,-0.015,1.021,-0.853,2.398
2024-10-15 14:27:55.844,76427.302,0.561,0.753,-0.343,-0.004,-0.01,0.005,-0.029,-0.005,-0.012,1.021,-0.853,2.398
2024-10-15 14:27:55.854,76427.312,0.561,0.754,-0.343,-0.004,-0.003,0.007,-0.036,0.001,-0.014,1.022,-0.854,2.398
2024-10-15 14:27:55.864,76427.322,0.561,0.754,-0.343,-0.007,0.003,0.007,-0.043,-0.0,-0.009,1.022,-0.854,2.399
2024-10-15 14:27:55.874,76427.332,0.56,0.754,-0.343,-0.006,-0.003,0.008,-0.039,-0.007,-0.004,1.022,-0.854,2.399
2024-10-15 14:27:55.884,76427.342,0.56,0.754,-0.342,-0.005,-0.013,0.004,-0.034,-0.012,-0.004,1.022,-0.854,2.4
2024-10-15 14:27:55.894,76427.351,0.56,0.754,-0.342,-0.007,-0.004,0.002,-0.009,-0.014,-0.005,1.022,-0.855,2.4
2024-10-15 14:27:55.903,76427.361,0.56,0.754,-0.342,-0.006,0.011,0.002,0.002,-0.001,-0.002,1.022,-0.855,2.4
2024-10-15 14:27:55.913,76427.371,0.56,0.754,-0.342,-0.008,0.011,0.004,0.003,0.004,-0.004,1.022,-0.855,2.4
2024-10-15 14:27:55.923,76427.381,0.56,0.754,-0.342,-0.008,0.007,0.0,-0.002,0.0,-0.001,1.022,-0.855,2.4
2024-10-15 14:27:55.933,76427.391,0.56,0.754,-0.342,-0.005,0.004,-0.002,-0.013,-0.008,-0.002,1.022,-0.855,2.4
2024-10-15 14:27:55.943,76427.401,0.56,0.754,-0.342,-0.002,-0.001,-0.002,-0.016,-0.008,-0.001,1.023,-0.855,2.4
2024-10-15 14:27:55.953,76427.411,0.56,0.755,-0.342,-0.003,-0.003,-0.001,-0.024,-0.002,-0.004,1.023,-0.855,2.4
2024-10-15 14:27:55.964,76427.421,0.56,0.755,-0.342,-0.005,0.0,-0.001,-0.023,0.006,-0.004,1.023,-0.855,2.401
2024-10-15 14:27:55.974,76427.431,0.56,0.755,-0.342,-0.007,-0.001,0.001,-0.021,0.008,-0.002,1.023,-0.855,2.401
2024-10-15 14:27:55.984,76427.441,0.56,0.755,-0.341,-0.005,-0.005,0.002,-0.02,0.005,0.005,1.023,-0.855,2.401
2024-10-15 14:27:55.994,76427.451,0.56,0.755,-0.341,-0.003,-0.004,0.004,-0.022,0.003,0.001,1.024,-0.856,2.401
2024-10-15 14:27:56.004,76427.461,0.56,0.755,-0.341,-0.004,-0.002,0.005,-0.023,0.002,-0.001,1.024,-0.856,2.402
2024-10-15 14:27:56.014,76427.471,0.56,0.755,-0.341,-0.008,0.002,0.005,-0.015,0.005,-0.0,1.024,-0.856,2.402
2024-10-15 14:27:56.024,76427.481,0.56,0.755,-0.341,-0.008,0.0,0.003,-0.009,0.01,0.006,1.024,-0.856,2.402
2024-10-15 14:27:56.034,76427.491,0.56,0.755,-0.341,-0.006,-0.002,0.005,0.003,0.01,0.006,1.024,-0.856,2.402
2024-10-15 14:27:56.043,76427.501,0.56,0.755,-0.341,-0.004,-0.002,0.007,0.013,0.008,0.001,1.024,-0.856,2.402
2024-10-15 14:27:56.053,76427.511,0.56,0.755,-0.341,-0.002,-0.001,0.004,0.014,0.006,-0.001,1.024,-0.856,2.402
2024-10-15 14:27:56.063,76427.521,0.56,0.755,-0.341,-0.002,-0.001,0.004,0.013,0.01,-0.0,1.024,-0.856,2.402
2024-10-15 14:27:56.074,76427.531,0.56,0.755,-0.341,-0.004,-0.003,0.008,0.0,0.008,-0.003,1.024,-0.856,2.401
2024-10-15 14:27:56.084,76427.541,0.56,0.755,-0.341,-0.003,-0.004,0.01,-0.011,0.001,-0.007,1.024,-0.856,2.401
2024-10-15 14:27:56.093,76427.551,0.56,0.755,-0.341,-0.001,-0.007,0.011,-0.008,0.005,-0.015,1.024,-0.856,2.402
2024-10-15 14:27:56.103,76427.561,0.56,0.755,-0.341,-0.002,-0.006,0.006,-0.017,0.008,-0.013,1.025,-0.856,2.402
2024-10-15 14:27:56.113,76427.571,0.56,0.755,-0.34,-0.003,-0.003,0.005,-0.006,0.009,-0.011,1.025,-0.856,2.402
2024-10-15 14:27:56.123,76427.581,0.56,0.755,-0.34,-0.005,-0.005,0.002,0.004,0.013,-0.011,1.025,-0.856,2.402
2024-10-15 14:27:56.133,76427.591,0.56,0.755,-0.34,-0.001,-0.008,0.001,0.013,0.014,-0.012,1.025,-0.856,2.401
2024-10-15 14:27:56.144,76427.601,0.56,0.755,-0.34,-0.0,-0.011,0.005,0.011,0.01,-0.005,1.025,-0.856,2.401
2024-10-15 14:27:56.153,76427.611,0.56,0.755,-0.34,-0.003,-0.012,0.008,0.011,0.01,-0.011,1.025,-0.856,2.401
2024-10-15 14:27:56.163,76427.621,0.56,0.756,-0.34,-0.006,-0.006,0.012,0.013,0.011,-0.016,1.025,-0.856,2.401
2024-10-15 14:27:56.173,76427.631,0.56,0.756,-0.34,-0.006,-0.001,0.009,0.009,0.01,-0.018,1.025,-0.857,2.401
2024-10-15 14:27:56.183,76427.641,0.56,0.756,-0.34,-0.006,-0.002,0.008,0.014,0.0,-0.019,1.024,-0.857,2.4
2024-10-15 14:27:56.193,76427.651,0.559,0.756,-0.34,-0.006,-0.004,0.006,0.009,-0.0,-0.022,1.024,-0.857,2.4
2024-10-15 14:27:56.203,76427.661,0.559,0.756,-0.34,-0.005,0.0,0.005,0.008,0.004,-0.015,1.024,-0.857,2.4
2024-10-15 14:27:56.213,76427.671,0.559,0.756,-0.34,-0.005,0.005,0.006,0.007,0.008,-0.015,1.024,-0.857,2.4
2024-10-15 14:27:56.223,76427.681,0.559,0.756,-0.34,-0.005,0.007,0.004,0.006,0.01,-0.011,1.024,-0.857,2.399
2024-10-15 14:27:56.233,76427.691,0.559,0.756,-0.34,-0.003,0.008,0.004,0.009,0.007,-0.009,1.024,-0.857,2.399
2024-10-15 14:27:56.243,76427.701,0.559,0.756,-0.34,-0.002,0.007,0.001,0.013,0.008,-0.008,1.024,-0.857,2.399
2024-10-15 14:27:56.253,76427.711,0.559,0.756,-0.341,-0.002,0.005,0.001,0.015,0.007,-0.002,1.024,-0.857,2.399
2024-10-15 14:27:56.263,76427.721,0.559,0.756,-0.341,-0.002,0.002,-0.0,0.016,0.008,-0.002,1.024,-0.857,2.399
2024-10-15 14:27:56.274,76427.731,0.559,0.756,-0.341,-0.004,-0.005,0.001,0.022,0.009,0.001,1.024,-0.857,2.398
2024-10-15 14:27:56.283,76427.741,0.559,0.756,-0.341,-0.004,-0.011,0.0,0.02,0.004,0.003,1.023,-0.857,2.398
2024-10-15 14:27:56.293,76427.751,0.559,0.756,-0.341,-0.004,-0.004,0.007,0.016,0.009,0.003,1.023,-0.857,2.398
2024-10-15 14:27:56.303,76427.761,0.559,0.756,-0.341,-0.007,0.004,0.013,0.017,0.014,0.001,1.023,-0.857,2.398
2024-10-15 14:27:56.313,76427.771,0.559,0.756,-0.341,-0.009,0.002,0.015,0.005,0.011,0.005,1.023,-0.857,2.398
2024-10-15 14:27:56.323,76427.781,0.559,0.756,-0.341,-0.008,-0.005,0.015,0.002,0.008,0.002,1.023,-0.857,2.398
2024-10-15 14:27:56.333,76427.791,0.559,0.756,-0.341,-0.006,-0.008,0.016,0.005,0.003,-0.0,1.024,-0.857,2.398
2024-10-15 14:27:56.343,76427.801,0.559,0.756,-0.341,-0.005,-0.005,0.011,0.011,0.002,-0.0,1.023,-0.857,2.397
2024-10-15 14:27:56.353,76427.811,0.559,0.756,-0.341,-0.005,-0.004,0.007,0.008,0.006,-0.002,1.023,-0.856,2.397
2024-10-15 14:27:56.363,76427.821,0.559,0.756,-0.341,-0.004,-0.005,0.005,0.002,0.008,-0.003,1.023,-0.856,2.397
2024-10-15 14:27:56.373,76427.831,0.559,0.756,-0.341,-0.003,-0.003,0.005,-0.001,0.004,-0.001,1.023,-0.856,2.397
2024-10-15 14:27:56.383,76427.841,0.559,0.756,-0.341,-0.001,-0.001,0.006,0.001,-0.004,-0.004,1.023,-0.856,2.397
2024-10-15 14:27:56.393,76427.851,0.559,0.756,-0.341,-0.001,0.0,0.006,-0.002,0.001,0.004,1.023,-0.857,2.397
2024-10-15 14:27:56.404,76427.861,0.559,0.756,-0.341,-0.002,-0.001,0.008,-0.008,0.003,0.005,1.024,-0.857,2.397
2024-10-15 14:27:56.413,76427.871,0.559,0.756,-0.341,-0.003,-0.004,0.008,-0.008,0.005,0.001,1.024,-0.857,2.398
2024-10-15 14:27:56.423,76427.881,0.559,0.756,-0.341,-0.002,-0.007,0.009,-0.003,-0.001,0.004,1.024,-0.857,2.398
2024-10-15 14:27:56.433,76427.891,0.559,0.756,-0.341,-0.002,-0.005,0.009,-0.004,-0.002,0.001,1.024,-0.857,2.398
2024-10-15 14:27:56.443,76427.901,0.559,0.756,-0.341,-0.003,-0.004,0.003,-0.003,-0.006,0.001,1.024,-0.857,2.398
2024-10-15 14:27:56.453,76427.911,0.559,0.756,-0.341,-0.004,-0.006,0.001,-0.006,-0.005,0.002,1.024,-0.857,2.398
2024-10-15 14:27:56.463,76427.921,0.559,0.756,-0.341,-0.007,-0.003,0.002,0.0,0.006,0.004,1.024,-0.857,2.398
2024-10-15 14:27:56.473,76427.93,0.56,0.756,-0.341,-0.007,0.002,0.001,0.004,0.002,0.003,1.024,-0.857,2.398
2024-10-15 14:27:56.483,76427.94,0.56,0.756,-0.341,-0.007,0.0,-0.0,-0.003,0.002,0.001,1.024,-0.857,2.398
2024-10-15 14:27:56.493,76427.95,0.56,0.756,-0.34,-0.005,-0.0,0.001,-0.002,0.005,0.005,1.024,-0.857,2.398
2024-10-15 14:27:56.503,76427.96,0.56,0.756,-0.34,-0.005,-0.002,0.002,0.003,0.003,0.004,1.024,-0.857,2.398
2024-10-15 14:27:56.513,76427.97,0.56,0.756,-0.34,-0.006,-0.001,0.003,0.006,0.001,0.005,1.024,-0.857,2.398
2024-10-15 14:27:56.523,76427.98,0.56,0.756,-0.34,-0.004,0.0,0.001,0.004,0.003,0.002,1.024,-0.856,2.398
2024-10-15 14:27:56.533,76427.99,0.56,0.755,-0.34,-0.005,-0.002,0.001,-0.001,-0.005,0.002,1.024,-0.856,2.398
2024-10-15 14:27:56.542,76428.0,0.56,0.756,-0.34,-0.002,-0.003,0.002,0.001,0.001,-0.004,1.024,-0.856,2.398
2024-10-15 14:27:56.552,76428.01,0.56,0.756,-0.34,-0.004,0.002,0.004,0.001,0.007,-0.003,1.024,-0.856,2.398
2024-10-15 14:27:56.563,76428.02,0.56,0.756,-0.34,-0.004,-0.0,0.005,-0.002,-0.001,-0.003,1.024,-0.857,2.398
2024-10-15 14:27:56.573,76428.03,0.56,0.756,-0.34,-0.003,-0.002,0.006,-0.001,0.002,0.001,1.024,-0.857,2.398
2024-10-15 14:27:56.583,76428.04,0.56,0.756,-0.34,-0.003,-0.001,0.007,-0.005,0.002,0.001,1.024,-0.857,2.398
2024-10-15 14:27:56.593,76428.05,0.56,0.756,-0.34,-0.004,-0.001,0.009,0.003,0.003,0.0,1.024,-0.857,2.398
2024-10-15 14:27:56.603,76428.06,0.56,0.756,-0.34,-0.006,-0.004,0.007,0.001,0.004,0.003,1.024,-0.857,2.398
2024-10-15 14:27:56.612,76428.07,0.56,0.756,-0.34,-0.006,-0.002,0.008,0.008,0.007,0.002,1.024,-0.856,2.398
2024-10-15 14:27:56.622,76428.08,0.56,0.755,-0.34,-0.006,-0.004,0.008,0.009,0.006,0.004,1.024,-0.856,2.398
2024-10-15 14:27:56.632,76428.09,0.56,0.755,-0.34,-0.004,-0.005,0.004,0.007,0.002,-0.0,1.024,-0.856,2.398
2024-10-15 14:27:56.642,76428.1,0.56,0.755,-0.34,-0.003,-0.009,0.003,0.003,0.002,0.001,1.024,-0.856,2.398
2024-10-15 14:27:56.652,76428.11,0.56,0.755,-0.34,-0.002,-0.009,0.003,0.0,0.004,-0.001,1.024,-0.856,2.398
2024-10-15 14:27:56.663,76428.12,0.56,0.755,-0.34,-0.003,-0.008,0.007,-0.001,0.007,-0.0,1.024,-0.856,2.398
2024-10-15 14:27:56.673,76428.13,0.56,0.755,-0.34,-0.003,-0.009,0.008,-0.007,-0.001,0.0,1.025,-0.856,2.398
2024-10-15 14:27:56.683,76428.14,0.56,0.756,-0.34,-0.001,-0.012,0.01,-0.01,-0.002,0.0,1.025,-0.856,2.398
2024-10-15 14:27:56.692,76428.15,0.56,0.756,-0.34,-0.002,-0.01,0.01,-0.006,-0.003,-0.003,1.025,-0.857,2.398
2024-10-15 14:27:56.702,76428.16,0.56,0.756,-0.34,-0.005,-0.006,0.011,-0.017,0.002,-0.004,1.025,-0.857,2.398
2024-10-15 14:27:56.712,76428.17,0.56,0.756,-0.34,-0.005,-0.003,0.012,-0.026,0.007,0.003,1.025,-0.857,2.398
2024-10-15 14:27:56.722,76428.18,0.56,0.756,-0.34,-0.005,-0.008,0.018,-0.04,0.001,-0.003,1.025,-0.857,2.399
2024-10-15 14:27:56.732,76428.19,0.56,0.756,-0.339,-0.006,-0.012,0.018,-0.022,-0.009,0.002,1.026,-0.857,2.399
2024-10-15 14:27:56.742,76428.2,0.56,0.756,-0.339,-0.005,-0.01,0.013,-0.025,-0.023,0.003,1.026,-0.857,2.4
2024-10-15 14:27:56.752,76428.21,0.56,0.756,-0.339,-0.002,-0.004,0.001,-0.006,-0.02,0.005,1.026,-0.857,2.4
2024-10-15 14:27:56.762,76428.22,0.56,0.756,-0.339,-0.007,-0.007,-0.002,-0.014,-0.016,0.013,1.026,-0.857,2.4
2024-10-15 14:27:56.773,76428.23,0.56,0.756,-0.339,-0.009,-0.007,-0.004,0.0,-0.016,0.007,1.026,-0.857,2.4
2024-10-15 14:27:56.784,76428.24,0.56,0.756,-0.339,-0.007,0.007,-0.004,0.009,-0.011,0.001,1.026,-0.857,2.4
2024-10-15 14:27:56.792,76428.25,0.56,0.756,-0.339,-0.004,0.02,-0.004,0.004,-0.004,-0.003,1.026,-0.857,2.4
2024-10-15 14:27:56.802,76428.26,0.56,0.756,-0.339,-0.003,0.019,0.001,-0.012,-0.005,-0.006,1.026,-0.857,2.4
2024-10-15 14:27:56.812,76428.27,0.56,0.756,-0.339,-0.003,0.006,-0.001,-0.025,-0.014,-0.007,1.026,-0.857,2.401
2024-10-15 14:27:56.822,76428.28,0.56,0.756,-0.339,-0.0,0.001,-0.001,-0.031,-0.011,-0.007,1.026,-0.857,2.401
2024-10-15 14:27:56.832,76428.29,0.56,0.756,-0.339,-0.001,0.006,0.001,-0.024,-0.001,-0.003,1.026,-0.858,2.401
2024-10-15 14:27:56.842,76428.3,0.56,0.756,-0.339,-0.005,0.008,0.001,-0.025,0.009,0.003,1.026,-0.858,2.402
2024-10-15 14:27:56.852,76428.31,0.56,0.756,-0.339,-0.007,0.002,0.002,-0.021,0.002,-0.003,1.027,-0.858,2.402
2024-10-15 14:27:56.862,76428.32,0.56,0.757,-0.338,-0.004,0.0,0.004,-0.022,0.001,-0.001,1.027,-0.858,2.402
2024-10-15 14:27:56.872,76428.33,0.56,0.757,-0.338,-0.003,-0.0,0.004,-0.013,-0.002,-0.001,1.027,-0.858,2.402
2024-10-15 14:27:56.882,76428.34,0.56,0.757,-0.338,-0.004,-0.002,0.005,-0.012,0.007,-0.004,1.027,-0.858,2.402
2024-10-15 14:27:56.892,76428.35,0.56,0.757,-0.338,-0.007,-0.004,0.003,-0.003,0.007,-0.007,1.027,-0.858,2.403
2024-10-15 14:27:56.903,76428.36,0.56,0.757,-0.338,-0.009,-0.006,0.001,-0.005,0.008,0.003,1.027,-0.858,2.403
2024-10-15 14:27:56.912,76428.37,0.56,0.757,-0.338,-0.009,-0.008,0.001,-0.006,0.006,0.001,1.028,-0.858,2.403
2024-10-15 14:27:56.922,76428.38,0.56,0.757,-0.338,-0.009,-0.009,0.001,-0.001,0.0,0.004,1.028,-0.858,2.403
2024-10-15 14:27:56.931,76428.39,0.56,0.757,-0.338,-0.005,-0.011,0.001,-0.002,-0.004,0.001,1.028,-0.858,2.403
2024-10-15 14:27:56.942,76428.4,0.56,0.757,-0.338,-0.004,-0.003,0.005,0.002,0.004,0.001,1.028,-0.858,2.403
2024-10-15 14:27:56.952,76428.41,0.56,0.757,-0.338,-0.004,0.006,0.009,0.004,0.008,0.001,1.028,-0.858,2.403
2024-10-15 14:27:56.962,76428.42,0.56,0.757,-0.338,-0.004,0.005,0.009,0.001,0.006,0.003,1.028,-0.858,2.403
2024-10-15 14:27:56.972,76428.43,0.56,0.757,-0.338,-0.001,-0.003,0.008,-0.007,0.004,-0.0,1.028,-0.858,2.403
2024-10-15 14:27:56.982,76428.44,0.56,0.757,-0.338,0.003,-0.006,0.007,-0.003,-0.003,-0.002,1.028,-0.858,2.403
2024-10-15 14:27:56.992,76428.45,0.56,0.757,-0.338,0.003,-0.004,0.005,-0.009,-0.003,-0.002,1.028,-0.859,2.403
2024-10-15 14:27:57.002,76428.46,0.56,0.757,-0.338,-0.001,-0.003,0.004,-0.0,0.002,0.001,1.028,-0.859,2.403
2024-10-15 14:27:57.012,76428.47,0.56,0.757,-0.338,-0.003,-0.008,0.003,0.003,-0.004,0.002,1.028,-0.858,2.403
2024-10-15 14:27:57.022,76428.48,0.56,0.757,-0.338,-0.002,-0.01,0.001,0.002,-0.011,0.002,1.028,-0.858,2.403
2024-10-15 14:27:57.032,76428.49,0.56,0.757,-0.338,-0.002,-0.005,-0.0,0.003,-0.001,0.003,1.028,-0.858,2.403
2024-10-15 14:27:57.042,76428.5,0.56,0.757,-0.338,-0.005,-0.001,0.003,-0.001,-0.002,-0.003,1.028,-0.858,2.403
2024-10-15 14:27:57.052,76428.509,0.56,0.757,-0.338,-0.007,-0.001,0.005,-0.014,0.0,-0.003,1.028,-0.859,2.403
2024-10-15 14:27:57.062,76428.519,0.559,0.757,-0.338,-0.005,-0.003,0.006,-0.02,-0.005,-0.011,1.028,-0.859,2.403
2024-10-15 14:27:57.072,76428.529,0.559,0.757,-0.337,-0.004,-0.007,0.009,-0.011,-0.005,-0.014,1.028,-0.859,2.403
2024-10-15 14:27:57.082,76428.539,0.559,0.757,-0.337,-0.007,-0.005,0.007,-0.01,-0.001,-0.006,1.028,-0.859,2.403
2024-10-15 14:27:57.092,76428.549,0.559,0.757,-0.337,-0.009,0.001,0.004,0.005,-0.0,0.001,1.028,-0.859,2.403
2024-10-15 14:27:57.102,76428.559,0.559,0.757,-0.337,-0.007,0.004,0.004,0.01,0.001,0.001,1.028,-0.859,2.403
2024-10-15 14:27:57.112,76428.569,0.559,0.757,-0.338,-0.004,0.004,0.003,0.011,-0.002,0.003,1.028,-0.859,2.403
2024-10-15 14:27:57.122,76428.579,0.559,0.757,-0.338,-0.002,0.005,0.004,0.003,-0.003,0.005,1.028,-0.859,2.403
2024-10-15 14:27:57.132,76428.589,0.559,0.757,-0.338,-0.001,0.005,0.003,0.008,0.003,0.009,1.028,-0.859,2.403
2024-10-15 14:27:57.142,76428.599,0.559,0.757,-0.338,-0.002,0.001,0.0,0.001,0.0,0.009,1.028,-0.859,2.403
2024-10-15 14:27:57.151,76428.609,0.56,0.757,-0.338,-0.002,-0.001,0.003,0.0,0.002,0.006,1.028,-0.859,2.403
2024-10-15 14:27:57.161,76428.619,0.56,0.757,-0.338,-0.003,-0.001,0.008,-0.005,0.006,0.008,1.028,-0.859,2.403
2024-10-15 14:27:57.172,76428.629,0.56,0.757,-0.338,-0.004,0.0,0.009,0.003,0.004,0.006,1.028,-0.859,2.403
2024-10-15 14:27:57.182,76428.639,0.56,0.757,-0.338,-0.006,-0.001,0.006,-0.001,0.005,0.007,1.028,-0.859,2.403
2024-10-15 14:27:57.191,76428.649,0.56,0.757,-0.338,-0.007,0.001,0.01,0.006,0.001,0.013,1.028,-0.858,2.403
2024-10-15 14:27:57.202,76428.659,0.56,0.757,-0.338,-0.006,0.0,0.011,0.008,-0.0,0.012,1.028,-0.858,2.403
2024-10-15 14:27:57.211,76428.669,0.56,0.757,-0.338,-0.005,0.0,0.01,0.012,-0.001,0.012,1.028,-0.858,2.403
2024-10-15 14:27:57.221,76428.679,0.56,0.757,-0.338,-0.005,-0.0,0.007,0.009,-0.001,0.008,1.028,-0.858,2.403
2024-10-15 14:27:57.232,76428.689,0.56,0.756,-0.338,-0.003,-0.0,0.003,0.012,-0.002,0.007,1.028,-0.858,2.403
2024-10-15 14:27:57.241,76428.699,0.56,0.756,-0.338,-0.003,-0.006,0.002,0.006,0.002,0.008,1.028,-0.858,2.403
2024-10-15 14:27:57.252,76428.709,0.56,0.756,-0.338,-0.001,-0.012,0.003,-0.002,-0.003,0.001,1.028,-0.858,2.403
2024-10-15 14:27:57.261,76428.719,0.56,0.756,-0.338,-0.003,-0.013,0.004,-0.004,-0.003,-0.006,1.028,-0.858,2.403
2024-10-15 14:27:57.272,76428.729,0.56,0.756,-0.338,-0.004,-0.015,0.004,-0.003,0.0,-0.009,1.028,-0.858,2.403
2024-10-15 14:27:57.282,76428.739,0.56,0.757,-0.338,-0.004,-0.013,0.002,-0.002,0.004,-0.017,1.028,-0.858,2.403
2024-10-15 14:27:57.292,76428.749,0.56,0.757,-0.338,-0.006,-0.013,0.002,-0.014,0.012,-0.022,1.028,-0.858,2.403
2024-10-15 14:27:57.302,76428.759,0.56,0.757,-0.337,-0.006,-0.016,0.001,-0.021,0.016,-0.023,1.028,-0.859,2.403
2024-10-15 14:27:57.312,76428.769,0.56,0.757,-0.337,-0.004,-0.02,-0.001,-0.016,0.022,-0.026,1.028,-0.859,2.403
2024-10-15 14:27:57.322,76428.779,0.559,0.757,-0.337,-0.002,-0.018,-0.005,-0.023,0.024,-0.027,1.029,-0.859,2.403
2024-10-15 14:27:57.331,76428.789,0.559,0.758,-0.336,0.0,-0.013,-0.007,-0.045,0.03,-0.028,1.029,-0.86,2.404
2024-10-15 14:27:57.342,76428.799,0.559,0.758,-0.336,0.001,-0.013,-0.006,-0.061,0.033,-0.038,1.03,-0.86,2.404
2024-10-15 14:27:57.351,76428.809,0.559,0.758,-0.335,0.003,-0.014,-0.009,-0.052,0.032,-0.04,1.031,-0.861,2.404
2024-10-15 14:27:57.362,76428.819,0.559,0.759,-0.335,0.006,-0.015,-0.013,-0.072,0.025,-0.044,1.031,-0.861,2.405
2024-10-15 14:27:57.371,76428.829,0.559,0.759,-0.334,0.006,-0.023,-0.01,-0.079,0.033,-0.051,1.032,-0.862,2.406
2024-10-15 14:27:57.382,76428.839,0.558,0.76,-0.333,0.002,-0.021,-0.006,-0.072,0.051,-0.056,1.033,-0.863,2.406
2024-10-15 14:27:57.391,76428.849,0.558,0.76,-0.332,-0.003,-0.017,-0.013,-0.113,0.082,-0.061,1.034,-0.864,2.407
2024-10-15 14:27:57.401,76428.859,0.558,0.761,-0.331,0.0,-0.014,-0.013,-0.172,0.108,-0.068,1.036,-0.865,2.408
2024-10-15 14:27:57.411,76428.869,0.558,0.762,-0.328,0.004,-0.023,-0.005,-0.251,0.118,-0.078,1.039,-0.867,2.41
2024-10-15 14:27:57.422,76428.879,0.557,0.764,-0.326,0.011,-0.032,0.012,-0.31,0.097,-0.094,1.042,-0.869,2.413
2024-10-15 14:27:57.432,76428.889,0.557,0.765,-0.323,0.018,-0.027,0.03,-0.309,0.08,-0.105,1.045,-0.871,2.417
2024-10-15 14:27:57.441,76428.899,0.556,0.767,-0.32,0.015,-0.025,0.026,-0.278,0.066,-0.108,1.049,-0.874,2.42
2024-10-15 14:27:57.451,76428.909,0.556,0.768,-0.318,0.01,-0.019,0.014,-0.245,0.075,-0.101,1.051,-0.876,2.422
2024-10-15 14:27:57.461,76428.919,0.555,0.769,-0.316,-0.006,-0.013,-0.004,-0.169,0.077,-0.103,1.054,-0.878,2.424
2024-10-15 14:27:57.471,76428.929,0.555,0.77,-0.315,-0.02,-0.018,-0.027,-0.1,0.087,-0.11,1.055,-0.879,2.425
2024-10-15 14:27:57.481,76428.939,0.554,0.771,-0.313,-0.024,-0.017,-0.041,-0.073,0.087,-0.133,1.056,-0.881,2.425
2024-10-15 14:27:57.491,76428.949,0.553,0.772,-0.312,-0.02,-0.021,-0.044,-0.125,0.086,-0.156,1.057,-0.882,2.426
2024-10-15 14:27:57.501,76428.959,0.552,0.774,-0.311,-0.013,-0.048,-0.031,-0.216,0.083,-0.175,1.059,-0.884,2.427
2024-10-15 14:27:57.511,76428.969,0.551,0.775,-0.308,-0.011,-0.081,-0.018,-0.335,0.098,-0.185,1.061,-0.887,2.429
2024-10-15 14:27:57.521,76428.979,0.55,0.778,-0.304,-0.012,-0.087,-0.002,-0.416,0.105,-0.209,1.065,-0.891,2.433
2024-10-15 14:27:57.531,76428.989,0.549,0.78,-0.3,-0.01,-0.073,0.003,-0.475,0.116,-0.224,1.07,-0.895,2.437
2024-10-15 14:27:57.541,76428.999,0.547,0.783,-0.296,-0.005,-0.063,0.015,-0.463,0.118,-0.247,1.075,-0.899,2.442
2024-10-15 14:27:57.552,76429.009,0.546,0.786,-0.292,-0.002,-0.055,0.026,-0.415,0.142,-0.273,1.08,-0.904,2.446
2024-10-15 14:27:57.561,76429.019,0.544,0.788,-0.288,-0.006,-0.036,0.026,-0.332,0.144,-0.299,1.084,-0.908,2.45
2024-10-15 14:27:57.571,76429.029,0.542,0.791,-0.285,-0.008,-0.02,0.016,-0.247,0.137,-0.325,1.086,-0.912,2.451
2024-10-15 14:27:57.581,76429.039,0.54,0.793,-0.283,-0.007,-0.013,-0.001,-0.194,0.119,-0.335,1.088,-0.916,2.452
2024-10-15 14:27:57.591,76429.049,0.537,0.795,-0.281,-0.007,-0.012,-0.016,-0.183,0.068,-0.359,1.089,-0.92,2.452
2024-10-15 14:27:57.601,76429.059,0.534,0.798,-0.279,-0.016,-0.026,-0.011,-0.153,0.041,-0.352,1.09,-0.924,2.452
2024-10-15 14:27:57.611,76429.069,0.532,0.8,-0.277,-0.045,-0.04,-0.01,-0.177,0.086,-0.344,1.09,-0.928,2.452
2024-10-15 14:27:57.621,76429.079,0.529,0.803,-0.276,-0.055,-0.016,-0.014,-0.151,0.048,-0.377,1.09,-0.932,2.451
2024-10-15 14:27:57.631,76429.088,0.526,0.805,-0.274,-0.05,0.001,-0.001,-0.137,0.025,-0.389,1.09,-0.936,2.451
2024-10-15 14:27:57.641,76429.098,0.523,0.807,-0.273,-0.051,-0.001,0.01,-0.125,0.008,-0.424,1.089,-0.94,2.449
2024-10-15 14:27:57.651,76429.108,0.519,0.81,-0.272,-0.059,-0.0,0.021,-0.077,-0.003,-0.455,1.088,-0.944,2.447
2024-10-15 14:27:57.661,76429.118,0.516,0.813,-0.272,-0.068,-0.012,0.019,-0.08,0.007,-0.462,1.086,-0.949,2.445
2024-10-15 14:27:57.671,76429.128,0.512,0.815,-0.271,-0.07,-0.023,0.022,-0.084,-0.004,-0.491,1.084,-0.953,2.442
2024-10-15 14:27:57.681,76429.138,0.508,0.818,-0.27,-0.058,-0.036,0.029,-0.096,-0.028,-0.514,1.081,-0.958,2.44
2024-10-15 14:27:57.691,76429.148,0.503,0.821,-0.27,-0.039,-0.053,0.035,-0.118,-0.053,-0.531,1.079,-0.963,2.437
2024-10-15 14:27:57.701,76429.158,0.499,0.824,-0.269,-0.027,-0.064,0.042,-0.148,-0.088,-0.55,1.076,-0.968,2.435
2024-10-15 14:27:57.711,76429.168,0.494,0.827,-0.268,-0.025,-0.071,0.046,-0.178,-0.134,-0.588,1.073,-0.974,2.432
2024-10-15 14:27:57.721,76429.178,0.488,0.831,-0.268,-0.026,-0.063,0.057,-0.135,-0.176,-0.606,1.069,-0.98,2.43
2024-10-15 14:27:57.730,76429.188,0.483,0.834,-0.268,-0.036,-0.05,0.068,-0.057,-0.192,-0.629,1.064,-0.986,2.426
2024-10-15 14:27:57.741,76429.198,0.477,0.837,-0.269,-0.046,-0.035,0.079,0.043,-0.196,-0.642,1.058,-0.992,2.42
2024-10-15 14:27:57.750,76429.208,0.471,0.84,-0.27,-0.051,-0.023,0.091,0.102,-0.189,-0.65,1.05,-0.997,2.413
2024-10-15 14:27:57.761,76429.218,0.465,0.843,-0.272,-0.048,-0.022,0.092,0.129,-0.171,-0.644,1.042,-1.002,2.405
2024-10-15 14:27:57.770,76429.228,0.459,0.845,-0.274,-0.035,-0.031,0.082,0.098,-0.165,-0.64,1.033,-1.007,2.397
2024-10-15 14:27:57.781,76429.238,0.453,0.848,-0.275,-0.009,-0.037,0.067,0.005,-0.167,-0.627,1.026,-1.012,2.39
2024-10-15 14:27:57.790,76429.248,0.448,0.851,-0.275,0.012,-0.047,0.051,-0.113,-0.171,-0.624,1.019,-1.018,2.385
2024-10-15 14:27:57.801,76429.258,0.442,0.854,-0.275,0.029,-0.062,0.036,-0.227,-0.17,-0.622,1.015,-1.024,2.382
2024-10-15 14:27:57.811,76429.268,0.436,0.858,-0.273,0.037,-0.067,0.025,-0.342,-0.157,-0.621,1.012,-1.031,2.38
2024-10-15 14:27:57.821,76429.278,0.43,0.861,-0.27,0.039,-0.055,0.026,-0.442,-0.15,-0.626,1.01,-1.038,2.38
2024-10-15 14:27:57.830,76429.288,0.424,0.865,-0.267,0.039,-0.046,0.033,-0.531,-0.168,-0.634,1.01,-1.046,2.381
2024-10-15 14:27:57.840,76429.298,0.418,0.87,-0.263,0.037,-0.038,0.039,-0.577,-0.193,-0.642,1.01,-1.054,2.384
2024-10-15 14:27:57.850,76429.308,0.412,0.874,-0.258,0.029,-0.03,0.038,-0.586,-0.215,-0.649,1.011,-1.063,2.387
2024-10-15 14:27:57.861,76429.318,0.406,0.878,-0.254,0.021,-0.027,0.036,-0.587,-0.25,-0.649,1.011,-1.071,2.39
2024-10-15 14:27:57.871,76429.328,0.4,0.882,-0.25,0.015,-0.032,0.034,-0.592,-0.277,-0.65,1.012,-1.08,2.394
2024-10-15 14:27:57.881,76429.338,0.393,0.886,-0.246,0.011,-0.048,0.031,-0.591,-0.302,-0.666,1.012,-1.089,2.397
2024-10-15 14:27:57.890,76429.348,0.386,0.89,-0.242,0.005,-0.051,0.029,-0.591,-0.311,-0.697,1.011,-1.098,2.4
2024-10-15 14:27:57.900,76429.358,0.379,0.894,-0.238,-0.003,-0.04,0.031,-0.588,-0.31,-0.728,1.011,-1.107,2.403
2024-10-15 14:27:57.911,76429.368,0.372,0.898,-0.234,-0.011,-0.036,0.031,-0.589,-0.318,-0.765,1.009,-1.116,2.405
2024-10-15 14:27:57.920,76429.378,0.364,0.903,-0.23,-0.019,-0.046,0.03,-0.601,-0.328,-0.797,1.008,-1.126,2.407
2024-10-15 14:27:57.930,76429.388,0.356,0.907,-0.225,-0.029,-0.062,0.03,-0.593,-0.346,-0.827,1.006,-1.136,2.408
2024-10-15 14:27:57.941,76429.398,0.348,0.911,-0.221,-0.039,-0.074,0.018,-0.581,-0.369,-0.836,1.004,-1.146,2.41
2024-10-15 14:27:57.950,76429.408,0.339,0.915,-0.217,-0.044,-0.081,0.01,-0.596,-0.392,-0.852,1.001,-1.156,2.411
2024-10-15 14:27:57.960,76429.418,0.33,0.92,-0.213,-0.048,-0.07,0.017,-0.611,-0.408,-0.867,0.998,-1.167,2.412
2024-10-15 14:27:57.970,76429.428,0.321,0.924,-0.209,-0.049,-0.058,0.034,-0.62,-0.429,-0.89,0.994,-1.178,2.413
2024-10-15 14:27:57.981,76429.438,0.312,0.928,-0.204,-0.047,-0.053,0.055,-0.626,-0.444,-0.905,0.991,-1.188,2.413
2024-10-15 14:27:57.990,76429.448,0.303,0.932,-0.2,-0.045,-0.05,0.075,-0.666,-0.475,-0.939,0.987,-1.2,2.414
2024-10-15 14:27:58.000,76429.458,0.293,0.936,-0.195,-0.042,-0.053,0.101,-0.703,-0.499,-0.962,0.983,-1.211,2.416
2024-10-15 14:27:58.010,76429.468,0.283,0.94,-0.19,-0.045,-0.079,0.129,-0.704,-0.516,-0.98,0.98,-1.223,2.417
2024-10-15 14:27:58.020,76429.478,0.272,0.944,-0.185,-0.049,-0.107,0.122,-0.724,-0.535,-0.997,0.975,-1.235,2.418
2024-10-15 14:27:58.030,76429.488,0.262,0.948,-0.179,-0.049,-0.101,0.097,-0.758,-0.544,-1.012,0.971,-1.248,2.42
2024-10-15 14:27:58.040,76429.498,0.251,0.952,-0.173,-0.046,-0.071,0.074,-0.808,-0.532,-1.016,0.968,-1.261,2.422
2024-10-15 14:27:58.050,76429.508,0.241,0.956,-0.166,-0.043,-0.052,0.056,-0.882,-0.501,-1.024,0.967,-1.274,2.426
