Date,TimeStamp,GravityX,GravityY,GravityZ,UserAccelerationX,UserAccelerationY,UserAccelerationZ,RotationRateX,RotationRateY,RotationRateZ,AttitudeRoll,AttitudePitch,AttitudeYaw
2024-10-23 21:54:12.433,19175.982,0.236,-0.194,-0.952,-0.007,0.01,-0.008,-0.029,0.031,-0.024,0.242,0.195,1.312
2024-10-23 21:54:12.447,19175.992,0.236,-0.193,-0.952,0.011,0.003,0.003,-0.04,0.04,0.001,0.243,0.194,1.312
2024-10-23 21:54:12.448,19176.002,0.237,-0.193,-0.952,-0.001,-0.01,0.001,-0.0,0.094,-0.092,0.244,0.194,1.312
2024-10-23 21:54:12.450,19176.012,0.238,-0.193,-0.952,-0.007,0.0,0.004,-0.034,0.053,-0.025,0.245,0.194,1.311
2024-10-23 21:54:12.456,19176.022,0.238,-0.192,-0.952,0.006,0.003,0.01,-0.037,0.083,-0.026,0.245,0.193,1.311
2024-10-23 21:54:12.466,19176.032,0.239,-0.192,-0.952,0.006,-0.016,0.01,-0.045,0.084,-0.027,0.246,0.193,1.311
2024-10-23 21:54:12.476,19176.042,0.24,-0.191,-0.952,-0.005,-0.005,0.005,-0.072,0.079,-0.031,0.247,0.192,1.311
2024-10-23 21:54:12.486,19176.052,0.241,-0.19,-0.952,0.008,-0.004,0.009,-0.096,0.079,-0.038,0.248,0.191,1.311
2024-10-23 21:54:12.496,19176.062,0.241,-0.189,-0.952,0.006,-0.002,0.008,-0.111,0.088,-0.041,0.248,0.19,1.311
2024-10-23 21:54:12.506,19176.072,0.242,-0.188,-0.952,0.001,0.001,0.003,-0.119,0.085,-0.044,0.249,0.189,1.31
2024-10-23 21:54:12.517,19176.082,0.243,-0.187,-0.952,-0.003,-0.003,-0.0,-0.102,0.093,-0.048,0.25,0.188,1.31
2024-10-23 21:54:12.526,19176.092,0.244,-0.186,-0.952,-0.001,0.009,-0.001,-0.105,0.103,-0.04,0.251,0.187,1.31
2024-10-23 21:54:12.536,19176.102,0.245,-0.185,-0.952,-0.008,0.013,-0.002,-0.116,0.101,-0.034,0.252,0.186,1.31
2024-10-23 21:54:12.548,19176.112,0.246,-0.184,-0.952,-0.01,0.012,-0.0,-0.119,0.1,-0.03,0.253,0.185,1.31
2024-10-23 21:54:12.556,19176.122,0.247,-0.182,-0.952,-0.009,0.01,0.002,-0.122,0.105,-0.027,0.254,0.183,1.31
2024-10-23 21:54:12.567,19176.132,0.248,-0.181,-0.952,-0.014,0.006,0.003,-0.127,0.104,-0.025,0.255,0.182,1.31
2024-10-23 21:54:12.576,19176.142,0.249,-0.18,-0.952,-0.018,-0.003,0.001,-0.13,0.101,-0.021,0.256,0.181,1.31
2024-10-23 21:54:12.586,19176.152,0.25,-0.179,-0.952,-0.016,-0.01,0.002,-0.142,0.098,-0.018,0.257,0.18,1.31
2024-10-23 21:54:12.598,19176.162,0.251,-0.177,-0.952,-0.012,-0.015,0.004,-0.145,0.087,-0.018,0.258,0.178,1.311
2024-10-23 21:54:12.605,19176.172,0.252,-0.176,-0.952,-0.009,-0.017,0.003,-0.14,0.077,-0.013,0.259,0.177,1.311
2024-10-23 21:54:12.616,19176.182,0.253,-0.175,-0.952,-0.005,-0.015,0.006,-0.127,0.074,-0.009,0.259,0.175,1.311
2024-10-23 21:54:12.626,19176.192,0.253,-0.173,-0.952,-0.006,-0.012,0.006,-0.124,0.079,-0.008,0.26,0.174,1.311
2024-10-23 21:54:12.636,19176.202,0.254,-0.172,-0.952,-0.004,-0.005,0.005,-0.126,0.082,-0.0,0.261,0.173,1.312
2024-10-23 21:54:12.647,19176.212,0.255,-0.171,-0.952,-0.001,-0.006,0.009,-0.131,0.079,0.004,0.261,0.172,1.312
2024-10-23 21:54:12.656,19176.222,0.255,-0.17,-0.952,0.001,-0.01,0.016,-0.142,0.079,0.005,0.262,0.171,1.312
2024-10-23 21:54:12.666,19176.232,0.256,-0.168,-0.952,0.003,-0.008,0.016,-0.149,0.083,0.006,0.263,0.169,1.313
2024-10-23 21:54:12.676,19176.242,0.257,-0.167,-0.952,0.003,-0.004,0.018,-0.168,0.079,0.003,0.263,0.168,1.313
2024-10-23 21:54:12.686,19176.252,0.257,-0.165,-0.952,0.003,-0.006,0.023,-0.201,0.074,0.005,0.264,0.166,1.314
2024-10-23 21:54:12.697,19176.262,0.258,-0.163,-0.952,0.005,-0.012,0.023,-0.242,0.079,0.001,0.265,0.164,1.314
2024-10-23 21:54:12.705,19176.272,0.259,-0.161,-0.952,0.003,-0.02,0.025,-0.292,0.074,0.004,0.265,0.162,1.315
2024-10-23 21:54:12.716,19176.282,0.259,-0.158,-0.953,0.002,-0.025,0.027,-0.353,0.079,0.007,0.266,0.159,1.316
2024-10-23 21:54:12.726,19176.292,0.26,-0.154,-0.953,-0.001,-0.028,0.025,-0.431,0.082,0.009,0.266,0.155,1.317
2024-10-23 21:54:12.736,19176.302,0.261,-0.15,-0.954,-0.007,-0.034,0.025,-0.515,0.089,0.006,0.267,0.151,1.319
2024-10-23 21:54:12.747,19176.311,0.262,-0.145,-0.954,-0.013,-0.039,0.026,-0.594,0.093,-0.001,0.268,0.145,1.32
2024-10-23 21:54:12.756,19176.321,0.263,-0.139,-0.955,-0.018,-0.043,0.026,-0.678,0.098,-0.001,0.268,0.139,1.322
2024-10-23 21:54:12.768,19176.331,0.264,-0.132,-0.956,-0.024,-0.046,0.029,-0.763,0.101,-0.007,0.269,0.132,1.324
2024-10-23 21:54:12.776,19176.341,0.265,-0.124,-0.956,-0.026,-0.042,0.034,-0.836,0.102,-0.009,0.27,0.125,1.326
2024-10-23 21:54:12.786,19176.351,0.266,-0.116,-0.957,-0.03,-0.042,0.036,-0.917,0.124,-0.003,0.271,0.116,1.328
2024-10-23 21:54:12.795,19176.361,0.267,-0.107,-0.958,-0.037,-0.039,0.037,-1.023,0.124,0.011,0.272,0.107,1.331
2024-10-23 21:54:12.805,19176.371,0.268,-0.096,-0.959,-0.043,-0.037,0.036,-1.107,0.126,0.014,0.273,0.097,1.334
2024-10-23 21:54:12.816,19176.381,0.269,-0.085,-0.959,-0.046,-0.047,0.034,-1.178,0.145,0.011,0.274,0.086,1.337
2024-10-23 21:54:12.825,19176.391,0.271,-0.074,-0.96,-0.049,-0.051,0.032,-1.213,0.168,0.007,0.275,0.074,1.34
2024-10-23 21:54:12.835,19176.401,0.273,-0.062,-0.96,-0.057,-0.046,0.034,-1.212,0.182,-0.005,0.277,0.062,1.343
2024-10-23 21:54:12.845,19176.411,0.274,-0.051,-0.96,-0.058,-0.046,0.035,-1.238,0.22,-0.007,0.278,0.051,1.347
2024-10-23 21:54:12.855,19176.421,0.277,-0.038,-0.96,-0.058,-0.042,0.039,-1.339,0.256,0.003,0.281,0.038,1.35
2024-10-23 21:54:12.865,19176.431,0.279,-0.025,-0.96,-0.065,-0.045,0.054,-1.498,0.257,0.015,0.283,0.025,1.354
2024-10-23 21:54:12.875,19176.441,0.282,-0.01,-0.959,-0.066,-0.065,0.062,-1.665,0.239,0.015,0.285,0.01,1.36
2024-10-23 21:54:12.886,19176.451,0.284,0.007,-0.959,-0.056,-0.083,0.067,-1.762,0.244,0.006,0.288,-0.007,1.365
2024-10-23 21:54:12.895,19176.461,0.286,0.024,-0.958,-0.055,-0.091,0.07,-1.824,0.265,-0.007,0.29,-0.024,1.37
2024-10-23 21:54:12.905,19176.471,0.289,0.042,-0.956,-0.062,-0.097,0.071,-1.887,0.297,-0.033,0.293,-0.042,1.375
2024-10-23 21:54:12.915,19176.481,0.292,0.06,-0.954,-0.061,-0.104,0.066,-2.003,0.354,-0.049,0.297,-0.06,1.381
2024-10-23 21:54:12.926,19176.491,0.296,0.081,-0.952,-0.061,-0.135,0.07,-2.222,0.405,-0.035,0.301,-0.081,1.386
2024-10-23 21:54:12.936,19176.501,0.3,0.103,-0.948,-0.06,-0.165,0.082,-2.479,0.446,-0.031,0.306,-0.103,1.393
2024-10-23 21:54:12.953,19176.511,0.304,0.128,-0.944,-0.056,-0.185,0.084,-2.734,0.479,-0.045,0.312,-0.128,1.401
2024-10-23 21:54:12.960,19176.521,0.309,0.155,-0.939,-0.044,-0.189,0.079,-2.98,0.491,-0.072,0.318,-0.155,1.409
2024-10-23 21:54:12.966,19176.531,0.313,0.184,-0.932,-0.035,-0.196,0.077,-3.182,0.501,-0.096,0.324,-0.185,1.418
2024-10-23 21:54:12.976,19176.541,0.318,0.214,-0.924,-0.028,-0.199,0.07,-3.358,0.542,-0.109,0.331,-0.216,1.428
2024-10-23 21:54:12.985,19176.551,0.323,0.247,-0.914,-0.025,-0.181,0.065,-3.608,0.594,-0.086,0.339,-0.249,1.439
2024-10-23 21:54:12.995,19176.561,0.328,0.281,-0.902,-0.034,-0.188,0.05,-3.856,0.633,-0.077,0.349,-0.285,1.451
2024-10-23 21:54:13.006,19176.571,0.333,0.316,-0.888,-0.042,-0.202,0.035,-4.012,0.656,-0.084,0.359,-0.322,1.464
2024-10-23 21:54:13.016,19176.581,0.339,0.352,-0.872,-0.03,-0.193,0.027,-4.051,0.676,-0.121,0.371,-0.36,1.479
2024-10-23 21:54:13.026,19176.591,0.344,0.387,-0.855,-0.017,-0.157,0.016,-4.003,0.688,-0.164,0.383,-0.398,1.493
2024-10-23 21:54:13.035,19176.601,0.349,0.421,-0.837,-0.011,-0.116,0.01,-3.854,0.68,-0.196,0.395,-0.435,1.508
2024-10-23 21:54:13.045,19176.611,0.354,0.453,-0.818,-0.007,-0.087,0.004,-3.697,0.681,-0.216,0.408,-0.47,1.522
2024-10-23 21:54:13.055,19176.621,0.359,0.483,-0.799,-0.003,-0.061,0.005,-3.589,0.712,-0.205,0.422,-0.504,1.536
2024-10-23 21:54:13.066,19176.631,0.363,0.512,-0.778,-0.008,-0.034,0.015,-3.524,0.728,-0.199,0.437,-0.537,1.551
2024-10-23 21:54:13.075,19176.641,0.368,0.539,-0.757,-0.019,-0.026,0.024,-3.469,0.7,-0.185,0.452,-0.57,1.567
2024-10-23 21:54:13.086,19176.651,0.372,0.566,-0.736,-0.014,-0.022,0.036,-3.368,0.647,-0.19,0.468,-0.601,1.583
2024-10-23 21:54:13.095,19176.661,0.375,0.59,-0.715,-0.003,-0.008,0.037,-3.173,0.607,-0.198,0.483,-0.631,1.599
2024-10-23 21:54:13.105,19176.671,0.378,0.612,-0.694,0.006,0.014,0.031,-2.946,0.598,-0.204,0.499,-0.659,1.615
2024-10-23 21:54:13.116,19176.681,0.381,0.633,-0.674,0.012,0.051,0.016,-2.779,0.596,-0.189,0.515,-0.685,1.631
2024-10-23 21:54:13.125,19176.691,0.384,0.652,-0.654,0.013,0.063,0.006,-2.721,0.585,-0.156,0.531,-0.71,1.646
2024-10-23 21:54:13.135,19176.701,0.387,0.67,-0.634,0.013,0.047,-0.003,-2.691,0.547,-0.138,0.547,-0.734,1.663
2024-10-23 21:54:13.145,19176.711,0.389,0.687,-0.614,0.016,0.028,-0.003,-2.671,0.533,-0.107,0.565,-0.757,1.681
2024-10-23 21:54:13.155,19176.721,0.392,0.703,-0.593,0.013,0.026,-0.001,-2.683,0.548,-0.103,0.583,-0.78,1.7
2024-10-23 21:54:13.165,19176.731,0.394,0.72,-0.572,0.008,0.032,0.0,-2.791,0.534,-0.121,0.603,-0.803,1.72
2024-10-23 21:54:13.175,19176.741,0.396,0.736,-0.549,-0.0,0.021,-0.01,-2.902,0.528,-0.108,0.625,-0.827,1.743
2024-10-23 21:54:13.185,19176.751,0.398,0.752,-0.525,-0.012,0.004,-0.015,-3.032,0.477,-0.073,0.649,-0.851,1.768
2024-10-23 21:54:13.195,19176.761,0.4,0.768,-0.5,-0.025,-0.035,0.004,-3.095,0.445,-0.083,0.675,-0.876,1.796
2024-10-23 21:54:13.205,19176.771,0.401,0.784,-0.474,-0.022,-0.052,0.023,-3.107,0.415,-0.099,0.702,-0.901,1.826
2024-10-23 21:54:13.215,19176.781,0.402,0.798,-0.448,-0.009,-0.017,0.037,-3.095,0.379,-0.113,0.732,-0.925,1.858
2024-10-23 21:54:13.225,19176.791,0.403,0.812,-0.422,-0.008,0.019,0.046,-3.071,0.327,-0.12,0.763,-0.948,1.892
2024-10-23 21:54:13.235,19176.801,0.403,0.825,-0.396,-0.024,0.027,0.06,-3.049,0.279,-0.122,0.795,-0.971,1.928
2024-10-23 21:54:13.245,19176.811,0.403,0.837,-0.37,-0.037,0.025,0.08,-2.976,0.19,-0.138,0.829,-0.992,1.966
2024-10-23 21:54:13.255,19176.821,0.402,0.848,-0.344,-0.05,0.019,0.102,-2.884,0.088,-0.145,0.863,-1.013,2.005
2024-10-23 21:54:13.266,19176.831,0.401,0.858,-0.32,-0.06,0.015,0.117,-2.739,-0.064,-0.16,0.897,-1.032,2.044
2024-10-23 21:54:13.275,19176.841,0.399,0.867,-0.298,-0.072,0.013,0.122,-2.483,-0.246,-0.202,0.929,-1.049,2.083
2024-10-23 21:54:13.285,19176.851,0.397,0.875,-0.279,-0.094,-0.01,0.113,-2.379,-0.377,-0.208,0.958,-1.065,2.12
2024-10-23 21:54:13.295,19176.861,0.394,0.882,-0.259,-0.092,-0.021,0.143,-2.332,-0.489,-0.205,0.988,-1.08,2.159
2024-10-23 21:54:13.305,19176.871,0.39,0.888,-0.243,-0.071,-0.028,0.139,-1.863,-0.631,-0.262,1.014,-1.093,2.194
2024-10-23 21:54:13.314,19176.881,0.386,0.893,-0.23,-0.092,-0.068,0.001,-1.676,-0.713,-0.303,1.033,-1.105,2.224
2024-10-23 21:54:13.325,19176.891,0.382,0.898,-0.219,-0.096,0.005,-0.023,-1.442,-0.735,-0.302,1.05,-1.115,2.251
2024-10-23 21:54:13.335,19176.901,0.377,0.902,-0.21,-0.082,0.026,0.025,-1.208,-0.752,-0.34,1.063,-1.125,2.274
2024-10-23 21:54:13.345,19176.91,0.372,0.906,-0.203,-0.101,-0.012,-0.002,-0.854,-0.713,-0.411,1.071,-1.133,2.291
2024-10-23 21:54:13.355,19176.92,0.367,0.909,-0.199,-0.106,0.03,-0.016,-0.575,-0.711,-0.411,1.073,-1.14,2.301
2024-10-23 21:54:13.365,19176.93,0.362,0.911,-0.198,-0.061,0.035,-0.038,-0.373,-0.757,-0.394,1.071,-1.146,2.306
2024-10-23 21:54:13.375,19176.94,0.357,0.913,-0.198,-0.008,0.03,-0.037,-0.256,-0.799,-0.365,1.065,-1.15,2.308
2024-10-23 21:54:13.385,19176.95,0.352,0.915,-0.198,0.0,0.02,-0.038,-0.205,-0.812,-0.309,1.058,-1.155,2.309
2024-10-23 21:54:13.395,19176.96,0.348,0.916,-0.2,-0.015,-0.0,-0.035,-0.14,-0.875,-0.309,1.049,-1.158,2.309
2024-10-23 21:54:13.408,19176.97,0.343,0.917,-0.202,-0.027,-0.039,-0.032,-0.163,-0.941,-0.299,1.04,-1.161,2.309
2024-10-23 21:54:13.415,19176.98,0.339,0.919,-0.204,-0.029,-0.029,-0.004,-0.069,-0.968,-0.292,1.029,-1.165,2.308
2024-10-23 21:54:13.438,19176.99,0.334,0.92,-0.207,-0.034,0.038,0.033,0.079,-0.935,-0.305,1.016,-1.167,2.304
2024-10-23 21:54:13.443,19177.0,0.329,0.92,-0.211,-0.035,0.084,0.062,0.229,-0.911,-0.308,1.0,-1.169,2.296
2024-10-23 21:54:13.447,19177.01,0.324,0.921,-0.217,-0.01,0.096,0.087,0.27,-0.908,-0.28,0.982,-1.17,2.286
2024-10-23 21:54:13.455,19177.02,0.32,0.921,-0.222,0.025,0.079,0.092,0.141,-0.92,-0.234,0.965,-1.171,2.278
2024-10-23 21:54:13.465,19177.03,0.316,0.922,-0.225,0.047,0.047,0.091,0.071,-0.941,-0.223,0.951,-1.172,2.273
2024-10-23 21:54:13.475,19177.04,0.312,0.922,-0.229,0.034,-0.026,0.079,0.125,-0.959,-0.227,0.937,-1.173,2.267
2024-10-23 21:54:13.485,19177.05,0.308,0.922,-0.234,0.005,-0.118,0.044,0.185,-0.959,-0.186,0.921,-1.174,2.261
2024-10-23 21:54:13.495,19177.06,0.304,0.922,-0.239,0.004,-0.122,0.028,0.353,-0.926,-0.14,0.904,-1.174,2.253
2024-10-23 21:54:13.505,19177.07,0.301,0.922,-0.245,0.002,-0.06,0.029,0.445,-0.827,-0.105,0.886,-1.172,2.243
2024-10-23 21:54:13.515,19177.08,0.298,0.921,-0.252,-0.014,0.008,0.032,0.544,-0.683,-0.129,0.868,-1.17,2.232
2024-10-23 21:54:13.525,19177.09,0.294,0.92,-0.261,-0.019,0.065,0.05,0.858,-0.712,-0.414,0.845,-1.167,2.214
2024-10-23 21:54:13.535,19177.1,0.286,0.919,-0.272,0.031,0.028,0.113,1.038,-0.958,-0.657,0.812,-1.165,2.187
2024-10-23 21:54:13.544,19177.11,0.277,0.918,-0.284,0.172,0.018,0.069,0.977,-1.188,-0.703,0.773,-1.163,2.156
2024-10-23 21:54:13.555,19177.12,0.267,0.917,-0.295,0.225,0.066,-0.023,0.706,-1.188,-0.652,0.736,-1.161,2.129
2024-10-23 21:54:13.565,19177.13,0.258,0.917,-0.303,0.093,0.049,-0.068,0.373,-1.104,-0.598,0.705,-1.161,2.108
2024-10-23 21:54:13.575,19177.14,0.25,0.918,-0.308,-0.035,-0.007,-0.078,0.031,-1.064,-0.552,0.681,-1.163,2.094
2024-10-23 21:54:13.585,19177.15,0.242,0.92,-0.309,-0.032,-0.003,-0.099,-0.268,-0.96,-0.498,0.664,-1.168,2.085
2024-10-23 21:54:13.595,19177.16,0.235,0.922,-0.308,-0.014,0.053,-0.109,-0.379,-0.796,-0.4,0.651,-1.173,2.081
2024-10-23 21:54:13.605,19177.17,0.229,0.924,-0.306,-0.043,0.084,-0.101,-0.35,-0.664,-0.33,0.642,-1.178,2.08
2024-10-23 21:54:13.615,19177.18,0.225,0.925,-0.305,-0.056,0.085,-0.081,-0.23,-0.554,-0.251,0.635,-1.182,2.078
2024-10-23 21:54:13.625,19177.19,0.221,0.926,-0.305,-0.024,0.122,-0.061,-0.005,-0.471,-0.181,0.627,-1.184,2.076
2024-10-23 21:54:13.634,19177.2,0.218,0.926,-0.307,0.004,0.188,-0.071,0.162,-0.422,-0.149,0.618,-1.185,2.071
2024-10-23 21:54:13.644,19177.21,0.216,0.926,-0.31,0.021,0.223,-0.08,0.254,-0.392,-0.138,0.609,-1.184,2.064
2024-10-23 21:54:13.655,19177.22,0.213,0.925,-0.313,0.021,0.213,-0.07,0.293,-0.376,-0.128,0.598,-1.182,2.057
2024-10-23 21:54:13.665,19177.23,0.211,0.925,-0.316,0.006,0.172,-0.068,0.258,-0.357,-0.114,0.588,-1.181,2.051
2024-10-23 21:54:13.675,19177.24,0.209,0.924,-0.319,0.013,0.138,-0.057,0.164,-0.33,-0.081,0.58,-1.179,2.045
2024-10-23 21:54:13.685,19177.25,0.207,0.924,-0.321,0.028,0.112,-0.033,0.122,-0.316,-0.083,0.573,-1.179,2.042
2024-10-23 21:54:13.694,19177.26,0.205,0.924,-0.323,0.037,0.073,0.008,0.126,-0.319,-0.084,0.567,-1.178,2.038
2024-10-23 21:54:13.705,19177.27,0.204,0.924,-0.325,0.038,0.032,0.043,0.162,-0.337,-0.097,0.56,-1.177,2.034
2024-10-23 21:54:13.714,19177.28,0.202,0.923,-0.327,0.048,0.047,0.045,0.219,-0.321,-0.087,0.552,-1.176,2.03
2024-10-23 21:54:13.724,19177.29,0.2,0.923,-0.33,0.045,0.064,0.022,0.232,-0.289,-0.075,0.545,-1.175,2.025
2024-10-23 21:54:13.734,19177.3,0.198,0.922,-0.333,0.035,0.061,-0.009,0.249,-0.273,-0.065,0.538,-1.173,2.02
2024-10-23 21:54:13.744,19177.31,0.197,0.921,-0.335,0.027,0.049,-0.035,0.224,-0.234,-0.043,0.531,-1.171,2.015
2024-10-23 21:54:13.754,19177.32,0.196,0.921,-0.337,0.032,0.049,-0.059,0.141,-0.153,-0.026,0.526,-1.17,2.012
2024-10-23 21:54:13.765,19177.33,0.195,0.92,-0.338,0.033,0.054,-0.068,-0.012,-0.082,-0.011,0.524,-1.169,2.011
2024-10-23 21:54:13.774,19177.34,0.195,0.921,-0.338,0.026,0.029,-0.057,-0.053,-0.05,-0.022,0.523,-1.17,2.011
2024-10-23 21:54:13.784,19177.35,0.195,0.921,-0.337,0.026,0.003,-0.053,-0.125,-0.038,0.005,0.524,-1.17,2.012
2024-10-23 21:54:13.795,19177.36,0.195,0.921,-0.336,0.043,0.003,-0.081,-0.13,0.047,-0.021,0.525,-1.172,2.014
2024-10-23 21:54:13.804,19177.37,0.195,0.922,-0.335,0.038,0.047,-0.053,-0.106,0.099,-0.033,0.527,-1.173,2.015
2024-10-23 21:54:13.814,19177.38,0.195,0.922,-0.334,-0.007,0.003,-0.072,-0.115,0.115,-0.05,0.528,-1.174,2.015
2024-10-23 21:54:13.824,19177.39,0.195,0.923,-0.332,-0.012,-0.01,-0.072,-0.14,0.1,-0.045,0.53,-1.175,2.016
2024-10-23 21:54:13.834,19177.4,0.195,0.923,-0.331,-0.013,0.005,-0.055,-0.156,0.066,-0.053,0.532,-1.177,2.017
2024-10-23 21:54:13.844,19177.41,0.194,0.924,-0.329,-0.021,-0.008,-0.036,-0.164,0.049,-0.051,0.533,-1.178,2.017
2024-10-23 21:54:13.854,19177.42,0.194,0.925,-0.328,-0.03,-0.017,-0.026,-0.171,0.037,-0.042,0.535,-1.18,2.019
2024-10-23 21:54:13.864,19177.43,0.194,0.925,-0.326,-0.034,-0.027,-0.023,-0.207,0.024,-0.031,0.536,-1.182,2.02
2024-10-23 21:54:13.874,19177.44,0.194,0.926,-0.324,-0.03,-0.043,-0.008,-0.232,0.03,-0.04,0.539,-1.184,2.023
2024-10-23 21:54:13.884,19177.45,0.193,0.927,-0.322,-0.035,-0.07,0.004,-0.257,0.013,-0.053,0.541,-1.186,2.025
2024-10-23 21:54:13.894,19177.46,0.193,0.928,-0.319,-0.048,-0.1,-0.0,-0.252,-0.004,-0.092,0.543,-1.189,2.027
2024-10-23 21:54:13.904,19177.47,0.192,0.929,-0.317,-0.042,-0.077,0.017,-0.26,0.025,-0.096,0.544,-1.191,2.028
2024-10-23 21:54:13.914,19177.48,0.191,0.93,-0.315,-0.038,-0.036,0.036,-0.277,0.023,-0.087,0.546,-1.194,2.029
2024-10-23 21:54:13.925,19177.49,0.19,0.931,-0.312,-0.036,-0.046,0.037,-0.289,-0.031,-0.115,0.547,-1.197,2.031
2024-10-23 21:54:13.934,19177.5,0.189,0.932,-0.31,-0.018,-0.073,0.018,-0.208,-0.068,-0.132,0.547,-1.2,2.032
2024-10-23 21:54:13.944,19177.509,0.187,0.933,-0.309,0.002,-0.032,0.006,-0.073,-0.043,-0.144,0.545,-1.202,2.03
2024-10-23 21:54:13.954,19177.519,0.186,0.933,-0.308,0.005,0.036,-0.006,-0.056,-0.025,-0.096,0.543,-1.203,2.028
2024-10-23 21:54:13.964,19177.529,0.185,0.933,-0.308,-0.003,0.046,-0.015,-0.01,-0.07,-0.12,0.541,-1.203,2.026
2024-10-23 21:54:13.974,19177.539,0.184,0.934,-0.307,0.018,0.015,-0.038,-0.273,-0.024,-0.11,0.54,-1.205,2.026
2024-10-23 21:54:13.984,19177.549,0.183,0.935,-0.304,0.029,0.036,-0.034,-0.215,-0.039,-0.101,0.54,-1.208,2.026
2024-10-23 21:54:13.994,19177.559,0.181,0.936,-0.302,0.015,0.013,-0.019,-0.29,-0.065,-0.093,0.541,-1.211,2.028
2024-10-23 21:54:14.004,19177.569,0.181,0.937,-0.3,0.028,-0.043,-0.057,-0.26,-0.034,-0.066,0.542,-1.213,2.03
2024-10-23 21:54:14.014,19177.579,0.18,0.938,-0.297,0.037,0.048,-0.025,-0.221,-0.006,-0.04,0.544,-1.216,2.032
2024-10-23 21:54:14.024,19177.589,0.18,0.938,-0.296,0.017,0.044,-0.013,-0.18,-0.008,-0.056,0.546,-1.218,2.034
2024-10-23 21:54:14.034,19177.599,0.179,0.939,-0.294,0.019,0.033,-0.037,-0.157,-0.014,-0.049,0.547,-1.219,2.035
2024-10-23 21:54:14.044,19177.609,0.179,0.939,-0.293,0.028,0.039,-0.037,-0.149,-0.01,-0.052,0.548,-1.221,2.036
2024-10-23 21:54:14.054,19177.619,0.178,0.94,-0.291,0.023,0.031,-0.037,-0.108,0.002,-0.058,0.548,-1.222,2.037
2024-10-23 21:54:14.063,19177.629,0.177,0.94,-0.291,0.016,0.018,-0.022,-0.072,0.013,-0.065,0.548,-1.223,2.037
2024-10-23 21:54:14.073,19177.639,0.177,0.941,-0.29,0.009,0.031,-0.029,-0.055,0.023,-0.07,0.548,-1.224,2.036
2024-10-23 21:54:14.084,19177.649,0.176,0.941,-0.289,-0.001,0.043,-0.026,-0.095,0.05,-0.061,0.548,-1.225,2.035
2024-10-23 21:54:14.094,19177.659,0.176,0.941,-0.288,-0.012,0.02,-0.016,-0.194,0.055,-0.047,0.549,-1.226,2.036
2024-10-23 21:54:14.104,19177.669,0.176,0.942,-0.286,-0.021,-0.03,-0.01,-0.298,0.055,-0.02,0.552,-1.229,2.039
2024-10-23 21:54:14.114,19177.679,0.176,0.943,-0.282,-0.024,-0.068,-0.005,-0.376,0.057,-0.017,0.558,-1.232,2.044
2024-10-23 21:54:14.124,19177.689,0.176,0.944,-0.279,-0.03,-0.068,0.011,-0.394,0.082,-0.013,0.564,-1.235,2.05
2024-10-23 21:54:14.134,19177.699,0.176,0.945,-0.275,-0.042,-0.034,0.024,-0.381,0.106,-0.012,0.57,-1.238,2.056
2024-10-23 21:54:14.144,19177.709,0.176,0.946,-0.271,-0.047,-0.007,0.029,-0.362,0.108,-0.022,0.577,-1.241,2.062
2024-10-23 21:54:14.154,19177.719,0.176,0.947,-0.268,-0.045,-0.005,0.031,-0.354,0.089,-0.035,0.583,-1.245,2.067
2024-10-23 21:54:14.164,19177.729,0.176,0.948,-0.265,-0.037,-0.013,0.031,-0.255,0.061,-0.052,0.588,-1.247,2.071
2024-10-23 21:54:14.175,19177.739,0.176,0.949,-0.262,-0.033,-0.014,0.021,-0.251,0.051,-0.046,0.591,-1.25,2.074
2024-10-23 21:54:14.184,19177.749,0.176,0.949,-0.26,-0.029,-0.003,0.001,-0.146,0.06,-0.019,0.594,-1.252,2.077
2024-10-23 21:54:14.194,19177.759,0.175,0.95,-0.259,-0.026,0.017,0.01,-0.046,0.069,-0.066,0.595,-1.252,2.077
2024-10-23 21:54:14.204,19177.769,0.175,0.95,-0.259,-0.039,0.023,-0.01,-0.041,0.078,-0.039,0.595,-1.253,2.076
2024-10-23 21:54:14.214,19177.779,0.175,0.95,-0.258,-0.034,0.033,-0.002,0.004,0.086,-0.052,0.595,-1.253,2.075
2024-10-23 21:54:14.224,19177.789,0.175,0.95,-0.258,-0.015,-0.008,0.003,0.011,0.093,-0.042,0.594,-1.254,2.074
2024-10-23 21:54:14.233,19177.799,0.174,0.95,-0.258,-0.014,-0.032,-0.009,0.016,0.105,-0.036,0.594,-1.254,2.072
2024-10-23 21:54:14.243,19177.809,0.174,0.95,-0.258,-0.003,-0.0,-0.004,-0.013,0.123,-0.04,0.594,-1.254,2.071
2024-10-23 21:54:14.253,19177.819,0.174,0.95,-0.258,-0.007,-0.0,0.0,-0.067,0.135,-0.045,0.595,-1.255,2.07
2024-10-23 21:54:14.263,19177.829,0.174,0.951,-0.256,-0.011,-0.034,-0.006,-0.129,0.123,-0.054,0.596,-1.256,2.071
2024-10-23 21:54:14.273,19177.839,0.174,0.951,-0.255,-0.003,-0.051,-0.01,-0.142,0.113,-0.059,0.598,-1.257,2.072
2024-10-23 21:54:14.283,19177.849,0.173,0.952,-0.253,0.002,-0.037,-0.007,-0.154,0.125,-0.08,0.6,-1.259,2.072
2024-10-23 21:54:14.293,19177.859,0.173,0.952,-0.251,0.006,-0.011,-0.019,-0.16,0.077,-0.07,0.601,-1.261,2.073
2024-10-23 21:54:14.303,19177.869,0.172,0.953,-0.25,0.001,-0.012,-0.027,-0.192,0.069,-0.035,0.604,-1.263,2.075
2024-10-23 21:54:14.313,19177.879,0.172,0.953,-0.248,0.019,-0.01,0.006,-0.142,0.141,-0.083,0.606,-1.264,2.076
2024-10-23 21:54:14.324,19177.889,0.171,0.954,-0.246,0.016,0.029,0.011,-0.178,0.123,-0.069,0.608,-1.266,2.076
2024-10-23 21:54:14.333,19177.899,0.171,0.955,-0.244,-0.003,0.041,0.003,-0.279,0.097,-0.035,0.612,-1.268,2.079
2024-10-23 21:54:14.343,19177.909,0.171,0.955,-0.241,0.012,0.017,0.026,-0.353,0.089,-0.055,0.617,-1.271,2.084
2024-10-23 21:54:14.353,19177.919,0.171,0.956,-0.237,0.005,0.005,0.022,-0.365,0.083,-0.055,0.623,-1.274,2.09
2024-10-23 21:54:14.363,19177.929,0.171,0.957,-0.234,-0.014,0.022,0.006,-0.361,0.072,-0.033,0.63,-1.277,2.096
2024-10-23 21:54:14.373,19177.939,0.17,0.958,-0.23,-0.009,0.038,0.002,-0.351,0.058,-0.037,0.637,-1.28,2.102
2024-10-23 21:54:14.383,19177.949,0.17,0.959,-0.227,-0.005,0.036,0.004,-0.309,0.049,-0.031,0.643,-1.283,2.108
2024-10-23 21:54:14.393,19177.959,0.17,0.96,-0.224,-0.006,0.032,0.001,-0.256,0.028,-0.018,0.648,-1.285,2.113
2024-10-23 21:54:14.403,19177.969,0.17,0.96,-0.222,0.002,0.03,-0.003,-0.206,0.005,-0.013,0.653,-1.287,2.118
2024-10-23 21:54:14.413,19177.979,0.17,0.96,-0.22,0.008,0.029,-0.003,-0.171,-0.005,-0.003,0.657,-1.289,2.122
2024-10-23 21:54:14.423,19177.989,0.17,0.961,-0.219,0.005,0.025,-0.005,-0.132,-0.012,0.001,0.66,-1.29,2.125
2024-10-23 21:54:14.433,19177.999,0.17,0.961,-0.218,-0.0,0.02,-0.008,-0.084,-0.014,0.004,0.662,-1.291,2.128
2024-10-23 21:54:14.443,19178.009,0.17,0.961,-0.218,-0.0,0.018,-0.009,-0.015,-0.005,0.023,0.663,-1.291,2.129
2024-10-23 21:54:14.453,19178.019,0.17,0.961,-0.218,0.003,0.015,-0.008,0.027,-0.004,0.033,0.664,-1.291,2.129
2024-10-23 21:54:14.463,19178.029,0.17,0.961,-0.218,0.01,0.011,-0.008,0.029,0.006,0.024,0.664,-1.29,2.13
2024-10-23 21:54:14.473,19178.039,0.171,0.961,-0.218,0.008,-0.004,0.004,0.008,0.012,0.018,0.664,-1.29,2.13
2024-10-23 21:54:14.483,19178.049,0.171,0.961,-0.218,-0.003,-0.014,0.015,-0.003,0.009,0.008,0.664,-1.29,2.13
2024-10-23 21:54:14.493,19178.059,0.171,0.961,-0.218,-0.005,-0.015,0.021,-0.016,0.0,0.001,0.665,-1.29,2.13
2024-10-23 21:54:14.503,19178.069,0.171,0.961,-0.218,-0.002,-0.019,0.025,-0.027,-0.006,-0.004,0.665,-1.29,2.131
2024-10-23 21:54:14.513,19178.079,0.171,0.961,-0.218,-0.007,-0.017,0.025,-0.014,-0.003,-0.011,0.665,-1.291,2.131
2024-10-23 21:54:14.523,19178.089,0.171,0.961,-0.218,-0.017,-0.008,0.018,0.006,-0.005,-0.007,0.665,-1.291,2.131
2024-10-23 21:54:14.533,19178.099,0.171,0.961,-0.218,-0.018,-0.005,0.009,0.009,-0.004,-0.012,0.665,-1.291,2.13
2024-10-23 21:54:14.543,19178.108,0.17,0.961,-0.218,-0.012,-0.011,0.008,0.011,-0.012,-0.012,0.664,-1.291,2.13
2024-10-23 21:54:14.553,19178.118,0.17,0.961,-0.218,-0.009,-0.019,0.007,0.025,-0.011,-0.009,0.664,-1.291,2.129
2024-10-23 21:54:14.564,19178.128,0.17,0.961,-0.218,-0.007,-0.019,0.004,0.035,-0.015,-0.004,0.663,-1.29,2.129
2024-10-23 21:54:14.573,19178.138,0.17,0.961,-0.218,-0.002,-0.009,0.004,0.036,-0.015,-0.01,0.662,-1.29,2.128
2024-10-23 21:54:14.583,19178.148,0.17,0.961,-0.219,-0.002,0.001,0.007,0.02,-0.019,-0.018,0.661,-1.29,2.127
2024-10-23 21:54:14.593,19178.158,0.17,0.961,-0.219,-0.009,-0.004,0.009,0.006,-0.023,-0.024,0.66,-1.29,2.126
2024-10-23 21:54:14.603,19178.168,0.169,0.961,-0.219,-0.011,-0.009,0.011,-0.024,-0.018,-0.031,0.659,-1.291,2.125
2024-10-23 21:54:14.613,19178.178,0.169,0.961,-0.218,-0.011,-0.008,0.006,-0.033,-0.025,-0.035,0.659,-1.291,2.125
2024-10-23 21:54:14.623,19178.188,0.169,0.961,-0.218,-0.011,-0.005,-0.002,-0.042,-0.015,-0.035,0.658,-1.292,2.125
2024-10-23 21:54:14.633,19178.198,0.168,0.961,-0.218,-0.009,-0.005,-0.001,-0.033,-0.011,-0.037,0.658,-1.292,2.125
2024-10-23 21:54:14.643,19178.208,0.168,0.962,-0.217,-0.007,-0.01,0.001,-0.023,-0.011,-0.041,0.657,-1.293,2.124
2024-10-23 21:54:14.653,19178.218,0.167,0.962,-0.217,-0.003,-0.019,0.001,-0.026,-0.009,-0.062,0.656,-1.293,2.123
2024-10-23 21:54:14.663,19178.228,0.167,0.962,-0.217,-0.001,-0.017,0.003,-0.012,0.0,-0.055,0.655,-1.294,2.122
2024-10-23 21:54:14.673,19178.238,0.166,0.962,-0.217,-0.005,-0.011,0.008,-0.011,0.001,-0.053,0.654,-1.294,2.121
2024-10-23 21:54:14.683,19178.248,0.166,0.962,-0.217,-0.004,-0.008,0.016,-0.009,0.003,-0.058,0.652,-1.294,2.119
2024-10-23 21:54:14.693,19178.258,0.165,0.962,-0.217,-0.003,-0.004,0.02,-0.017,0.002,-0.064,0.651,-1.295,2.118
2024-10-23 21:54:14.703,19178.268,0.164,0.962,-0.216,-0.008,-0.005,0.019,-0.031,-0.009,-0.055,0.65,-1.295,2.117
2024-10-23 21:54:14.713,19178.278,0.164,0.962,-0.216,-0.006,-0.004,0.018,-0.04,-0.011,-0.053,0.649,-1.296,2.116
2024-10-23 21:54:14.723,19178.288,0.163,0.963,-0.216,-0.005,0.005,0.016,-0.039,-0.014,-0.048,0.648,-1.297,2.115
2024-10-23 21:54:14.733,19178.298,0.163,0.963,-0.215,-0.005,0.013,0.013,-0.043,-0.016,-0.049,0.647,-1.297,2.115
2024-10-23 21:54:14.743,19178.308,0.162,0.963,-0.215,-0.002,0.009,0.014,-0.042,-0.024,-0.047,0.647,-1.298,2.114
2024-10-23 21:54:14.753,19178.318,0.162,0.963,-0.215,0.001,0.009,0.014,-0.034,-0.021,-0.044,0.646,-1.298,2.114
2024-10-23 21:54:14.763,19178.328,0.162,0.963,-0.214,-0.001,0.012,0.01,-0.036,-0.018,-0.038,0.646,-1.299,2.113
2024-10-23 21:54:14.773,19178.338,0.161,0.963,-0.214,-0.003,0.011,0.005,-0.039,-0.012,-0.026,0.646,-1.3,2.113
2024-10-23 21:54:14.783,19178.348,0.161,0.964,-0.214,-0.004,0.005,0.004,-0.028,-0.023,-0.024,0.645,-1.3,2.114
2024-10-23 21:54:14.793,19178.358,0.161,0.964,-0.214,-0.005,-0.003,0.001,-0.014,-0.026,-0.023,0.645,-1.3,2.113
2024-10-23 21:54:14.803,19178.368,0.16,0.964,-0.213,-0.005,0.003,-0.003,0.003,-0.021,-0.015,0.644,-1.301,2.113
2024-10-23 21:54:14.812,19178.378,0.16,0.964,-0.214,-0.01,0.017,-0.004,0.017,-0.018,-0.006,0.644,-1.301,2.112
2024-10-23 21:54:14.823,19178.388,0.16,0.964,-0.214,-0.012,0.016,-0.009,0.006,-0.02,0.003,0.643,-1.3,2.112
2024-10-23 21:54:14.833,19178.398,0.16,0.964,-0.214,-0.009,0.008,-0.011,0.007,-0.019,0.005,0.643,-1.3,2.112
2024-10-23 21:54:14.843,19178.408,0.16,0.964,-0.214,-0.008,0.008,-0.009,0.017,-0.014,0.008,0.643,-1.3,2.112
2024-10-23 21:54:14.852,19178.418,0.16,0.964,-0.214,-0.01,0.009,-0.01,0.036,-0.008,0.014,0.643,-1.3,2.112
2024-10-23 21:54:14.863,19178.428,0.16,0.963,-0.214,-0.009,0.014,-0.009,0.06,-0.001,0.019,0.642,-1.3,2.111
2024-10-23 21:54:14.872,19178.438,0.161,0.963,-0.215,-0.01,0.016,-0.007,0.062,0.011,0.027,0.641,-1.299,2.111
2024-10-23 21:54:14.883,19178.448,0.161,0.963,-0.216,-0.011,0.022,-0.002,0.064,0.016,0.029,0.641,-1.298,2.11
2024-10-23 21:54:14.892,19178.458,0.161,0.963,-0.216,-0.01,0.02,0.001,0.075,0.016,0.034,0.64,-1.298,2.109
2024-10-23 21:54:14.902,19178.468,0.162,0.963,-0.217,-0.007,0.011,0.001,0.055,0.017,0.044,0.64,-1.297,2.109
2024-10-23 21:54:14.912,19178.478,0.162,0.963,-0.217,-0.003,0.013,0.006,0.03,0.018,0.043,0.64,-1.296,2.109
2024-10-23 21:54:14.922,19178.488,0.162,0.962,-0.217,-0.008,0.011,0.015,0.007,0.018,0.04,0.641,-1.296,2.11
2024-10-23 21:54:14.932,19178.498,0.163,0.962,-0.217,-0.011,-0.004,0.012,-0.001,0.006,0.042,0.642,-1.296,2.111
2024-10-23 21:54:14.943,19178.508,0.163,0.962,-0.217,-0.007,-0.018,0.01,0.011,-0.006,0.039,0.643,-1.296,2.112
2024-10-23 21:54:14.952,19178.518,0.163,0.962,-0.218,-0.004,-0.016,0.009,0.054,-0.011,0.044,0.643,-1.295,2.112
2024-10-23 21:54:14.962,19178.528,0.164,0.962,-0.218,-0.006,-0.002,0.003,0.084,-0.007,0.05,0.643,-1.294,2.112
2024-10-23 21:54:14.972,19178.538,0.164,0.962,-0.219,-0.011,0.011,-0.001,0.087,-0.002,0.05,0.642,-1.293,2.111
2024-10-23 21:54:14.982,19178.548,0.165,0.961,-0.22,-0.015,0.016,-0.001,0.085,-0.002,0.053,0.642,-1.292,2.111
2024-10-23 21:54:14.993,19178.558,0.165,0.961,-0.221,-0.014,0.013,0.0,0.061,0.0,0.051,0.642,-1.291,2.11
2024-10-23 21:54:15.002,19178.568,0.166,0.961,-0.221,-0.006,0.002,0.001,0.04,0.002,0.047,0.642,-1.291,2.111
2024-10-23 21:54:15.012,19178.578,0.166,0.961,-0.221,-0.003,-0.006,0.003,0.023,0.015,0.041,0.643,-1.29,2.111
2024-10-23 21:54:15.022,19178.588,0.166,0.961,-0.222,-0.005,-0.008,0.004,0.012,0.019,0.043,0.644,-1.29,2.112
2024-10-23 21:54:15.032,19178.598,0.167,0.961,-0.222,-0.006,-0.005,0.004,0.004,0.025,0.036,0.645,-1.29,2.113
2024-10-23 21:54:15.042,19178.608,0.167,0.961,-0.222,-0.007,-0.008,0.01,-0.004,0.022,0.03,0.646,-1.29,2.114
2024-10-23 21:54:15.052,19178.618,0.167,0.961,-0.221,-0.007,-0.01,0.008,-0.0,0.024,0.024,0.647,-1.29,2.115
2024-10-23 21:54:15.062,19178.628,0.168,0.961,-0.222,-0.008,-0.004,0.004,0.019,0.023,0.031,0.648,-1.289,2.115
2024-10-23 21:54:15.072,19178.638,0.168,0.961,-0.222,-0.009,0.002,0.0,0.011,0.026,0.031,0.648,-1.289,2.116
2024-10-23 21:54:15.082,19178.648,0.168,0.961,-0.222,-0.013,0.007,-0.002,0.007,0.024,0.035,0.649,-1.289,2.116
2024-10-23 21:54:15.092,19178.658,0.169,0.96,-0.222,-0.013,0.007,-0.003,0.0,0.021,0.04,0.65,-1.289,2.117
2024-10-23 21:54:15.102,19178.668,0.169,0.96,-0.222,-0.009,0.003,-0.003,0.002,0.019,0.037,0.651,-1.288,2.118
2024-10-23 21:54:15.112,19178.678,0.169,0.96,-0.222,-0.006,-0.001,-0.001,0.005,0.018,0.033,0.653,-1.288,2.119
2024-10-23 21:54:15.122,19178.688,0.17,0.96,-0.222,-0.002,-0.009,-0.001,0.017,0.01,0.026,0.653,-1.288,2.12
2024-10-23 21:54:15.132,19178.698,0.17,0.96,-0.222,0.002,-0.008,-0.0,0.026,0.014,0.028,0.654,-1.288,2.12
2024-10-23 21:54:15.142,19178.707,0.17,0.96,-0.222,-0.001,-0.004,0.0,0.03,0.017,0.027,0.654,-1.287,2.12
2024-10-23 21:54:15.152,19178.717,0.17,0.96,-0.222,-0.004,-0.004,-0.002,0.022,0.016,0.022,0.654,-1.287,2.12
2024-10-23 21:54:15.162,19178.727,0.171,0.96,-0.222,-0.005,-0.007,-0.002,0.018,0.024,0.018,0.654,-1.287,2.12
2024-10-23 21:54:15.172,19178.737,0.171,0.96,-0.223,-0.009,-0.005,0.003,0.013,0.029,0.012,0.654,-1.287,2.12
2024-10-23 21:54:15.182,19178.747,0.171,0.96,-0.222,-0.014,-0.002,0.007,-0.006,0.031,0.01,0.655,-1.286,2.12
2024-10-23 21:54:15.192,19178.757,0.171,0.96,-0.222,-0.013,0.001,0.014,-0.017,0.038,-0.002,0.655,-1.287,2.121
2024-10-23 21:54:15.202,19178.767,0.171,0.96,-0.222,-0.013,-0.007,0.013,-0.021,0.037,-0.005,0.656,-1.287,2.121
2024-10-23 21:54:15.212,19178.777,0.171,0.96,-0.222,-0.015,-0.018,0.007,-0.012,0.031,0.002,0.657,-1.287,2.121
2024-10-23 21:54:15.222,19178.787,0.171,0.96,-0.222,-0.009,-0.019,0.004,-0.008,0.03,-0.006,0.657,-1.287,2.121
2024-10-23 21:54:15.232,19178.797,0.171,0.96,-0.222,-0.003,-0.013,0.004,0.005,0.043,-0.0,0.657,-1.287,2.121
2024-10-23 21:54:15.242,19178.807,0.171,0.96,-0.222,-0.006,-0.005,0.005,0.006,0.043,-0.007,0.658,-1.287,2.121
2024-10-23 21:54:15.252,19178.817,0.171,0.96,-0.222,-0.006,-0.002,0.001,-0.011,0.045,-0.004,0.658,-1.287,2.121
2024-10-23 21:54:15.262,19178.827,0.171,0.96,-0.221,-0.004,0.0,0.0,-0.032,0.039,0.005,0.659,-1.287,2.121
2024-10-23 21:54:15.272,19178.837,0.171,0.96,-0.221,-0.001,0.001,0.002,-0.042,0.031,0.003,0.66,-1.288,2.122
2024-10-23 21:54:15.282,19178.847,0.171,0.96,-0.22,0.001,-0.005,0.0,-0.043,0.025,0.003,0.661,-1.288,2.123
2024-10-23 21:54:15.292,19178.857,0.171,0.96,-0.22,0.0,-0.011,-0.002,-0.04,0.026,-0.001,0.662,-1.288,2.124
2024-10-23 21:54:15.302,19178.867,0.171,0.96,-0.219,-0.002,-0.003,0.001,-0.024,0.03,0.001,0.663,-1.289,2.125
2024-10-23 21:54:15.311,19178.877,0.172,0.96,-0.219,-0.004,0.006,0.005,-0.013,0.036,0.007,0.664,-1.289,2.125
2024-10-23 21:54:15.321,19178.887,0.172,0.96,-0.219,-0.004,0.005,0.008,-0.017,0.03,0.018,0.665,-1.289,2.126
2024-10-23 21:54:15.332,19178.897,0.172,0.961,-0.219,-0.003,-0.001,0.006,-0.026,0.024,0.018,0.666,-1.289,2.127
2024-10-23 21:54:15.341,19178.907,0.172,0.961,-0.219,-0.005,0.002,0.006,-0.019,0.025,0.019,0.667,-1.289,2.128
2024-10-23 21:54:15.351,19178.917,0.172,0.961,-0.218,-0.01,0.005,0.003,-0.009,0.025,0.025,0.668,-1.289,2.129
2024-10-23 21:54:15.362,19178.927,0.173,0.96,-0.218,-0.012,0.011,0.003,-0.0,0.03,0.028,0.669,-1.289,2.129
2024-10-23 21:54:15.372,19178.937,0.173,0.96,-0.218,-0.009,0.016,0.005,-0.013,0.037,0.028,0.671,-1.289,2.13
2024-10-23 21:54:15.382,19178.947,0.173,0.96,-0.218,-0.009,0.008,0.003,-0.038,0.046,0.028,0.672,-1.289,2.132
2024-10-23 21:54:15.392,19178.957,0.174,0.961,-0.217,-0.01,-0.002,-0.0,-0.096,0.077,0.01,0.675,-1.289,2.134
2024-10-23 21:54:15.402,19178.967,0.174,0.961,-0.216,-0.012,-0.003,-0.005,-0.174,0.129,-0.004,0.679,-1.29,2.137
2024-10-23 21:54:15.411,19178.977,0.174,0.961,-0.213,-0.021,-0.019,-0.01,-0.304,0.159,-0.013,0.685,-1.292,2.142
2024-10-23 21:54:15.421,19178.987,0.174,0.962,-0.209,-0.03,-0.054,-0.03,-0.423,0.149,-0.014,0.694,-1.295,2.15
2024-10-23 21:54:15.431,19178.997,0.175,0.963,-0.205,-0.017,-0.071,-0.043,-0.511,0.142,0.008,0.706,-1.298,2.161
2024-10-23 21:54:15.441,19179.007,0.175,0.964,-0.2,0.0,-0.046,-0.035,-0.499,0.16,-0.021,0.72,-1.302,2.173
2024-10-23 21:54:15.451,19179.017,0.175,0.965,-0.195,-0.001,0.019,-0.036,-0.392,0.23,-0.037,0.731,-1.306,2.183
2024-10-23 21:54:15.461,19179.027,0.175,0.966,-0.191,-0.022,0.044,-0.031,-0.336,0.242,-0.013,0.742,-1.309,2.191
2024-10-23 21:54:15.471,19179.037,0.175,0.966,-0.188,-0.038,0.023,-0.061,-0.312,0.187,-0.022,0.752,-1.311,2.199
2024-10-23 21:54:15.481,19179.047,0.175,0.967,-0.184,-0.017,0.013,-0.066,-0.305,0.193,-0.015,0.761,-1.314,2.207
2024-10-23 21:54:15.492,19179.057,0.176,0.968,-0.181,-0.012,0.011,-0.042,-0.303,0.212,0.011,0.77,-1.316,2.215
2024-10-23 21:54:15.501,19179.067,0.176,0.968,-0.178,-0.026,0.016,-0.02,-0.336,0.184,0.004,0.781,-1.318,2.224
2024-10-23 21:54:15.511,19179.077,0.176,0.969,-0.174,-0.019,0.007,0.005,-0.332,0.169,-0.007,0.792,-1.32,2.233
2024-10-23 21:54:15.521,19179.087,0.177,0.969,-0.171,-0.009,-0.013,0.022,-0.35,0.154,0.004,0.803,-1.323,2.243
2024-10-23 21:54:15.531,19179.097,0.177,0.97,-0.167,-0.003,-0.03,0.032,-0.328,0.125,-0.016,0.814,-1.325,2.253
2024-10-23 21:54:15.541,19179.107,0.177,0.97,-0.164,-0.002,-0.032,0.04,-0.276,0.11,-0.027,0.824,-1.327,2.262
2024-10-23 21:54:15.551,19179.117,0.177,0.971,-0.161,-0.005,-0.038,0.033,-0.272,0.082,-0.02,0.832,-1.329,2.269
2024-10-23 21:54:15.561,19179.127,0.177,0.971,-0.159,0.003,-0.031,0.039,-0.229,0.048,-0.036,0.84,-1.331,2.276
2024-10-23 21:54:15.571,19179.137,0.176,0.972,-0.157,0.01,-0.031,0.052,-0.157,0.024,-0.05,0.845,-1.333,2.281
2024-10-23 21:54:15.582,19179.147,0.176,0.972,-0.155,0.012,-0.041,0.054,-0.069,-0.003,-0.039,0.847,-1.334,2.284
2024-10-23 21:54:15.591,19179.157,0.176,0.972,-0.155,0.024,-0.025,0.06,0.001,-0.028,-0.024,0.847,-1.334,2.284
2024-10-23 21:54:15.600,19179.167,0.175,0.972,-0.156,0.035,-0.004,0.061,0.076,-0.043,-0.016,0.845,-1.334,2.282
2024-10-23 21:54:15.611,19179.177,0.175,0.972,-0.157,0.034,0.022,0.055,0.152,-0.044,-0.007,0.841,-1.334,2.278
2024-10-23 21:54:15.621,19179.187,0.175,0.972,-0.159,0.023,0.049,0.049,0.222,-0.045,0.013,0.835,-1.332,2.272
2024-10-23 21:54:15.631,19179.197,0.175,0.971,-0.161,0.007,0.053,0.039,0.227,-0.057,0.039,0.828,-1.331,2.266
2024-10-23 21:54:15.641,19179.207,0.176,0.971,-0.163,-0.001,0.044,0.025,0.183,-0.066,0.048,0.822,-1.329,2.261
2024-10-23 21:54:15.651,19179.217,0.176,0.971,-0.165,-0.003,0.049,0.013,0.147,-0.059,0.058,0.819,-1.327,2.257
2024-10-23 21:54:15.661,19179.227,0.177,0.97,-0.166,-0.006,0.042,0.001,0.062,-0.038,0.077,0.817,-1.326,2.256
2024-10-23 21:54:15.671,19179.237,0.177,0.97,-0.166,-0.011,0.016,-0.004,0.007,-0.034,0.072,0.818,-1.325,2.258
2024-10-23 21:54:15.681,19179.247,0.178,0.97,-0.166,-0.011,0.002,-0.017,-0.01,-0.04,0.071,0.82,-1.325,2.26
2024-10-23 21:54:15.691,19179.257,0.179,0.97,-0.166,-0.006,-0.005,-0.022,-0.031,-0.027,0.085,0.823,-1.324,2.263
2024-10-23 21:54:15.701,19179.267,0.179,0.97,-0.166,-0.004,0.006,-0.015,-0.027,-0.002,0.08,0.826,-1.324,2.267
2024-10-23 21:54:15.711,19179.277,0.18,0.97,-0.165,-0.015,0.009,-0.004,-0.013,0.015,0.074,0.829,-1.324,2.269
2024-10-23 21:54:15.721,19179.287,0.181,0.97,-0.165,-0.024,0.002,-0.01,0.002,0.027,0.069,0.831,-1.323,2.272
2024-10-23 21:54:15.731,19179.297,0.182,0.969,-0.165,-0.019,0.001,-0.02,0.011,0.027,0.061,0.833,-1.323,2.273
2024-10-23 21:54:15.741,19179.306,0.182,0.969,-0.165,-0.011,-0.004,-0.021,0.021,0.026,0.056,0.834,-1.322,2.274
2024-10-23 21:54:15.751,19179.316,0.183,0.969,-0.165,-0.009,-0.014,-0.017,0.025,0.024,0.051,0.835,-1.322,2.275
2024-10-23 21:54:15.761,19179.326,0.183,0.969,-0.166,-0.008,-0.013,-0.007,0.027,0.029,0.053,0.836,-1.321,2.276
2024-10-23 21:54:15.771,19179.336,0.184,0.969,-0.166,-0.004,-0.002,0.011,0.024,0.016,0.04,0.836,-1.321,2.276
2024-10-23 21:54:15.781,19179.346,0.184,0.969,-0.166,-0.001,-0.004,0.028,0.023,0.027,0.057,0.837,-1.32,2.276
2024-10-23 21:54:15.791,19179.356,0.185,0.969,-0.166,0.003,-0.016,0.04,-0.008,0.001,0.034,0.838,-1.32,2.277
2024-10-23 21:54:15.801,19179.366,0.185,0.969,-0.166,0.02,-0.027,0.033,-0.018,0.003,0.03,0.839,-1.32,2.278
2024-10-23 21:54:15.811,19179.376,0.185,0.969,-0.166,0.003,-0.016,0.029,-0.035,0.025,0.026,0.84,-1.32,2.279
2024-10-23 21:54:15.821,19179.386,0.185,0.969,-0.166,-0.027,-0.007,0.008,-0.024,0.051,0.006,0.841,-1.32,2.28
2024-10-23 21:54:15.831,19179.396,0.185,0.969,-0.165,-0.051,-0.008,-0.009,-0.043,0.061,0.022,0.843,-1.32,2.281
2024-10-23 21:54:15.841,19179.406,0.186,0.969,-0.165,-0.053,-0.018,-0.025,-0.069,0.035,0.006,0.845,-1.32,2.283
2024-10-23 21:54:15.851,19179.416,0.186,0.969,-0.164,-0.026,-0.022,-0.018,-0.071,0.032,0.03,0.848,-1.32,2.286
2024-10-23 21:54:15.861,19179.426,0.186,0.969,-0.163,-0.011,-0.018,0.0,-0.077,0.024,0.029,0.852,-1.321,2.289
2024-10-23 21:54:15.871,19179.436,0.186,0.969,-0.162,0.021,-0.012,0.022,-0.066,0.02,-0.009,0.854,-1.321,2.292
2024-10-23 21:54:15.881,19179.446,0.186,0.969,-0.162,0.031,0.004,0.032,-0.026,0.071,-0.002,0.856,-1.322,2.293
2024-10-23 21:54:15.891,19179.456,0.187,0.969,-0.161,-0.011,0.025,0.024,-0.005,0.103,0.007,0.858,-1.322,2.294
2024-10-23 21:54:15.901,19179.466,0.187,0.969,-0.161,-0.037,0.008,-0.008,-0.048,0.088,0.001,0.859,-1.322,2.295
2024-10-23 21:54:15.911,19179.476,0.187,0.969,-0.16,-0.022,-0.014,-0.032,-0.071,0.064,-0.005,0.862,-1.322,2.296
2024-10-23 21:54:15.921,19179.486,0.187,0.969,-0.159,0.003,-0.023,-0.027,-0.063,0.058,-0.003,0.864,-1.323,2.298
2024-10-23 21:54:15.931,19179.496,0.187,0.969,-0.159,0.008,-0.023,-0.015,-0.04,0.058,-0.003,0.865,-1.323,2.299
2024-10-23 21:54:15.941,19179.506,0.187,0.97,-0.159,0.005,0.008,0.003,-0.021,0.074,0.02,0.867,-1.323,2.3
2024-10-23 21:54:15.950,19179.516,0.187,0.97,-0.158,0.004,0.031,0.016,-0.039,0.073,0.024,0.869,-1.323,2.301
2024-10-23 21:54:15.961,19179.526,0.188,0.97,-0.157,0.005,0.016,0.015,-0.06,0.056,0.018,0.872,-1.323,2.304
2024-10-23 21:54:15.971,19179.536,0.188,0.97,-0.157,0.003,0.002,0.01,-0.06,0.073,0.024,0.875,-1.324,2.306
2024-10-23 21:54:15.980,19179.546,0.188,0.97,-0.156,-0.008,-0.004,0.008,-0.059,0.074,0.026,0.878,-1.324,2.309
2024-10-23 21:54:15.990,19179.556,0.188,0.97,-0.155,-0.013,0.003,0.0,-0.045,0.059,0.005,0.881,-1.324,2.31
2024-10-23 21:54:16.000,19179.566,0.188,0.97,-0.155,-0.009,0.01,-0.002,-0.048,0.051,0.013,0.882,-1.324,2.311
2024-10-23 21:54:16.010,19179.576,0.189,0.97,-0.155,-0.01,0.007,-0.004,-0.037,0.044,-0.004,0.884,-1.324,2.313
2024-10-23 21:54:16.021,19179.586,0.189,0.97,-0.154,-0.015,0.006,-0.002,-0.02,0.038,-0.005,0.885,-1.325,2.314
2024-10-23 21:54:16.031,19179.596,0.189,0.97,-0.154,-0.018,0.004,-0.009,-0.041,0.03,-0.0,0.887,-1.325,2.315
2024-10-23 21:54:16.041,19179.606,0.189,0.97,-0.153,-0.009,0.007,-0.003,-0.035,0.028,-0.028,0.888,-1.325,2.316
2024-10-23 21:54:16.051,19179.616,0.188,0.97,-0.153,-0.007,-0.001,0.001,-0.097,0.01,-0.026,0.889,-1.326,2.317
2024-10-23 21:54:16.061,19179.626,0.188,0.97,-0.152,-0.009,-0.028,0.006,-0.146,0.005,-0.027,0.892,-1.327,2.32
2024-10-23 21:54:16.070,19179.636,0.188,0.971,-0.15,-0.001,-0.041,0.023,-0.144,0.001,-0.033,0.896,-1.328,2.324
2024-10-23 21:54:16.080,19179.646,0.187,0.971,-0.149,0.004,-0.051,0.023,-0.097,-0.015,-0.032,0.899,-1.329,2.327
2024-10-23 21:54:16.090,19179.656,0.187,0.971,-0.148,0.008,-0.035,0.013,-0.048,-0.024,-0.035,0.9,-1.33,2.328
2024-10-23 21:54:16.101,19179.666,0.186,0.971,-0.148,0.006,-0.011,0.01,0.012,-0.02,-0.042,0.899,-1.33,2.328
2024-10-23 21:54:16.110,19179.676,0.186,0.971,-0.148,-0.003,-0.004,0.007,0.01,-0.027,-0.038,0.897,-1.331,2.326
2024-10-23 21:54:16.121,19179.686,0.186,0.971,-0.149,-0.011,-0.005,0.001,0.008,-0.037,-0.044,0.896,-1.331,2.325
2024-10-23 21:54:16.131,19179.696,0.185,0.971,-0.149,-0.008,-0.002,0.002,-0.009,-0.042,-0.04,0.894,-1.331,2.324
2024-10-23 21:54:16.140,19179.706,0.185,0.972,-0.149,-0.008,-0.003,-0.001,-0.005,-0.041,-0.041,0.893,-1.332,2.323
2024-10-23 21:54:16.150,19179.716,0.184,0.972,-0.149,-0.005,0.001,-0.003,-0.023,-0.035,-0.033,0.892,-1.332,2.322
2024-10-23 21:54:16.161,19179.726,0.184,0.972,-0.148,-0.002,0.003,-0.001,-0.022,-0.038,-0.036,0.892,-1.332,2.323
2024-10-23 21:54:16.170,19179.736,0.184,0.972,-0.148,0.006,-0.001,0.004,-0.024,-0.025,-0.017,0.892,-1.333,2.323
2024-10-23 21:54:16.180,19179.746,0.183,0.972,-0.148,0.006,-0.005,0.003,-0.01,-0.03,-0.014,0.892,-1.333,2.323
2024-10-23 21:54:16.190,19179.756,0.183,0.972,-0.148,0.009,0.002,-0.002,-0.011,-0.034,-0.006,0.892,-1.333,2.323
2024-10-23 21:54:16.200,19179.766,0.183,0.972,-0.148,0.002,0.011,-0.005,-0.019,-0.038,-0.003,0.892,-1.333,2.323
2024-10-23 21:54:16.210,19179.776,0.183,0.972,-0.148,-0.005,0.019,-0.002,-0.022,-0.051,0.004,0.892,-1.333,2.324
2024-10-23 21:54:16.220,19179.786,0.183,0.972,-0.148,-0.005,0.022,0.006,-0.009,-0.057,0.007,0.892,-1.333,2.325
2024-10-23 21:54:16.230,19179.796,0.183,0.972,-0.148,-0.002,0.019,0.009,0.01,-0.054,0.005,0.892,-1.333,2.325
2024-10-23 21:54:16.240,19179.806,0.183,0.972,-0.148,-0.005,0.018,0.004,0.038,-0.046,0.005,0.89,-1.333,2.324
2024-10-23 21:54:16.250,19179.816,0.183,0.972,-0.149,-0.013,0.02,0.001,0.07,-0.033,0.002,0.889,-1.333,2.323
2024-10-23 21:54:16.260,19179.826,0.183,0.972,-0.15,-0.016,0.022,-0.003,0.09,-0.025,0.014,0.886,-1.332,2.32
2024-10-23 21:54:16.270,19179.836,0.183,0.971,-0.15,-0.012,0.021,-0.007,0.084,-0.014,0.026,0.884,-1.331,2.318
2024-10-23 21:54:16.280,19179.846,0.184,0.971,-0.151,-0.01,0.013,-0.003,0.066,-0.024,0.033,0.882,-1.331,2.316
2024-10-23 21:54:16.290,19179.856,0.184,0.971,-0.152,-0.007,0.005,-0.0,0.06,-0.027,0.033,0.88,-1.33,2.315
2024-10-23 21:54:16.300,19179.866,0.184,0.971,-0.152,-0.005,0.004,0.003,0.066,-0.025,0.041,0.879,-1.329,2.314
2024-10-23 21:54:16.310,19179.876,0.184,0.971,-0.153,-0.006,0.006,0.003,0.074,-0.035,0.044,0.878,-1.329,2.313
2024-10-23 21:54:16.320,19179.886,0.185,0.971,-0.154,-0.002,0.005,0.005,0.075,-0.037,0.037,0.876,-1.328,2.312
2024-10-23 21:54:16.330,19179.896,0.185,0.97,-0.155,-0.0,-0.002,0.007,0.084,-0.035,0.036,0.874,-1.327,2.31
2024-10-23 21:54:16.340,19179.905,0.185,0.97,-0.156,-0.001,-0.002,0.006,0.102,-0.032,0.027,0.872,-1.326,2.308
2024-10-23 21:54:16.351,19179.915,0.185,0.97,-0.157,-0.005,-0.001,0.006,0.115,-0.02,0.027,0.869,-1.326,2.305
2024-10-23 21:54:16.360,19179.925,0.186,0.97,-0.158,-0.007,0.0,0.007,0.129,-0.024,0.026,0.866,-1.325,2.302
2024-10-23 21:54:16.370,19179.935,0.186,0.97,-0.159,-0.005,-0.001,0.009,0.128,-0.023,0.025,0.862,-1.324,2.299
2024-10-23 21:54:16.380,19179.945,0.186,0.969,-0.16,-0.004,-0.009,0.008,0.123,-0.029,0.017,0.859,-1.323,2.296
2024-10-23 21:54:16.390,19179.955,0.186,0.969,-0.162,-0.006,-0.011,0.01,0.126,-0.029,0.011,0.855,-1.322,2.292
2024-10-23 21:54:16.400,19179.965,0.186,0.969,-0.163,-0.009,-0.007,0.011,0.115,-0.026,0.006,0.852,-1.321,2.289
2024-10-23 21:54:16.410,19179.975,0.186,0.969,-0.164,-0.011,-0.007,0.01,0.093,-0.025,0.004,0.849,-1.32,2.286
2024-10-23 21:54:16.420,19179.985,0.186,0.969,-0.165,-0.01,-0.011,0.01,0.063,-0.023,-0.002,0.846,-1.32,2.284
2024-10-23 21:54:16.430,19179.995,0.186,0.969,-0.165,-0.007,-0.016,0.011,0.036,-0.025,-0.006,0.844,-1.32,2.282
2024-10-23 21:54:16.440,19180.005,0.186,0.969,-0.165,-0.008,-0.015,0.01,0.018,-0.022,-0.005,0.843,-1.319,2.281
2024-10-23 21:54:16.450,19180.015,0.186,0.969,-0.166,-0.009,-0.011,0.004,0.014,-0.021,-0.005,0.843,-1.319,2.281
2024-10-23 21:54:16.460,19180.025,0.186,0.969,-0.166,-0.007,-0.004,0.001,0.008,-0.014,-0.003,0.842,-1.319,2.28
2024-10-23 21:54:16.469,19180.035,0.186,0.969,-0.166,-0.003,0.0,-0.001,-0.006,-0.012,-0.002,0.842,-1.319,2.28
2024-10-23 21:54:16.480,19180.045,0.185,0.969,-0.166,-0.0,-0.001,-0.0,-0.011,-0.019,-0.013,0.842,-1.32,2.281
2024-10-23 21:54:16.490,19180.055,0.185,0.969,-0.165,-0.001,-0.009,-0.002,-0.016,-0.013,-0.014,0.842,-1.32,2.281
2024-10-23 21:54:16.500,19180.065,0.185,0.969,-0.165,-0.0,-0.011,-0.004,-0.008,-0.011,-0.012,0.842,-1.32,2.281
2024-10-23 21:54:16.510,19180.075,0.185,0.969,-0.165,-0.004,-0.005,-0.003,0.002,-0.001,-0.007,0.842,-1.32,2.281
2024-10-23 21:54:16.520,19180.085,0.185,0.969,-0.165,-0.005,-0.01,-0.004,-0.003,-0.013,-0.003,0.842,-1.32,2.281
2024-10-23 21:54:16.529,19180.095,0.185,0.969,-0.165,-0.002,-0.016,-0.004,-0.003,-0.017,-0.008,0.841,-1.32,2.28
2024-10-23 21:54:16.539,19180.105,0.185,0.969,-0.165,-0.001,-0.004,0.005,0.012,-0.011,-0.004,0.841,-1.32,2.28
2024-10-23 21:54:16.549,19180.115,0.185,0.969,-0.165,-0.007,0.01,0.006,0.016,-0.009,-0.003,0.84,-1.32,2.28
2024-10-23 21:54:16.560,19180.125,0.185,0.969,-0.166,-0.008,0.006,0.006,0.007,-0.018,-0.005,0.84,-1.32,2.279
2024-10-23 21:54:16.569,19180.135,0.185,0.969,-0.166,-0.005,-0.003,0.004,-0.001,-0.019,-0.005,0.839,-1.32,2.279
2024-10-23 21:54:16.580,19180.145,0.184,0.969,-0.166,-0.005,-0.007,0.004,0.015,-0.012,-0.004,0.839,-1.32,2.278
2024-10-23 21:54:16.590,19180.155,0.184,0.969,-0.166,-0.006,-0.003,0.001,0.02,-0.014,-0.007,0.838,-1.32,2.278
2024-10-23 21:54:16.600,19180.165,0.184,0.969,-0.166,-0.004,0.003,-0.0,0.022,-0.011,-0.011,0.837,-1.32,2.277
2024-10-23 21:54:16.610,19180.175,0.184,0.969,-0.166,-0.006,0.004,0.004,0.008,-0.004,-0.01,0.836,-1.32,2.276
2024-10-23 21:54:16.619,19180.185,0.184,0.969,-0.166,-0.007,-0.002,0.003,0.008,-0.004,-0.012,0.835,-1.32,2.275
2024-10-23 21:54:16.630,19180.195,0.184,0.969,-0.167,-0.005,-0.003,0.005,0.008,-0.009,-0.013,0.835,-1.32,2.275
2024-10-23 21:54:16.639,19180.205,0.184,0.969,-0.167,-0.0,-0.002,0.005,0.007,-0.006,-0.009,0.834,-1.32,2.274
2024-10-23 21:54:16.649,19180.215,0.184,0.969,-0.167,-0.001,-0.002,0.006,0.007,-0.002,-0.006,0.834,-1.32,2.274
2024-10-23 21:54:16.659,19180.225,0.184,0.969,-0.167,-0.002,-0.005,0.006,0.005,-0.006,-0.002,0.834,-1.32,2.274
2024-10-23 21:54:16.670,19180.235,0.184,0.969,-0.167,-0.003,-0.004,0.006,0.003,-0.007,-0.004,0.833,-1.32,2.274
2024-10-23 21:54:16.679,19180.245,0.184,0.969,-0.167,-0.003,-0.001,0.009,-0.003,-0.01,-0.004,0.833,-1.32,2.273
2024-10-23 21:54:16.689,19180.255,0.183,0.969,-0.167,-0.005,-0.003,0.006,-0.009,-0.015,-0.011,0.833,-1.32,2.273
2024-10-23 21:54:16.699,19180.265,0.183,0.969,-0.167,-0.005,-0.005,0.006,-0.006,-0.012,-0.009,0.833,-1.32,2.273
2024-10-23 21:54:16.710,19180.275,0.183,0.969,-0.167,-0.006,-0.004,0.005,-0.0,-0.01,-0.008,0.833,-1.321,2.273
2024-10-23 21:54:16.719,19180.285,0.183,0.969,-0.167,-0.006,-0.002,0.005,0.002,-0.013,-0.017,0.832,-1.321,2.273
2024-10-23 21:54:16.729,19180.295,0.183,0.969,-0.167,-0.005,-0.002,0.004,-0.001,-0.018,-0.023,0.832,-1.321,2.272
2024-10-23 21:54:16.740,19180.305,0.183,0.969,-0.167,-0.003,-0.007,0.002,-0.006,-0.02,-0.027,0.831,-1.321,2.272
2024-10-23 21:54:16.749,19180.315,0.182,0.969,-0.167,-0.005,-0.007,0.0,-0.016,-0.021,-0.022,0.83,-1.321,2.272
2024-10-23 21:54:16.759,19180.325,0.182,0.969,-0.166,-0.004,-0.007,-0.002,-0.011,-0.018,-0.021,0.83,-1.322,2.271
2024-10-23 21:54:16.769,19180.335,0.182,0.969,-0.166,-0.004,-0.011,-0.006,-0.01,-0.011,-0.025,0.83,-1.322,2.271
2024-10-23 21:54:16.779,19180.345,0.182,0.969,-0.166,-0.004,-0.008,-0.008,-0.009,0.001,-0.026,0.829,-1.322,2.271
2024-10-23 21:54:16.789,19180.355,0.181,0.969,-0.166,-0.003,-0.004,-0.004,-0.002,0.006,-0.028,0.829,-1.322,2.27
2024-10-23 21:54:16.799,19180.365,0.181,0.969,-0.166,-0.003,-0.005,0.004,0.002,0.008,-0.026,0.828,-1.322,2.27
2024-10-23 21:54:16.809,19180.375,0.181,0.969,-0.166,-0.002,-0.002,0.007,0.003,0.0,-0.023,0.827,-1.323,2.269
2024-10-23 21:54:16.819,19180.385,0.181,0.969,-0.166,0.001,0.004,0.007,0.019,-0.003,-0.017,0.826,-1.323,2.268
2024-10-23 21:54:16.829,19180.395,0.18,0.969,-0.167,-0.002,0.006,0.011,0.024,-0.004,-0.007,0.826,-1.323,2.267
2024-10-23 21:54:16.839,19180.405,0.18,0.969,-0.167,-0.007,0.015,0.009,0.021,-0.013,-0.002,0.825,-1.323,2.266
2024-10-23 21:54:16.849,19180.415,0.18,0.969,-0.167,-0.005,0.019,0.008,0.019,-0.014,0.002,0.824,-1.322,2.266
2024-10-23 21:54:16.859,19180.425,0.18,0.969,-0.167,-0.004,0.013,0.007,0.016,-0.009,0.008,0.823,-1.322,2.265
2024-10-23 21:54:16.869,19180.435,0.181,0.969,-0.167,-0.004,0.01,0.005,0.018,-0.009,0.013,0.823,-1.322,2.265
2024-10-23 21:54:16.878,19180.445,0.181,0.969,-0.168,-0.003,0.011,0.005,0.016,-0.008,0.013,0.823,-1.322,2.265
2024-10-23 21:54:16.888,19180.455,0.181,0.969,-0.168,-0.003,0.01,0.004,0.032,-0.014,0.01,0.822,-1.322,2.265
2024-10-23 21:54:16.899,19180.465,0.181,0.969,-0.168,-0.004,0.004,0.003,0.092,-0.029,0.01,0.821,-1.321,2.263
2024-10-23 21:54:16.908,19180.475,0.181,0.969,-0.17,-0.003,0.004,0.001,0.178,-0.038,0.006,0.817,-1.32,2.259
2024-10-23 21:54:16.919,19180.485,0.181,0.968,-0.172,-0.003,0.007,0.0,0.277,-0.048,0.001,0.81,-1.319,2.253
2024-10-23 21:54:16.929,19180.495,0.181,0.968,-0.175,-0.005,0.009,0.006,0.368,-0.06,-0.002,0.801,-1.316,2.244
2024-10-23 21:54:16.939,19180.504,0.18,0.967,-0.179,-0.008,0.008,0.013,0.481,-0.085,-0.009,0.789,-1.314,2.232
2024-10-23 21:54:16.949,19180.514,0.18,0.966,-0.185,-0.005,0.006,0.024,0.6,-0.122,-0.005,0.773,-1.31,2.217
2024-10-23 21:54:16.959,19180.524,0.18,0.965,-0.191,0.001,0.004,0.031,0.672,-0.163,0.0,0.755,-1.305,2.2
2024-10-23 21:54:16.969,19180.534,0.18,0.964,-0.198,0.011,0.007,0.042,0.697,-0.207,0.003,0.737,-1.3,2.183
2024-10-23 21:54:16.979,19180.544,0.179,0.962,-0.205,0.017,0.012,0.062,0.694,-0.248,-0.006,0.718,-1.295,2.165
2024-10-23 21:54:16.990,19180.554,0.178,0.961,-0.212,0.017,0.011,0.072,0.657,-0.238,-0.055,0.699,-1.29,2.149
2024-10-23 21:54:16.999,19180.564,0.177,0.96,-0.218,0.017,0.001,0.076,0.512,-0.171,-0.123,0.682,-1.286,2.133
2024-10-23 21:54:17.009,19180.574,0.176,0.959,-0.222,-0.011,-0.047,0.083,0.28,-0.096,-0.086,0.669,-1.284,2.121
2024-10-23 21:54:17.019,19180.584,0.175,0.959,-0.223,-0.054,-0.125,0.044,-0.036,-0.12,-0.125,0.663,-1.283,2.115
2024-10-23 21:54:17.029,19180.594,0.173,0.96,-0.222,-0.033,-0.134,-0.006,-0.236,-0.155,-0.184,0.661,-1.286,2.114
2024-10-23 21:54:17.039,19180.604,0.17,0.961,-0.22,0.001,-0.112,-0.013,-0.283,-0.138,-0.222,0.659,-1.289,2.114
2024-10-23 21:54:17.049,19180.614,0.168,0.962,-0.217,-0.005,-0.11,-0.005,-0.284,-0.091,-0.229,0.658,-1.293,2.114
2024-10-23 21:54:17.059,19180.624,0.166,0.962,-0.215,-0.016,-0.082,-0.0,-0.256,-0.098,-0.221,0.657,-1.296,2.114
2024-10-23 21:54:17.069,19180.634,0.163,0.963,-0.213,0.001,-0.056,-0.006,-0.241,-0.128,-0.206,0.655,-1.299,2.113
2024-10-23 21:54:17.079,19180.644,0.161,0.964,-0.211,0.034,-0.046,-0.004,-0.178,-0.136,-0.182,0.653,-1.302,2.112
2024-10-23 21:54:17.089,19180.654,0.159,0.965,-0.21,0.04,0.005,0.002,-0.091,-0.115,-0.146,0.65,-1.304,2.11
2024-10-23 21:54:17.099,19180.664,0.158,0.965,-0.209,0.025,0.072,-0.006,-0.007,-0.102,-0.124,0.646,-1.305,2.107
2024-10-23 21:54:17.109,19180.674,0.157,0.965,-0.21,0.019,0.113,-0.016,0.039,-0.077,-0.098,0.641,-1.306,2.103
2024-10-23 21:54:17.119,19180.684,0.156,0.965,-0.21,0.012,0.112,-0.021,0.053,-0.063,-0.072,0.637,-1.306,2.1
2024-10-23 21:54:17.129,19180.694,0.155,0.965,-0.211,0.001,0.093,-0.029,0.04,-0.046,-0.031,0.634,-1.306,2.097
2024-10-23 21:54:17.139,19180.704,0.155,0.965,-0.211,-0.011,0.077,-0.042,0.05,-0.02,0.003,0.632,-1.306,2.096
2024-10-23 21:54:17.149,19180.714,0.155,0.965,-0.212,-0.024,0.064,-0.046,0.07,0.006,0.033,0.631,-1.305,2.095
2024-10-23 21:54:17.159,19180.724,0.155,0.965,-0.213,-0.035,0.065,-0.064,0.091,0.018,0.06,0.631,-1.304,2.095
2024-10-23 21:54:17.169,19180.734,0.156,0.964,-0.214,-0.042,0.071,-0.074,0.103,0.033,0.085,0.631,-1.303,2.095
2024-10-23 21:54:17.179,19180.744,0.157,0.964,-0.215,-0.038,0.062,-0.059,0.123,0.045,0.102,0.632,-1.302,2.095
2024-10-23 21:54:17.188,19180.754,0.158,0.964,-0.216,-0.033,0.053,-0.048,0.144,0.062,0.116,0.633,-1.3,2.095
2024-10-23 21:54:17.198,19180.764,0.16,0.963,-0.217,-0.026,0.036,-0.034,0.146,0.047,0.136,0.634,-1.298,2.096
2024-10-23 21:54:17.208,19180.774,0.161,0.962,-0.219,-0.015,0.027,-0.027,0.164,0.036,0.121,0.635,-1.296,2.096
2024-10-23 21:54:17.219,19180.784,0.162,0.962,-0.22,0.002,0.025,-0.007,0.135,0.032,0.136,0.635,-1.294,2.097
2024-10-23 21:54:17.229,19180.794,0.163,0.961,-0.221,0.009,0.005,0.021,0.13,0.039,0.113,0.637,-1.292,2.097
2024-10-23 21:54:17.238,19180.804,0.165,0.961,-0.222,0.009,-0.016,0.038,0.132,0.051,0.104,0.637,-1.291,2.098
2024-10-23 21:54:17.249,19180.814,0.166,0.961,-0.223,0.005,-0.018,0.031,0.096,0.047,0.113,0.638,-1.289,2.098
2024-10-23 21:54:17.259,19180.824,0.167,0.96,-0.224,0.01,-0.013,0.024,0.057,0.032,0.098,0.64,-1.288,2.1
2024-10-23 21:54:17.269,19180.834,0.168,0.96,-0.224,0.008,-0.035,0.026,0.021,0.024,0.082,0.642,-1.287,2.101
2024-10-23 21:54:17.279,19180.844,0.169,0.96,-0.225,-0.004,-0.048,0.021,0.013,0.013,0.076,0.644,-1.286,2.103
2024-10-23 21:54:17.288,19180.854,0.169,0.96,-0.225,-0.01,-0.037,0.018,0.01,0.008,0.053,0.646,-1.286,2.105
2024-10-23 21:54:17.298,19180.864,0.17,0.96,-0.225,-0.01,-0.035,0.019,-0.011,-0.001,0.03,0.647,-1.286,2.106
2024-10-23 21:54:17.309,19180.874,0.17,0.96,-0.224,-0.012,-0.043,0.019,-0.026,-0.006,0.015,0.648,-1.286,2.107
2024-10-23 21:54:17.319,19180.884,0.17,0.96,-0.224,-0.015,-0.05,0.019,-0.052,-0.016,-0.007,0.649,-1.286,2.108
2024-10-23 21:54:17.328,19180.894,0.17,0.96,-0.223,-0.012,-0.055,0.019,-0.066,-0.023,-0.02,0.649,-1.286,2.109
2024-10-23 21:54:17.338,19180.904,0.169,0.96,-0.223,-0.007,-0.057,0.017,-0.072,-0.015,-0.033,0.65,-1.287,2.11
2024-10-23 21:54:17.348,19180.914,0.169,0.96,-0.222,-0.004,-0.044,0.018,-0.082,-0.002,-0.044,0.65,-1.288,2.11
2024-10-23 21:54:17.358,19180.924,0.168,0.961,-0.221,-0.005,-0.026,0.017,-0.095,0.009,-0.054,0.651,-1.289,2.111
2024-10-23 21:54:17.369,19180.934,0.168,0.961,-0.22,-0.01,-0.027,0.01,-0.119,0.021,-0.057,0.652,-1.29,2.112
2024-10-23 21:54:17.379,19180.944,0.168,0.961,-0.219,-0.01,-0.027,-0.002,-0.144,0.024,-0.053,0.653,-1.292,2.113
2024-10-23 21:54:17.388,19180.954,0.167,0.962,-0.217,-0.009,-0.011,-0.009,-0.157,0.026,-0.053,0.655,-1.293,2.115
2024-10-23 21:54:17.398,19180.964,0.167,0.962,-0.216,-0.007,0.006,-0.013,-0.165,0.041,-0.046,0.658,-1.295,2.117
2024-10-23 21:54:17.408,19180.974,0.166,0.963,-0.214,-0.008,0.012,-0.019,-0.179,0.051,-0.027,0.661,-1.296,2.12
2024-10-23 21:54:17.418,19180.984,0.166,0.963,-0.212,-0.006,0.012,-0.024,-0.179,0.054,-0.018,0.664,-1.298,2.123
2024-10-23 21:54:17.428,19180.994,0.166,0.963,-0.21,0.0,0.018,-0.024,-0.192,0.067,-0.006,0.669,-1.299,2.127
2024-10-23 21:54:17.438,19181.004,0.166,0.964,-0.208,0.001,0.031,-0.026,-0.188,0.075,0.001,0.674,-1.301,2.131
2024-10-23 21:54:17.448,19181.014,0.167,0.964,-0.207,-0.004,0.037,-0.022,-0.172,0.077,0.011,0.679,-1.302,2.136
2024-10-23 21:54:17.458,19181.024,0.167,0.964,-0.205,-0.006,0.031,-0.023,-0.139,0.077,0.022,0.684,-1.303,2.14
2024-10-23 21:54:17.468,19181.034,0.167,0.965,-0.204,-0.002,0.029,-0.02,-0.113,0.072,0.032,0.688,-1.304,2.144
2024-10-23 21:54:17.478,19181.044,0.168,0.965,-0.203,-0.003,0.026,-0.015,-0.074,0.066,0.042,0.692,-1.305,2.147
2024-10-23 21:54:17.488,19181.054,0.168,0.965,-0.202,-0.002,0.023,-0.01,-0.039,0.054,0.048,0.695,-1.305,2.149
2024-10-23 21:54:17.498,19181.064,0.169,0.965,-0.202,0.001,0.015,-0.005,-0.018,0.043,0.053,0.697,-1.304,2.151
2024-10-23 21:54:17.508,19181.074,0.17,0.965,-0.202,0.003,0.011,0.003,-0.016,0.037,0.058,0.7,-1.304,2.153
2024-10-23 21:54:17.517,19181.084,0.17,0.965,-0.201,0.003,0.01,0.013,-0.009,0.029,0.058,0.702,-1.304,2.155
2024-10-23 21:54:17.528,19181.094,0.171,0.965,-0.201,0.0,0.005,0.019,-0.0,0.018,0.059,0.704,-1.304,2.157
2024-10-23 21:54:17.538,19181.103,0.171,0.964,-0.201,-0.0,-0.001,0.021,0.004,0.014,0.051,0.705,-1.303,2.158
2024-10-23 21:54:17.548,19181.113,0.172,0.964,-0.201,-0.001,-0.004,0.021,0.012,0.01,0.049,0.706,-1.303,2.16
2024-10-23 21:54:17.558,19181.123,0.172,0.964,-0.201,-0.005,-0.009,0.019,-0.004,0.016,0.04,0.708,-1.303,2.161
2024-10-23 21:54:17.568,19181.133,0.173,0.964,-0.201,-0.01,-0.015,0.018,-0.034,0.009,0.027,0.709,-1.302,2.162
2024-10-23 21:54:17.578,19181.143,0.173,0.964,-0.201,-0.011,-0.02,0.016,-0.064,0.012,0.016,0.711,-1.303,2.164
2024-10-23 21:54:17.588,19181.153,0.173,0.964,-0.2,-0.013,-0.029,0.012,-0.078,0.012,0.006,0.713,-1.303,2.166
2024-10-23 21:54:17.598,19181.163,0.173,0.965,-0.199,-0.011,-0.04,0.009,-0.083,0.001,-0.0,0.715,-1.304,2.168
2024-10-23 21:54:17.608,19181.173,0.173,0.965,-0.198,-0.005,-0.034,0.006,-0.059,0.006,-0.013,0.717,-1.304,2.17
2024-10-23 21:54:17.618,19181.183,0.173,0.965,-0.198,-0.003,-0.021,0.006,-0.017,0.007,-0.009,0.717,-1.305,2.17
2024-10-23 21:54:17.628,19181.193,0.173,0.965,-0.198,-0.005,-0.014,0.004,0.009,0.006,-0.005,0.717,-1.305,2.17
2024-10-23 21:54:17.638,19181.203,0.173,0.965,-0.198,-0.003,-0.003,0.008,0.025,0.005,-0.004,0.717,-1.305,2.17
2024-10-23 21:54:17.648,19181.213,0.173,0.965,-0.198,-0.004,0.003,0.007,0.023,0.013,-0.001,0.716,-1.305,2.169
2024-10-23 21:54:17.658,19181.223,0.173,0.965,-0.199,-0.004,0.003,0.003,0.017,0.011,0.005,0.716,-1.305,2.169
2024-10-23 21:54:17.668,19181.233,0.173,0.965,-0.199,-0.002,0.007,-0.004,0.003,0.0,0.004,0.716,-1.304,2.168
2024-10-23 21:54:17.678,19181.243,0.173,0.965,-0.198,0.001,0.01,-0.008,-0.021,0.005,0.009,0.716,-1.304,2.169
2024-10-23 21:54:17.688,19181.253,0.173,0.965,-0.198,-0.001,0.012,-0.005,-0.039,0.011,0.006,0.717,-1.305,2.17
2024-10-23 21:54:17.698,19181.263,0.173,0.965,-0.198,-0.001,0.011,-0.005,-0.051,0.014,0.003,0.719,-1.305,2.171
2024-10-23 21:54:17.708,19181.273,0.173,0.965,-0.197,-0.0,-0.0,-0.006,-0.075,0.023,0.007,0.721,-1.305,2.173
2024-10-23 21:54:17.718,19181.283,0.173,0.965,-0.196,-0.003,-0.007,-0.008,-0.099,0.026,0.009,0.723,-1.306,2.175
2024-10-23 21:54:17.728,19181.293,0.173,0.965,-0.195,-0.006,-0.01,-0.009,-0.1,0.023,0.008,0.726,-1.307,2.178
2024-10-23 21:54:17.737,19181.303,0.173,0.966,-0.194,-0.003,-0.011,-0.009,-0.084,0.025,0.011,0.729,-1.307,2.181
2024-10-23 21:54:17.747,19181.313,0.174,0.966,-0.193,-0.004,-0.002,-0.007,-0.067,0.028,0.009,0.731,-1.308,2.183
2024-10-23 21:54:17.758,19181.323,0.174,0.966,-0.193,-0.004,0.003,-0.006,-0.059,0.024,0.005,0.733,-1.308,2.185
2024-10-23 21:54:17.768,19181.333,0.174,0.966,-0.192,-0.005,0.002,-0.005,-0.052,0.034,-0.001,0.735,-1.309,2.186
2024-10-23 21:54:17.778,19181.343,0.174,0.966,-0.192,-0.007,-0.004,-0.004,-0.048,0.033,-0.008,0.737,-1.309,2.187
2024-10-23 21:54:17.788,19181.353,0.174,0.966,-0.191,-0.005,-0.009,-0.003,-0.059,0.037,-0.009,0.738,-1.309,2.188
2024-10-23 21:54:17.798,19181.363,0.174,0.966,-0.19,-0.004,-0.009,-0.001,-0.077,0.041,-0.011,0.74,-1.31,2.19
2024-10-23 21:54:17.808,19181.373,0.174,0.966,-0.19,-0.003,-0.007,0.006,-0.096,0.046,-0.014,0.742,-1.311,2.192
2024-10-23 21:54:17.817,19181.383,0.174,0.967,-0.188,-0.005,-0.007,0.006,-0.131,0.038,-0.013,0.745,-1.312,2.194
2024-10-23 21:54:17.828,19181.393,0.174,0.967,-0.187,-0.003,-0.005,0.001,-0.15,0.038,-0.003,0.748,-1.313,2.198
2024-10-23 21:54:17.838,19181.403,0.174,0.967,-0.185,-0.002,-0.01,0.003,-0.164,0.039,0.002,0.753,-1.314,2.202
2024-10-23 21:54:17.848,19181.413,0.174,0.967,-0.184,-0.007,-0.012,0.001,-0.158,0.043,-0.004,0.757,-1.315,2.206
2024-10-23 21:54:17.858,19181.423,0.174,0.968,-0.182,-0.008,0.001,0.001,-0.148,0.042,-0.005,0.762,-1.316,2.21
2024-10-23 21:54:17.868,19181.433,0.174,0.968,-0.181,-0.007,0.0,-0.001,-0.106,0.038,-0.008,0.765,-1.317,2.213
2024-10-23 21:54:17.877,19181.443,0.174,0.968,-0.18,-0.006,-0.008,-0.003,-0.086,0.035,-0.006,0.768,-1.318,2.215
2024-10-23 21:54:17.888,19181.453,0.174,0.968,-0.179,-0.002,-0.01,-0.006,-0.061,0.04,-0.002,0.77,-1.318,2.217
2024-10-23 21:54:17.898,19181.463,0.174,0.968,-0.179,-0.002,0.005,-0.003,-0.047,0.039,-0.004,0.772,-1.319,2.219
2024-10-23 21:54:17.907,19181.473,0.174,0.969,-0.178,-0.004,0.005,-0.004,-0.051,0.036,-0.003,0.773,-1.319,2.22
2024-10-23 21:54:17.917,19181.483,0.174,0.969,-0.178,-0.003,-0.003,0.0,-0.051,0.032,-0.001,0.775,-1.32,2.221
2024-10-23 21:54:17.927,19181.493,0.174,0.969,-0.177,-0.001,0.0,0.007,-0.053,0.035,-0.001,0.777,-1.32,2.223
2024-10-23 21:54:17.937,19181.503,0.174,0.969,-0.177,-0.0,0.008,0.011,-0.042,0.036,0.001,0.778,-1.32,2.224
2024-10-23 21:54:17.947,19181.513,0.174,0.969,-0.176,0.0,0.009,0.01,-0.062,0.023,0.003,0.78,-1.321,2.226
2024-10-23 21:54:17.957,19181.523,0.174,0.969,-0.175,0.001,0.004,0.011,-0.072,0.025,0.002,0.782,-1.321,2.228
2024-10-23 21:54:17.967,19181.533,0.174,0.969,-0.175,-0.003,0.001,0.012,-0.064,0.02,0.008,0.784,-1.322,2.23
2024-10-23 21:54:17.977,19181.543,0.174,0.969,-0.174,-0.007,0.0,0.007,-0.052,0.02,0.006,0.786,-1.322,2.231
2024-10-23 21:54:17.987,19181.553,0.174,0.969,-0.174,-0.006,0.005,0.004,-0.033,0.013,0.005,0.788,-1.322,2.233
2024-10-23 21:54:17.997,19181.563,0.174,0.969,-0.173,-0.005,0.005,0.005,-0.017,0.017,0.008,0.789,-1.322,2.233
2024-10-23 21:54:18.007,19181.573,0.175,0.969,-0.173,-0.007,-0.0,-0.0,-0.01,0.003,0.011,0.789,-1.322,2.234
2024-10-23 21:54:18.017,19181.583,0.175,0.969,-0.173,-0.005,-0.005,-0.0,-0.009,0.0,0.005,0.79,-1.322,2.235
2024-10-23 21:54:18.027,19181.593,0.175,0.969,-0.173,-0.005,-0.008,0.002,-0.007,-0.002,0.005,0.79,-1.322,2.235
2024-10-23 21:54:18.037,19181.603,0.175,0.969,-0.173,-0.006,-0.006,0.004,-0.004,0.003,-0.001,0.79,-1.322,2.235
2024-10-23 21:54:18.047,19181.613,0.175,0.969,-0.173,-0.006,-0.005,0.005,0.002,0.006,-0.004,0.79,-1.323,2.235
2024-10-23 21:54:18.057,19181.623,0.175,0.969,-0.173,-0.004,-0.009,0.003,-0.003,0.001,-0.001,0.79,-1.323,2.235
2024-10-23 21:54:18.067,19181.633,0.175,0.969,-0.173,-0.002,-0.01,0.002,-0.004,0.011,-0.002,0.79,-1.323,2.235
2024-10-23 21:54:18.077,19181.643,0.175,0.969,-0.173,0.001,-0.004,0.001,-0.002,0.021,0.004,0.791,-1.323,2.235
2024-10-23 21:54:18.087,19181.653,0.175,0.969,-0.173,-0.002,0.002,-0.002,0.011,0.026,0.008,0.791,-1.323,2.235
2024-10-23 21:54:18.097,19181.663,0.175,0.969,-0.173,-0.004,0.006,-0.006,0.009,0.034,0.011,0.791,-1.322,2.235
2024-10-23 21:54:18.107,19181.673,0.175,0.969,-0.173,-0.005,0.01,-0.004,0.004,0.03,0.009,0.792,-1.322,2.235
2024-10-23 21:54:18.118,19181.683,0.175,0.969,-0.173,-0.006,0.013,-0.005,-0.0,0.02,0.016,0.792,-1.322,2.236
2024-10-23 21:54:18.128,19181.693,0.175,0.969,-0.173,-0.005,0.009,-0.003,-0.007,0.021,0.018,0.793,-1.322,2.236
2024-10-23 21:54:18.137,19181.703,0.176,0.969,-0.173,-0.003,0.007,-0.001,-0.01,0.023,0.02,0.794,-1.322,2.237
2024-10-23 21:54:18.147,19181.712,0.176,0.969,-0.172,0.0,0.005,0.005,-0.013,0.019,0.023,0.795,-1.322,2.238
2024-10-23 21:54:18.156,19181.722,0.176,0.969,-0.172,0.003,0.002,0.008,0.002,0.018,0.024,0.796,-1.322,2.239
2024-10-23 21:54:18.167,19181.732,0.176,0.969,-0.172,0.001,-0.003,0.007,0.005,0.015,0.029,0.797,-1.322,2.239
2024-10-23 21:54:18.177,19181.742,0.177,0.969,-0.172,-0.001,-0.006,0.007,0.019,0.012,0.024,0.797,-1.321,2.239
2024-10-23 21:54:18.187,19181.752,0.177,0.969,-0.173,-0.003,-0.003,0.009,0.031,0.011,0.022,0.797,-1.321,2.239
2024-10-23 21:54:18.197,19181.762,0.177,0.969,-0.173,-0.007,-0.001,0.006,0.039,0.009,0.026,0.797,-1.321,2.239
2024-10-23 21:54:18.207,19181.772,0.177,0.969,-0.173,-0.005,-0.0,0.009,0.04,0.004,0.02,0.796,-1.32,2.238
2024-10-23 21:54:18.217,19181.782,0.177,0.969,-0.174,-0.003,-0.001,0.01,0.027,0.002,0.02,0.796,-1.32,2.238
2024-10-23 21:54:18.227,19181.792,0.178,0.969,-0.174,-0.005,-0.005,0.01,0.003,0.001,0.011,0.796,-1.32,2.238
2024-10-23 21:54:18.237,19181.802,0.178,0.969,-0.174,-0.006,-0.01,0.012,-0.006,-0.008,0.011,0.796,-1.32,2.238
2024-10-23 21:54:18.247,19181.812,0.178,0.969,-0.174,-0.006,-0.009,0.012,0.007,-0.008,0.011,0.797,-1.32,2.239
2024-10-23 21:54:18.257,19181.822,0.178,0.969,-0.174,-0.005,-0.006,0.008,0.01,-0.006,0.011,0.797,-1.319,2.239
2024-10-23 21:54:18.267,19181.832,0.178,0.969,-0.174,-0.006,-0.004,0.005,0.023,-0.007,0.012,0.796,-1.319,2.239
2024-10-23 21:54:18.277,19181.842,0.178,0.968,-0.174,-0.008,-0.001,0.002,0.024,-0.007,0.015,0.796,-1.319,2.238
2024-10-23 21:54:18.287,19181.852,0.178,0.968,-0.174,-0.007,0.002,-0.0,0.014,-0.003,0.016,0.796,-1.319,2.238
2024-10-23 21:54:18.297,19181.862,0.178,0.968,-0.175,-0.001,0.003,0.001,0.009,-0.005,0.01,0.796,-1.319,2.238
2024-10-23 21:54:18.307,19181.872,0.178,0.968,-0.175,-0.0,0.002,0.002,0.004,0.001,0.007,0.796,-1.319,2.238
2024-10-23 21:54:18.317,19181.882,0.178,0.968,-0.175,0.001,-0.005,0.002,-0.004,-0.003,0.006,0.796,-1.319,2.239
2024-10-23 21:54:18.327,19181.892,0.178,0.968,-0.175,0.003,-0.008,0.003,-0.004,0.0,-0.002,0.796,-1.319,2.239
2024-10-23 21:54:18.337,19181.902,0.178,0.968,-0.174,0.002,-0.012,0.001,-0.012,0.005,-0.001,0.797,-1.319,2.239
2024-10-23 21:54:18.347,19181.912,0.178,0.968,-0.174,-0.002,-0.015,-0.002,-0.014,0.006,-0.008,0.797,-1.319,2.239
2024-10-23 21:54:18.357,19181.922,0.178,0.968,-0.174,-0.005,-0.013,-0.001,-0.013,0.006,-0.009,0.797,-1.319,2.239
2024-10-23 21:54:18.367,19181.932,0.178,0.968,-0.174,-0.006,-0.011,-0.001,-0.001,-0.004,-0.008,0.797,-1.319,2.239
2024-10-23 21:54:18.377,19181.942,0.178,0.968,-0.174,-0.006,-0.006,-0.002,0.015,-0.002,-0.003,0.797,-1.319,2.239
2024-10-23 21:54:18.387,19181.952,0.178,0.968,-0.174,-0.006,0.003,0.003,0.02,-0.004,-0.004,0.796,-1.319,2.238
2024-10-23 21:54:18.396,19181.962,0.178,0.968,-0.175,-0.006,0.011,0.006,0.023,-0.007,-0.001,0.795,-1.319,2.238
2024-10-23 21:54:18.407,19181.972,0.178,0.968,-0.175,-0.008,0.011,0.005,0.009,-0.008,-0.002,0.795,-1.319,2.237
2024-10-23 21:54:18.417,19181.982,0.178,0.968,-0.175,-0.005,0.003,0.005,0.0,-0.003,-0.0,0.794,-1.319,2.237
2024-10-23 21:54:18.426,19181.992,0.178,0.968,-0.175,-0.003,0.001,0.005,-0.005,0.006,0.003,0.795,-1.319,2.237
2024-10-23 21:54:18.436,19182.002,0.178,0.968,-0.175,-0.004,0.003,0.004,-0.003,0.005,0.002,0.795,-1.319,2.237
2024-10-23 21:54:18.446,19182.012,0.178,0.968,-0.175,-0.003,0.002,-0.0,0.008,0.009,0.005,0.795,-1.319,2.237
2024-10-23 21:54:18.456,19182.022,0.178,0.968,-0.175,-0.001,-0.002,-0.004,0.013,0.008,0.009,0.795,-1.319,2.237
2024-10-23 21:54:18.466,19182.032,0.178,0.968,-0.175,0.001,-0.005,-0.006,0.029,0.006,0.01,0.794,-1.318,2.237
2024-10-23 21:54:18.476,19182.042,0.178,0.968,-0.175,0.002,-0.001,-0.004,0.049,0.002,0.01,0.794,-1.318,2.236
2024-10-23 21:54:18.486,19182.052,0.178,0.968,-0.176,0.001,0.003,-0.001,0.068,0.001,0.015,0.792,-1.318,2.235
2024-10-23 21:54:18.496,19182.062,0.178,0.968,-0.177,-0.001,0.009,0.001,0.074,-0.005,0.018,0.791,-1.317,2.233
2024-10-23 21:54:18.506,19182.072,0.179,0.968,-0.177,0.0,0.009,0.006,0.073,-0.004,0.017,0.789,-1.316,2.231
2024-10-23 21:54:18.516,19182.082,0.179,0.968,-0.178,-0.001,0.007,0.008,0.071,-0.012,0.012,0.788,-1.316,2.23
2024-10-23 21:54:18.527,19182.092,0.179,0.968,-0.178,-0.004,0.003,0.006,0.04,0.002,0.008,0.786,-1.315,2.229
2024-10-23 21:54:18.536,19182.102,0.179,0.967,-0.179,-0.007,-0.001,0.001,0.019,0.006,0.014,0.786,-1.315,2.228
2024-10-23 21:54:18.545,19182.112,0.179,0.967,-0.179,-0.008,-0.009,0.004,0.006,0.002,0.002,0.786,-1.315,2.228
2024-10-23 21:54:18.556,19182.122,0.179,0.967,-0.179,-0.003,-0.015,0.004,0.001,0.007,-0.002,0.786,-1.315,2.228
2024-10-23 21:54:18.566,19182.132,0.179,0.967,-0.179,-0.005,-0.016,0.005,-0.009,0.007,-0.005,0.786,-1.315,2.228
2024-10-23 21:54:18.576,19182.142,0.179,0.967,-0.179,-0.009,-0.012,0.004,-0.014,0.005,-0.009,0.786,-1.315,2.228
2024-10-23 21:54:18.586,19182.152,0.179,0.968,-0.179,-0.006,-0.011,0.005,-0.017,0.004,-0.012,0.786,-1.315,2.228
2024-10-23 21:54:18.596,19182.162,0.179,0.968,-0.178,-0.005,-0.017,0.004,-0.015,0.002,-0.019,0.787,-1.316,2.228
2024-10-23 21:54:18.606,19182.172,0.179,0.968,-0.178,-0.004,-0.016,0.005,-0.006,0.01,-0.018,0.786,-1.316,2.228
2024-10-23 21:54:18.616,19182.182,0.178,0.968,-0.178,-0.005,-0.007,0.003,0.003,0.017,-0.017,0.786,-1.316,2.228
2024-10-23 21:54:18.626,19182.192,0.178,0.968,-0.178,-0.006,-0.003,0.001,-0.007,0.022,-0.013,0.786,-1.316,2.227
2024-10-23 21:54:18.636,19182.202,0.178,0.968,-0.178,-0.006,-0.006,-0.002,-0.019,0.025,-0.009,0.786,-1.316,2.227
2024-10-23 21:54:18.646,19182.212,0.178,0.968,-0.178,-0.011,-0.002,-0.008,-0.024,0.045,-0.005,0.787,-1.316,2.228
2024-10-23 21:54:18.656,19182.222,0.178,0.968,-0.177,-0.016,0.005,-0.017,-0.038,0.055,-0.002,0.788,-1.317,2.229
2024-10-23 21:54:18.666,19182.232,0.178,0.968,-0.177,-0.014,0.01,-0.024,-0.062,0.073,-0.009,0.79,-1.317,2.23
2024-10-23 21:54:18.676,19182.242,0.178,0.968,-0.176,-0.013,0.009,-0.028,-0.121,0.112,-0.018,0.793,-1.318,2.232
2024-10-23 21:54:18.686,19182.252,0.178,0.968,-0.174,-0.016,-0.004,-0.031,-0.181,0.148,-0.021,0.798,-1.319,2.236
2024-10-23 21:54:18.696,19182.262,0.179,0.969,-0.172,-0.024,-0.024,-0.038,-0.228,0.136,-0.006,0.805,-1.32,2.241
2024-10-23 21:54:18.706,19182.272,0.179,0.969,-0.169,-0.015,-0.039,-0.048,-0.239,0.098,0.066,0.813,-1.322,2.249
2024-10-23 21:54:18.716,19182.282,0.18,0.969,-0.167,0.012,-0.013,-0.036,-0.198,0.023,0.055,0.822,-1.323,2.257
2024-10-23 21:54:18.726,19182.292,0.18,0.97,-0.166,0.05,0.07,-0.012,0.015,0.059,0.041,0.826,-1.323,2.261
2024-10-23 21:54:18.736,19182.302,0.181,0.969,-0.167,0.042,0.113,0.031,0.161,0.136,0.11,0.826,-1.322,2.26
2024-10-23 21:54:18.746,19182.311,0.182,0.969,-0.168,-0.013,0.085,0.01,0.228,0.129,0.122,0.825,-1.32,2.258
2024-10-23 21:54:18.756,19182.321,0.184,0.968,-0.171,-0.024,0.068,-0.021,0.247,0.077,0.138,0.823,-1.317,2.254
2024-10-23 21:54:18.766,19182.331,0.185,0.967,-0.173,-0.0,0.055,-0.03,0.259,0.071,0.132,0.82,-1.315,2.25
2024-10-23 21:54:18.776,19182.341,0.187,0.967,-0.175,0.003,0.05,-0.012,0.193,0.076,0.14,0.817,-1.312,2.247
2024-10-23 21:54:18.786,19182.351,0.188,0.966,-0.176,-0.019,0.028,0.006,0.098,0.079,0.13,0.818,-1.31,2.247
2024-10-23 21:54:18.796,19182.361,0.189,0.966,-0.177,-0.021,-0.008,0.027,0.001,0.069,0.111,0.82,-1.309,2.248
2024-10-23 21:54:18.806,19182.371,0.19,0.966,-0.176,-0.01,-0.044,0.033,-0.065,0.066,0.091,0.824,-1.308,2.252
2024-10-23 21:54:18.816,19182.381,0.191,0.966,-0.175,-0.004,-0.062,0.03,-0.095,0.062,0.066,0.829,-1.308,2.256
2024-10-23 21:54:18.826,19182.391,0.192,0.966,-0.174,-0.006,-0.073,0.025,-0.093,0.05,0.035,0.834,-1.309,2.26
2024-10-23 21:54:18.836,19182.401,0.192,0.966,-0.173,-0.009,-0.077,0.025,-0.052,0.035,0.014,0.837,-1.309,2.263
2024-10-23 21:54:18.846,19182.411,0.192,0.966,-0.173,-0.006,-0.07,0.031,0.012,0.007,-0.003,0.838,-1.309,2.264
2024-10-23 21:54:18.856,19182.421,0.192,0.966,-0.174,0.002,-0.059,0.044,0.07,-0.014,-0.01,0.836,-1.309,2.263
2024-10-23 21:54:18.866,19182.431,0.192,0.966,-0.175,0.006,-0.051,0.056,0.104,-0.043,-0.016,0.833,-1.308,2.26
2024-10-23 21:54:18.876,19182.441,0.192,0.966,-0.176,0.009,-0.031,0.062,0.117,-0.074,-0.022,0.829,-1.308,2.256
2024-10-23 21:54:18.886,19182.451,0.191,0.965,-0.177,0.007,-0.012,0.064,0.098,-0.097,-0.026,0.825,-1.307,2.252
2024-10-23 21:54:18.896,19182.461,0.191,0.965,-0.178,0.005,-0.009,0.055,0.062,-0.099,-0.033,0.821,-1.307,2.249
2024-10-23 21:54:18.906,19182.471,0.19,0.965,-0.178,0.002,-0.012,0.041,0.024,-0.098,-0.037,0.818,-1.307,2.247
2024-10-23 21:54:18.916,19182.481,0.19,0.965,-0.179,-0.002,-0.006,0.03,0.007,-0.084,-0.042,0.815,-1.307,2.246
2024-10-23 21:54:18.925,19182.491,0.189,0.965,-0.179,-0.006,-0.008,0.017,-0.012,-0.066,-0.041,0.814,-1.307,2.245
2024-10-23 21:54:18.936,19182.501,0.189,0.966,-0.179,-0.015,-0.012,-0.004,-0.022,-0.051,-0.039,0.812,-1.308,2.244
2024-10-23 21:54:18.946,19182.511,0.188,0.966,-0.179,-0.016,-0.006,-0.019,-0.044,-0.046,-0.044,0.812,-1.308,2.244
2024-10-23 21:54:18.956,19182.521,0.188,0.966,-0.178,-0.011,0.0,-0.025,-0.037,-0.029,-0.047,0.811,-1.309,2.244
2024-10-23 21:54:18.966,19182.531,0.187,0.966,-0.178,-0.011,-0.004,-0.028,-0.065,-0.019,-0.025,0.812,-1.309,2.244
2024-10-23 21:54:18.976,19182.541,0.187,0.966,-0.177,-0.013,-0.007,-0.037,-0.061,-0.024,-0.025,0.813,-1.31,2.246
2024-10-23 21:54:18.986,19182.551,0.187,0.966,-0.177,-0.001,0.017,-0.03,-0.036,-0.006,-0.017,0.813,-1.311,2.247
2024-10-23 21:54:18.996,19182.561,0.187,0.966,-0.176,0.006,0.032,-0.016,-0.017,0.01,-0.01,0.814,-1.311,2.247
2024-10-23 21:54:19.006,19182.571,0.187,0.966,-0.176,0.003,0.03,-0.017,-0.013,0.016,-0.001,0.814,-1.311,2.247
2024-10-23 21:54:19.016,19182.581,0.187,0.966,-0.176,0.003,0.018,-0.017,-0.011,0.008,0.004,0.815,-1.311,2.248
2024-10-23 21:54:19.025,19182.591,0.187,0.966,-0.176,0.007,0.011,-0.013,0.005,0.011,0.021,0.815,-1.311,2.248
2024-10-23 21:54:19.035,19182.601,0.187,0.966,-0.176,0.005,0.018,-0.009,0.006,0.009,0.026,0.816,-1.311,2.249
2024-10-23 21:54:19.046,19182.611,0.187,0.966,-0.176,0.0,0.026,-0.004,0.001,0.008,0.03,0.816,-1.311,2.249
2024-10-23 21:54:19.056,19182.621,0.188,0.966,-0.176,-0.005,0.019,-0.0,0.003,0.005,0.029,0.817,-1.31,2.25
2024-10-23 21:54:19.065,19182.631,0.188,0.966,-0.176,-0.006,0.004,-0.002,0.024,-0.004,0.033,0.817,-1.31,2.25
2024-10-23 21:54:19.075,19182.641,0.188,0.966,-0.177,-0.007,0.001,-0.0,0.034,0.002,0.033,0.817,-1.31,2.25
2024-10-23 21:54:19.085,19182.651,0.189,0.966,-0.177,-0.009,0.003,0.003,0.025,-0.001,0.029,0.817,-1.309,2.25
2024-10-23 21:54:19.095,19182.661,0.189,0.966,-0.177,-0.009,-0.002,0.008,0.01,-0.01,0.018,0.817,-1.309,2.25
2024-10-23 21:54:19.105,19182.671,0.189,0.966,-0.177,-0.007,-0.014,0.013,-0.001,-0.007,0.013,0.817,-1.309,2.25
2024-10-23 21:54:19.115,19182.681,0.189,0.966,-0.177,-0.006,-0.023,0.013,-0.007,-0.008,0.006,0.818,-1.309,2.25
2024-10-23 21:54:19.125,19182.691,0.189,0.966,-0.177,-0.005,-0.025,0.012,-0.016,-0.009,-0.005,0.818,-1.309,2.251
2024-10-23 21:54:19.135,19182.701,0.189,0.966,-0.177,-0.002,-0.024,0.013,-0.022,-0.011,-0.01,0.818,-1.309,2.251
2024-10-23 21:54:19.145,19182.711,0.189,0.966,-0.177,-0.001,-0.026,0.011,-0.022,-0.011,-0.017,0.818,-1.309,2.251
2024-10-23 21:54:19.155,19182.721,0.189,0.966,-0.177,-0.001,-0.023,0.008,-0.019,-0.006,-0.021,0.818,-1.309,2.251
2024-10-23 21:54:19.167,19182.731,0.188,0.966,-0.176,-0.002,-0.016,0.006,-0.026,-0.011,-0.026,0.818,-1.31,2.251
2024-10-23 21:54:19.175,19182.741,0.188,0.966,-0.176,-0.001,-0.011,0.007,-0.025,-0.005,-0.03,0.818,-1.31,2.251
2024-10-23 21:54:19.185,19182.751,0.188,0.966,-0.176,-0.001,-0.012,0.001,-0.024,-0.006,-0.027,0.818,-1.31,2.251
2024-10-23 21:54:19.195,19182.761,0.187,0.966,-0.176,-0.003,-0.005,-0.003,-0.019,-0.007,-0.028,0.818,-1.311,2.251
2024-10-23 21:54:19.205,19182.771,0.187,0.966,-0.176,-0.005,0.001,-0.006,-0.012,-0.002,-0.019,0.817,-1.311,2.251
2024-10-23 21:54:19.215,19182.781,0.187,0.967,-0.176,-0.005,0.004,-0.007,0.001,-0.002,-0.009,0.817,-1.311,2.251
2024-10-23 21:54:19.225,19182.791,0.187,0.967,-0.176,-0.003,0.01,-0.005,0.002,-0.005,-0.005,0.817,-1.311,2.25
2024-10-23 21:54:19.235,19182.801,0.187,0.967,-0.176,-0.001,0.017,-0.002,-0.001,-0.002,0.008,0.817,-1.311,2.251
2024-10-23 21:54:19.245,19182.811,0.187,0.966,-0.176,-0.0,0.022,0.0,-0.009,-0.004,0.012,0.817,-1.311,2.251
2024-10-23 21:54:19.255,19182.821,0.187,0.967,-0.175,-0.001,0.015,-0.0,-0.017,-0.001,0.012,0.818,-1.311,2.252
2024-10-23 21:54:19.265,19182.831,0.187,0.967,-0.175,-0.002,0.008,-0.003,-0.009,0.002,0.014,0.819,-1.311,2.252
2024-10-23 21:54:19.275,19182.841,0.188,0.966,-0.175,-0.002,0.006,-0.005,0.002,0.011,0.019,0.819,-1.311,2.253
2024-10-23 21:54:19.285,19182.851,0.188,0.966,-0.175,-0.003,0.004,-0.006,0.004,0.008,0.02,0.82,-1.311,2.253
2024-10-23 21:54:19.295,19182.861,0.188,0.966,-0.175,-0.003,-0.0,-0.005,0.01,0.004,0.024,0.82,-1.311,2.254
2024-10-23 21:54:19.305,19182.871,0.188,0.966,-0.176,-0.004,-0.003,-0.003,0.009,0.01,0.026,0.82,-1.311,2.254
2024-10-23 21:54:19.315,19182.881,0.188,0.966,-0.176,-0.006,0.001,0.002,0.004,0.006,0.021,0.821,-1.31,2.254
2024-10-23 21:54:19.325,19182.891,0.189,0.966,-0.176,-0.007,0.003,0.004,-0.008,0.004,0.015,0.821,-1.31,2.255
2024-10-23 21:54:19.335,19182.901,0.189,0.966,-0.175,-0.007,0.001,0.008,-0.016,0.003,0.01,0.822,-1.31,2.256
2024-10-23 21:54:19.345,19182.91,0.189,0.966,-0.175,-0.006,-0.006,0.007,-0.01,-0.001,0.004,0.823,-1.31,2.256
2024-10-23 21:54:19.355,19182.92,0.189,0.966,-0.175,-0.005,-0.012,0.003,-0.01,-0.003,0.003,0.823,-1.31,2.256
2024-10-23 21:54:19.365,19182.93,0.189,0.966,-0.175,-0.003,-0.014,0.005,-0.009,-0.005,-0.001,0.823,-1.31,2.257
2024-10-23 21:54:19.375,19182.94,0.189,0.966,-0.175,-0.004,-0.016,0.003,-0.009,-0.005,-0.004,0.823,-1.31,2.257
2024-10-23 21:54:19.385,19182.95,0.189,0.966,-0.175,-0.004,-0.021,0.002,-0.012,-0.008,-0.008,0.823,-1.311,2.257
2024-10-23 21:54:19.395,19182.96,0.189,0.966,-0.175,-0.003,-0.021,0.004,-0.008,-0.004,-0.01,0.823,-1.311,2.257
2024-10-23 21:54:19.405,19182.97,0.188,0.966,-0.175,-0.003,-0.011,0.005,-0.014,-0.002,-0.014,0.823,-1.311,2.257
2024-10-23 21:54:19.415,19182.98,0.188,0.966,-0.175,-0.002,-0.003,0.007,-0.024,-0.005,-0.022,0.823,-1.311,2.257
2024-10-23 21:54:19.425,19182.99,0.188,0.967,-0.174,-0.0,-0.004,0.009,-0.031,-0.007,-0.024,0.823,-1.312,2.257
2024-10-23 21:54:19.435,19183.0,0.188,0.967,-0.174,-0.002,-0.013,0.009,-0.035,-0.009,-0.024,0.824,-1.312,2.258
2024-10-23 21:54:19.445,19183.01,0.188,0.967,-0.174,-0.001,-0.011,0.008,-0.02,-0.01,-0.024,0.824,-1.312,2.258
2024-10-23 21:54:19.455,19183.02,0.187,0.967,-0.174,-0.001,-0.002,0.003,-0.003,-0.015,-0.016,0.823,-1.313,2.258
2024-10-23 21:54:19.465,19183.03,0.187,0.967,-0.174,-0.003,0.009,-0.002,0.011,-0.011,-0.009,0.823,-1.313,2.257
2024-10-23 21:54:19.475,19183.04,0.187,0.967,-0.174,-0.004,0.016,-0.003,0.004,-0.005,-0.002,0.822,-1.313,2.257
2024-10-23 21:54:19.485,19183.05,0.187,0.967,-0.174,-0.004,0.017,-0.004,0.003,-0.004,0.002,0.822,-1.313,2.256
2024-10-23 21:54:19.495,19183.06,0.187,0.967,-0.174,-0.003,0.013,-0.004,0.001,-0.006,0.012,0.822,-1.312,2.257
2024-10-23 21:54:19.505,19183.07,0.187,0.967,-0.174,-0.003,0.012,-0.006,0.008,0.005,0.016,0.822,-1.312,2.257
2024-10-23 21:54:19.514,19183.08,0.187,0.967,-0.174,-0.002,0.016,-0.005,0.012,0.006,0.015,0.822,-1.312,2.257
2024-10-23 21:54:19.525,19183.09,0.188,0.967,-0.174,-0.004,0.011,-0.006,0.019,0.01,0.017,0.823,-1.312,2.257
2024-10-23 21:54:19.534,19183.1,0.188,0.967,-0.174,-0.005,0.003,-0.006,0.018,0.011,0.018,0.823,-1.312,2.257
2024-10-23 21:54:19.545,19183.11,0.188,0.967,-0.174,-0.003,-0.0,-0.003,0.016,0.011,0.017,0.823,-1.312,2.257
2024-10-23 21:54:19.555,19183.12,0.188,0.967,-0.175,-0.002,0.001,-0.001,0.014,0.013,0.022,0.823,-1.311,2.257
2024-10-23 21:54:19.565,19183.13,0.188,0.966,-0.175,-0.004,-0.0,0.003,0.006,0.01,0.022,0.823,-1.311,2.257
2024-10-23 21:54:19.575,19183.14,0.189,0.966,-0.175,-0.006,-0.006,0.006,-0.001,0.007,0.019,0.824,-1.311,2.257
2024-10-23 21:54:19.584,19183.15,0.189,0.966,-0.175,-0.005,-0.005,0.01,0.002,0.004,0.014,0.824,-1.311,2.258
2024-10-23 21:54:19.594,19183.16,0.189,0.966,-0.175,-0.005,-0.005,0.011,0.001,-0.001,0.014,0.824,-1.311,2.258
2024-10-23 21:54:19.605,19183.17,0.189,0.966,-0.175,-0.004,-0.012,0.01,0.012,-0.006,0.005,0.824,-1.311,2.258
2024-10-23 21:54:19.614,19183.18,0.189,0.966,-0.175,-0.006,-0.016,0.008,0.015,-0.001,0.002,0.824,-1.31,2.258
2024-10-23 21:54:19.624,19183.19,0.189,0.966,-0.175,-0.005,-0.012,0.006,0.014,-0.001,0.006,0.824,-1.31,2.257
2024-10-23 21:54:19.634,19183.2,0.189,0.966,-0.175,-0.002,-0.008,0.009,0.004,-0.004,0.0,0.823,-1.31,2.257
2024-10-23 21:54:19.644,19183.21,0.189,0.966,-0.175,-0.002,-0.013,0.008,-0.014,-0.005,-0.002,0.823,-1.31,2.257
2024-10-23 21:54:19.654,19183.22,0.189,0.966,-0.175,-0.002,-0.014,0.008,-0.019,-0.006,-0.009,0.824,-1.31,2.258
2024-10-23 21:54:19.664,19183.23,0.189,0.966,-0.175,-0.002,-0.009,0.005,-0.021,-0.008,-0.011,0.824,-1.311,2.258
2024-10-23 21:54:19.674,19183.24,0.189,0.966,-0.175,-0.0,-0.006,0.001,-0.006,-0.009,-0.012,0.824,-1.311,2.258
2024-10-23 21:54:19.685,19183.25,0.188,0.966,-0.175,-0.0,0.0,0.001,0.002,-0.005,-0.009,0.824,-1.311,2.258
2024-10-23 21:54:19.695,19183.26,0.188,0.966,-0.175,-0.003,0.005,-0.002,0.002,-0.005,-0.003,0.823,-1.311,2.258
2024-10-23 21:54:19.705,19183.27,0.188,0.966,-0.175,-0.001,0.005,-0.001,0.001,-0.008,0.0,0.823,-1.311,2.258
2024-10-23 21:54:19.715,19183.28,0.188,0.966,-0.175,0.001,0.002,-0.001,-0.006,-0.004,-0.0,0.823,-1.311,2.258
2024-10-23 21:54:19.724,19183.29,0.188,0.966,-0.174,0.0,0.001,-0.004,-0.012,-0.005,-0.0,0.824,-1.311,2.258
2024-10-23 21:54:19.734,19183.3,0.188,0.966,-0.174,-0.002,0.003,-0.004,-0.008,-0.006,0.0,0.824,-1.311,2.258
2024-10-23 21:54:19.744,19183.31,0.188,0.966,-0.174,-0.004,-0.002,-0.002,0.002,-0.002,0.003,0.824,-1.311,2.258
2024-10-23 21:54:19.754,19183.32,0.188,0.966,-0.174,-0.002,-0.002,-0.002,0.013,-0.002,0.005,0.824,-1.311,2.258
2024-10-23 21:54:19.764,19183.33,0.188,0.966,-0.175,-0.001,0.001,-0.0,0.019,-0.002,0.01,0.824,-1.311,2.258
2024-10-23 21:54:19.774,19183.34,0.189,0.966,-0.175,-0.003,0.0,-0.001,0.015,-0.0,0.011,0.823,-1.311,2.258
2024-10-23 21:54:19.784,19183.35,0.189,0.966,-0.175,-0.004,0.002,0.004,0.009,0.002,0.009,0.823,-1.311,2.258
2024-10-23 21:54:19.794,19183.36,0.189,0.966,-0.175,-0.003,0.002,0.005,0.006,-0.002,0.011,0.823,-1.31,2.258
2024-10-23 21:54:19.804,19183.37,0.189,0.966,-0.175,-0.003,0.001,0.002,0.004,-0.004,0.005,0.823,-1.31,2.258
2024-10-23 21:54:19.815,19183.38,0.189,0.966,-0.175,-0.001,-0.0,0.001,0.002,0.002,0.004,0.823,-1.31,2.258
2024-10-23 21:54:19.824,19183.39,0.189,0.966,-0.175,-0.004,0.0,0.002,0.005,0.001,0.005,0.823,-1.31,2.258
2024-10-23 21:54:19.834,19183.4,0.189,0.966,-0.175,-0.003,-0.003,0.002,0.011,0.002,0.002,0.823,-1.31,2.258
2024-10-23 21:54:19.844,19183.41,0.189,0.966,-0.175,-0.001,-0.007,0.001,0.008,0.008,0.002,0.823,-1.31,2.258
2024-10-23 21:54:19.854,19183.42,0.189,0.966,-0.175,-0.001,-0.005,0.002,0.003,0.005,0.001,0.823,-1.31,2.258
2024-10-23 21:54:19.864,19183.43,0.189,0.966,-0.175,-0.001,-0.008,0.002,-0.003,-0.001,-0.005,0.823,-1.31,2.258
2024-10-23 21:54:19.874,19183.44,0.189,0.966,-0.175,-0.001,-0.012,0.004,-0.004,0.0,-0.007,0.823,-1.31,2.258
2024-10-23 21:54:19.884,19183.45,0.189,0.966,-0.175,-0.002,-0.009,0.006,-0.001,0.003,-0.002,0.823,-1.31,2.257
2024-10-23 21:54:19.894,19183.46,0.189,0.966,-0.175,-0.004,-0.002,0.007,0.001,0.003,-0.002,0.823,-1.31,2.257
2024-10-23 21:54:19.904,19183.47,0.189,0.966,-0.175,-0.003,-0.003,0.005,-0.015,-0.004,-0.003,0.823,-1.31,2.257
2024-10-23 21:54:19.914,19183.48,0.189,0.966,-0.175,-0.001,-0.01,0.005,-0.018,-0.006,-0.008,0.823,-1.311,2.258
2024-10-23 21:54:19.924,19183.49,0.189,0.966,-0.175,-0.001,-0.009,0.006,-0.005,-0.005,-0.012,0.823,-1.311,2.258
2024-10-23 21:54:19.935,19183.5,0.189,0.966,-0.175,-0.005,-0.003,0.001,0.003,0.002,-0.012,0.823,-1.311,2.258
2024-10-23 21:54:19.944,19183.509,0.188,0.966,-0.175,-0.005,0.0,-0.002,-0.006,0.0,-0.014,0.823,-1.311,2.257
2024-10-23 21:54:19.954,19183.519,0.188,0.966,-0.175,-0.004,-0.002,-0.001,-0.017,-0.001,-0.015,0.823,-1.311,2.257
2024-10-23 21:54:19.964,19183.529,0.188,0.967,-0.175,-0.005,-0.005,0.001,-0.011,-0.007,-0.015,0.823,-1.311,2.257
2024-10-23 21:54:19.974,19183.539,0.188,0.967,-0.175,-0.003,-0.004,0.002,0.002,-0.003,-0.012,0.822,-1.311,2.257
2024-10-23 21:54:19.984,19183.549,0.188,0.967,-0.175,-0.002,0.003,0.002,0.017,0.001,-0.008,0.822,-1.311,2.256
2024-10-23 21:54:19.994,19183.559,0.188,0.967,-0.175,-0.003,0.009,0.001,0.008,-0.002,-0.002,0.821,-1.311,2.256
2024-10-23 21:54:20.004,19183.569,0.188,0.967,-0.175,-0.003,0.008,0.003,-0.003,-0.005,-0.002,0.821,-1.311,2.256
2024-10-23 21:54:20.014,19183.579,0.188,0.967,-0.175,-0.003,0.002,0.003,-0.009,-0.01,-0.002,0.821,-1.311,2.256
2024-10-23 21:54:20.024,19183.589,0.188,0.967,-0.175,-0.002,-0.001,-0.001,-0.003,-0.006,0.005,0.822,-1.311,2.256
2024-10-23 21:54:20.034,19183.599,0.188,0.967,-0.175,-0.003,-0.0,-0.005,0.002,0.003,0.004,0.822,-1.311,2.256
2024-10-23 21:54:20.044,19183.609,0.188,0.967,-0.175,-0.002,0.001,-0.003,0.008,0.006,0.003,0.822,-1.311,2.256
2024-10-23 21:54:20.054,19183.619,0.188,0.967,-0.175,-0.001,-0.001,-0.001,0.008,0.005,-0.0,0.821,-1.311,2.256
2024-10-23 21:54:20.064,19183.629,0.188,0.967,-0.175,-0.0,-0.003,0.003,-0.003,0.004,-0.003,0.821,-1.311,2.256
2024-10-23 21:54:20.074,19183.639,0.188,0.967,-0.175,-0.002,-0.004,0.004,-0.008,0.001,-0.003,0.821,-1.311,2.256
2024-10-23 21:54:20.084,19183.649,0.188,0.967,-0.175,-0.004,-0.003,0.005,-0.008,-0.002,-0.002,0.821,-1.311,2.256
2024-10-23 21:54:20.094,19183.659,0.188,0.967,-0.175,-0.002,-0.002,0.005,-0.006,-0.006,-0.003,0.822,-1.312,2.256
2024-10-23 21:54:20.103,19183.669,0.188,0.967,-0.175,-0.002,-0.002,0.003,-0.001,0.001,0.0,0.822,-1.312,2.256
2024-10-23 21:54:20.114,19183.679,0.188,0.967,-0.175,-0.004,-0.001,0.002,-0.005,-0.003,-0.003,0.821,-1.312,2.256
2024-10-23 21:54:20.124,19183.689,0.188,0.967,-0.175,-0.001,-0.0,0.001,-0.008,0.001,-0.0,0.822,-1.312,2.256
2024-10-23 21:54:20.134,19183.699,0.188,0.967,-0.174,-0.001,-0.003,0.002,-0.01,0.001,0.003,0.822,-1.312,2.257
2024-10-23 21:54:20.144,19183.709,0.188,0.967,-0.174,-0.004,-0.011,0.0,-0.001,-0.002,0.0,0.822,-1.312,2.257
2024-10-23 21:54:20.153,19183.719,0.188,0.967,-0.174,-0.003,-0.005,0.002,0.008,0.005,0.004,0.822,-1.312,2.257
2024-10-23 21:54:20.163,19183.729,0.188,0.967,-0.174,-0.005,0.005,0.004,0.009,0.003,0.004,0.822,-1.312,2.257
2024-10-23 21:54:20.174,19183.739,0.188,0.967,-0.175,-0.007,0.005,0.003,0.005,-0.003,0.003,0.822,-1.312,2.256
2024-10-23 21:54:20.183,19183.749,0.188,0.967,-0.175,-0.004,0.001,0.002,0.012,-0.004,0.005,0.822,-1.311,2.256
2024-10-23 21:54:20.194,19183.759,0.188,0.967,-0.175,-0.004,0.002,-0.002,0.011,-0.001,0.007,0.821,-1.311,2.256
2024-10-23 21:54:20.203,19183.769,0.188,0.966,-0.175,-0.004,0.005,-0.001,0.013,0.003,0.009,0.821,-1.311,2.256
2024-10-23 21:54:20.214,19183.779,0.188,0.966,-0.175,-0.004,0.005,0.002,0.015,-0.001,0.011,0.821,-1.311,2.256
2024-10-23 21:54:20.223,19183.789,0.188,0.966,-0.175,-0.002,0.002,0.002,0.01,-0.001,0.011,0.821,-1.311,2.256
2024-10-23 21:54:20.234,19183.799,0.188,0.966,-0.175,-0.002,0.002,0.001,-0.003,0.0,0.016,0.821,-1.311,2.256
2024-10-23 21:54:20.243,19183.809,0.188,0.966,-0.175,-0.002,0.0,0.004,-0.007,-0.003,0.008,0.822,-1.311,2.256
2024-10-23 21:54:20.254,19183.819,0.188,0.966,-0.175,-0.003,-0.009,0.004,-0.003,0.001,0.005,0.822,-1.311,2.257
2024-10-23 21:54:20.263,19183.829,0.188,0.966,-0.175,-0.003,-0.008,0.003,0.002,0.009,0.008,0.822,-1.311,2.257
2024-10-23 21:54:20.273,19183.839,0.189,0.966,-0.175,-0.004,-0.003,0.001,-0.002,0.008,0.004,0.822,-1.311,2.257
2024-10-23 21:54:20.283,19183.849,0.189,0.966,-0.175,-0.005,-0.006,0.001,-0.001,0.002,0.007,0.823,-1.311,2.257
2024-10-23 21:54:20.293,19183.859,0.189,0.966,-0.175,-0.003,-0.011,0.005,0.001,0.003,-0.002,0.823,-1.311,2.257
2024-10-23 21:54:20.303,19183.869,0.189,0.966,-0.175,-0.003,-0.007,0.005,0.011,0.0,0.005,0.823,-1.311,2.257
2024-10-23 21:54:20.313,19183.879,0.189,0.966,-0.175,-0.003,0.0,0.006,0.009,-0.001,-0.002,0.822,-1.311,2.257
2024-10-23 21:54:20.323,19183.889,0.189,0.966,-0.175,-0.002,-0.0,0.005,-0.0,-0.004,-0.002,0.822,-1.31,2.257
2024-10-23 21:54:20.333,19183.899,0.189,0.966,-0.175,-0.003,-0.002,0.003,-0.005,-0.006,-0.003,0.822,-1.311,2.257
2024-10-23 21:54:20.343,19183.909,0.188,0.966,-0.175,-0.0,-0.004,0.002,-0.006,-0.007,-0.004,0.822,-1.311,2.257
2024-10-23 21:54:20.353,19183.919,0.188,0.966,-0.175,-0.001,-0.003,0.0,-0.003,-0.009,-0.005,0.822,-1.311,2.257
2024-10-23 21:54:20.363,19183.929,0.188,0.966,-0.175,-0.0,-0.0,-0.0,0.005,-0.004,-0.002,0.822,-1.311,2.257
2024-10-23 21:54:20.373,19183.939,0.188,0.966,-0.175,0.001,-0.001,-0.002,0.004,-0.0,-0.001,0.822,-1.311,2.257
2024-10-23 21:54:20.383,19183.949,0.188,0.966,-0.175,0.001,-0.0,-0.002,0.002,-0.0,-0.002,0.822,-1.311,2.257
2024-10-23 21:54:20.393,19183.959,0.188,0.966,-0.175,-0.002,-0.001,-0.001,-0.0,0.002,0.002,0.822,-1.311,2.256
2024-10-23 21:54:20.403,19183.969,0.188,0.966,-0.175,-0.002,-0.005,-0.002,0.012,0.002,0.004,0.822,-1.311,2.256
2024-10-23 21:54:20.413,19183.979,0.188,0.966,-0.175,-0.001,-0.003,0.0,0.012,0.0,0.003,0.821,-1.311,2.256
2024-10-23 21:54:20.423,19183.989,0.188,0.966,-0.175,-0.002,0.002,-0.0,0.008,0.008,0.007,0.821,-1.31,2.256
2024-10-23 21:54:20.433,19183.999,0.188,0.966,-0.175,-0.004,-0.0,-0.001,-0.0,0.001,0.004,0.821,-1.31,2.256
2024-10-23 21:54:20.443,19184.009,0.189,0.966,-0.175,-0.004,-0.003,0.002,0.001,0.006,0.001,0.821,-1.31,2.256
2024-10-23 21:54:20.453,19184.019,0.189,0.966,-0.175,-0.003,-0.002,0.002,-0.0,0.006,-0.002,0.821,-1.31,2.256
2024-10-23 21:54:20.462,19184.029,0.189,0.966,-0.175,-0.003,-0.001,0.001,-0.002,0.006,-0.002,0.821,-1.31,2.256
2024-10-23 21:54:20.472,19184.039,0.189,0.966,-0.175,-0.002,-0.005,0.001,-0.001,0.002,-0.004,0.822,-1.31,2.256
2024-10-23 21:54:20.482,19184.049,0.189,0.966,-0.175,-0.002,-0.008,0.003,-0.002,0.004,-0.001,0.822,-1.31,2.256
2024-10-23 21:54:20.492,19184.059,0.189,0.966,-0.175,-0.004,-0.003,0.005,0.003,0.005,-0.003,0.821,-1.31,2.256
2024-10-23 21:54:20.503,19184.069,0.188,0.966,-0.175,-0.002,-0.002,0.005,0.004,0.001,-0.005,0.821,-1.31,2.256
2024-10-23 21:54:20.513,19184.079,0.188,0.966,-0.175,-0.002,-0.005,0.003,0.006,0.002,-0.007,0.821,-1.31,2.255
2024-10-23 21:54:20.523,19184.089,0.188,0.966,-0.175,-0.003,-0.003,0.004,-0.002,0.001,-0.005,0.821,-1.31,2.255
2024-10-23 21:54:20.533,19184.099,0.188,0.966,-0.175,-0.002,-0.001,0.006,0.002,0.001,-0.005,0.821,-1.31,2.255
2024-10-23 21:54:20.543,19184.109,0.188,0.966,-0.175,-0.002,-0.001,0.006,-0.004,-0.001,-0.005,0.821,-1.311,2.255
2024-10-23 21:54:20.553,19184.118,0.188,0.966,-0.175,-0.003,-0.004,0.003,-0.007,-0.002,-0.004,0.821,-1.311,2.255
2024-10-23 21:54:20.563,19184.128,0.188,0.966,-0.175,-0.001,-0.002,0.003,-0.014,0.0,-0.002,0.821,-1.311,2.255
2024-10-23 21:54:20.573,19184.138,0.188,0.966,-0.175,-0.001,-0.006,0.002,-0.019,-0.002,0.0,0.821,-1.311,2.256
2024-10-23 21:54:20.583,19184.148,0.188,0.966,-0.175,-0.002,-0.004,0.002,-0.01,-0.003,-0.003,0.822,-1.311,2.256
2024-10-23 21:54:20.593,19184.158,0.188,0.966,-0.175,-0.002,0.0,0.001,-0.004,0.004,-0.005,0.822,-1.311,2.256
2024-10-23 21:54:20.603,19184.168,0.188,0.966,-0.175,-0.002,-0.003,-0.001,-0.001,0.003,-0.006,0.822,-1.311,2.256
2024-10-23 21:54:20.613,19184.178,0.188,0.966,-0.175,-0.003,-0.003,-0.002,-0.004,0.001,-0.007,0.821,-1.311,2.256
2024-10-23 21:54:20.623,19184.188,0.188,0.967,-0.175,-0.004,-0.003,-0.002,-0.011,-0.002,-0.008,0.821,-1.311,2.256
2024-10-23 21:54:20.633,19184.198,0.188,0.967,-0.175,-0.004,-0.006,-0.003,-0.003,-0.001,-0.002,0.821,-1.311,2.256
2024-10-23 21:54:20.643,19184.208,0.188,0.967,-0.175,-0.002,-0.005,-0.003,-0.004,-0.001,-0.006,0.821,-1.311,2.256
2024-10-23 21:54:20.653,19184.218,0.188,0.967,-0.175,-0.003,-0.001,0.001,0.002,0.002,-0.006,0.821,-1.311,2.256
2024-10-23 21:54:20.663,19184.228,0.188,0.967,-0.175,-0.005,-0.001,0.0,0.005,0.006,-0.008,0.821,-1.312,2.256
2024-10-23 21:54:20.673,19184.238,0.188,0.967,-0.175,-0.005,-0.005,-0.001,0.001,0.007,-0.008,0.821,-1.312,2.255
2024-10-23 21:54:20.682,19184.248,0.188,0.967,-0.175,-0.002,-0.004,-0.002,0.002,0.005,-0.009,0.821,-1.312,2.255
2024-10-23 21:54:20.692,19184.258,0.187,0.967,-0.175,-0.001,-0.003,-0.001,0.006,0.008,-0.006,0.82,-1.312,2.255
2024-10-23 21:54:20.703,19184.268,0.187,0.967,-0.175,-0.001,0.004,0.002,0.006,0.006,-0.001,0.82,-1.312,2.254
2024-10-23 21:54:20.713,19184.278,0.187,0.967,-0.175,-0.002,0.009,0.007,0.005,0.002,-0.0,0.82,-1.312,2.254
2024-10-23 21:54:20.722,19184.288,0.187,0.967,-0.175,-0.001,0.006,0.007,-0.001,-0.006,0.001,0.82,-1.312,2.254
2024-10-23 21:54:20.732,19184.298,0.187,0.967,-0.175,0.0,-0.001,0.007,0.002,-0.006,-0.004,0.82,-1.312,2.254
2024-10-23 21:54:20.742,19184.308,0.187,0.967,-0.175,-0.001,-0.005,0.007,0.005,-0.003,-0.002,0.82,-1.312,2.254
2024-10-23 21:54:20.753,19184.318,0.187,0.967,-0.175,-0.003,-0.004,0.005,0.014,0.001,0.004,0.82,-1.312,2.254
2024-10-23 21:54:20.762,19184.328,0.187,0.967,-0.175,-0.003,0.002,0.003,0.009,0.004,0.004,0.819,-1.311,2.253
2024-10-23 21:54:20.773,19184.338,0.187,0.967,-0.175,-0.003,-0.002,-0.0,-0.006,-0.002,0.003,0.819,-1.311,2.253
2024-10-23 21:54:20.783,19184.348,0.187,0.967,-0.175,-0.001,-0.006,-0.001,-0.004,0.001,0.003,0.82,-1.311,2.254
2024-10-23 21:54:20.792,19184.358,0.187,0.967,-0.175,0.001,-0.004,-0.001,0.003,0.003,0.003,0.82,-1.311,2.254
2024-10-23 21:54:20.803,19184.368,0.188,0.967,-0.175,-0.002,0.001,-0.004,0.005,0.009,0.006,0.82,-1.311,2.254
2024-10-23 21:54:20.812,19184.378,0.188,0.967,-0.175,-0.005,0.004,-0.005,0.006,0.007,0.005,0.82,-1.311,2.254
2024-10-23 21:54:20.822,19184.388,0.188,0.967,-0.175,-0.004,0.001,-0.005,0.006,0.006,0.004,0.82,-1.311,2.254
2024-10-23 21:54:20.833,19184.398,0.188,0.966,-0.175,-0.004,-0.003,-0.001,0.009,0.006,0.007,0.82,-1.311,2.254
2024-10-23 21:54:20.843,19184.408,0.188,0.966,-0.175,-0.004,0.0,0.001,0.002,0.003,0.007,0.82,-1.311,2.254
2024-10-23 21:54:20.853,19184.418,0.188,0.966,-0.175,-0.004,-0.001,0.002,-0.003,0.001,-0.001,0.82,-1.311,2.254
2024-10-23 21:54:20.862,19184.428,0.188,0.966,-0.175,-0.005,-0.008,0.003,-0.008,-0.001,-0.001,0.82,-1.311,2.254
2024-10-23 21:54:20.872,19184.438,0.188,0.966,-0.175,-0.005,-0.01,0.007,0.0,-0.001,0.002,0.821,-1.311,2.254
2024-10-23 21:54:20.882,19184.448,0.188,0.966,-0.175,-0.003,-0.006,0.009,0.01,-0.004,-0.002,0.82,-1.311,2.254
2024-10-23 21:54:20.892,19184.458,0.188,0.966,-0.175,-0.001,-0.006,0.007,0.016,-0.006,0.002,0.82,-1.311,2.254
2024-10-23 21:54:20.902,19184.468,0.188,0.966,-0.175,-0.001,-0.002,0.008,0.01,-0.005,0.004,0.82,-1.311,2.253
2024-10-23 21:54:20.912,19184.478,0.188,0.966,-0.175,-0.001,0.0,0.004,0.001,-0.003,0.003,0.819,-1.311,2.253
2024-10-23 21:54:20.922,19184.488,0.188,0.966,-0.175,0.001,-0.0,0.003,-0.008,-0.003,0.001,0.82,-1.311,2.254
2024-10-23 21:54:20.932,19184.498,0.188,0.966,-0.175,-0.0,-0.001,0.002,-0.01,0.003,-0.003,0.82,-1.311,2.254
2024-10-23 21:54:20.942,19184.508,0.188,0.966,-0.175,-0.003,-0.0,-0.001,-0.013,0.007,-0.003,0.82,-1.311,2.254
2024-10-23 21:54:20.952,19184.518,0.188,0.966,-0.175,-0.001,-0.002,-0.003,-0.009,0.008,-0.005,0.82,-1.311,2.254
2024-10-23 21:54:20.963,19184.528,0.188,0.967,-0.175,-0.002,-0.002,-0.004,-0.043,0.032,-0.007,0.821,-1.311,2.255
2024-10-23 21:54:20.972,19184.538,0.188,0.967,-0.174,-0.01,-0.001,-0.007,-0.09,0.065,-0.028,0.823,-1.312,2.256
2024-10-23 21:54:20.982,19184.548,0.187,0.967,-0.173,-0.023,-0.008,-0.014,-0.123,0.101,-0.046,0.826,-1.313,2.258
2024-10-23 21:54:20.992,19184.558,0.187,0.967,-0.171,-0.037,-0.042,-0.038,-0.188,0.111,-0.028,0.83,-1.314,2.261
2024-10-23 21:54:21.002,19184.568,0.187,0.968,-0.169,-0.032,-0.065,-0.055,-0.231,0.061,0.01,0.836,-1.316,2.267
2024-10-23 21:54:21.012,19184.578,0.188,0.968,-0.166,-0.001,-0.039,-0.026,-0.284,0.001,0.027,0.845,-1.317,2.276
2024-10-23 21:54:21.022,19184.588,0.187,0.968,-0.164,0.04,0.018,0.014,-0.169,0.02,-0.048,0.851,-1.319,2.282
2024-10-23 21:54:21.032,19184.598,0.187,0.969,-0.163,0.041,0.075,0.049,0.033,0.085,-0.002,0.853,-1.32,2.283
2024-10-23 21:54:21.042,19184.608,0.187,0.969,-0.164,-0.003,0.04,0.031,0.034,0.044,0.032,0.853,-1.319,2.283
2024-10-23 21:54:21.052,19184.618,0.188,0.968,-0.164,0.002,-0.006,-0.015,0.002,0.016,0.024,0.853,-1.319,2.283
2024-10-23 21:54:21.062,19184.628,0.188,0.968,-0.164,0.022,0.017,-0.002,-0.024,0.036,0.029,0.854,-1.319,2.284
2024-10-23 21:54:21.072,19184.638,0.188,0.968,-0.163,0.001,0.039,-0.0,-0.058,0.051,0.025,0.857,-1.319,2.285
2024-10-23 21:54:21.082,19184.648,0.189,0.968,-0.163,-0.016,0.025,-0.003,-0.061,0.045,0.033,0.859,-1.319,2.288
2024-10-23 21:54:21.092,19184.658,0.189,0.968,-0.162,-0.012,-0.009,-0.006,-0.036,0.034,0.033,0.862,-1.319,2.29
2024-10-23 21:54:21.102,19184.668,0.189,0.968,-0.162,0.002,-0.019,-0.01,0.005,0.026,0.033,0.864,-1.319,2.292
2024-10-23 21:54:21.112,19184.678,0.19,0.968,-0.162,0.005,-0.004,-0.005,0.029,0.028,0.033,0.864,-1.319,2.292
2024-10-23 21:54:21.122,19184.688,0.19,0.968,-0.162,-0.006,0.003,0.002,0.02,0.026,0.026,0.865,-1.318,2.292
2024-10-23 21:54:21.132,19184.698,0.19,0.968,-0.162,-0.01,-0.004,0.011,0.008,0.017,0.02,0.865,-1.318,2.292
2024-10-23 21:54:21.142,19184.708,0.191,0.968,-0.162,-0.007,-0.016,0.017,0.008,0.007,0.012,0.865,-1.318,2.292
2024-10-23 21:54:21.152,19184.717,0.191,0.968,-0.162,-0.005,-0.02,0.02,0.021,0.002,0.009,0.865,-1.318,2.292
2024-10-23 21:54:21.162,19184.727,0.191,0.968,-0.163,-0.003,-0.014,0.022,0.032,-0.001,0.01,0.865,-1.317,2.292
2024-10-23 21:54:21.172,19184.737,0.191,0.968,-0.163,0.001,-0.008,0.023,0.047,-0.014,0.003,0.863,-1.317,2.29
2024-10-23 21:54:21.182,19184.747,0.191,0.968,-0.164,0.004,-0.008,0.019,0.057,-0.031,0.007,0.862,-1.317,2.289
2024-10-23 21:54:21.192,19184.757,0.191,0.968,-0.164,0.007,-0.01,0.018,0.064,-0.041,0.006,0.86,-1.316,2.287
2024-10-23 21:54:21.202,19184.767,0.191,0.968,-0.165,0.009,0.003,0.02,0.081,-0.05,0.005,0.858,-1.316,2.286
2024-10-23 21:54:21.212,19184.777,0.191,0.967,-0.166,0.007,0.018,0.02,0.101,-0.047,0.011,0.855,-1.315,2.283
2024-10-23 21:54:21.222,19184.787,0.191,0.967,-0.167,0.001,0.015,0.011,0.108,-0.049,0.015,0.852,-1.314,2.28
2024-10-23 21:54:21.232,19184.797,0.191,0.967,-0.168,-0.005,0.001,0.0,0.1,-0.051,0.011,0.848,-1.314,2.278
2024-10-23 21:54:21.242,19184.807,0.191,0.967,-0.169,-0.007,-0.006,-0.003,0.088,-0.051,0.012,0.846,-1.313,2.275
2024-10-23 21:54:21.252,19184.817,0.191,0.967,-0.17,-0.011,-0.004,0.0,0.071,-0.039,0.009,0.843,-1.312,2.273
2024-10-23 21:54:21.262,19184.827,0.191,0.967,-0.171,-0.013,-0.001,-0.001,0.033,-0.025,0.0,0.842,-1.312,2.272
2024-10-23 21:54:21.272,19184.837,0.191,0.967,-0.171,-0.012,-0.008,-0.003,0.019,-0.009,-0.003,0.841,-1.312,2.271
2024-10-23 21:54:21.282,19184.847,0.191,0.967,-0.171,-0.015,-0.02,-0.007,-0.006,-0.008,0.005,0.841,-1.312,2.271
2024-10-23 21:54:21.292,19184.857,0.191,0.967,-0.171,-0.012,-0.031,-0.017,-0.018,-0.012,-0.003,0.841,-1.312,2.272
2024-10-23 21:54:21.302,19184.867,0.191,0.967,-0.171,-0.001,-0.016,-0.014,-0.003,0.005,-0.004,0.842,-1.312,2.272
2024-10-23 21:54:21.312,19184.877,0.191,0.967,-0.171,-0.002,-0.001,-0.006,-0.001,0.009,-0.002,0.842,-1.312,2.272
2024-10-23 21:54:21.322,19184.887,0.191,0.967,-0.17,-0.004,0.001,-0.008,-0.012,0.006,-0.0,0.842,-1.312,2.272
2024-10-23 21:54:21.332,19184.897,0.191,0.967,-0.17,0.007,0.002,-0.002,-0.012,0.003,0.001,0.842,-1.312,2.273
2024-10-23 21:54:21.343,19184.907,0.191,0.967,-0.17,0.012,0.003,0.002,-0.006,0.0,0.001,0.842,-1.312,2.273
2024-10-23 21:54:21.352,19184.917,0.191,0.967,-0.17,0.008,0.006,0.003,0.007,0.002,0.005,0.842,-1.312,2.273
2024-10-23 21:54:21.362,19184.927,0.191,0.967,-0.17,0.001,0.009,0.003,0.017,-0.001,0.007,0.842,-1.312,2.273
2024-10-23 21:54:21.371,19184.937,0.191,0.967,-0.171,-0.001,0.006,0.003,0.02,-0.008,0.01,0.842,-1.312,2.272
2024-10-23 21:54:21.382,19184.947,0.191,0.967,-0.171,-0.001,0.003,0.004,0.022,-0.007,0.008,0.841,-1.312,2.272
2024-10-23 21:54:21.392,19184.957,0.191,0.967,-0.171,-0.004,0.002,0.006,0.018,-0.012,0.013,0.841,-1.311,2.271
2024-10-23 21:54:21.402,19184.967,0.191,0.966,-0.171,-0.007,0.001,0.006,0.009,-0.011,0.009,0.841,-1.311,2.271
2024-10-23 21:54:21.412,19184.977,0.191,0.966,-0.171,-0.007,-0.0,0.006,0.016,-0.005,0.007,0.84,-1.311,2.271
2024-10-23 21:54:21.422,19184.987,0.191,0.966,-0.172,-0.008,-0.006,0.003,0.011,0.0,0.008,0.84,-1.311,2.271
2024-10-23 21:54:21.431,19184.997,0.191,0.966,-0.172,-0.007,-0.011,0.001,0.006,-0.001,0.007,0.84,-1.311,2.271
2024-10-23 21:54:21.442,19185.007,0.192,0.966,-0.172,-0.009,-0.008,0.0,-0.002,0.004,0.007,0.84,-1.311,2.271
2024-10-23 21:54:21.452,19185.017,0.192,0.966,-0.172,-0.009,-0.007,0.001,-0.012,0.002,0.002,0.841,-1.311,2.271
2024-10-23 21:54:21.461,19185.027,0.192,0.966,-0.171,-0.008,-0.005,-0.001,-0.009,0.004,0.002,0.841,-1.311,2.272
2024-10-23 21:54:21.471,19185.037,0.192,0.966,-0.171,-0.004,-0.005,-0.002,-0.011,0.001,0.0,0.841,-1.311,2.272
2024-10-23 21:54:21.482,19185.047,0.192,0.966,-0.171,-0.001,-0.006,-0.004,-0.001,0.008,0.002,0.842,-1.311,2.272
2024-10-23 21:54:21.491,19185.057,0.192,0.966,-0.171,0.001,-0.006,-0.004,0.011,0.005,-0.002,0.842,-1.311,2.272
2024-10-23 21:54:21.501,19185.067,0.192,0.966,-0.171,0.0,-0.001,-0.004,0.018,0.011,0.007,0.841,-1.311,2.272
2024-10-23 21:54:21.512,19185.077,0.192,0.966,-0.172,-0.002,0.003,-0.002,0.011,0.006,0.01,0.841,-1.311,2.272
2024-10-23 21:54:21.521,19185.087,0.192,0.966,-0.172,-0.001,0.008,0.004,-0.001,0.0,0.008,0.841,-1.31,2.272
2024-10-23 21:54:21.531,19185.097,0.192,0.966,-0.172,0.002,0.008,0.01,-0.001,-0.003,0.007,0.841,-1.31,2.272
2024-10-23 21:54:21.541,19185.107,0.192,0.966,-0.172,-0.001,-0.003,0.01,0.0,-0.009,0.007,0.841,-1.31,2.272
2024-10-23 21:54:21.551,19185.117,0.192,0.966,-0.172,-0.001,-0.013,0.007,0.011,-0.01,0.004,0.841,-1.31,2.272
2024-10-23 21:54:21.561,19185.127,0.192,0.966,-0.172,0.001,-0.006,0.005,0.013,-0.003,0.002,0.841,-1.31,2.272
2024-10-23 21:54:21.571,19185.137,0.192,0.966,-0.172,-0.002,-0.003,0.003,-0.007,-0.003,-0.002,0.841,-1.31,2.272
2024-10-23 21:54:21.581,19185.147,0.192,0.966,-0.172,-0.003,-0.006,0.004,-0.023,-0.007,-0.007,0.841,-1.31,2.272
2024-10-23 21:54:21.591,19185.157,0.192,0.966,-0.171,-0.0,-0.013,0.004,-0.022,-0.005,-0.01,0.841,-1.311,2.272
2024-10-23 21:54:21.601,19185.167,0.192,0.966,-0.171,0.001,-0.014,0.0,0.002,-0.006,-0.006,0.841,-1.311,2.272
2024-10-23 21:54:21.611,19185.177,0.192,0.966,-0.171,0.001,-0.005,-0.002,0.018,0.003,-0.004,0.841,-1.311,2.272
2024-10-23 21:54:21.621,19185.187,0.192,0.966,-0.172,-0.001,0.006,-0.001,0.025,-0.002,-0.0,0.84,-1.311,2.271
2024-10-23 21:54:21.631,19185.197,0.192,0.966,-0.172,-0.004,0.008,0.001,0.013,-0.004,0.002,0.84,-1.31,2.271
2024-10-23 21:54:21.641,19185.207,0.192,0.966,-0.172,-0.005,0.002,-0.001,-0.002,-0.01,-0.004,0.84,-1.31,2.271
2024-10-23 21:54:21.651,19185.217,0.192,0.966,-0.172,-0.004,-0.0,-0.002,-0.003,-0.005,0.005,0.84,-1.31,2.271
2024-10-23 21:54:21.661,19185.227,0.192,0.966,-0.172,-0.005,0.002,-0.003,-0.007,-0.0,0.009,0.84,-1.31,2.271
2024-10-23 21:54:21.671,19185.237,0.192,0.966,-0.172,-0.006,0.002,-0.003,-0.005,-0.0,0.004,0.84,-1.31,2.272
2024-10-23 21:54:21.681,19185.247,0.192,0.966,-0.172,-0.004,-0.004,-0.004,-0.009,0.009,0.004,0.841,-1.31,2.272
2024-10-23 21:54:21.691,19185.257,0.192,0.966,-0.172,-0.0,-0.009,-0.003,-0.008,0.009,0.002,0.841,-1.31,2.272
2024-10-23 21:54:21.701,19185.267,0.192,0.966,-0.172,-0.002,-0.007,-0.001,-0.008,0.009,-0.001,0.841,-1.31,2.272
2024-10-23 21:54:21.711,19185.277,0.192,0.966,-0.171,-0.003,-0.008,0.001,-0.005,0.008,0.0,0.842,-1.311,2.273
2024-10-23 21:54:21.721,19185.287,0.192,0.966,-0.171,-0.0,-0.009,0.001,0.003,0.003,-0.007,0.842,-1.311,2.272
2024-10-23 21:54:21.731,19185.297,0.192,0.966,-0.172,0.002,-0.007,0.001,0.014,0.003,-0.007,0.841,-1.311,2.272
2024-10-23 21:54:21.741,19185.307,0.192,0.966,-0.172,-0.001,-0.002,0.004,0.015,0.001,-0.003,0.841,-1.31,2.271
2024-10-23 21:54:21.751,19185.316,0.192,0.966,-0.172,-0.002,0.002,0.006,0.004,-0.005,-0.005,0.84,-1.31,2.271
2024-10-23 21:54:21.761,19185.326,0.192,0.966,-0.172,-0.0,0.001,0.006,-0.007,-0.007,-0.006,0.84,-1.31,2.271
2024-10-23 21:54:21.771,19185.336,0.192,0.966,-0.172,0.002,-0.003,0.007,0.002,-0.004,-0.001,0.84,-1.311,2.271
2024-10-23 21:54:21.781,19185.346,0.192,0.966,-0.172,-0.002,-0.005,0.006,0.004,-0.004,-0.0,0.84,-1.311,2.271
2024-10-23 21:54:21.791,19185.356,0.192,0.966,-0.172,-0.003,-0.002,0.006,0.005,-0.006,-0.0,0.84,-1.31,2.271
2024-10-23 21:54:21.801,19185.366,0.192,0.966,-0.172,-0.002,0.002,0.006,-0.003,-0.005,-0.004,0.84,-1.31,2.271
2024-10-23 21:54:21.811,19185.376,0.192,0.966,-0.172,-0.0,-0.001,0.003,-0.009,-0.003,-0.003,0.84,-1.311,2.271
2024-10-23 21:54:21.821,19185.386,0.192,0.966,-0.172,-0.002,-0.002,0.002,-0.021,-0.007,-0.006,0.84,-1.311,2.271
2024-10-23 21:54:21.831,19185.396,0.191,0.966,-0.172,-0.002,-0.005,-0.001,-0.017,-0.006,-0.007,0.84,-1.311,2.271
2024-10-23 21:54:21.841,19185.406,0.191,0.966,-0.171,-0.001,-0.006,-0.001,-0.004,0.002,-0.008,0.84,-1.311,2.271
2024-10-23 21:54:21.851,19185.416,0.191,0.966,-0.171,-0.004,-0.005,-0.003,0.001,0.005,-0.004,0.84,-1.311,2.271
2024-10-23 21:54:21.861,19185.426,0.191,0.966,-0.171,-0.003,-0.001,-0.005,0.007,0.006,-0.0,0.84,-1.311,2.271
2024-10-23 21:54:21.870,19185.436,0.191,0.966,-0.171,-0.005,-0.001,-0.003,0.001,0.004,-0.003,0.84,-1.311,2.271
2024-10-23 21:54:21.880,19185.446,0.191,0.966,-0.171,-0.005,-0.002,-0.002,-0.005,0.001,-0.004,0.84,-1.311,2.271
2024-10-23 21:54:21.890,19185.456,0.191,0.966,-0.171,-0.003,-0.001,-0.001,-0.007,-0.002,-0.003,0.84,-1.311,2.271
2024-10-23 21:54:21.900,19185.466,0.191,0.967,-0.171,-0.003,0.002,0.003,-0.01,-0.002,-0.005,0.84,-1.311,2.271
2024-10-23 21:54:21.910,19185.476,0.191,0.967,-0.171,-0.003,-0.001,0.003,-0.017,-0.007,-0.007,0.84,-1.311,2.271
2024-10-23 21:54:21.920,19185.486,0.191,0.967,-0.171,-0.004,-0.007,0.002,-0.016,-0.005,-0.008,0.841,-1.312,2.272
2024-10-23 21:54:21.931,19185.496,0.191,0.967,-0.171,-0.003,-0.01,0.001,-0.007,-0.003,-0.011,0.841,-1.312,2.272
2024-10-23 21:54:21.941,19185.506,0.191,0.967,-0.171,-0.002,-0.01,-0.0,0.0,-0.002,-0.014,0.84,-1.312,2.272
2024-10-23 21:54:21.951,19185.516,0.191,0.967,-0.171,-0.003,-0.008,-0.001,0.006,0.005,-0.013,0.84,-1.312,2.271
2024-10-23 21:54:21.961,19185.526,0.191,0.967,-0.171,-0.004,-0.005,-0.001,0.008,0.005,-0.011,0.84,-1.312,2.271
2024-10-23 21:54:21.971,19185.536,0.19,0.967,-0.171,-0.001,-0.002,0.001,0.005,0.005,-0.013,0.839,-1.312,2.27
2024-10-23 21:54:21.981,19185.546,0.19,0.967,-0.171,0.001,0.001,0.002,0.001,0.007,-0.007,0.839,-1.312,2.27
2024-10-23 21:54:21.991,19185.556,0.19,0.967,-0.171,-0.001,0.005,0.002,-0.006,0.004,-0.007,0.839,-1.312,2.27
2024-10-23 21:54:22.001,19185.566,0.19,0.967,-0.171,-0.001,0.003,0.004,-0.003,-0.005,0.002,0.839,-1.312,2.27
2024-10-23 21:54:22.011,19185.576,0.19,0.967,-0.171,-0.0,0.002,0.005,0.003,-0.005,0.004,0.839,-1.312,2.27
2024-10-23 21:54:22.021,19185.586,0.19,0.967,-0.171,0.0,0.009,0.004,0.009,-0.001,0.006,0.839,-1.312,2.27
2024-10-23 21:54:22.030,19185.596,0.19,0.967,-0.171,0.0,0.012,0.002,0.008,-0.003,0.01,0.839,-1.312,2.27
2024-10-23 21:54:22.041,19185.606,0.19,0.967,-0.171,-0.0,0.007,0.001,0.008,0.0,0.016,0.839,-1.312,2.27
2024-10-23 21:54:22.051,19185.616,0.191,0.967,-0.171,-0.002,0.002,-0.001,0.002,-0.001,0.012,0.839,-1.312,2.27
2024-10-23 21:54:22.060,19185.626,0.191,0.967,-0.171,0.0,0.004,-0.001,0.01,0.001,0.011,0.839,-1.312,2.27
2024-10-23 21:54:22.070,19185.636,0.191,0.967,-0.171,-0.003,0.0,-0.003,0.003,0.007,0.01,0.839,-1.311,2.27
2024-10-23 21:54:22.081,19185.646,0.191,0.967,-0.171,-0.006,-0.005,-0.003,0.003,0.008,0.009,0.839,-1.311,2.27
2024-10-23 21:54:22.090,19185.656,0.191,0.967,-0.171,-0.008,-0.008,-0.0,0.005,0.008,0.005,0.84,-1.311,2.27
2024-10-23 21:54:22.100,19185.666,0.191,0.966,-0.171,-0.007,-0.013,0.0,0.002,0.007,0.004,0.84,-1.311,2.27
2024-10-23 21:54:22.111,19185.676,0.191,0.966,-0.171,-0.005,-0.01,-0.0,0.008,0.006,0.001,0.84,-1.311,2.27
2024-10-23 21:54:22.121,19185.686,0.191,0.966,-0.171,-0.006,-0.006,-0.0,0.007,0.008,0.002,0.84,-1.311,2.27
2024-10-23 21:54:22.131,19185.696,0.191,0.966,-0.171,-0.008,-0.005,0.001,0.003,0.007,0.003,0.84,-1.311,2.27
2024-10-23 21:54:22.140,19185.706,0.191,0.966,-0.171,-0.006,-0.004,0.001,-0.009,0.005,0.001,0.84,-1.311,2.27
2024-10-23 21:54:22.151,19185.716,0.191,0.966,-0.171,-0.002,-0.005,0.005,-0.014,-0.001,-0.003,0.84,-1.311,2.27
2024-10-23 21:54:22.160,19185.726,0.191,0.967,-0.171,-0.003,-0.006,0.007,-0.012,0.002,-0.002,0.84,-1.311,2.271
2024-10-23 21:54:22.170,19185.736,0.191,0.967,-0.171,-0.003,-0.003,0.005,-0.012,0.001,-0.006,0.84,-1.311,2.271
2024-10-23 21:54:22.181,19185.746,0.191,0.967,-0.171,-0.001,-0.001,0.005,-0.008,0.002,-0.006,0.841,-1.312,2.271
2024-10-23 21:54:22.190,19185.756,0.191,0.967,-0.171,-0.001,-0.004,0.003,-0.007,-0.003,-0.006,0.841,-1.312,2.271
2024-10-23 21:54:22.200,19185.766,0.191,0.967,-0.171,0.003,-0.005,0.002,-0.002,-0.0,-0.004,0.841,-1.312,2.271
2024-10-23 21:54:22.210,19185.776,0.191,0.967,-0.171,0.001,0.001,0.001,-0.005,0.001,-0.001,0.841,-1.312,2.271
2024-10-23 21:54:22.220,19185.786,0.191,0.967,-0.171,0.001,0.004,-0.002,-0.001,0.001,0.002,0.841,-1.312,2.271
2024-10-23 21:54:22.230,19185.796,0.191,0.967,-0.171,0.0,0.001,-0.001,-0.002,-0.001,0.002,0.841,-1.312,2.271
2024-10-23 21:54:22.241,19185.806,0.191,0.967,-0.171,0.002,-0.0,-0.001,-0.007,0.003,0.003,0.841,-1.312,2.271
2024-10-23 21:54:22.250,19185.816,0.191,0.967,-0.171,-0.001,0.003,-0.0,-0.006,0.003,0.005,0.841,-1.312,2.272
2024-10-23 21:54:22.260,19185.826,0.191,0.967,-0.171,-0.002,0.001,-0.0,-0.006,-0.001,0.004,0.842,-1.312,2.272
2024-10-23 21:54:22.270,19185.836,0.191,0.967,-0.171,-0.002,-0.002,0.0,-0.005,0.001,0.006,0.842,-1.312,2.272
2024-10-23 21:54:22.280,19185.846,0.191,0.967,-0.171,-0.003,-0.002,-0.0,-0.006,-0.001,0.006,0.842,-1.312,2.273
2024-10-23 21:54:22.290,19185.856,0.191,0.967,-0.17,-0.004,-0.003,-0.0,-0.001,0.003,0.004,0.843,-1.312,2.273
2024-10-23 21:54:22.300,19185.866,0.191,0.967,-0.17,-0.006,-0.003,-0.0,-0.001,0.007,0.006,0.843,-1.312,2.273
2024-10-23 21:54:22.310,19185.876,0.191,0.967,-0.17,-0.005,-0.004,-0.001,-0.003,0.007,-0.001,0.843,-1.312,2.273
2024-10-23 21:54:22.320,19185.886,0.191,0.967,-0.17,-0.002,-0.006,-0.001,-0.007,0.005,-0.001,0.843,-1.312,2.273
2024-10-23 21:54:22.330,19185.896,0.191,0.967,-0.17,-0.003,-0.007,-0.001,-0.005,0.007,-0.001,0.843,-1.312,2.273
2024-10-23 21:54:22.340,19185.906,0.191,0.967,-0.17,-0.002,-0.009,-0.001,-0.004,0.007,-0.003,0.843,-1.312,2.273
2024-10-23 21:54:22.350,19185.915,0.191,0.967,-0.17,-0.002,-0.006,-0.0,-0.004,0.008,-0.002,0.843,-1.312,2.273
2024-10-23 21:54:22.360,19185.925,0.191,0.967,-0.17,-0.001,-0.004,0.001,-0.001,0.004,-0.004,0.844,-1.312,2.273
2024-10-23 21:54:22.370,19185.935,0.191,0.967,-0.17,-0.001,-0.005,0.004,-0.007,0.008,-0.008,0.843,-1.312,2.273
2024-10-23 21:54:22.380,19185.945,0.191,0.967,-0.17,0.001,-0.003,0.002,-0.025,0.008,-0.007,0.844,-1.312,2.274
2024-10-23 21:54:22.390,19185.955,0.191,0.967,-0.17,-0.0,-0.001,0.002,-0.079,0.034,-0.021,0.845,-1.312,2.275
2024-10-23 21:54:22.400,19185.965,0.191,0.967,-0.169,-0.009,-0.004,-0.003,-0.103,0.078,-0.058,0.847,-1.313,2.276
2024-10-23 21:54:22.417,19185.975,0.19,0.967,-0.167,-0.029,-0.024,-0.02,-0.111,0.117,-0.057,0.85,-1.315,2.278
2024-10-23 21:54:22.421,19185.985,0.19,0.968,-0.166,-0.043,-0.062,-0.052,-0.213,0.085,0.013,0.855,-1.316,2.282
2024-10-23 21:54:22.430,19185.995,0.191,0.968,-0.163,-0.022,-0.056,-0.051,-0.346,0.005,0.023,0.864,-1.317,2.291
2024-10-23 21:54:22.440,19186.005,0.19,0.969,-0.16,0.036,0.0,-0.004,-0.244,0.027,-0.078,0.872,-1.32,2.3
2024-10-23 21:54:22.450,19186.015,0.19,0.969,-0.158,0.048,0.061,0.051,-0.049,0.116,-0.032,0.875,-1.321,2.302
2024-10-23 21:54:22.460,19186.025,0.19,0.969,-0.158,-0.007,0.027,0.028,-0.033,0.058,0.017,0.877,-1.321,2.303
2024-10-23 21:54:22.470,19186.035,0.19,0.969,-0.158,0.0,-0.022,-0.019,-0.021,-0.016,0.003,0.879,-1.321,2.304
2024-10-23 21:54:22.480,19186.045,0.19,0.969,-0.158,0.035,0.0,-0.003,0.013,0.01,0.009,0.879,-1.321,2.304
2024-10-23 21:54:22.490,19186.055,0.19,0.969,-0.158,0.014,0.052,0.014,0.001,0.028,0.031,0.879,-1.321,2.304
2024-10-23 21:54:22.500,19186.065,0.191,0.969,-0.158,-0.011,0.065,0.024,-0.029,0.003,0.025,0.88,-1.321,2.306
2024-10-23 21:54:22.509,19186.075,0.191,0.969,-0.157,-0.004,0.007,0.02,-0.007,-0.021,0.018,0.881,-1.321,2.307
2024-10-23 21:54:22.520,19186.085,0.191,0.969,-0.158,0.008,-0.022,0.009,0.06,-0.013,0.031,0.881,-1.321,2.307
2024-10-23 21:54:22.530,19186.095,0.191,0.969,-0.158,0.001,0.012,0.0,0.1,0.0,0.04,0.879,-1.32,2.305
2024-10-23 21:54:22.540,19186.105,0.192,0.968,-0.159,-0.013,0.026,0.001,0.079,-0.011,0.035,0.877,-1.319,2.303
2024-10-23 21:54:22.550,19186.115,0.192,0.968,-0.16,-0.013,-0.003,0.006,0.042,-0.03,0.025,0.876,-1.318,2.302
2024-10-23 21:54:22.560,19186.125,0.192,0.968,-0.16,-0.007,-0.023,0.016,0.027,-0.032,0.021,0.875,-1.318,2.302
2024-10-23 21:54:22.570,19186.135,0.192,0.968,-0.161,-0.008,-0.016,0.021,0.027,-0.03,0.017,0.875,-1.318,2.301
2024-10-23 21:54:22.579,19186.145,0.192,0.968,-0.161,-0.008,-0.009,0.012,0.041,-0.029,0.01,0.874,-1.317,2.301
2024-10-23 21:54:22.590,19186.155,0.192,0.968,-0.162,-0.004,-0.009,-0.0,0.062,-0.021,0.008,0.872,-1.317,2.299
2024-10-23 21:54:22.600,19186.165,0.192,0.968,-0.162,-0.006,-0.016,-0.007,0.065,-0.01,0.0,0.87,-1.316,2.298
2024-10-23 21:54:22.610,19186.175,0.192,0.968,-0.163,-0.008,-0.015,-0.012,0.057,-0.001,-0.006,0.868,-1.316,2.296
2024-10-23 21:54:22.620,19186.185,0.192,0.968,-0.163,-0.006,-0.011,-0.01,0.029,0.003,-0.01,0.867,-1.316,2.294
2024-10-23 21:54:22.630,19186.195,0.192,0.968,-0.163,-0.001,-0.01,-0.006,-0.003,-0.001,-0.013,0.866,-1.316,2.293
2024-10-23 21:54:22.639,19186.205,0.192,0.968,-0.163,0.003,-0.011,-0.001,-0.009,-0.008,-0.015,0.866,-1.316,2.293
2024-10-23 21:54:22.649,19186.215,0.192,0.968,-0.163,0.004,-0.014,-0.001,-0.011,-0.005,-0.014,0.866,-1.316,2.293
2024-10-23 21:54:22.659,19186.225,0.192,0.968,-0.163,0.003,-0.005,0.001,-0.004,-0.006,-0.012,0.866,-1.316,2.293
2024-10-23 21:54:22.669,19186.235,0.192,0.968,-0.163,0.0,0.003,0.001,0.0,-0.005,-0.01,0.866,-1.316,2.293
2024-10-23 21:54:22.679,19186.245,0.192,0.968,-0.163,0.001,0.0,0.001,-0.003,-0.003,-0.007,0.865,-1.316,2.293
2024-10-23 21:54:22.689,19186.255,0.191,0.968,-0.163,0.001,-0.003,0.004,0.014,0.001,-0.012,0.865,-1.317,2.292
2024-10-23 21:54:22.699,19186.265,0.191,0.968,-0.163,-0.003,-0.003,0.002,0.009,0.009,-0.004,0.864,-1.317,2.292
2024-10-23 21:54:22.710,19186.275,0.191,0.968,-0.163,-0.011,-0.006,-0.003,-0.001,0.002,-0.0,0.864,-1.316,2.292
2024-10-23 21:54:22.719,19186.285,0.191,0.968,-0.163,-0.01,0.002,-0.007,-0.011,-0.001,0.001,0.865,-1.316,2.292
2024-10-23 21:54:22.729,19186.295,0.191,0.968,-0.163,-0.004,0.012,0.001,-0.008,0.007,-0.002,0.865,-1.317,2.292
2024-10-23 21:54:22.739,19186.305,0.191,0.968,-0.163,-0.002,0.009,0.004,-0.004,0.005,0.001,0.865,-1.317,2.292
2024-10-23 21:54:22.751,19186.315,0.191,0.968,-0.163,-0.005,-0.003,-0.001,0.004,0.003,0.014,0.865,-1.317,2.292
2024-10-23 21:54:22.759,19186.325,0.192,0.968,-0.163,-0.001,-0.0,-0.002,0.015,-0.001,0.019,0.865,-1.316,2.292
2024-10-23 21:54:22.769,19186.335,0.192,0.968,-0.163,0.002,0.007,-0.001,0.012,0.002,0.019,0.866,-1.316,2.293
2024-10-23 21:54:22.779,19186.345,0.192,0.968,-0.163,-0.001,0.013,0.004,0.01,0.008,0.022,0.866,-1.316,2.293
2024-10-23 21:54:22.789,19186.355,0.192,0.968,-0.163,-0.007,0.014,0.005,0.004,0.003,0.026,0.866,-1.316,2.293
2024-10-23 21:54:22.799,19186.365,0.192,0.968,-0.163,-0.005,0.004,0.004,0.007,0.004,0.019,0.867,-1.316,2.294
2024-10-23 21:54:22.809,19186.375,0.193,0.968,-0.164,-0.003,-0.002,0.004,0.013,0.002,0.025,0.867,-1.315,2.294
2024-10-23 21:54:22.819,19186.385,0.193,0.967,-0.164,-0.005,-0.0,0.003,0.023,0.009,0.023,0.867,-1.315,2.294
2024-10-23 21:54:22.829,19186.395,0.193,0.967,-0.164,-0.008,0.003,0.005,0.022,0.011,0.018,0.867,-1.315,2.294
2024-10-23 21:54:22.839,19186.405,0.193,0.967,-0.164,-0.009,0.001,0.004,0.004,0.01,0.014,0.867,-1.315,2.294
2024-10-23 21:54:22.849,19186.415,0.193,0.967,-0.164,-0.006,-0.006,0.008,-0.027,0.015,0.002,0.868,-1.315,2.294
2024-10-23 21:54:22.859,19186.425,0.193,0.967,-0.164,-0.005,-0.012,0.007,-0.009,-0.007,-0.008,0.868,-1.315,2.295
2024-10-23 21:54:22.869,19186.435,0.193,0.967,-0.164,-0.006,-0.025,-0.001,0.033,0.007,-0.01,0.868,-1.315,2.294
2024-10-23 21:54:22.880,19186.445,0.193,0.967,-0.164,-0.008,-0.014,-0.003,0.029,0.013,-0.001,0.867,-1.315,2.293
2024-10-23 21:54:22.890,19186.455,0.193,0.967,-0.164,-0.009,0.009,0.005,0.009,0.003,-0.008,0.866,-1.314,2.292
2024-10-23 21:54:22.899,19186.465,0.193,0.967,-0.164,-0.007,0.001,0.008,-0.0,0.003,-0.012,0.866,-1.315,2.292
2024-10-23 21:54:22.909,19186.475,0.193,0.967,-0.164,-0.007,-0.012,0.008,-0.002,0.0,-0.011,0.866,-1.315,2.292
2024-10-23 21:54:22.919,19186.485,0.193,0.967,-0.164,-0.004,-0.001,0.011,0.022,-0.001,-0.009,0.865,-1.315,2.291
2024-10-23 21:54:22.929,19186.495,0.193,0.967,-0.165,0.001,0.003,0.008,0.018,-0.008,-0.003,0.864,-1.315,2.29
2024-10-23 21:54:22.939,19186.505,0.193,0.967,-0.165,0.004,0.002,0.006,0.018,-0.009,-0.007,0.864,-1.314,2.29
2024-10-23 21:54:22.949,19186.515,0.193,0.967,-0.165,0.005,0.004,0.009,0.014,-0.003,-0.0,0.863,-1.314,2.289
2024-10-23 21:54:22.959,19186.524,0.193,0.967,-0.165,0.004,0.002,0.003,0.017,-0.013,0.002,0.862,-1.314,2.289
2024-10-23 21:54:22.969,19186.534,0.193,0.967,-0.165,0.008,-0.001,0.002,0.026,-0.018,0.008,0.862,-1.314,2.288
2024-10-23 21:54:22.979,19186.544,0.193,0.967,-0.166,0.009,-0.0,-0.0,0.035,-0.018,0.016,0.861,-1.314,2.288
2024-10-23 21:54:22.989,19186.554,0.193,0.967,-0.166,0.009,0.008,0.0,0.038,-0.017,0.017,0.86,-1.314,2.287
2024-10-23 21:54:22.999,19186.564,0.193,0.967,-0.166,0.008,0.011,-0.0,0.027,-0.019,0.018,0.86,-1.313,2.287
2024-10-23 21:54:23.010,19186.574,0.193,0.967,-0.167,0.01,0.007,-0.002,0.03,-0.021,0.017,0.859,-1.313,2.286
2024-10-23 21:54:23.019,19186.584,0.193,0.967,-0.167,0.006,0.002,-0.003,0.033,-0.013,0.018,0.859,-1.313,2.286
2024-10-23 21:54:23.029,19186.594,0.193,0.967,-0.167,0.001,0.002,-0.008,0.028,-0.012,0.026,0.858,-1.312,2.286
2024-10-23 21:54:23.039,19186.604,0.194,0.967,-0.167,0.0,0.002,-0.007,0.033,-0.013,0.024,0.858,-1.312,2.286
2024-10-23 21:54:23.049,19186.614,0.194,0.967,-0.168,0.002,-0.008,-0.006,0.034,-0.01,0.027,0.858,-1.311,2.285
2024-10-23 21:54:23.059,19186.624,0.194,0.966,-0.168,-0.0,-0.013,-0.003,0.024,-0.002,0.027,0.857,-1.311,2.285
2024-10-23 21:54:23.069,19186.634,0.194,0.966,-0.168,-0.003,-0.004,0.0,0.004,0.001,0.02,0.858,-1.311,2.285
2024-10-23 21:54:23.079,19186.644,0.195,0.966,-0.168,-0.002,-0.006,-0.0,0.006,-0.01,0.01,0.858,-1.311,2.286
2024-10-23 21:54:23.089,19186.654,0.195,0.966,-0.168,-0.001,-0.012,-0.004,0.024,-0.0,0.013,0.858,-1.31,2.286
2024-10-23 21:54:23.099,19186.664,0.195,0.966,-0.169,-0.002,-0.005,-0.005,0.031,0.001,0.015,0.857,-1.31,2.285
2024-10-23 21:54:23.109,19186.674,0.195,0.966,-0.169,-0.001,0.002,0.003,0.021,-0.007,0.01,0.857,-1.31,2.285
2024-10-23 21:54:23.119,19186.684,0.195,0.966,-0.169,0.004,-0.006,0.006,0.005,-0.015,0.005,0.857,-1.31,2.284
2024-10-23 21:54:23.129,19186.694,0.195,0.966,-0.169,0.005,-0.016,0.006,0.003,-0.02,0.003,0.856,-1.31,2.284
2024-10-23 21:54:23.139,19186.704,0.195,0.966,-0.169,0.003,-0.013,0.004,0.004,-0.018,0.003,0.856,-1.31,2.284
2024-10-23 21:54:23.149,19186.714,0.195,0.966,-0.169,0.001,-0.005,0.006,0.012,-0.023,0.002,0.856,-1.31,2.284
2024-10-23 21:54:23.159,19186.724,0.195,0.966,-0.17,0.001,-0.01,0.006,0.013,-0.027,-0.003,0.855,-1.31,2.284
2024-10-23 21:54:23.169,19186.734,0.195,0.966,-0.17,0.001,-0.02,0.005,0.015,-0.028,-0.006,0.854,-1.309,2.283
2024-10-23 21:54:23.179,19186.744,0.195,0.966,-0.17,0.001,-0.017,0.007,0.015,-0.028,-0.007,0.853,-1.309,2.283
2024-10-23 21:54:23.189,19186.754,0.195,0.966,-0.17,-0.002,-0.008,0.01,0.005,-0.027,-0.009,0.853,-1.309,2.282
2024-10-23 21:54:23.199,19186.764,0.194,0.966,-0.17,-0.003,-0.006,0.009,0.006,-0.028,-0.011,0.852,-1.309,2.282
2024-10-23 21:54:23.208,19186.774,0.194,0.966,-0.17,-0.002,-0.01,0.008,-0.006,-0.033,-0.009,0.852,-1.309,2.282
2024-10-23 21:54:23.219,19186.784,0.194,0.966,-0.17,-0.003,-0.01,0.005,-0.015,-0.039,-0.007,0.851,-1.31,2.282
2024-10-23 21:54:23.228,19186.794,0.194,0.966,-0.17,-0.002,-0.006,0.001,-0.01,-0.035,-0.01,0.851,-1.31,2.282
2024-10-23 21:54:23.239,19186.804,0.194,0.966,-0.17,-0.003,-0.007,-0.006,0.003,-0.033,-0.005,0.851,-1.31,2.282
2024-10-23 21:54:23.249,19186.814,0.194,0.966,-0.17,-0.003,-0.004,-0.01,0.005,-0.032,-0.005,0.85,-1.31,2.282
2024-10-23 21:54:23.258,19186.824,0.194,0.966,-0.17,-0.001,0.001,-0.01,0.0,-0.029,-0.002,0.85,-1.31,2.281
2024-10-23 21:54:23.269,19186.834,0.194,0.966,-0.17,0.002,0.002,-0.007,-0.008,-0.029,-0.005,0.85,-1.31,2.282
2024-10-23 21:54:23.278,19186.844,0.194,0.966,-0.17,0.002,-0.002,-0.004,-0.008,-0.028,-0.002,0.849,-1.31,2.282
2024-10-23 21:54:23.288,19186.854,0.194,0.966,-0.17,0.001,-0.002,-0.003,-0.007,-0.031,-0.001,0.849,-1.31,2.282
2024-10-23 21:54:23.298,19186.864,0.194,0.966,-0.17,0.002,0.002,-0.003,-0.014,-0.031,0.0,0.849,-1.31,2.282
