Date,TimeStamp,UserAccelerationX,UserAccelerationY,UserAccelerationZ,AttitudePitch,AttitudeRoll,AttitudeYaw,GravityX,GravityY,GravityZ,RotationRateX,RotationRateY,RotationRateZ
2024/9/23 16:03,1730445005,0.002824049,-0.016885608,-0.017603874,0.313158995,0.030685858,0.173944523,0.029188873,-0.308065534,-0.950917244,0.009799275,0.021150863,0.021924851
2024/9/23 15:44,1730444993,0.000455096,0.006524175,0.004498422,0.29674893,-0.092643717,0.150093348,-0.088467784,-0.292412788,-0.952191293,0.001072369,-0.003727056,0.017452177
2024/9/23 15:17,1730444975,0.021183886,-0.022665292,-0.023087204,0.311254549,-0.087200838,0.053253689,-0.082905687,-0.306253135,-0.948333085,0.238648772,0.754325509,-0.054108929
2024/9/23 15:45,1730444993,-0.00700514,0.005142838,0.008209765,0.292243975,-0.103405883,0.148823855,-0.09884508,-0.288101792,-0.952484667,0.022269063,0.0462192,0.034837879
2024/9/23 15:31,1730444983,-0.026577801,-0.004624814,-0.03929466,0.303111164,-0.067297897,0.058594292,-0.064181477,-0.298490971,-0.952251971,0.108289465,0.107770711,0.023973513
2024/9/23 16:34,1730445021,-0.001069151,0.009403884,0.003786623,0.339868573,0.044831175,0.225422316,0.042252608,-0.333363175,-0.941851199,0.0017055,-0.002604799,-0.010447737
2024/9/23 15:31,1730444984,0.012718216,0.008053035,0.001449287,0.323141459,-0.050122361,0.012034929,-0.047508255,-0.317546993,-0.947051644,0.023403777,0.034234177,-0.041195262
2024/9/23 15:50,1730444996,-0.03211927,0.03637895,-0.035805523,0.343120922,-0.061693162,0.18302462,-0.058060177,-0.336427718,-0.939917743,0.094827048,0.320921063,0.174307838
2024/9/23 15:59,1730445004,-0.003506616,-0.015182704,0.0079633,0.330879137,0.052763243,0.162030447,0.049878061,-0.32487461,-0.944440901,-0.024226194,-0.02225733,-0.019629091
2024/9/23 16:17,1730445011,-0.000226667,0.007178038,0.005158842,0.321655888,0.027069774,0.190217047,0.025678316,-0.316137969,-0.948365629,-0.004029175,0.015517745,-0.018338364
2024/9/23 15:30,1730444983,-0.009452853,0.005829632,0.001252115,0.314212341,-0.047163667,0.09075637,-0.044837911,-0.309067458,-0.949982584,-0.005534681,-0.035151556,-0.003243832
2024/9/23 15:51,1730444998,0.010914203,0.006516278,-0.009008646,0.333446628,0.043528806,0.221748478,0.041118246,-0.327301741,-0.944024801,-0.000142883,0.030238101,-0.007692749
2024/9/23 16:19,1730445012,-0.001624443,0.01243484,0.00657475,0.331507545,0.027751192,0.196266322,0.026236847,-0.325468868,-0.945188701,0.020472143,0.001378224,0.006144556
2024/9/23 15:57,1730445004,-0.007846408,0.004983783,0.025067747,0.331615466,0.043864646,0.118757345,0.041461498,-0.325570911,-0.944608152,-0.002929866,0.038275257,-0.001885087
2024/9/23 16:30,1730445019,-0.035796985,0.015518516,-0.020878434,0.359663739,0.069942927,0.230220511,0.06541428,-0.351959497,-0.933726668,0.020139324,0.056514714,0.025886197
2024/9/23 15:16,1730444974,-0.002820671,0.017899558,0.005905569,0.174592687,-0.185114955,0.019329262,-0.181261331,-0.173707038,-0.967972219,0.013474459,-0.017006377,-0.0181488
2024/9/23 15:33,1730444985,-0.002825516,0.00776574,0.0071854,0.347236429,-0.013596083,0.08930943,-0.012784231,-0.340300471,-0.940229833,0.000916075,-0.010608131,0.017063836
2024/9/23 16:05,1730445005,0.002283679,0.012049466,0.004215896,0.322287293,0.032329923,0.182541041,0.030660024,-0.316736907,-0.948017776,0.023245025,0.011975208,0.014802546
2024/9/23 16:34,1730445021,-0.010127746,0.0058752,0.012668729,0.339217127,0.04450766,0.225274738,0.041957553,-0.33274892,-0.942081571,-0.000934648,-0.005549989,0.004393049
2024/9/23 15:32,1730444984,-0.01875459,0.010355145,-0.007145405,0.32795472,-0.04696684,-0.017642771,-0.04444731,-0.322107434,-0.945659161,0.012689505,-0.092020966,-0.173933014
2024/9/23 16:23,1730445015,-0.005699746,0.005012155,0.002764285,0.319213064,0.020548358,0.190676462,0.019508937,-0.313819468,-0.949282229,0.005299268,0.04486445,0.016627131
2024/9/23 15:59,1730445004,-0.005873878,0.012376666,0.006617308,0.33115557,0.053772353,0.161228329,0.050826252,-0.325136036,-0.944300413,-0.010952827,0.005275228,-0.006800004
2024/9/23 16:08,1730445006,0.005025581,-0.010444283,0.037687123,0.324360834,0.037528045,0.182679491,0.035562783,-0.318703026,-0.947187245,0.045095555,-0.062318463,-0.025260398
2024/9/23 15:28,1730444982,0.006709019,-0.00180006,0.005511999,0.343978209,-0.013594012,0.100251978,-0.012797288,-0.337234914,-0.941333532,-0.163360029,-0.12711744,0.11735981
2024/9/23 15:17,1730444976,-0.046310894,0.018624008,0.009369969,0.333664477,-0.014518384,0.053034888,-0.013717192,-0.327507585,-0.944748998,0.151139021,0.823714137,-0.031391688
2024/9/23 15:58,1730445004,-0.014823884,-0.009010315,0.009582043,0.334002976,0.058897596,0.145157264,0.055610608,-0.327827394,-0.943099499,-0.00961877,0.082101032,0.088250928
2024/9/23 15:34,1730444986,-0.004494979,0.001817763,0.004954576,0.34540646,-0.01348315,0.090077165,-0.012686423,-0.338579148,-0.940852344,-0.002360726,0.019525003,-0.021776769
2024/9/23 16:12,1730445008,-0.003710641,0.002604365,0.009030461,0.320550508,0.028866468,0.182787964,0.027392266,-0.315089077,-0.948666692,-0.008309924,-0.035421334,0.005637171
2024/9/23 16:27,1730445018,-0.038967282,-0.058663666,0.012147248,0.421862817,0.071841952,0.240170563,0.065487042,-0.409460664,-0.909974396,-0.061315447,0.709324181,-0.289972007
2024/9/23 16:08,1730445006,-0.00510579,0.003730685,0.004349649,0.317799474,0.033652405,0.183427877,0.03196124,-0.312476993,-0.949387491,0.000591455,0.005104785,0.000812588
2024/9/23 15:20,1730444977,-0.005389422,0.005038053,0.000438571,0.299392471,0.04554703,0.084910248,0.043505862,-0.294939756,-0.954524875,0.02022144,0.00371648,0.000409013
2024/9/23 16:07,1730445006,-0.010176513,-0.004179031,0.008756399,0.323951972,0.03983093,0.184771754,0.037749134,-0.318315446,-0.947232962,-0.031426851,0.015220003,-0.042464845
2024/9/23 15:35,1730444986,0.005709234,0.008171648,0.008590221,0.343581211,-0.011006671,0.085839642,-0.01036317,-0.336861163,-0.941497266,-0.033684682,-0.034774985,-0.006875905
2024/9/23 15:23,1730444979,-0.002541926,0.000490814,0.006118774,0.294876207,0.052483446,0.084269507,0.050195109,-0.2906214,-0.95552063,-0.032505233,-0.016637528,-0.003193552
2024/9/23 16:08,1730445006,-0.001548573,0.003537923,0.008768082,0.317757183,0.033794573,0.183363293,0.032096658,-0.312436819,-0.949396133,0.004358983,-0.003933184,0.006875594
2024/9/23 15:20,1730444977,-0.006648146,0.008333743,0.006398439,0.298514056,0.04531881,0.085556441,0.043299742,-0.294100314,-0.954793274,0.023135548,0.003587849,0.032348249
2024/9/23 15:53,1730445002,0.011154911,-0.008828133,0.003240347,0.333533643,0.028440943,0.171169155,0.026869979,-0.327383965,-0.944509268,0.032438762,0.028739274,-0.043398816
2024/9/23 15:19,1730444977,0.001617759,-0.004392266,0.016833901,0.306330155,0.065710592,0.095565565,0.062606469,-0.301561683,-0.951388955,-0.074189454,-0.065481767,0.030226722
2024/9/23 16:11,1730445008,0.000922376,0.008426368,0.005640149,0.319819864,0.028447334,0.181974332,0.027001185,-0.314395577,-0.948907971,-0.012139768,0.01858544,0.018180925
2024/9/23 15:55,1730445004,-0.003912522,0.008054584,0.008671463,0.323030474,0.027815519,0.143539883,0.026373437,-0.317441732,-0.947910964,0.02773739,0.08866439,-0.145455092
2024/9/23 15:22,1730444978,-0.00304969,0.002382368,0.006339073,0.300525768,0.0574587,0.078810999,0.054853264,-0.296022445,-0.953604639,-0.017265029,-0.017468167,0.05573155
2024/9/23 16:33,1730445021,-0.000340968,0.005098581,0.004658401,0.342699785,0.048254237,0.225798419,0.04543066,-0.336031109,-0.940754592,0.002623259,-0.005278081,-0.007705852
2024/9/23 16:30,1730445019,-0.008383177,0.006672919,0.009050369,0.357941107,0.074706556,0.229455129,0.069906592,-0.350346565,-0.934007645,-0.009002175,0.019232055,0.005041209
2024/9/23 15:14,1730444949,-0.002802454,0.003178895,0.011645615,0.569710181,-0.05925972,-0.001862167,-0.049870882,-0.539388001,-0.840579271,0.00496733,0.026881186,0.026244126
2024/9/23 15:49,1730444995,-0.041023232,-0.056211293,-0.062986791,0.322117788,-0.099617302,0.166123559,-0.094337486,-0.316576123,-0.943864405,0.197894692,0.220462635,0.086345538
2024/9/23 16:23,1730445015,-0.000499234,0.013417631,0.00599426,0.319226915,0.019779787,0.18970483,0.018779254,-0.313832641,-0.9492926,-0.010323447,-0.005925229,0.032163963
2024/9/23 15:14,1730444949,0.003379911,0.004318178,0.005937099,0.569450498,-0.059343659,-0.002575905,-0.049949747,-0.539169312,-0.840714872,0.030810034,0.014792567,0.036489893
2024/9/23 15:35,1730444986,-0.041635707,0.027135849,3.04e-06,0.337669654,-0.030591964,-0.046198362,-0.02885991,-0.331289232,-0.943087757,0.009984671,-0.029421767,-0.398902267
2024/9/23 16:10,1730445007,-0.041438781,0.054555982,-0.040113866,0.317845842,0.02285587,0.181846876,0.021709148,-0.31252104,-0.949662745,0.02778299,0.045387227,0.023504319
2024/9/23 16:31,1730445019,-0.007129721,0.010398716,0.008802831,0.348138055,0.071537177,0.22937403,0.067188285,-0.341148168,-0.937605262,-0.047463827,-0.031617809,-0.011547515
2024/9/23 15:47,1730444993,-0.006536767,-0.015029699,0.007982075,0.295910488,-0.102730469,0.15267543,-0.09809275,-0.291610897,-0.951494038,0.030942256,0.047423482,-0.007546116
2024/9/23 15:23,1730444979,-0.002568759,0.000499815,0.009167552,0.29976905,0.054685592,0.08101418,0.052220836,-0.29529956,-0.953976512,-0.030968152,-0.005930289,0.038940746
2024/9/23 16:26,1730445017,0.010683605,-0.003863692,0.009245396,0.285283869,0.002796099,0.175400057,0.002683082,-0.281429857,-0.959578037,-0.366592377,-0.10230343,0.004178717
2024/9/23 16:02,1730445004,0.008857165,0.009344339,0.005644679,0.321591075,0.037314495,0.161501352,0.035393305,-0.316076458,-0.948073268,-0.021662652,0.003589979,0.023800461
2024/9/23 16:16,1730445011,-0.000554152,-0.001118034,0.002758384,0.318413698,0.024010584,0.187244954,0.022801459,-0.313060403,-0.949459434,0.013439189,-0.019896971,0.000396443
2024/9/23 16:04,1730445005,-0.007238356,0.003659278,0.006759167,0.315733156,0.032806643,0.177200421,0.031179383,-0.310513467,-0.950057507,0.009936459,-0.003622394,-0.005991948
2024/9/23 16:14,1730445009,-0.003178606,0.009596676,0.006421447,0.32353036,0.020525999,0.186321242,0.019459723,-0.317915738,-0.94791925,0.018044356,0.055079006,0.023792313
2024/9/23 16:26,1730445017,0.011218045,0.007687122,-0.048110425,0.270859317,-0.009093025,0.178374263,-0.008761385,-0.267559528,-0.963501513,-0.140850157,-0.131584883,0.037123084
2024/9/23 15:42,1730444990,0.005792957,-0.018474013,0.024494112,0.323407341,-0.064507954,0.145678217,-0.061121326,-0.317799091,-0.946186006,-0.104311876,-0.136780977,0.013733872
2024/9/23 16:04,1730445005,0.000509579,0.001089662,0.009143174,0.316176191,0.033168497,0.177787331,0.031518597,-0.310934573,-0.949908555,-0.001571233,-0.006371042,0.005022726
2024/9/23 15:57,1730445004,0.008816659,0.014513135,-0.018163621,0.339056872,0.054070391,0.115212789,0.050967254,-0.332597792,-0.941690505,0.034347858,0.028908385,0.129546657
2024/9/23 16:11,1730445008,-0.001156215,-0.000827819,0.008204222,0.319554957,0.031358848,0.182178294,0.029766437,-0.314144075,-0.948908567,0.000567769,-0.002782965,0.011772188
2024/9/23 15:25,1730444980,-0.001795694,0.005372345,0.006454885,-0.291668399,-0.114372689,0.072149247,-0.109303541,0.287550569,-0.951507926,0.394462854,-0.022968927,-0.004913634
2024/9/23 15:29,1730444982,0.001372945,0.003464013,0.012842536,0.315913037,-0.037235651,0.102121526,-0.035384797,-0.310684443,-0.949854255,-0.081916645,-0.0837657,-0.019518944
2024/9/23 15:58,1730445004,0.038385469,0.016015232,0.005870223,0.335296557,0.056219067,0.16753717,0.053060424,-0.32904923,-0.942820847,0.04767121,0.036041129,0.064133927
2024/9/23 16:30,1730445019,-0.003476016,0.006749779,0.01210618,0.351985683,0.074271009,0.229969587,0.069653377,-0.344762415,-0.936102152,-0.036513254,-0.029132014,-0.006479945
2024/9/23 15:40,1730444989,-0.003496871,-0.011445701,0.00870806,0.346538075,-0.014485045,0.135586517,-0.013623493,-0.339643717,-0.940455496,-0.066877358,-0.06267187,-0.030995943
2024/9/23 15:33,1730444985,0.006592952,0.006671637,0.01100111,0.342231503,-0.016572694,0.084217588,-0.015610898,-0.335590005,-0.941878736,0.042290621,0.098316222,0.036741082
2024/9/23 16:26,1730445017,0.008645509,0.000495672,-0.016160011,0.311493014,0.010250007,0.177875872,0.009756575,-0.306480139,-0.951827049,-0.052739412,-0.040924225,-0.013324749
2024/9/23 16:19,1730445013,-0.015631882,-0.000752568,0.004826427,0.333036958,0.027103476,0.196055094,0.025611108,-0.326914608,-0.944706798,-0.030940261,0.037819855,-0.024993069
2024/9/23 15:25,1730444980,0.011569016,0.012883604,-0.006789207,-0.220465354,-0.117332619,0.077887299,-0.114230156,0.218683735,-0.969086647,0.728917539,-0.072108246,-0.071949661
2024/9/23 15:19,1730444977,-0.004509568,-0.006592512,0.006389558,0.309016806,0.067461364,0.094403788,0.064217187,-0.30412215,-0.950466096,-0.087329581,-0.030050008,0.03323359
2024/9/23 15:32,1730444984,-0.003954787,0.020337194,0.020529628,0.327135793,-0.046807305,-0.0107375,-0.04430877,-0.321332037,-0.945929408,0.008643284,-0.108930707,-0.284250796
2024/9/23 15:26,1730444981,-0.009408295,0.026299685,-0.017237961,0.286759631,-0.146087583,0.071479024,-0.139624283,-0.282845676,-0.948948562,0.166706726,0.301926076,0.017922387
2024/9/23 16:18,1730445012,0.002021521,0.001913905,0.012003899,0.321125344,0.025467019,0.187910539,0.024162553,-0.315634578,-0.948573112,-0.004067337,-0.019670602,-0.00052075
2024/9/23 16:01,1730445004,-0.005173579,0.001285464,0.002371013,0.328593158,0.05119231,0.160222274,0.048432223,-0.322711766,-0.945257306,0.005803499,0.021121036,-0.011798439
2024/9/23 16:22,1730445014,-0.013213146,0.002439678,-0.003926933,0.318448379,0.021481643,0.191892956,0.020400027,-0.313093334,-0.949503243,0.007507687,0.01126734,0.010642422
2024/9/23 15:30,1730444983,0.003689744,0.000886142,0.010365963,0.31082926,-0.056393075,0.091105266,-0.053662281,-0.305848271,-0.950566769,-0.004560386,-0.033663914,0.000135027
2024/9/23 15:30,1730444983,-0.028779928,0.010347933,0.01231432,0.310990954,-0.045740817,0.083824951,-0.043531481,-0.3060022,-0.951035023,-0.003736294,0.000422149,-0.095706232
2024/9/23 15:49,1730444995,-0.015430935,-0.031362087,0.013677418,0.31634063,-0.101689294,0.162996242,-0.096477017,-0.311090857,-0.945470572,-0.018379128,-0.032310229,-0.030156514
2024/9/23 16:20,1730445013,0.000881519,0.015330493,-0.008877158,0.331439259,0.029506481,0.19692907,0.027896542,-0.325404286,-0.945163369,0.02090995,0.036141798,0.013973025
2024/9/23 16:24,1730445016,0.010433536,0.008377254,0.000855863,0.321971006,0.022862931,0.191594301,0.021686198,-0.316436887,-0.948365629,0.003655971,0.035017677,0.020393159
2024/9/23 16:27,1730445018,-0.043330044,0.008032084,0.01843667,0.391012501,-0.003223707,0.218935498,-0.002980388,-0.381124705,-0.924518824,0.382671148,0.891668677,0.087136075
2024/9/23 16:34,1730445021,-0.001347423,0.00720799,0.003943264,0.339853862,0.044850981,0.225496646,0.04227148,-0.333349317,-0.941855252,0.000385904,-0.001999197,-0.004583988
2024/9/23 16:18,1730445012,-0.003498316,0.001599073,0.010793924,0.321356367,0.019384352,0.189251719,0.018390873,-0.315853775,-0.948629618,-0.006650791,-0.029404189,0.006377636
2024/9/23 15:49,1730444995,0.010675609,-0.011715412,0.010000944,0.321347069,-0.097751494,0.165628149,-0.09260004,-0.315844953,-0.94428128,-0.115197062,-0.1353181,-0.087048024
2024/9/23 15:52,1730445002,-0.009581845,0.012003422,0.012323201,0.336429215,0.032367269,0.182591488,0.030547408,-0.330118597,-0.943445027,-0.04247281,-0.013866775,-0.209264427
2024/9/23 15:49,1730444995,0.007056251,0.109608114,-0.074959278,0.320447526,-0.10122506,0.164961633,-0.095908165,-0.314991325,-0.944236219,0.162857533,0.188473538,0.075960442
2024/9/23 15:47,1730444994,0.005991161,0.005840421,0.001523972,0.29794891,-0.102474342,0.1522454,-0.097788028,-0.293560117,-0.950925827,0.010476599,-0.022454405,-0.008897297
2024/9/23 15:49,1730444996,-0.019939966,0.02212438,0.002325535,0.320329644,-0.099375491,0.166103537,-0.094165258,-0.314879447,-0.944448948,0.030801609,0.029113716,0.032772653
2024/9/23 16:32,1730445021,-0.004755709,0.00474003,0.002834439,0.338725366,0.047397876,0.225716803,0.044687942,-0.332285166,-0.942119718,-0.009379171,-0.012082724,-0.003550469
2024/9/23 16:23,1730445015,0.011532506,0.007973313,0.003497481,0.31963194,0.023005581,0.192650731,0.021838447,-0.31421715,-0.949099898,0.006493523,0.008996729,0.011115294
2024/9/23 15:34,1730444985,-0.005431494,0.001681596,0.008724511,0.345861824,-0.0144363,0.090910503,-0.013580963,-0.339007586,-0.94068557,-0.007120044,0.013872178,-0.014831832
2024/9/23 16:30,1730445019,0.001937032,-0.001358122,0.00600934,0.357251723,0.07623333,0.23031693,0.07135091,-0.349700809,-0.934140444,-0.028197004,0.010681445,0.008454369
2024/9/23 15:22,1730444978,-0.007016331,0.005840212,0.008427143,0.300887064,0.059144867,0.075532144,0.056454796,-0.296367526,-0.95340395,2.61e-05,-0.014317116,0.050390422
2024/9/23 15:51,1730444998,0.007718511,-0.001731604,0.014123499,0.334245561,0.060029774,0.203993145,0.05667356,-0.328056574,-0.942956507,0.064359806,0.032542802,-0.026525347
2024/9/23 16:05,1730445005,-0.001298431,0.009625137,0.00556016,0.317547256,0.031086112,0.17775592,0.029527178,-0.312237382,-0.949545145,0.027429605,0.01341944,0.013326196
2024/9/23 15:43,1730444992,-0.004115514,0.0009709,0.007515788,0.309956792,-0.073484896,0.137892386,-0.06992013,-0.305017501,-0.94977653,-0.049465563,0.027670015,0.049691077
2024/9/23 16:09,1730445006,0.001066508,0.00066492,0.011337578,0.317608047,0.032661795,0.184051062,0.031022703,-0.312295139,-0.949478447,-0.002326319,-0.00509379,0.000267013
2024/9/23 15:29,1730444982,-0.039597135,-0.000225186,-0.002111733,0.319418251,-0.037809098,0.101622456,-0.035888094,-0.314014286,-0.948739707,-0.092922673,-0.034056462,-0.068568826
2024/9/23 15:49,1730444995,-0.0100201,0.023469985,-0.004926741,0.315240652,-0.099210483,0.162153288,-0.094166912,-0.310045272,-0.94604677,0.005889649,0.020539401,0.045706563
2024/9/23 16:01,1730445004,-0.007901385,0.003813565,0.002891123,0.327330885,0.04976286,0.166165808,0.0471012,-0.321516782,-0.945731699,0.003764631,0.008516029,0.015190834
2024/9/23 16:08,1730445006,-0.005774608,3.18e-05,0.009834349,0.319528182,0.028523276,0.179660783,0.027075863,-0.314118654,-0.948997557,-0.020880109,-0.032740861,-0.016256515
2024/9/23 16:01,1730445004,-0.003394462,-0.006779879,0.004110992,0.328406679,0.05209952,0.160419008,0.049292881,-0.322535276,-0.945273101,-0.01026194,0.010090489,0.006676496
2024/9/23 15:45,1730444993,-0.011770472,0.022092223,-0.003984392,0.293085343,-0.101744997,0.149689627,-0.097238317,-0.288907379,-0.952405989,0.044991326,0.103997804,0.046084035
2024/9/23 16:04,1730445005,-0.002592161,0.001465797,0.008082449,0.316026123,0.033444361,0.177236462,0.031782202,-0.310791939,-0.949946463,0.001442307,0.004576148,-0.00022221
2024/9/23 15:17,1730444976,-0.048792899,-0.041989565,-2.72e-05,0.329527228,-0.030924344,0.052950366,-0.029255809,-0.323595732,-0.945743024,0.253658623,0.840949893,-0.022004418
2024/9/23 15:56,1730445004,-0.019805595,0.002705067,0.012995303,0.330851633,0.044753586,0.113354211,0.042312294,-0.324848592,-0.944819033,0.071447618,0.080139078,-0.150579959
2024/9/23 16:29,1730445019,0.010421559,-0.034376174,0.000507295,0.380467923,0.093596742,0.23072507,0.086776897,-0.371354967,-0.924426973,-0.112184457,-0.081160866,0.035652436
2024/9/23 15:37,1730444987,0.000710826,-0.00138098,0.01052469,0.347067038,-0.020245067,0.088112239,-0.019036643,-0.340141177,-0.940181673,-0.029356172,-0.088871248,0.011523237
2024/9/23 15:17,1730444975,0.018071741,-0.033316702,0.031566679,0.273596425,-0.151491435,0.05306931,-0.145299509,-0.270195842,-0.951778471,0.119997203,-0.019858887,-0.023648333
2024/9/23 15:37,1730444987,-0.018779017,-0.00677976,-0.002428949,0.355260316,-0.033195831,0.070797011,-0.031117234,-0.347834438,-0.937039435,0.009029958,-0.08985848,-0.07949359
2024/9/23 16:07,1730445005,-0.001628928,-0.002177984,0.00689584,0.325435388,0.038155791,0.183822209,0.036144283,-0.319721341,-0.946821988,-0.00509715,-0.001359505,0.001168014
2024/9/23 16:28,1730445018,-0.008046024,0.012266457,0.019651175,0.419363411,0.137058949,0.254004211,0.124791004,-0.407179117,-0.90478307,0.008176591,0.137029529,0.025290448
2024/9/23 15:45,1730444993,0.003311694,0.009154767,0.000893235,0.292402109,-0.103332699,0.148539635,-0.098770671,-0.288253218,-0.95244652,-0.015747812,-0.033690546,0.003759483
2024/9/23 16:28,1730445018,0.019984573,-0.009320855,0.007588208,0.378529892,0.095128789,0.233947841,0.088261254,-0.369554818,-0.925007641,-0.056303632,-0.035505757,-0.056998089
2024/9/23 16:30,1730445019,-0.001830131,0.004402816,0.004981816,0.357032626,0.076306877,0.230396286,0.071425453,-0.34949553,-0.934211552,-0.01801447,0.014214661,0.001623574
2024/9/23 16:08,1730445006,-0.004128596,-0.000201046,0.012613297,0.318399166,0.028562898,0.179947268,0.027123574,-0.313046604,-0.949350357,-0.017090069,0.006025174,0.018593501
2024/9/23 16:00,1730445004,0.000226248,0.004858136,0.008116782,0.326484264,0.04954448,0.159794814,0.046908133,-0.32071501,-0.94601351,0.002130515,-0.00366021,0.009431963
2024/9/23 15:48,1730444995,-0.002585419,0.00967893,0.008102715,0.2914358,-0.119340967,0.156379489,-0.114037491,-0.287327766,-0.951019526,0.052134372,0.092783235,0.026611907
2024/9/23 16:25,1730445017,-0.006637638,0.015528351,-0.003277302,0.32301118,0.021611888,0.190499737,0.02049261,-0.317423463,-0.94806242,0.005817363,0.009385018,-0.017345164
2024/9/23 15:48,1730444994,0.02637402,-0.015474081,-0.012408376,0.290919285,-0.120122727,0.155417807,-0.114798695,-0.286832988,-0.951077342,0.008495099,0.002332967,0.023290521
2024/9/23 16:09,1730445006,-0.003700716,0.002297312,0.007509828,0.317800489,0.032124267,0.183905369,0.030510398,-0.312477946,-0.949434936,0.004941306,-0.003494029,-0.006586419
2024/9/23 15:18,1730444976,0.000463732,0.008314759,0.00030309,0.307590983,0.088646267,0.088350384,0.084375106,-0.302763551,-0.949323475,0.030581417,-0.034812536,0.006828296
2024/9/23 15:33,1730444985,0.005217544,0.00587374,0.007981718,0.345695371,-0.013720064,0.087694762,-0.012907981,-0.338851005,-0.940751493,-0.012353499,-0.044894464,-0.000959106
2024/9/23 16:10,1730445007,0.012290824,0.00376913,0.007240772,0.323306428,0.035000507,0.183108796,0.03318036,-0.317703426,-0.947609425,0.030773185,0.034589443,0.003088206
2024/9/23 16:23,1730445015,-0.007923791,-0.00653702,0.009277344,0.319680979,0.020177846,0.189055615,0.019154251,-0.314263731,-0.949142456,-0.027624765,-0.011628387,0.024828177
2024/9/23 15:14,1730444974,0.006963342,0.001381025,0.041776061,0.203372066,-0.164790744,0.016473716,-0.16066511,-0.201973051,-0.966122985,0.07926549,-0.014194611,-0.007256098
2024/9/23 15:58,1730445004,-0.009130355,0.002678871,0.02034682,0.333600236,0.058110755,0.148176199,0.05487619,-0.327446908,-0.943274677,0.002396613,-0.025203586,0.054884665
2024/9/23 16:04,1730445005,-0.001775671,0.004261106,0.008424997,0.316013132,0.033355726,0.177223996,0.031698138,-0.310779601,-0.949953318,0.001278256,0.010271052,0.001746399
2024/9/23 16:28,1730445018,0.005786717,0.006580621,0.038951039,0.419419772,0.138115806,0.254174138,0.125744,-0.407230586,-0.904627919,-0.002870559,0.089895301,0.00307031
2024/9/23 15:14,1730444949,0.004840583,0.009755433,-0.008847833,0.568659562,-0.059290493,-0.003247086,-0.049930301,-0.538503051,-0.841142952,0.052814104,0.018474121,0.0171375
2024/9/23 16:15,1730445010,0.003339568,0.005171359,-0.000975251,0.318930796,0.024719051,0.187088871,0.023470107,-0.313551456,-0.949281096,-0.000860032,0.004291989,0.017754607
2024/9/23 15:29,1730444983,0.023590576,0.004710138,0.014027655,0.315265602,-0.042657826,0.088897596,-0.040543098,-0.310068995,-0.949849188,-0.020819031,-0.079863638,0.043547746
2024/9/23 15:18,1730444976,0.01701507,-0.041047603,0.027919471,0.293979097,0.137925621,0.092953284,0.131590247,-0.289762884,-0.948009193,-0.004478143,-0.193424016,0.005557489
2024/9/23 16:33,1730445021,-0.002286609,0.004334927,0.004747629,0.341646223,0.047676922,0.225770045,0.044904388,-0.335038632,-0.941133738,-0.011512175,0.010307271,0.008027305
2024/9/23 15:49,1730444995,-0.001822129,0.006524861,0.01140511,0.315585469,-0.102823739,0.163376486,-0.097573623,-0.310373068,-0.945593953,-0.018024018,-0.046567194,0.010871348
2024/9/23 15:19,1730444976,-0.010944113,0.016829878,0.002821624,0.309737793,0.072386514,0.090731887,0.068881705,-0.304808915,-0.949919403,-0.01434553,-0.051110815,0.033642653
2024/9/23 15:58,1730445004,0.012094706,0.024925232,-0.006486237,0.336895525,0.054550178,0.155054046,0.051458132,-0.330558717,-0.942381561,0.031449396,-0.019385645,0.075847626
2024/9/23 15:57,1730445004,0.002530344,0.006836206,0.011065781,0.339087358,0.053697959,0.118304542,0.050615989,-0.332626551,-0.941699326,-0.050405305,0.040642273,0.175634682
2024/9/23 16:08,1730445006,0.001233976,0.004047304,0.009260535,0.317843627,0.033773721,0.183403823,0.032075949,-0.312518924,-0.949369848,0.004113408,-0.003810945,0.002857416
2024/9/23 15:59,1730445004,-0.005214073,0.021452963,0.008340001,0.333509457,0.056367553,0.167618385,0.05323346,-0.327361107,-0.943398595,-0.023811022,-0.038400613,-0.018628167
2024/9/23 16:12,1730445008,7.48e-05,0.006760031,0.003696144,0.318932639,0.030441172,0.18261628,0.028901579,-0.313553214,-0.949130714,0.011269321,0.002320717,0.004921846
2024/9/23 15:20,1730444977,-0.006109465,0.008526087,0.003337085,0.298172503,0.045740665,0.084220673,0.04370711,-0.29377383,-0.954875171,0.012499509,0.002521519,0.10792274
2024/9/23 16:23,1730445015,0.009166345,0.012062639,-0.002171159,0.319519423,0.022877217,0.192500914,0.021717425,-0.314110339,-0.949138045,0.016708342,0.023733331,0.012292676
2024/9/23 15:15,1730444974,0.000536591,0.026418298,0.007870913,0.206689258,-0.165582249,0.018519627,-0.161318421,-0.205220759,-0.965329349,0.015817227,-0.01893983,-0.00694504
2024/9/23 16:10,1730445007,-0.004837178,-0.002032131,0.010550261,0.322514911,0.036158376,0.183259385,0.034286626,-0.316952795,-0.947821379,-0.061430059,-0.002702537,-0.004018386
2024/9/23 15:57,1730445004,-0.007218916,0.010888547,-0.002575696,0.332422054,0.046169439,0.116559029,0.043626375,-0.326333433,-0.944247425,-0.001787166,0.063230939,-0.11386659
2024/9/23 15:37,1730444987,0.001968937,0.003833354,0.00026381,0.344127213,-0.026311038,0.090125428,-0.024765572,-0.337375194,-0.94104445,-0.049226504,-0.114241049,0.039110284
2024/9/23 16:23,1730445015,0.003308687,0.002905458,0.007236898,0.319629925,0.022988788,0.192626285,0.021822523,-0.314215243,-0.949100912,-0.005138098,-0.018205598,-0.013614181
2024/9/23 15:38,1730444988,0.028729221,-0.001205444,0.011524022,0.35803372,-0.020558546,0.096003895,-0.019253524,-0.35043332,-0.936389744,-0.046851587,-0.101105541,0.021963414
2024/9/23 15:17,1730444975,0.0089688,0.05016394,0.01044035,0.235014815,-0.167994962,0.037848627,-0.162609532,-0.232857391,-0.958819866,0.268268973,0.212465957,0.11130634
2024/9/23 16:26,1730445018,0.040795743,-0.000229716,0.04472661,0.263252654,-0.047373522,0.201145429,-0.045724332,-0.260222524,-0.96446538,-0.26593253,-0.704511285,0.083438493
2024/9/23 16:33,1730445021,0.000529967,0.001148343,0.010133564,0.341405956,0.047436364,0.225925236,0.044681806,-0.334812224,-0.941224873,-0.003249043,-0.0130878,0.004421864
2024/9/23 16:09,1730445006,-0.004817579,0.008574069,0.002502024,0.317308229,0.032748884,0.183761074,0.031108456,-0.312010288,-0.949569285,0.014385283,0.00793759,0.011339425
2024/9/23 16:06,1730445005,0.00231394,0.008348167,0.003167808,0.323517079,0.031892655,0.182656571,0.030233039,-0.317903131,-0.947641015,0.02671954,0.019716218,0.023594866
2024/9/23 15:15,1730444974,-0.004066184,0.016743541,0.003704786,0.180471837,-0.179671897,0.020885739,-0.175804406,-0.17949377,-0.967922926,-0.1035579,-0.052168623,0.021034449
2024/9/23 16:19,1730445012,-0.000110019,0.007129014,-0.000954449,0.325917674,0.025100224,0.197285524,0.023776384,-0.3201783,-0.947058856,-0.009139359,0.02921891,0.03170025
2024/9/23 15:37,1730444987,-0.023959333,0.054110378,-0.002524793,0.35201535,-0.019569745,0.090226002,-0.018368552,-0.34479028,-0.938499987,0.029549457,0.071446255,-0.022814337
2024/9/23 16:30,1730445019,-0.004218668,0.002688676,0.044347346,0.360367806,0.072045505,0.230783634,0.067359515,-0.352618426,-0.933339655,-0.027538795,-0.104800947,-0.046751413
2024/9/23 16:14,1730445009,-0.01662704,0.002887785,0.004482985,0.323921844,0.021951194,0.186959094,0.020807939,-0.318286896,-0.947766066,-0.023569414,0.043465491,-0.058914177
2024/9/23 16:19,1730445012,-0.009521758,0.002185553,0.005866706,0.323760567,0.021714119,0.193258316,0.020584362,-0.31813398,-0.947822273,-0.00661816,0.071131736,0.012437712
2024/9/23 15:50,1730444996,-0.03847336,-0.056953639,0.028404474,0.340842934,-0.039183892,0.18274828,-0.03692032,-0.334281653,-0.941749811,0.128595248,0.438188046,-0.134689569
2024/9/23 16:33,1730445021,-0.005368069,0.002488434,0.005741119,0.341743194,0.047596637,0.225678986,0.044827282,-0.335129976,-0.941104889,-0.011178464,0.013766451,0.007559973
2024/9/23 15:51,1730444998,-0.00312455,0.008184552,0.010849118,0.341343205,0.065381715,0.19387731,0.06156569,-0.334753096,-0.940292478,0.090068333,-0.007367596,-0.200585604
2024/9/23 16:31,1730445019,0.00317052,0.003447115,0.003921211,0.347154894,0.071039286,0.229144894,0.066745229,-0.340223819,-0.937972724,-0.052116904,-0.028836936,-0.013749417
2024/9/23 15:54,1730445002,0.000657024,0.008371979,0.00194943,0.322834189,0.02515036,0.177097101,0.023848578,-0.317255616,-0.948040128,0.007217327,-0.092467047,0.01807099
2024/9/23 16:16,1730445010,5.5e-05,0.003813028,0.003418505,0.318111055,0.025278935,0.188404363,0.02400808,-0.312772959,-0.949524462,0.012445515,0.009039073,0.010450408
2024/9/23 15:37,1730444987,-0.039024208,-0.00296846,-0.007266998,0.355403189,-0.033591864,0.070203245,-0.03148666,-0.3479684,-0.936977386,0.012946027,-0.03452944,-0.030017177
2024/9/23 15:30,1730444983,0.020530388,0.013985753,0.016267717,0.311895175,-0.046357598,0.086030989,-0.044105213,-0.306862921,-0.950731218,-0.038912348,-0.028320283,-0.008875352
2024/9/23 16:18,1730445012,0.003880316,0.003381878,0.005391717,0.321884518,0.023915675,0.189676268,0.022685226,-0.316354841,-0.948369622,0.004888076,-0.024520218,0.014664115
2024/9/23 15:51,1730444998,-0.003328953,-0.027444661,0.021999121,0.331450361,0.046930474,0.216819387,0.044359826,-0.325414777,-0.944530249,-0.071878061,0.011952838,-0.206546471
2024/9/23 15:53,1730445002,0.009765808,0.017644376,0.01517421,0.329110691,0.022881988,0.174825296,0.021652026,-0.323201567,-0.946082413,0.010628899,-0.016802112,0.006836232
2024/9/23 15:31,1730444983,-0.017047316,0.022001326,0.001740277,0.301432434,-0.069498388,0.059898597,-0.066311449,-0.296888351,-0.952606976,-0.015984314,-0.031752564,-0.179176524
2024/9/23 15:46,1730444993,0.000745974,0.004826128,0.002370119,0.292455011,-0.101810131,0.150465613,-0.097318843,-0.288303852,-0.95258069,-0.000543341,-0.009121021,0.000971739
2024/9/23 15:59,1730445004,-0.002205115,-0.000612229,0.010148346,0.329393452,0.052553963,0.160914776,0.049705707,-0.323469162,-0.944932282,-0.013475453,-0.022025635,-0.014731484
2024/9/23 15:23,1730444979,-0.001895402,-0.002110183,0.008531451,0.300071766,0.054928603,0.080605887,0.052447751,-0.295588762,-0.953874469,-0.028203083,-0.006474905,0.036303896
2024/9/23 15:35,1730444986,-0.013366275,0.029691786,-0.007192731,0.338615953,-0.02724659,-0.055652569,-0.025696222,-0.33218196,-0.942865252,0.024042699,0.000730543,-0.036067557
2024/9/23 16:10,1730445007,0.006161388,0.00521034,0.007306457,0.325116609,0.036322077,0.183213622,0.034411721,-0.319419295,-0.946988463,-0.02063599,0.007946378,0.000358253
2024/9/23 15:50,1730444996,-0.023437768,0.021584868,0.002908289,0.327454323,-0.089088854,0.171196442,-0.084243506,-0.321633667,-0.943109095,0.129401416,0.215057477,0.032662451
2024/9/23 15:19,1730444977,-0.02150267,0.017417252,-0.006269455,0.303295841,0.061341719,0.097458568,0.058505211,-0.298667222,-0.952562332,-0.025531214,0.01912047,-0.008970161
2024/9/23 16:20,1730445013,-0.00935293,-0.001479894,0.006410122,0.338974033,0.028252328,0.189493333,0.026641121,-0.33251968,-0.942719936,0.027954528,-0.012620416,-0.03303507
2024/9/23 15:46,1730444993,-0.010465145,0.0137164,5.01e-06,0.290983419,-0.104683771,0.151666006,-0.100100033,-0.286894441,-0.95271796,0.016197305,0.005919979,-0.001874275
2024/9/23 16:08,1730445006,0.001692448,-0.001565874,0.016498744,0.323811231,0.033952776,0.181047529,0.032182053,-0.318182021,-0.947483242,-0.04504336,-0.069736965,-0.019126499
2024/9/23 15:18,1730444976,-0.005027004,0.014319927,0.015488267,0.304079577,0.095740388,0.090783349,0.091208614,-0.299415112,-0.949753404,-0.024759462,-0.125240445,-0.015096549
2024/9/23 16:13,1730445009,-0.005518761,0.007231921,0.002997458,0.319252814,0.021242059,0.181471736,0.020167185,-0.313857228,-0.949256003,-0.00177481,0.010424716,0.020761102
2024/9/23 16:21,1730445014,0.00029604,-0.002531052,0.008671999,0.327334085,0.028890695,0.192099249,0.027352877,-0.321519822,-0.946507692,0.111059651,-0.179731905,-0.009147262
2024/9/23 15:35,1730444986,0.104916312,-0.026252955,0.031186283,0.339224404,-0.02574333,0.019975176,-0.024273613,-0.332755804,-0.942700565,-0.013772464,-0.348929465,-0.769123495
2024/9/23 16:13,1730445009,0.002249841,0.002107203,0.009777188,0.322696323,0.021618454,0.185217165,0.020500993,-0.317124873,-0.948162198,0.003507695,-0.016593587,0.016178228
2024/9/23 15:30,1730444983,-0.018528081,0.01222977,-0.002813697,0.31088398,-0.056007722,0.091177078,-0.053295035,-0.305900365,-0.950570643,0.018536584,0.013081752,-0.015926125
2024/9/23 16:08,1730445006,-0.003781438,0.005769938,0.004148662,0.317745579,0.033783727,0.183359068,0.032086484,-0.312425792,-0.949400127,-0.000891972,-0.002127029,-0.003869728
2024/9/23 15:51,1730444997,-0.00621333,0.021260381,0.004573643,0.347729552,0.049297981,0.232551329,0.046328668,-0.340764135,-0.939006627,-0.124596313,-0.120366059,-0.187749818
2024/9/23 16:30,1730445019,0.008867681,-0.000624269,0.003293037,0.3592084,0.073883181,0.229565595,0.069104701,-0.351533264,-0.933621407,-0.023197467,0.024800725,-0.009614486
2024/9/23 15:41,1730444990,0.018401917,0.009998709,0.010623753,0.33697273,-0.035059403,0.136844522,-0.03308088,-0.330631584,-0.943179905,-0.09399844,-0.181978285,0.013084861
2024/9/23 16:18,1730445012,-0.005222328,0.003345907,0.00339371,0.321106779,0.025253444,0.188005543,0.02396011,-0.315616965,-0.948584139,-0.001463409,-0.01588412,0.012600005
2024/9/23 15:28,1730444982,0.004411862,0.003877699,-0.006170332,0.350925648,-0.006453154,0.094187237,-0.006059824,-0.343767196,-0.939035356,-0.096253701,-0.129679933,0.156292036
2024/9/23 16:07,1730445006,-0.000161104,0.009892523,0.008597434,0.324309219,0.039410867,0.185196215,0.03734675,-0.31865409,-0.947135031,-0.004666909,0.016577683,-0.00882651
2024/9/23 16:27,1730445018,0.008255035,0.069699198,0.012102842,0.236745189,-0.132426709,0.19713473,-0.128356934,-0.234539852,-0.963595092,0.49457249,-0.166186541,-0.099294148
2024/9/23 15:35,1730444986,0.006754557,-0.001616597,0.007013679,0.338133498,-0.02977659,-0.056087172,-0.028086353,-0.331726849,-0.942957282,-0.026152465,-0.079010896,0.030067094
2024/9/23 15:43,1730444992,-0.00331758,-0.000537634,0.008294404,0.317434369,-0.071526625,0.137305395,-0.067895181,-0.312130153,-0.94761014,-0.036233816,-0.011608681,-0.005406426
2024/9/23 15:19,1730444976,0.006727345,0.005438447,0.008964777,0.310498172,0.074619773,0.089850363,0.070985645,-0.305533022,-0.949531794,-0.02817722,-0.088061914,0.015271795
2024/9/23 15:24,1730444979,0.102339871,0.064634502,0.036964953,-0.235039433,-0.110336634,0.066712259,-0.107085355,0.232881337,-0.966591418,-0.373751938,-0.127170429,0.06510774
2024/9/23 15:47,1730444993,0.005607285,0.010728776,0.00675416,0.296534405,-0.103598193,0.153886878,-0.098899513,-0.292207628,-0.951227427,-0.045089677,-0.062061999,-0.039085507
2024/9/23 15:56,1730445004,-0.001973204,-0.003099471,0.009422839,0.332119902,0.045505657,0.115104462,0.043004077,-0.326047808,-0.944374621,-0.042822216,0.037081096,0.122972108
2024/9/23 16:14,1730445009,-0.005133376,0.001327962,0.009162664,0.324063111,0.021481313,0.187385005,0.020361632,-0.318420798,-0.94773072,0.003262199,0.039977551,-0.015092395
2024/9/23 15:42,1730444990,0.002137661,0.004838794,-0.002161562,0.316075116,-0.072179018,0.145533354,-0.068543911,-0.310838521,-0.947987974,-0.072606817,-0.06446524,-0.010627233
2024/9/23 16:29,1730445019,0.044794522,-0.002777636,0.036418259,0.365260281,0.083238145,0.229402927,0.077657245,-0.357192427,-0.930796921,-0.073121041,-0.088715188,-0.010917092
2024/9/23 15:51,1730444998,-0.007631849,0.009380758,0.003905594,0.329924045,0.050958924,0.208222521,0.048189692,-0.323971182,-0.944838822,0.022455323,0.081835516,-0.029917309
2024/9/23 15:48,1730444994,0.017071106,-0.002914786,-0.002846837,0.290888772,-0.119982423,0.155190091,-0.114666305,-0.286803782,-0.951102138,0.001458228,-0.007101281,0.021805542
2024/9/23 16:29,1730445019,0.005503528,-0.01230523,0.005103469,0.363669568,0.080091061,0.230067945,0.074772932,-0.355706185,-0.931601882,-0.037145164,-0.061057191,0.017705286
2024/9/23 15:37,1730444987,0.002200224,-0.004005522,0.043487072,0.357373857,-0.019256632,0.080925149,-0.018038858,-0.34981522,-0.936645031,-0.066536233,-0.259555101,-0.060414229
2024/9/23 15:30,1730444983,-0.001170292,0.002472311,0.007523119,0.310956691,-0.0545894,0.090820227,-0.051945552,-0.305969596,-0.950623095,-0.024256781,-0.032270283,0.000146638
2024/9/23 16:06,1730445005,-0.003348451,0.002014786,0.009913564,0.32614051,0.037063801,0.184021905,0.03510198,-0.32038939,-0.946635365,0.018623956,0.029805072,0.008955203
2024/9/23 15:47,1730444993,0.009532951,0.007949024,-0.001155376,0.297520972,-0.099591199,0.152585035,-0.095058456,-0.293150991,-0.951328754,0.075581424,0.081536971,0.03119947
2024/9/23 15:58,1730445004,0.019144434,0.020405203,0.002531826,0.33348253,0.056717051,0.140607176,0.053563673,-0.327335685,-0.9433887,0.036104023,0.089632183,0.102032952
2024/9/23 16:06,1730445005,-0.003305677,0.004328817,0.0008201,0.324766018,0.031282445,0.183326973,0.029642332,-0.319087058,-0.947261751,0.017940089,0.022069653,0.00202129
2024/9/23 16:24,1730445016,0.016973078,-0.006141841,0.009346247,0.322734758,0.019624795,0.191977111,0.018610403,-0.317161322,-0.948188961,-1.33e-06,0.00968702,0.002942638
2024/9/23 15:52,1730445000,-0.006395329,-0.021169811,0.002521396,0.339436836,0.033861428,0.19306455,0.031923272,-0.332956105,-0.942401767,0.070229538,-0.127450332,-0.109106354
2024/9/23 15:44,1730444993,0.001840875,0.002734065,0.010662258,0.305306583,-0.084214697,0.149581695,-0.080225267,-0.300585598,-0.950374782,-0.007563715,-0.060684346,-0.00354168
2024/9/23 15:54,1730445002,-0.000738068,0.007254273,0.009241164,0.333969317,0.032362391,0.160980463,0.030568989,-0.327795595,-0.944253981,-0.033112288,-0.042394821,0.064766802
2024/9/23 15:18,1730444976,0.031068489,0.003687084,0.025707841,0.294134249,0.133329929,0.092087968,0.127226144,-0.289911389,-0.948559344,0.003673794,-0.267196506,-0.056298424
2024/9/23 15:55,1730445003,-0.009194372,0.013744652,0.00176096,0.318366148,0.018180833,0.150719189,0.01726626,-0.313015223,-0.94959116,0.020108029,0.005525298,0.054738034
2024/9/23 16:09,1730445007,0.00073595,-0.008695811,0.015977085,0.321972624,0.033186468,0.183202777,0.031475339,-0.316438437,-0.948090732,0.050462015,0.073767468,-0.005235291
2024/9/23 16:01,1730445004,-0.001209848,-0.004839599,0.018457174,0.3289896,0.052559204,0.16039243,0.049717516,-0.323086977,-0.945062399,-0.02956574,-0.020036254,-0.003363195
2024/9/23 15:38,1730444988,-0.010848459,-0.05464536,0.00996685,0.347834059,-0.034692754,0.094517132,-0.032608572,-0.340862393,-0.939547479,-0.134648904,-0.129435182,0.005300441
2024/9/23 16:06,1730445005,-0.003270932,0.001868218,0.004293323,0.324906796,0.031504998,0.183356315,0.029851733,-0.319220454,-0.947210193,0.0122929,0.025488621,0.004619258
2024/9/23 15:36,1730444987,0.014021607,0.040207058,0.017970383,0.335481363,-0.026535983,0.052712693,-0.025053713,-0.329223722,-0.94391948,0.108128197,0.230602086,0.334054291
2024/9/23 15:34,1730444985,-0.005983103,0.001766771,0.008529365,0.345919945,-0.014985697,0.091275107,-0.014097475,-0.339062274,-0.940658271,0.002580614,0.031241048,-0.019040532
2024/9/23 16:00,1730445004,-0.046391532,0.017581046,-0.024512827,0.32701286,0.050926973,0.159878867,0.048207309,-0.32121563,-0.94577831,0.019353759,0.017267175,0.023970958
2024/9/23 15:42,1730444991,-0.009944975,0.019479275,0.017502785,0.31826695,-0.068191078,0.140877156,-0.06471628,-0.312921017,-0.947571754,-0.036735289,-0.120749816,-0.020090243
2024/9/23 16:34,1730445021,-0.005956389,0.003995419,0.006935537,0.340087892,0.044774539,0.225602915,0.042195991,-0.333569944,-0.941780508,-0.011290726,-0.003153677,-0.000350361
2024/9/23 15:29,1730444982,0.007614899,-0.001513094,0.023406267,0.314979182,-0.037948144,0.102098812,-0.036072541,-0.309796691,-0.950118303,-0.089664049,-0.044517096,0.02780463
2024/9/23 16:00,1730445004,-0.003191896,0.00543344,0.005009174,0.328784102,0.052150213,0.160444176,0.049334452,-0.322892487,-0.945148945,-0.018567683,-0.014934171,-0.010238199
2024/9/23 15:56,1730445004,-0.002576049,0.006171197,0.009679198,0.329418592,0.045019644,0.119181766,0.042584576,-0.323492944,-0.94527185,0.000724086,0.023370076,-0.112070821
2024/9/23 16:28,1730445019,0.015689015,-0.007782787,0.019592404,0.377016286,0.09280515,0.232389207,0.086163379,-0.368147939,-0.92576611,-0.001829561,-0.15713951,-0.020814303
2024/9/23 16:32,1730445021,-0.004586276,0.003780037,0.006416142,0.338629689,0.048528318,0.226034345,0.045754466,-0.332194924,-0.942100346,-0.008177066,-0.017009571,-0.006733372
2024/9/23 15:57,1730445004,0.025920156,0.000675172,0.024968922,0.329480057,0.050000713,0.132205758,0.047291499,-0.323551089,-0.945028126,-0.005026841,0.10989511,0.032255996
2024/9/23 16:30,1730445019,-0.003398262,-0.018684268,0.024423003,0.359524968,0.070016343,0.229181867,0.065486245,-0.351829618,-0.933770537,-0.024063166,-0.021552391,-0.029864205
2024/9/23 15:25,1730444980,-0.180727273,0.240721583,-0.109485924,-0.084635754,-0.205025526,0.077327709,-0.202863395,0.084534749,-0.975551307,1.887926102,0.205037609,-0.259740978
2024/9/23 16:12,1730445008,-3.07e-05,0.002056628,0.009460866,0.319218003,0.030619576,0.182953015,0.029068166,-0.313824177,-0.949036062,-0.000757168,0.023723211,-0.002423632
2024/9/23 15:25,1730444980,-0.004759625,0.055880234,0.001284838,-0.247134271,-0.117162831,0.075514545,-0.113343395,0.244626313,-0.962970018,0.716799259,-0.016412491,-0.01062979
2024/9/23 15:24,1730444980,-0.024722785,-0.001303822,-0.017088056,-0.24999336,-0.113787262,0.065075453,-0.110012323,0.247397527,-0.962648273,-0.383667469,0.112234429,0.018093469
2024/9/23 15:54,1730445002,0.003913093,0.007389605,0.008745611,0.333595762,0.031601733,0.16185084,0.029854592,-0.327442676,-0.944399297,-0.038896404,-0.041839551,0.09767282
2024/9/23 15:32,1730444984,-0.007259369,0.020588785,0.012538612,0.323343299,-0.049493308,-0.063126152,-0.046909329,-0.317738384,-0.947017312,0.003609141,0.046443705,-0.178647459
2024/9/23 15:35,1730444986,-0.004874267,-6.23e-05,0.011626244,0.340299503,-0.018770947,0.052301522,-0.017693482,-0.333769441,-0.94248867,-0.067596503,-0.20482555,-0.332509011
2024/9/23 15:39,1730444989,-0.039348587,0.023665339,0.00131619,0.347317492,-0.019348772,0.129345114,-0.018192304,-0.340376705,-0.940113127,0.049359679,0.034819804,0.123158842
2024/9/23 15:30,1730444983,-0.014569536,-0.000753284,0.003112555,0.311046538,-0.055824876,0.091110566,-0.053118452,-0.306055129,-0.950530708,0.014768476,0.021535156,-0.00118899
2024/9/23 15:56,1730445004,0.000934672,-0.003739953,0.00403744,0.329119649,0.045401147,0.116748748,0.042949583,-0.323210061,-0.945352077,-0.006384534,-0.032102235,-0.025491241
2024/9/23 16:19,1730445013,-0.047553644,-0.033645958,0.014780641,0.332928753,0.026472972,0.195623156,0.025016399,-0.326812357,-0.944758117,-0.005332479,0.015518811,-0.032793522
2024/9/23 16:15,1730445010,-0.005094144,0.004965037,0.009068549,0.319002774,0.024907902,0.187998113,0.023648819,-0.313619792,-0.949254096,0.001793717,-0.006171837,0.003892641
2024/9/23 15:31,1730444983,0.078977428,0.002690822,0.043288946,0.308926998,-0.063178988,0.041777761,-0.060148083,-0.304036617,-0.950759649,0.048224453,-0.157705709,-0.448746026
2024/9/23 16:17,1730445011,-0.016212869,0.000229985,0.014773548,0.319544101,0.023572758,0.186252153,0.022377402,-0.314133763,-0.949114978,-0.016811848,0.006089622,-0.020969193
2024/9/23 15:57,1730445004,0.018896282,0.019999176,-0.01335597,0.332294102,0.045190024,0.117603275,0.042703431,-0.326212496,-0.944331408,0.020308815,0.086780734,-0.085879959
2024/9/23 16:01,1730445004,-0.005453818,-0.001120627,0.000899613,0.328324206,0.052162005,0.160461853,0.049353335,-0.322457194,-0.945296586,-0.00865632,0.008230271,0.003267383
2024/9/23 16:13,1730445009,0.00979593,-0.004391432,0.003797114,0.320108744,0.022684538,0.181778606,0.021530343,-0.314669788,-0.948956966,-0.005011915,-0.051593378,-0.018744921
2024/9/23 16:31,1730445019,-0.002614036,0.01022467,0.007550478,0.344319465,0.069180696,0.228752594,0.06506823,-0.337556154,-0.939053774,-0.03802067,-0.039150558,0.002736988
2024/9/23 15:41,1730444990,0.032249704,0.001956642,0.023871899,0.334628594,-0.040357997,0.137424111,-0.038109086,-0.328418374,-0.943763256,-0.141822845,-0.340837717,0.037750792
2024/9/23 15:45,1730444993,0.002942532,-0.000439703,0.002212107,0.294174896,-0.095485856,0.149265202,-0.091245145,-0.289950281,-0.952682078,0.010057434,-0.029601263,0.023393476
2024/9/23 16:11,1730445008,-0.005414572,-0.000565171,0.006033897,0.319751225,0.028789169,0.182010333,0.027326176,-0.314330399,-0.94892025,0.010505636,0.028117692,-0.005753915
2024/9/23 16:29,1730445019,0.002187021,-0.002577394,-0.006656408,0.372296497,0.088452494,0.231190967,0.082285613,-0.363755554,-0.927852869,-0.060672041,0.012729416,0.002000571
2024/9/23 15:31,1730444983,-0.029383466,0.001724541,-0.03580147,0.302201806,-0.068193936,0.05825407,-0.06505318,-0.297622949,-0.952464521,0.077931456,0.094652243,0.005250107
2024/9/23 15:14,1730444950,0.004081111,-0.01458919,0.05727607,0.575056952,-0.056461381,-0.00095173,-0.047355037,-0.543882608,-0.837824106,0.030140862,0.016601386,-0.020148035
2024/9/23 15:19,1730444977,0.009767674,0.005749255,0.019756198,0.297965286,0.056358097,0.098461857,0.053846207,-0.293575764,-0.954418063,-0.016889226,-0.178533748,0.01068956
2024/9/23 16:33,1730445021,-0.003062714,0.005950987,0.003104925,0.340883699,0.046073375,0.226201228,0.043406934,-0.334320068,-0.941459477,-0.004730138,-0.010775112,0.001629433
2024/9/23 15:21,1730444977,-0.005153961,0.008121341,0.002394319,0.302924626,0.044565971,0.086898,0.042522717,-0.298312932,-0.953520417,0.002446515,-0.001847397,0.004101432
2024/9/23 16:12,1730445008,0.004320718,0.008365005,0.002761006,0.3198999,0.033164708,0.183303781,0.03147639,-0.314471543,-0.948744893,0.021366823,0.01466793,0.013175461
2024/9/23 15:20,1730444977,0.010322664,0.020484239,0.005630493,0.295167862,0.047855699,0.090373579,0.045768626,-0.290900469,-0.955657959,-0.015718,-0.056015827,-0.172750086
2024/9/23 15:58,1730445004,0.019001827,0.014195025,-0.006652534,0.334710218,0.056018705,0.166783591,0.05288231,-0.328495473,-0.94302398,0.054997303,0.055128805,0.085951872
2024/9/23 15:30,1730444983,-0.014170837,0.00283578,0.006270289,0.314177008,-0.047449073,0.090779328,-0.045109559,-0.309033871,-0.949980617,-0.004887001,-0.03402504,0.012252036
2024/9/23 15:23,1730444979,-0.004930254,0.015967369,0.007713854,0.294689139,0.052185383,0.084330191,0.049913138,-0.290442407,-0.955589831,0.000753449,-0.014911534,-0.000803258
2024/9/23 15:35,1730444986,-0.035685748,-0.014736116,-0.013699949,0.337861772,-0.031563856,-0.043849829,-0.029774467,-0.331470519,-0.942995608,0.031216143,0.145152971,0.464747667
2024/9/23 15:26,1730444981,-0.014015764,0.015114948,0.020589292,0.17988662,-0.197003104,0.073926164,-0.192572966,-0.178918019,-0.964833677,0.889210522,0.221699402,-0.238379389
2024/9/23 15:14,1730444949,0.000592422,0.003447771,-0.004762053,0.568145807,-0.059390569,-0.003456234,-0.050030895,-0.538070083,-0.841414034,0.052226879,0.023375668,0.010417279
2024/9/23 16:13,1730445009,-0.026412079,0.00886783,0.000198364,0.320188505,0.023520149,0.18313409,0.022322705,-0.314745486,-0.948913574,-0.034978349,-0.047772277,-0.024609255
2024/9/23 15:33,1730444985,-0.003655545,0.011909246,0.012397885,0.344763678,-0.015117914,0.087685914,-0.014227764,-0.33797428,-0.941047788,0.01047521,0.019161481,-0.010106691
2024/9/23 15:16,1730444975,-0.002392605,0.015037358,0.007518709,0.173576691,-0.185838908,0.018441665,-0.181994572,-0.172706395,-0.968013704,-0.005405189,-0.00989547,-0.013607684
2024/9/23 16:26,1730445017,0.014440082,0.007537842,0.01020211,0.269311138,-0.031384429,0.197431671,-0.030248191,-0.266067475,-0.963479698,-0.132039696,-0.329324067,0.131074458
2024/9/23 16:16,1730445010,0.002460025,0.007198066,0.00261867,0.317449882,0.024604834,0.187848072,0.023373082,-0.312144876,-0.949746966,0.010765438,0.00824412,0.01085164
2024/9/23 15:42,1730444991,0.004535414,-0.009508073,0.007001996,0.323642226,-0.064377333,0.144331599,-0.06099293,-0.318021804,-0.946119428,-0.094850093,-0.016969092,-0.023448596
2024/9/23 15:53,1730445002,-0.005421223,0.019947439,0.011249244,0.334144725,0.030633851,0.166057649,0.028935002,-0.327961326,-0.944247901,-0.008290511,-0.017555786,-0.022957562
2024/9/23 16:13,1730445009,0.0179452,0.005920231,0.011745691,0.320893121,0.026533504,0.183502163,0.025176123,-0.31541422,-0.948620081,0.012819752,-0.072627559,0.007927435
2024/9/23 16:04,1730445005,0.00089049,0.001377285,0.00921762,0.315660074,0.03298682,0.17733488,0.031351309,-0.310443997,-0.950074553,-0.003601627,-0.014852945,-0.009663009
2024/9/23 15:53,1730445002,0.01745162,-0.00282532,0.001236439,0.331506079,0.027683881,0.183533671,0.02617324,-0.325467467,-0.945190907,-0.091278262,-0.145756364,0.166336775
2024/9/23 16:10,1730445007,0.000823189,-0.000684828,0.011752963,0.324193363,0.036710974,0.183440699,0.03479081,-0.318544269,-0.94726932,-0.016706856,-0.003161933,0.004862617
2024/9/23 15:46,1730444993,-0.001449145,0.000460178,0.010953248,0.292006837,-0.102887778,0.150940083,-0.098358594,-0.287874699,-0.952603638,-0.011743139,-0.015548563,-0.004967004
2024/9/23 16:15,1730445010,-0.004659446,0.007508785,0.007586598,0.324659811,0.025478533,0.184934357,0.024144903,-0.318986386,-0.947451651,0.004097444,-0.001669497,-0.00033827
2024/9/23 15:19,1730444977,-0.006885111,0.000623524,0.000978529,0.302279193,0.062331484,0.096952254,0.05946688,-0.297696829,-0.952806532,-0.061471876,0.004048576,0.010844023
2024/9/23 16:19,1730445012,0.005880991,0.010823578,0.000829935,0.331901396,0.027805407,0.196385775,0.026284525,-0.325841248,-0.945059061,0.065597668,0.017085548,0.025631385
2024/9/23 15:24,1730444980,0.026358522,0.040969849,0.007418752,-0.293358876,-0.110839731,0.064526817,-0.105887309,0.289169222,-0.951403677,-0.272127718,-0.027485915,0.015976947
2024/9/23 15:39,1730444989,-0.004142735,-0.045624524,0.009319007,0.350516559,-0.011933495,0.136816595,-0.011207619,-0.343383014,-0.939128578,0.001410261,0.05626411,-0.015235034
2024/9/23 15:51,1730444998,-0.00529363,0.005797029,0.006402969,0.343749433,0.066739801,0.188533557,0.062788732,-0.337019533,-0.939401627,0.115690224,0.007721341,-0.088392869
2024/9/23 16:05,1730445005,-0.004580989,0.003729731,0.008114457,0.320112451,0.031050143,0.180238953,0.029468061,-0.314673305,-0.948742509,0.007132948,-0.002881502,0.002197219
2024/9/23 15:16,1730444975,-0.007118791,0.013920471,0.005062222,0.172442868,-0.186972186,0.017185006,-0.183127761,-0.171589494,-0.967998564,-0.002373384,-0.004942789,-0.005906034
2024/9/23 15:48,1730444995,0.024465285,-0.014020652,0.001053393,0.308939778,-0.10747901,0.163100178,-0.102193557,-0.304048777,-0.94715935,-0.000935672,-0.017935287,-0.278708905
2024/9/23 15:45,1730444993,-0.006161571,0.010720581,0.004387856,0.29614291,-0.092952895,0.150673786,-0.088778608,-0.291833192,-0.952340126,-0.016695771,-0.003293226,-0.00299488
2024/9/23 16:04,1730445005,-0.006181953,0.006887883,0.011543512,0.314843852,0.032568608,0.177242364,0.030962216,-0.309668005,-0.950340509,0.010595371,0.017308721,-0.001595975
2024/9/23 16:10,1730445007,-0.020220958,0.005118042,0.009377658,0.317027272,0.026294939,0.183075959,0.024981687,-0.311743349,-0.949837863,-0.016798327,-0.056783613,-0.022621153
2024/9/23 16:30,1730445019,0.006513178,-0.001066893,-0.002741635,0.353379542,0.075489137,0.23033144,0.0707573,-0.346070498,-0.935536504,-0.025577202,-0.027344501,-0.011177869
2024/9/23 16:29,1730445019,-0.013203248,0.019215912,0.002888262,0.361201641,0.072457655,0.231878073,0.067722872,-0.353398591,-0.933018267,0.21982196,-0.160232246,-0.02320545
2024/9/23 16:29,1730445019,0.001549736,0.016241103,-0.00775826,0.364205334,0.080994031,0.229839466,0.075598679,-0.356206864,-0.931343913,0.007051155,-0.027643308,0.02076696
2024/9/23 15:57,1730445004,-0.00137639,0.005227208,0.01640147,0.332050456,0.04519576,0.114166288,0.042712439,-0.325982153,-0.944410503,-0.001647522,-0.013016427,0.04689502
2024/9/23 15:43,1730444993,-0.002548508,0.003626287,0.010779619,0.306546269,-0.078488334,0.14582766,-0.074752517,-0.301767707,-0.950446367,-0.061032359,-0.053568911,0.047597565
2024/9/23 15:33,1730444985,-0.015100798,0.011081487,-0.003885925,0.338929123,-0.0244064,0.078852371,-0.023015665,-0.332477331,-0.942830384,0.02838229,0.090773612,0.047353514
2024/9/23 15:20,1730444977,-0.000187378,0.006985396,-5.54e-05,0.297007889,0.049972111,0.096888285,0.047764268,-0.292660415,-0.955022752,-0.046948012,-0.079117157,-0.037801865
2024/9/23 15:30,1730444983,-0.039899219,0.017570943,-0.026675582,0.310708344,-0.047088899,0.081950046,-0.044817585,-0.305733144,-0.951061845,-0.055659682,-0.370580435,-0.25295338
2024/9/23 16:27,1730445018,0.068223141,0.083604991,0.025701702,0.41941757,0.11368286,0.241898701,0.103606038,-0.407228559,-0.907430768,0.04973831,0.230287835,0.315784127
2024/9/23 15:53,1730445002,-0.021262938,-0.020580024,-0.010597885,0.328351775,0.021465222,0.179714631,0.020316886,-0.322483301,-0.946357071,0.061730608,-0.045099527,-0.025120474
2024/9/23 16:25,1730445017,0.009682901,0.007667661,-0.000255466,0.320981876,0.01452757,0.184832377,0.013785105,-0.315498441,-0.948825955,-0.046836015,-0.068860523,-0.021358015
2024/9/23 16:21,1730445014,-0.010866854,-0.003247708,0.005883098,0.334304341,0.030762977,0.194105259,0.029055318,-0.328112096,-0.944191873,-0.082899377,-0.019070325,0.01896432
2024/9/23 16:06,1730445005,-0.01088004,0.006849557,0.000549734,0.325252313,0.032566709,0.182653444,0.030853786,-0.319547892,-0.947067678,0.010955352,0.02715203,-0.001115541
2024/9/23 16:06,1730445005,0.003816918,0.011213094,0.003395379,0.325364542,0.035932684,0.183275389,0.034040123,-0.319654226,-0.9469226,0.018678503,0.029824246,0.018158663
2024/9/23 16:27,1730445018,0.003487244,0.04516542,-0.007139802,0.226384913,-0.129251669,0.19734922,-0.125603303,-0.224456146,-0.966355622,0.461712807,-0.168300554,-0.057217959
2024/9/23 15:54,1730445002,0.017187184,-0.006871432,0.006073833,0.323123939,0.021477765,0.173730711,0.020364685,-0.317530364,-0.948029399,0.028199354,-0.149664551,-0.139419362
2024/9/23 15:46,1730444993,0.002796084,-0.002996325,0.00996083,0.290612544,-0.105362153,0.151368162,-0.100757502,-0.286539137,-0.95275557,-0.004168937,-0.014787696,0.003901482
2024/9/23 16:17,1730445011,-0.000192363,0.003518283,0.009833932,0.321561871,0.026807501,0.190463488,0.025430381,-0.316048771,-0.948402047,0.012631733,0.014820263,-0.001176314
2024/9/23 16:29,1730445019,-0.013947047,-0.008820325,0.008120596,0.362239533,0.076425507,0.231439018,0.071396366,-0.354369313,-0.932375968,-0.050878834,-0.048956584,0.018566286
2024/9/23 16:23,1730445015,-0.036253713,0.017675221,-0.021784723,0.320513246,0.02281478,0.189537438,0.021651033,-0.315053701,-0.948826849,0.028903412,-0.042353809,-0.00030056
2024/9/23 15:59,1730445004,0.008127939,-0.001966417,0.018244863,0.330752403,0.053334772,0.160891961,0.050420024,-0.324754745,-0.944453359,-0.032582805,-0.045096599,-0.024882762
2024/9/23 16:04,1730445005,-0.004621588,0.003115922,0.004829466,0.315514722,0.032266426,0.177968475,0.030668329,-0.310305834,-0.950141966,0.005416102,-0.009184139,-0.004971105
2024/9/23 15:40,1730444989,-0.001462506,0.010102779,0.02921164,0.343476854,-0.014620233,0.13534668,-0.013765767,-0.336762875,-0.941488862,0.012536666,0.002872257,0.025885344
2024/9/23 15:20,1730444977,-0.011293914,0.006564736,0.006632745,0.296950934,0.046933854,0.079955778,0.044863228,-0.292605966,-0.955180109,0.019857839,-0.001919835,0.024266088
2024/9/23 15:19,1730444976,-0.004092023,0.010812372,0.002365947,0.310469062,0.070426483,0.092266425,0.067003995,-0.305505306,-0.949829996,0.020161735,-0.047669478,0.031735189
2024/9/23 16:27,1730445018,-0.004593983,-0.037329137,0.04641819,0.421029715,0.057713313,0.242923295,0.052643891,-0.408700466,-0.911149025,0.138844371,0.647680283,0.036445148
2024/9/23 15:44,1730444993,-0.02001784,0.003565997,0.016338527,0.30493098,-0.087455507,0.148852331,-0.08331468,-0.300227344,-0.950222194,0.02955359,0.045442089,0.011518549
2024/9/23 16:02,1730445004,0.005060833,0.008527398,0.002871931,0.322032773,0.037558177,0.161212663,0.035619088,-0.316495478,-0.947925031,-0.017556246,-0.019732388,-0.006443514
2024/9/23 15:37,1730444987,0.014237601,0.036644638,0.017158091,0.348496069,-0.018006485,0.094125664,-0.016923152,-0.341484666,-0.939734995,0.025082929,0.001242936,-0.028035251
2024/9/23 15:45,1730444993,0.003583655,0.013513863,0.002678692,0.294453282,-0.096839801,0.150040349,-0.092527129,-0.290216714,-0.952477276,0.154893816,-0.111328617,0.043225292
2024/9/23 15:22,1730444978,0.001153637,0.002017528,0.006747663,0.298499062,0.06131748,0.08124218,0.058569241,-0.294085979,-0.95398277,0.049582381,-0.041857395,-0.071186453
2024/9/23 16:16,1730445011,-0.006447362,0.013096064,-0.008075297,0.322409387,0.022308003,0.186600736,0.021156823,-0.316852719,-0.94823873,0.054351907,0.035622217,0.01955959
2024/9/23 16:13,1730445009,-0.009517612,0.00509128,0.00835824,0.322447985,0.022456523,0.184012312,0.02129738,-0.316889316,-0.948223352,0.018212089,0.000789932,-0.001518583
2024/9/23 16:21,1730445013,0.00096312,-0.005401105,0.009756267,0.345891483,0.030219408,0.188575669,0.028425293,-0.339035481,-0.940344036,-0.008601556,-0.026148476,-0.02866493
2024/9/23 15:28,1730444982,0.013970722,0.001090586,0.00344193,0.358709461,0.019025348,0.073269407,0.017813323,-0.351066142,-0.936181188,-0.044300456,-0.065340355,0.111895271
2024/9/23 16:19,1730445013,0.001523981,-0.003435433,0.020715833,0.333152819,0.026000936,0.197229928,0.024568532,-0.327024102,-0.944696546,0.003431092,-0.024813432,-0.025538113
2024/9/23 16:03,1730445005,-0.004876554,-0.002338469,0.009163439,0.312475201,0.032983975,0.172721519,0.031381052,-0.307414919,-0.951057971,-0.051558688,-0.053247735,-0.012954677
2024/9/23 15:18,1730444976,0.000754088,0.043601185,-0.012375355,0.304367044,0.091542299,0.089356048,0.087212801,-0.299689382,-0.950042188,0.019205945,-0.100558527,0.011293459
2024/9/23 16:23,1730445015,-0.00324681,0.001277119,0.006832421,0.319666616,0.021359204,0.192166159,0.02027561,-0.314250082,-0.949123681,0.00757931,0.007977538,0.006045113
2024/9/23 15:25,1730444980,-0.006546661,0.037899584,0.002770007,-0.361476967,-0.10966296,0.065938882,-0.102370575,0.353656143,-0.929756701,0.210678101,-0.009042725,0.002066191
2024/9/23 15:22,1730444978,-0.006145645,0.005475879,0.008499384,0.301240525,0.056493537,0.078161797,0.053920891,-0.296705097,-0.953445673,0.002256147,-0.007831253,-0.000726399
2024/9/23 15:18,1730444976,-0.005378231,0.037546873,0.005593061,0.307362941,0.088975079,0.088263437,0.084693387,-0.302546233,-0.949364424,0.015745211,-0.034831978,0.036994189
2024/9/23 16:25,1730445017,-0.011908376,-0.018739104,0.015717983,0.314579226,0.011095013,0.17937554,0.010550328,-0.309416384,-0.95086813,-0.114369199,-0.026742626,-0.052451484
2024/9/23 16:03,1730445005,0.000685448,0.013252348,-0.00650245,0.312054451,0.030003703,0.174541746,0.028550385,-0.307014525,-0.951276481,0.0084204,0.014084432,0.006097472
2024/9/23 15:39,1730444989,0.009162691,0.003506333,0.004855812,0.350595172,-0.011559869,0.137066172,-0.010856423,-0.343456835,-0.93910569,-0.011339168,0.008972228,0.024253041
2024/9/23 16:20,1730445013,-0.006540403,-0.014935195,0.00268209,0.344532201,0.0289842,0.18769583,0.027277082,-0.337756395,-0.940838218,0.012650627,0.021454196,-0.006532037
2024/9/23 15:59,1730445004,-0.003997065,-0.010265708,0.01887548,0.335323281,0.05653653,0.16908637,0.053359233,-0.329074472,-0.942795217,-0.020397618,0.029405331,0.010708416
2024/9/23 15:36,1730444987,-0.007046368,0.012413293,-0.004846156,0.345542499,-0.017908338,0.082081469,-0.016848909,-0.338707149,-0.940740943,0.013876427,0.005664582,0.039943531
2024/9/23 15:40,1730444989,0.04309459,0.205980539,-0.008707941,0.36769842,0.010019768,0.132733189,0.009349862,-0.359468639,-0.933110297,0.035740808,0.196196437,0.453734964
2024/9/23 16:07,1730445005,-0.002954464,0.00470978,0.009766221,0.323815746,0.038036271,0.18394681,0.036050763,-0.318186313,-0.947342515,-0.008496972,0.004858976,0.011790032
2024/9/23 15:37,1730444987,0.037115425,-0.01696673,0.01161468,0.356666658,-0.021632754,0.080213287,-0.020269733,-0.349152625,-0.936846614,-0.047616873,-0.339878708,-0.107191861
2024/9/23 15:38,1730444988,-0.021943562,-0.077470481,-0.008892,0.344948683,-0.034265184,0.092005949,-0.032240409,-0.338148385,-0.940540373,-0.095511228,-0.052218158,-0.15824081
2024/9/23 15:46,1730444993,-0.004641026,0.01008907,0.000623345,0.293202668,-0.100134301,0.150451382,-0.095700763,-0.289019704,-0.952527702,0.005829212,-0.00509672,0.004974256
2024/9/23 15:25,1730444980,-0.06185168,0.131498441,-0.056920528,-0.066242852,-0.203216128,0.07842213,-0.201377675,0.066194415,-0.977274418,1.741037369,0.145945787,-0.262803346
2024/9/23 15:21,1730444978,0.045357667,0.045455962,0.002931595,0.298415742,0.058022112,0.104414984,0.055426624,-0.294006348,-0.954195023,-0.04268327,0.114691198,-0.000319895
2024/9/23 15:14,1730444950,-0.009753764,0.000428319,0.012039185,0.569723633,-0.059177442,-0.001553879,-0.049801294,-0.539399326,-0.840576112,0.00517678,0.027081722,0.023426447
2024/9/23 15:52,1730445000,-0.015835479,0.011217743,-0.010442615,0.338199998,0.038146667,0.197005361,0.035977062,-0.331789583,-0.942667127,-0.014951074,-0.161012813,-0.095089436
2024/9/23 16:00,1730445004,-0.00829459,0.003116786,0.013635337,0.327723047,0.050282136,0.160799116,0.047585949,-0.321888089,-0.945581079,-0.002599463,-0.012423342,-0.006724797
2024/9/23 15:41,1730444989,0.026308142,0.115693957,0.019495666,0.348911342,-0.003980244,0.129800901,-0.003740407,-0.341874957,-0.939737976,0.428195208,0.321714699,0.657749534
2024/9/23 16:17,1730445011,0.003731314,0.003421187,0.017545283,0.321700747,0.027256973,0.18931445,0.025855463,-0.316180527,-0.948346615,-0.000700961,-0.011957288,-0.016126288
2024/9/23 15:50,1730444997,0.057768255,0.040991634,0.011474252,0.35869243,0.021432374,0.206090041,0.020066809,-0.351050168,-0.93614161,0.239253238,0.349764973,0.237899393
2024/9/23 15:24,1730444979,0.026790161,-0.303694725,0.17406249,0.144053308,-0.005083818,0.086924605,-0.00503114,-0.143555611,-0.989629447,-3.450332165,-0.557354331,0.262578279
2024/9/23 15:17,1730444975,-0.00142096,0.067266196,0.001711965,0.225874436,-0.172971018,0.032306699,-0.167737961,-0.223958671,-0.96005547,0.361083239,0.22128582,0.120007314
2024/9/23 15:29,1730444982,-0.008530762,0.005616248,0.00047189,0.308313946,-0.042288145,0.09910513,-0.040282104,-0.303452522,-0.951994717,-0.039455313,-0.184214547,-0.008749918
2024/9/23 15:24,1730444980,-0.011386782,0.003186882,-0.01082617,-0.299966901,-0.112114662,0.06373785,-0.106884077,0.295488596,-0.94934833,-0.158332661,0.000306302,-0.002396414
2024/9/23 15:20,1730444977,0.001987454,0.000235349,0.000274003,0.296108457,0.047218706,0.079662133,0.045146935,-0.291800231,-0.955413222,0.038329914,-0.006375037,-0.009960644
2024/9/23 15:57,1730445004,0.009093117,0.008919626,0.006862998,0.329307666,0.0453448,0.110577666,0.042893559,-0.32338798,-0.945293784,0.025638333,0.104814336,-0.045420472
2024/9/23 16:08,1730445006,-0.011384021,0.00123477,0.004210353,0.317726024,0.032003483,0.181822354,0.030396463,-0.312407196,-0.949461818,-0.003033669,0.100086957,0.016715974
2024/9/23 16:12,1730445008,-0.006514104,-0.001711071,0.006544292,0.319717502,0.032584894,0.183582083,0.030928157,-0.314298391,-0.948820293,4.28e-05,0.009893149,-0.008538836
2024/9/23 15:26,1730444981,-0.031005897,0.015145093,-0.002265453,0.30077209,-0.117067579,0.075699967,-0.11155697,-0.296257734,-0.948570728,0.238416553,0.555386007,0.06948337
2024/9/23 16:10,1730445007,0.014042636,0.006775379,-0.001995146,0.317294133,0.024313147,0.182832278,0.023097236,-0.311996907,-0.949802339,0.015648829,-0.070978269,0.01300454
2024/9/23 15:59,1730445004,0.010955598,-0.003752381,0.002569258,0.331058205,0.051428767,0.163781844,0.048614692,-0.325043947,-0.944448531,0.018503631,-0.004624541,0.007847754
2024/9/23 16:15,1730445010,-0.001362842,-0.003654182,0.003831923,0.323057095,0.024498311,0.184743856,0.023228673,-0.317466974,-0.947984755,-0.01775904,0.010797825,0.002708706
2024/9/23 15:15,1730444974,-0.001018554,0.009915724,0.007455111,0.202629412,-0.167796416,0.020571713,-0.163593233,-0.201245636,-0.965783298,-0.039345395,-0.029890215,0.018688045
2024/9/23 16:07,1730445005,-0.000102479,-0.009272814,0.002601624,0.323986936,0.038023831,0.183692905,0.036036909,-0.318348587,-0.947288513,-0.004228771,0.001934559,0.00859509
2024/9/23 16:01,1730445004,-0.019312121,0.008815855,0.00089252,0.3264903,0.045939398,0.164028982,0.04349729,-0.320720702,-0.946174502,0.015825648,-0.043093637,-0.009033971
2024/9/23 15:22,1730444978,-0.003161032,0.004636407,0.000125468,0.29737583,0.061980131,0.085096524,0.059221808,-0.293012232,-0.954272807,0.008466419,-0.023367336,-0.082567841
2024/9/23 15:23,1730444979,-0.006266646,0.00445056,0.006420314,0.294708867,0.052306769,0.084290817,0.050028834,-0.290461272,-0.955578029,-0.002981634,-0.010895753,0.006360911
2024/9/23 15:39,1730444989,0.001555241,0.026689976,0.010312676,0.348230037,-0.015664388,0.134664862,-0.01472358,-0.341234624,-0.939862847,0.013620667,0.060540617,0.052479349
2024/9/23 15:46,1730444993,0.000866435,0.004506022,0.009063423,0.292471296,-0.102129326,0.150531988,-0.097622417,-0.288319439,-0.952544868,0.003644118,-0.016423143,0.002711582
2024/9/23 16:05,1730445005,-0.004427101,0.009616196,-0.001032054,0.3216203,0.032206841,0.182434307,0.030550135,-0.316104203,-0.948232472,0.006825823,0.004163358,-0.003742269
2024/9/23 15:55,1730445003,-0.005885573,0.017594814,0.013172984,0.322857133,0.026386291,0.144787511,0.02502008,-0.317277372,-0.948002636,0.012421473,0.108408265,-0.098997466
2024/9/23 15:28,1730444982,0.014314528,-0.005390823,0.021917999,0.355374677,0.009275408,0.081865374,0.008695721,-0.347941667,-0.93747586,-0.082337946,-0.185110956,0.175427541
2024/9/23 16:09,1730445006,-0.000397829,0.0014534,0.005800962,0.317907966,0.032021604,0.183904136,0.030411849,-0.312580049,-0.949404478,0.000878561,0.00515432,0.007554061
2024/9/23 16:27,1730445018,-0.004233636,-0.061006486,-0.059657454,0.419998089,0.129226706,0.25121296,0.117667437,-0.407758713,-0.905476213,-0.096595377,0.286128193,0.053265836
2024/9/23 15:45,1730444993,0.001468696,0.005217344,0.011778653,0.29417075,-0.095171985,0.14913808,-0.090946235,-0.289946318,-0.95271188,-0.010244641,-0.036108695,-0.000932901
2024/9/23 15:42,1730444990,0.006824948,0.000345021,-0.000712633,0.316741374,-0.071618209,0.145708775,-0.067997426,-0.311471701,-0.947819471,-0.069207653,-0.059196971,-0.01271579
2024/9/23 16:01,1730445004,-0.004015397,0.001098752,0.015472651,0.327316072,0.049687223,0.166552644,0.047029905,-0.321502745,-0.945739985,-0.000756038,-0.002221304,0.00767582
2024/9/23 16:22,1730445014,0.002101576,-0.010233521,0.007942796,0.319098315,0.024786861,0.192912974,0.023533177,-0.313710511,-0.949226975,-0.020479664,-0.006654669,-0.021941727
2024/9/23 16:25,1730445017,-0.000122577,0.006345868,7.72e-05,0.321325577,0.022436647,0.190686833,0.021286499,-0.315824568,-0.948578775,0.007936095,0.010146149,-0.003164097
2024/9/23 15:58,1730445004,-0.034393948,-0.025347292,0.022046387,0.333136421,0.049574569,0.158438391,0.046829838,-0.327008605,-0.943860352,-0.114131927,-0.020574478,-0.031204572
2024/9/23 16:26,1730445017,0.020774931,0.009423882,-0.028735697,0.27462747,-0.003305434,0.176552377,-0.003181561,-0.271188378,-0.962521017,-0.129575521,-0.170127228,0.06557028
2024/9/23 15:26,1730444980,-0.053108588,0.071525291,-0.045596182,0.035323524,-0.20922526,0.078702907,-0.20757255,-0.035316177,-0.977581918,1.348937631,0.113708757,-0.277718842
2024/9/23 15:27,1730444981,-0.047274627,0.03798148,-0.003915429,0.32922054,-0.05678667,0.085513943,-0.053708047,-0.323305517,-0.944769263,0.327152699,0.741578519,0.081502058
2024/9/23 15:32,1730444984,0.000918712,0.01293081,0.010316908,0.32648513,-0.045400207,0.00208975,-0.04298719,-0.320715815,-0.946199477,-0.000536146,-0.044922959,-0.091144927
2024/9/23 15:37,1730444987,0.039558068,0.022301197,-0.013601601,0.356495053,-0.014955716,0.081059966,-0.014014863,-0.348991811,-0.937020957,0.104364544,-0.000693982,0.005459059
2024/9/23 15:40,1730444989,0.005413632,0.002110273,0.019047558,0.348962964,-0.012353583,0.13651931,-0.011608711,-0.341923445,-0.939656079,-0.074446619,-0.071427807,-0.016443416
2024/9/23 15:42,1730444990,-0.009195566,0.011468381,0.008848608,0.317833182,-0.070743389,0.146003629,-0.067144156,-0.312509,-0.947538793,-0.056578256,-0.043870214,-0.00775038
2024/9/23 15:57,1730445004,-0.001197968,0.00957194,0.007499337,0.332062357,0.044893911,0.114664708,0.042427193,-0.325993419,-0.944419503,0.003457491,-0.012390053,0.050827444
2024/9/23 16:18,1730445012,-0.006784361,0.014579266,-0.000766754,0.323555126,0.017633675,0.193472851,0.016717816,-0.317939222,-0.947963715,0.016384659,0.00642518,0.021527454
2024/9/23 15:59,1730445004,0.01679546,0.052039593,0.025300801,0.331145037,0.05340603,0.162523515,0.050480511,-0.325126082,-0.944322407,-0.01234845,-0.044202041,-0.022775989
2024/9/23 15:52,1730445000,-0.021225277,0.000662804,-0.016616046,0.338172023,0.036935976,0.196109483,0.034836099,-0.331763208,-0.942719281,0.011283349,-0.146693006,-0.072434194
2024/9/23 16:30,1730445019,-0.00015147,0.000240475,0.00020051,0.353602052,0.075736343,0.230409486,0.070982739,-0.346279234,-0.935442209,-0.026368696,-0.02717033,-0.006644476
2024/9/23 16:16,1730445011,0.001245163,0.004968464,0.006049514,0.318331527,0.024670113,0.187465759,0.023428284,-0.312982351,-0.949469924,-0.001847827,-0.017749665,-0.006322926
2024/9/23 16:26,1730445017,0.000957845,0.000587612,-0.003534675,0.27036411,-0.028121269,0.196311926,-0.027096156,-0.267082334,-0.963292718,-0.059411302,-0.275256842,0.110922851
2024/9/23 16:19,1730445012,0.00770206,0.005243391,0.004898369,0.323863515,0.022668283,0.193907994,0.021487987,-0.318231583,-0.947769463,0.018253135,0.058114477,0.065273076
2024/9/23 16:22,1730445014,-0.022502851,0.012343377,0.001304686,0.319059762,0.02191691,0.191600163,0.020809114,-0.313673913,-0.949302733,0.012226306,0.091327555,0.070505753
2024/9/23 16:30,1730445019,-0.000713006,-0.003079325,-0.000757635,0.350894196,0.073523068,0.229771604,0.068980806,-0.343737662,-0.936528742,-0.026697299,-0.012600975,-0.00267333
2024/9/23 15:42,1730444990,-0.013636544,-0.005381227,-0.001415431,0.313719615,-0.074539871,0.145608161,-0.070836112,-0.308598846,-0.948550999,-0.03890644,-0.021815512,-0.006467961
2024/9/23 16:26,1730445017,-0.042931542,-0.01163885,-0.025996983,0.269219896,-0.017831311,0.185852829,-0.017188093,-0.265979528,-0.963825405,-0.028679144,-0.057327699,0.22310175
2024/9/23 16:12,1730445008,0.007411882,0.008349001,0.004631042,0.319336567,0.032200438,0.183398575,0.030567227,-0.31393674,-0.948951721,0.020029038,0.015155822,0.015180076
2024/9/23 16:32,1730445020,0.004894271,0.006968975,0.003602564,0.336559575,0.053376309,0.228320591,0.050357789,-0.33024165,-0.942552149,0.019079383,-0.019493502,-0.004367633
2024/9/23 15:56,1730445004,0.005019385,-0.00440377,0.011451185,0.330837343,0.039587105,0.125309387,0.037430543,-0.324835062,-0.945029676,0.019184709,-0.02534074,0.040718302
2024/9/23 16:09,1730445006,-0.000186149,0.004884332,0.006403327,0.317391538,0.032066424,0.184001638,0.030459573,-0.312089443,-0.949564338,0.015277003,-0.001177079,0.000906065
2024/9/23 15:49,1730444995,-0.00182835,0.019326776,-0.00172174,0.316163139,-0.098931582,0.162486954,-0.093874767,-0.310922176,-0.945787966,0.051279705,0.006865401,0.00431097
2024/9/23 16:24,1730445016,0.001241969,0.000999153,0.00635761,0.320997504,0.014836166,0.188647786,0.014077836,-0.315513283,-0.948816717,0.006064644,-0.027822539,0.009735189
2024/9/23 15:48,1730444995,-0.007905222,0.012969732,0.008146584,0.297250268,-0.115299968,0.159460045,-0.109999441,-0.292892188,-0.949796975,0.058157004,0.060949411,0.044136252
2024/9/23 15:44,1730444993,-0.002223492,0.015018404,0.006305456,0.304923703,-0.085916566,0.149483682,-0.081852436,-0.3002204,-0.950351477,-0.014944712,-0.050609875,0.005220013
2024/9/23 15:57,1730445004,-0.003525313,0.004172444,0.002711475,0.332129104,0.043190832,0.117264308,0.040817771,-0.32605651,-0.944468677,0.008569067,-0.030702746,0.051685039
2024/9/23 15:47,1730444993,-0.014233142,-0.00926587,0.004957676,0.294486869,-0.10506832,0.152761903,-0.100360364,-0.290248841,-0.951673985,-0.160112485,-0.111886017,-0.050370064
2024/9/23 15:53,1730445002,-0.019107156,0.00322777,0.004374623,0.334391197,0.030231177,0.167997694,0.028552331,-0.328194141,-0.9441787,-0.009565319,0.002974523,-0.079951338
2024/9/23 15:22,1730444978,-0.003998302,0.014386445,0.002977967,0.300584877,0.056934398,0.078840394,0.054352283,-0.29607892,-0.953615785,0.016963704,-0.016247375,-0.017780377
2024/9/23 16:02,1730445004,-0.009866398,-0.00230965,0.009589791,0.323139405,0.040748924,0.162526014,0.038629197,-0.317545027,-0.947456002,-0.048304427,-0.074515745,-0.00651446
2024/9/23 15:50,1730444996,-0.001581587,-0.055395752,0.009338379,0.355470331,-0.014964199,0.180968764,-0.014028157,-0.348031342,-0.93737793,0.387191951,0.762204468,0.156897634
2024/9/23 16:17,1730445011,0.020689221,-0.003377408,0.004352152,0.320871718,0.024638012,0.188313584,0.023378143,-0.315393895,-0.948672831,-0.003936701,0.025967989,0.008899969
2024/9/23 15:59,1730445004,-0.014736135,0.006919712,-0.007929265,0.331177723,0.053123129,0.161380553,0.050212797,-0.325156987,-0.944325984,0.018344859,0.036298126,-0.005862678
2024/9/23 16:20,1730445013,0.004046982,-0.000867635,0.010605395,0.340545911,0.028103227,0.187075384,0.026485842,-0.33400169,-0.942200243,0.000241063,-0.02381235,-0.031032639
2024/9/23 15:19,1730444977,-0.006846026,0.004193455,0.010622144,0.310761103,0.068834364,0.093424228,0.06548553,-0.305783361,-0.949846387,-0.018997259,-0.043360751,0.025553353
2024/9/23 15:52,1730445000,-0.001663409,0.000813216,0.02515918,0.349450045,0.056497892,0.192650356,0.053054988,-0.34238115,-0.938062012,-0.045422666,-0.04445371,0.255721033
2024/9/23 15:29,1730444982,0.007483404,0.024854392,0.006215572,0.308518775,-0.043597407,0.098126789,-0.04152577,-0.303647667,-0.951879025,0.003179824,-0.049319308,-0.040078759
2024/9/23 15:53,1730445002,-0.00538178,-0.002573043,0.007322073,0.334469357,0.031872323,0.164020475,0.030101009,-0.328267992,-0.94410491,0.021643922,0.025189281,-0.1020886
2024/9/23 16:03,1730445005,-0.009837579,0.000835329,0.004346371,0.312427036,0.030803595,0.174549123,0.02930777,-0.307369083,-0.951138973,0.010250743,0.0168938,0.009432069
2024/9/23 15:51,1730444998,-0.016040288,0.001360685,-0.009593368,0.333529378,0.043360165,0.221779925,0.040957872,-0.327379942,-0.944004655,-0.00568279,-0.001870033,0.005327445
2024/9/23 15:40,1730444989,-0.02397982,0.01295045,0.010241508,0.341737342,-0.015183007,0.133581478,-0.014304482,-0.335124463,-0.942065239,-0.009378955,0.036860585,0.018925864
2024/9/23 16:07,1730445005,0.003010869,0.008283049,0.004771888,0.323979565,0.037990947,0.183385053,0.036005843,-0.318341613,-0.94729203,-0.001222878,0.005695474,0.003894398
2024/9/23 15:41,1730444990,-0.017491251,0.008480906,0.004289746,0.343018423,-0.0227618,0.136721851,-0.021433933,-0.336331189,-0.941499829,-0.015309268,-0.021097258,0.031811729
2024/9/23 15:24,1730444979,0.004761778,0.04218781,0.006697357,-0.165104217,-0.064846757,0.076350583,-0.063920103,0.164355129,-0.984327972,-0.702067554,-0.136460066,-0.037345875
2024/9/23 15:19,1730444976,0.003437839,-0.005660266,0.018621027,0.31100516,0.07653796,0.089377909,0.072795041,-0.30601573,-0.949239314,-0.009471256,-0.083160095,0.025830964
2024/9/23 16:00,1730445004,-8.06e-05,0.002932608,0.006440997,0.328511731,0.050871677,0.160347152,0.048130475,-0.322634697,-0.945299029,0.005356072,0.001983028,-0.009523193
2024/9/23 15:17,1730444975,-0.019497111,-0.015382349,0.038970649,0.276820567,-0.154614076,0.04822071,-0.14813593,-0.273298651,-0.950454414,0.068138115,0.005073893,-0.023164384
2024/9/23 16:15,1730445010,0.005697487,-0.00482899,0.001595199,0.321319874,0.024907097,0.185160984,0.023629893,-0.315819144,-0.948525131,-0.020130584,0.016801922,0.016704896
2024/9/23 16:34,1730445021,-0.006930444,0.003052026,0.00789851,0.340204018,0.04490335,0.225662363,0.042315561,-0.333679438,-0.9417364,0.001119309,-0.012012949,-7.33e-05
2024/9/23 16:16,1730445010,0.004554175,0.002119333,0.006053329,0.318175363,0.025281775,0.188507569,0.024010269,-0.312834024,-0.949504256,0.007497628,0.000803248,0.007774464
2024/9/23 15:41,1730444990,0.00121974,0.002261728,0.010928273,0.341065375,-0.025989156,0.138627521,-0.024489393,-0.334491283,-0.942080617,-0.034366898,-0.047477465,0.013290243
2024/9/23 15:26,1730444981,-0.013109252,0.006826743,0.011979878,0.152976276,-0.201968372,0.076086519,-0.198255479,-0.152380317,-0.96823293,0.848737717,0.138702795,-0.233970627
2024/9/23 16:02,1730445004,0.001267362,0.011738688,0.006870091,0.318921077,0.040906286,0.16620072,0.038832724,-0.313542217,-0.948779881,-0.028279573,0.006456872,0.02776772
2024/9/23 16:18,1730445012,0.007312175,0.003177553,0.009654939,0.32146004,0.019795594,0.189141892,0.018780341,-0.315952152,-0.948589206,-0.009556425,-0.043465678,0.020190442
2024/9/23 15:58,1730445004,0.018949859,0.004220277,-0.00392127,0.333713556,0.051946362,0.163947736,0.049058538,-0.327553958,-0.943557978,0.027430421,-0.042796161,-0.014845095
2024/9/23 15:39,1730444989,0.008412164,-0.029611498,0.037977874,0.349808759,-0.014087556,0.137568128,-0.013233951,-0.342718154,-0.939345062,0.037906397,0.009016703,-0.038815942
2024/9/23 16:10,1730445007,-0.011520635,0.003249317,0.00521636,0.325156579,0.035030458,0.183492729,0.033188097,-0.319457173,-0.947019339,0.032513343,0.003018731,0.01453362
2024/9/23 15:30,1730444983,-0.000474405,0.001866907,0.003851414,0.313751909,-0.049475962,0.091061978,-0.047041465,-0.308629543,-0.950018346,-0.020977553,-0.070207015,0.00160605
2024/9/23 16:04,1730445005,-0.004577842,0.002830893,0.006521106,0.316210126,0.033239708,0.177676308,0.031585891,-0.31096682,-0.94989574,-0.001065357,0.004572153,-0.001899522
2024/9/23 15:52,1730445000,0.005110659,0.000152588,0.019230366,0.350566092,0.064432329,0.181502042,0.060471594,-0.343429536,-0.937229633,-0.048889197,-0.12395227,0.05892276
2024/9/23 16:00,1730445004,-0.002237283,0.00532198,0.005868316,0.328505137,0.052023193,0.16030531,0.049219079,-0.322628468,-0.945245147,-0.013709074,-0.004490584,-0.001210402
2024/9/23 16:08,1730445006,0.002833448,-0.002120912,0.008539319,0.32425588,0.03458962,0.181236411,0.03278055,-0.318603545,-0.947321057,-0.044693403,-0.075251043,-0.019652367
2024/9/23 15:15,1730444974,0.006521985,0.005349427,0.012749195,0.19706741,-0.170512949,0.022243572,-0.166403562,-0.195794344,-0.966423512,-0.076987043,-0.044605244,0.011091217
2024/9/23 16:14,1730445009,0.002290608,0.017543584,-0.001945555,0.322835317,0.01956479,0.185831505,0.018552884,-0.317256689,-0.948158205,0.020069737,0.032336142,0.010512886
2024/9/23 15:55,1730445003,-0.000938425,0.000253916,0.007430911,0.316661517,0.025075856,0.156420563,0.023826595,-0.311395794,-0.949981511,-0.070085041,-0.027507486,0.060765188
2024/9/23 15:52,1730445000,0.005708784,-0.006122142,0.022917211,0.351017464,0.065986756,0.18086931,0.061918147,-0.343853414,-0.936979711,-0.049625028,-0.117144428,0.054179139
2024/9/23 15:18,1730444976,-0.024122097,-0.014157683,0.003815353,0.323936482,0.092989261,0.070744557,0.088025883,-0.318300754,-0.943894088,-0.374432445,0.643531621,0.215236247
2024/9/23 15:15,1730444974,-0.001881734,-0.0010456,0.010883749,0.207065415,-0.164876429,0.018339348,-0.160624355,-0.205588892,-0.965366781,-0.014237251,-0.003979257,0.002084834
2024/9/23 16:29,1730445019,-0.008583136,0.014739096,0.002443254,0.36077121,0.073152551,0.231992779,0.068382315,-0.352995902,-0.933122575,-0.02302184,-0.058539171,0.002957977
2024/9/23 15:16,1730444975,0.021609843,0.000750184,0.005722463,0.192332947,-0.185243338,0.017673977,-0.1807895,-0.191149339,-0.964767873,0.222112089,0.018583842,-0.014307189
2024/9/23 15:54,1730445003,-0.004824752,0.005040765,0.010939896,0.325227487,0.025706241,0.149473397,0.024355987,-0.319524348,-0.947264969,0.023548927,0.006565263,-0.122316428
2024/9/23 15:51,1730444998,-0.002394747,-0.003858417,-0.004757583,0.338345067,0.062121997,0.200730414,0.058562323,-0.331926435,-0.941485703,0.133550793,0.039513092,-0.163744837
2024/9/23 15:28,1730444982,0.010151993,0.004744321,0.008046091,0.358342034,0.017886281,0.074500147,0.016749244,-0.350722075,-0.936329782,-0.045845337,-0.069137491,0.117571212
2024/9/23 15:29,1730444982,0.012948856,0.004518688,-0.002511382,0.308619352,-0.043938399,0.097762546,-0.04184901,-0.303743511,-0.951834321,0.01561392,-0.03647941,-0.029838532
2024/9/23 15:22,1730444978,0.001641937,0.014085203,0.009317517,0.299311235,0.061300832,0.077362553,0.058538705,-0.294862121,-0.953745008,0.010931769,-0.018355533,-0.088199787
2024/9/23 16:09,1730445006,-0.000519099,-0.001858324,0.008565485,0.317329143,0.032352112,0.183990855,0.030731481,-0.312030166,-0.949575007,-0.00885918,-0.013771433,-0.00838581
2024/9/23 16:33,1730445021,-0.005840365,0.002968371,0.007364094,0.342576608,0.048047912,0.225912254,0.045238543,-0.335915089,-0.940805256,0.00342429,0.008174079,-1.84e-05
2024/9/23 16:13,1730445009,-0.007004734,-0.010894567,0.020981848,0.320314716,0.022349181,0.184160546,0.021210656,-0.314865291,-0.948899329,-0.020773347,-0.037273563,0.001916841
2024/9/23 15:17,1730444975,-0.001817703,0.057388455,-0.007642925,0.222394651,-0.174690799,0.03040723,-0.169523224,-0.22056593,-0.960527241,0.386560887,0.207061335,0.119856313
2024/9/23 15:38,1730444988,-0.024460036,0.034073651,-0.018664718,0.34331407,-0.039775907,0.10117211,-0.037444878,-0.336609602,-0.940899491,-0.028869659,0.014064193,0.131408423
2024/9/23 16:07,1730445005,-0.000861689,0.004049003,0.00932008,0.325678434,0.038170509,0.18382241,0.036155254,-0.319951624,-0.946743786,-0.00848477,-0.001302247,-0.000974233
2024/9/23 15:51,1730444999,0.006439313,0.013804346,-0.002955735,0.346713091,0.067885435,0.185718449,0.063796863,-0.339808315,-0.938328445,0.151891202,-0.012815094,-0.147756651
2024/9/23 16:32,1730445020,-0.008537296,0.006654292,0.014030993,0.335708986,0.054254636,0.228321579,0.051200852,-0.329438657,-0.942787707,0.017270112,-0.011210006,0.005306619
2024/9/23 15:41,1730444990,-0.017899685,0.008801639,0.001236379,0.32644308,-0.059526534,0.14264672,-0.056349583,-0.320675999,-0.945511281,0.004002175,-0.00303996,0.049572404
2024/9/23 15:49,1730444995,-0.061596796,0.038147271,0.035835683,0.318562992,-0.103354396,0.164739631,-0.097979613,-0.313202173,-0.944618642,0.228584081,0.24234876,-0.042674594
2024/9/23 15:59,1730445004,0.004036859,-0.00526464,0.019871712,0.330120807,0.052662772,0.160769407,0.049796127,-0.324157327,-0.944691658,-0.024705624,-0.010882171,0.005916909
2024/9/23 16:04,1730445005,-0.001436593,0.006365925,0.003806055,0.315514595,0.03230285,0.177983943,0.030702937,-0.310305715,-0.950140893,-0.004245737,0.001751599,-0.001626654
2024/9/23 16:09,1730445006,0.000543501,0.011326104,0.001750648,0.316976719,0.032755862,0.183564143,0.031118469,-0.311695307,-0.949672401,-0.001149625,-0.008919155,0.001319281
2024/9/23 16:28,1730445018,0.018920243,0.000354022,-0.030263066,0.41161337,0.128152009,0.243227851,0.117127098,-0.400088459,-0.908961177,-0.014341421,-0.074799374,-0.133408919
2024/9/23 15:34,1730444985,-0.00124676,0.001942486,0.006314576,0.346820502,-0.015110651,0.089642431,-0.014210395,-0.339909345,-0.940350831,-0.002448673,-0.000356559,0.00733925
2024/9/23 15:44,1730444993,-0.001933031,0.010293871,0.003033519,0.296111578,-0.092841803,0.150868904,-0.088673659,-0.291803241,-0.95235908,0.012865786,-0.002663922,0.009674469
2024/9/23 16:34,1730445021,-0.008767929,0.003059,0.004248559,0.340179048,0.044812566,0.225614963,0.042230442,-0.333655894,-0.941748559,-0.007175609,-0.006335089,-0.003553345
2024/9/23 15:29,1730444982,0.00219724,0.02356267,-0.004457891,0.31753779,-0.036211098,0.101649558,-0.034393281,-0.312228382,-0.949384272,-0.019990696,0.041820191,0.058102883
2024/9/23 16:10,1730445007,0.005978271,0.002353609,0.006925702,0.324919849,0.036351898,0.183208731,0.034442246,-0.319232821,-0.947050214,-0.01060513,0.002840566,-0.004614029
2024/9/23 15:16,1730444975,-0.00288637,0.026298046,0.003709793,0.186728803,-0.185573115,0.017065363,-0.181302458,-0.185645565,-0.965745926,0.205636278,0.03733889,-0.012948764
2024/9/23 15:52,1730445002,0.000170484,0.005603284,0.023133039,0.337117307,0.040640825,0.161397438,0.038342681,-0.330768049,-0.942932844,0.005158611,-0.010957005,-0.080230914
2024/9/23 15:49,1730444995,0.01093027,-0.004916519,-0.003263831,0.316423121,-0.102412022,0.162722111,-0.097157679,-0.311169267,-0.945375085,0.013269173,-0.035971809,-0.008654896
2024/9/23 15:42,1730444990,-0.005972721,0.021082371,0.016953647,0.314077639,-0.074311348,0.145703636,-0.070611134,-0.308939368,-0.948456883,-0.042400055,-0.024118347,-0.004666866
2024/9/23 15:57,1730445004,0.01278634,0.004417151,0.009153962,0.330096674,0.046099163,0.110321613,0.043594871,-0.324134499,-0.945005953,0.113247544,0.005311447,0.01718059
2024/9/23 16:17,1730445011,-0.006833769,-0.006024629,0.015435457,0.320510132,0.0247114,0.188069726,0.023450581,-0.315050751,-0.948785067,0.0033227,-0.011124784,0.006771038
2024/9/23 16:30,1730445019,-0.002278648,-0.002161235,0.009479523,0.358398022,0.074358799,0.229407767,0.069569886,-0.350774497,-0.933872163,-0.021944277,0.017989425,-0.004793739
2024/9/23 15:41,1730444989,0.111083366,-0.001211137,0.018747747,0.349244362,-0.012796124,0.133610418,-0.012023314,-0.342187881,-0.939554632,-0.245732754,-0.641006052,-0.1663225
2024/9/23 15:43,1730444993,-0.013952672,0.016663611,0.001272142,0.309322965,-0.07789287,0.142352175,-0.074121058,-0.304413795,-0.949651659,-0.087478384,0.11564967,0.134813637
2024/9/23 16:01,1730445004,0.00133514,-0.003453702,0.019382596,0.328712671,0.052315487,0.160367935,0.049491864,-0.322824895,-0.945163846,-0.020450536,-0.026227038,-0.008772342
2024/9/23 15:44,1730444993,-0.004855148,-0.013147861,0.011075914,0.303869619,-0.088304421,0.149007759,-0.084149361,-0.29921478,-0.950468004,-0.040963359,-0.016644185,0.005537782
2024/9/23 16:01,1730445004,-0.007156625,-0.007154524,0.009661496,0.32730179,0.049733188,0.166372643,0.047073603,-0.321489245,-0.945742428,0.000266615,0.003038971,0.015988825
2024/9/23 16:14,1730445009,0.004652947,0.004894435,0.003564596,0.32294833,0.019182208,0.186161489,0.018189445,-0.317363858,-0.948129356,-0.011513175,-0.034384567,-0.031066516
2024/9/23 15:39,1730444988,0.037414901,0.024957061,-0.006895423,0.342690843,-0.018211088,0.120137964,-0.017151237,-0.336022675,-0.941697717,0.035428606,0.011059081,0.066810355
2024/9/23 16:01,1730445004,-0.000840195,-0.002383888,0.003472209,0.327086663,0.049456039,0.166490572,0.046814907,-0.321285516,-0.945824504,-0.006097996,-0.018969392,-0.017470332
2024/9/23 16:05,1730445005,-5.39e-05,0.007433712,-0.002072036,0.32070318,0.031254251,0.180777623,0.029655892,-0.315233976,-0.948550522,0.032015424,0.020453913,0.022987133
2024/9/23 16:03,1730445005,-0.009331936,0.026148409,0.023101449,0.313404026,0.031404906,0.174642594,0.029870251,-0.308298618,-0.950820565,0.018118536,0.022432376,0.040641546
2024/9/23 15:33,1730444985,0.002003036,0.007559866,0.012985647,0.346855254,-0.012822543,0.08790206,-0.012058584,-0.339942038,-0.94036907,-0.007608593,-0.005594997,-0.004824312
2024/9/23 16:17,1730445011,0.001989942,0.004921794,0.003209352,0.320146586,0.023883959,0.188015896,0.022668242,-0.3147057,-0.948918581,-0.000606999,-0.004422141,0.011222245
2024/9/23 16:28,1730445018,-0.001905948,0.011189908,-0.006228864,0.382641773,0.09493257,0.235272127,0.087934971,-0.373372495,-0.923504412,-0.062196359,0.031001097,-0.026833741
2024/9/23 15:27,1730444981,-0.008531582,0.002375484,-0.010428786,0.336138612,-0.043588209,0.087400387,-0.041135781,-0.329844266,-0.943138659,0.340574205,0.647586286,0.059460346
2024/9/23 16:23,1730445015,-0.00106908,-0.001948982,0.006407499,0.319611551,0.021347243,0.192068627,0.020264626,-0.314197809,-0.949141204,0.009853618,0.002829114,0.012379922
2024/9/23 15:52,1730445000,-0.006281856,-0.001694798,0.02555567,0.349817648,0.057573937,0.190139004,0.054057106,-0.342726499,-0.937878609,-0.057870001,-0.001010099,0.214394763
2024/9/23 15:59,1730445004,-0.013991851,0.011968493,-0.007033765,0.331272512,0.053516287,0.161314917,0.050582413,-0.325246602,-0.944275379,0.006331088,0.033062119,-0.005230337
2024/9/23 15:19,1730444977,0.008765999,-0.005094081,0.01727438,0.299008911,0.060081233,0.097786042,0.057380825,-0.294573247,-0.953904629,-0.071699962,-0.152557552,0.019707289
2024/9/23 15:56,1730445004,-0.011626758,-0.005708277,0.004436016,0.3303938,0.038837199,0.126150123,0.03672744,-0.324415565,-0.945201337,-0.010022052,-0.020205365,0.026974738
2024/9/23 15:29,1730444982,-0.014767144,0.023770332,-0.006516039,0.318174023,-0.037460113,0.100757114,-0.035571601,-0.312832743,-0.94914192,-0.03677287,0.034598496,-0.006550626
2024/9/23 15:32,1730444985,0.000276178,-0.025877118,0.020785689,0.333980661,-0.030919982,0.063228266,-0.029206842,-0.327806324,-0.94429338,0.056070518,0.202046871,0.464476019
2024/9/23 16:11,1730445007,-9.64e-05,0.002160192,0.004609287,0.320243263,0.02535987,0.183105261,0.024067964,-0.314797461,-0.948853672,0.028355742,0.02803247,0.015650496
2024/9/23 16:28,1730445018,0.003597006,0.001694024,0.043933928,0.419332081,0.138692384,0.254112183,0.126270503,-0.407150507,-0.904590607,-0.011717847,0.018079439,-0.012645537
2024/9/23 15:56,1730445004,0.001856633,0.015460789,0.014719188,0.333045992,0.047961056,0.111357082,0.045308266,-0.326923162,-0.943964183,-0.020816676,-0.003601355,0.088607103
2024/9/23 16:14,1730445009,0.013203274,-0.001858145,0.002878666,0.322987993,0.024439721,0.185923875,0.023173666,-0.317401469,-0.94800806,-0.002434553,0.056049194,0.040875692
2024/9/23 15:54,1730445003,-0.005004873,-0.006691724,0.002717257,0.325760539,0.024886054,0.153076064,0.023574803,-0.320029408,-0.947114229,-0.014222685,-0.017614909,-0.087967776
2024/9/23 16:03,1730445005,0.009007774,-0.001481742,0.008733749,0.314322155,0.032427044,0.176476559,0.030832915,-0.309171915,-0.95050621,0.020782169,0.000898589,0.026586661
2024/9/23 15:27,1730444981,-0.009633351,0.002032846,0.009709418,0.365656626,0.052723003,0.07386756,0.049214635,-0.357562602,-0.932591498,-0.014072978,0.007237445,-0.167294875
2024/9/23 15:56,1730445004,-0.003726449,0.00157243,0.009572029,0.328348268,0.045961596,0.114292929,0.043490838,-0.322479993,-0.945576668,-0.02122652,-0.04490139,-0.074645787
2024/9/23 16:10,1730445007,0.00267195,-0.00025624,0.007085979,0.323824549,0.036510568,0.183409536,0.034605257,-0.318194658,-0.947393596,-0.025371294,-0.014703806,-0.005864649
2024/9/23 15:17,1730444975,-0.008247241,0.061093479,-0.046678185,0.25884421,-0.15797389,0.046853558,-0.15207684,-0.255963445,-0.954649329,0.325507849,0.187674865,0.060004003
2024/9/23 16:00,1730445004,0.007313263,0.00534004,0.01421082,0.327202564,0.050678598,0.159941809,0.047969311,-0.321395278,-0.945729375,-0.016517691,-0.017737148,0.001006147
2024/9/23 15:51,1730444998,0.000735343,0.02551195,-0.004612625,0.337824516,0.042965373,0.224727103,0.040524408,-0.331435353,-0.942607224,-0.137817442,-0.089766599,-0.180764616
2024/9/23 15:22,1730444979,-0.002322778,0.008063525,0.006071687,0.301106039,0.055554448,0.078940134,0.053027712,-0.296576679,-0.953535676,-0.005203149,0.00322193,0.018574648
2024/9/23 16:23,1730445016,-0.03608077,0.039197803,-0.045168102,0.319926556,0.019428587,0.190048575,0.018441591,-0.314496845,-0.949079335,0.044593394,-0.042008929,-0.016844224
2024/9/23 15:20,1730444977,-0.008912005,0.008538336,0.002942324,0.298313028,0.045449676,0.085108277,0.043427374,-0.293908149,-0.954846621,0.014190084,0.002635769,0.053779613
2024/9/23 16:27,1730445018,-0.027709179,0.001294196,0.009503007,0.21634145,-0.127249318,0.195334546,-0.123947911,-0.214657798,-0.968792498,0.079314321,0.117086709,0.05270151
2024/9/23 15:42,1730444991,-0.001600124,0.010853171,0.006052375,0.318550992,-0.07041827,0.139398006,-0.066820286,-0.313190788,-0.947336555,0.000924907,-0.02860604,-0.027761959
2024/9/23 15:55,1730445003,-0.00141876,0.023778498,0.028055489,0.320191486,0.019227553,0.150953478,0.018249191,-0.314748317,-0.948999703,-0.030803278,0.070919752,-0.062550195
2024/9/23 15:49,1730444995,-0.006591193,-0.007142872,0.009494543,0.326218529,-0.094066959,0.167535882,-0.088974603,-0.3204633,-0.943073094,-0.060227621,-0.030238824,0.010872306
2024/9/23 15:27,1730444981,-0.00709369,0.011969328,-0.001784861,0.365757832,0.050803559,0.077076002,0.047422647,-0.357657105,-0.932648063,0.008575484,0.059069753,-0.112336226
2024/9/23 16:24,1730445016,0.003078386,0.007626265,-0.004781365,0.321549327,0.020784941,0.191665339,0.019718228,-0.31603685,-0.948541999,0.022775073,0.058393575,0.007236931
2024/9/23 16:11,1730445007,-0.001888715,0.010461152,0.000346005,0.319391574,0.027160751,0.181556272,0.025783969,-0.313988954,-0.949076474,0.005327668,0.029513456,-0.010424673
2024/9/23 15:58,1730445004,0.004280169,-0.015417933,0.005134761,0.33553889,0.050772126,0.15982188,0.047920123,-0.329278052,-0.943016231,-0.07398387,-0.066367537,0.03056079
2024/9/23 16:32,1730445021,-0.003956191,0.005669504,0.006555259,0.3387725,0.047440825,0.225758611,0.044727664,-0.332329601,-0.942102134,0.000849498,-0.00211824,-0.001863356
2024/9/23 15:26,1730444981,-0.005668536,-0.002921969,0.007988036,0.282164098,-0.154616431,0.071705252,-0.147911161,-0.278434813,-0.948997557,0.105648018,0.233323306,-0.083912469
2024/9/23 16:15,1730445010,-0.005051466,0.00072208,0.010979652,0.324518584,0.025842754,0.184964974,0.024491148,-0.318852544,-0.947487831,-0.010477676,-0.017069492,-0.004834592
2024/9/23 16:25,1730445017,0.000200804,0.011552721,0.004547536,0.322712765,0.017857533,0.187341185,0.016934801,-0.31714046,-0.948227346,-0.036053203,0.008059297,0.018127237
2024/9/23 16:13,1730445009,-0.001240317,-0.000946939,0.007234931,0.321519537,0.022361729,0.184722609,0.021214064,-0.316008598,-0.948519111,0.046160303,-0.013601525,-0.008109747
2024/9/23 16:09,1730445006,-0.002094913,0.005068809,0.012496948,0.317087878,0.032980582,0.183458869,0.031330734,-0.311800927,-0.949630737,-0.019439995,-0.01240257,-0.003664718
2024/9/23 16:16,1730445010,-0.001512855,0.010025918,0.003418386,0.317567556,0.024724153,0.187923586,0.023485497,-0.312256664,-0.949707389,0.010697354,0.016519627,0.007418293
2024/9/23 15:46,1730444993,0.004588544,0.007339537,0.000255346,0.290729971,-0.105341378,0.151493669,-0.100734167,-0.286651641,-0.952724218,-0.001407537,0.003962822,-0.002418252
2024/9/23 16:21,1730445013,-0.005308652,0.002533734,0.005249262,0.345891754,0.03041457,0.188700357,0.02860881,-0.339035749,-0.940338373,0.007436751,-0.015948836,0.008966016
2024/9/23 15:56,1730445004,0.007081393,0.017101139,-0.019929647,0.32942348,0.042567681,0.124704937,0.040266611,-0.323497564,-0.945371866,0.026204804,0.059251111,-0.11051964
2024/9/23 15:39,1730444989,-1.13e-05,-0.013592213,-0.004913747,0.348474628,-0.015037977,0.135527498,-0.014133582,-0.34146452,-0.939788401,0.024559602,0.047650915,0.041053057
2024/9/23 15:17,1730444975,0.009428144,-0.062249213,0.022526741,0.274418717,-0.153684404,0.050122621,-0.147352323,-0.270987451,-0.951237679,-0.049456581,-0.123388477,-0.09335199
2024/9/23 15:53,1730445002,-0.004925843,0.006524056,0.00524801,0.336912634,0.0404598,0.16016277,0.038174722,-0.33057487,-0.94300741,-0.019413404,-0.056937277,-0.027285252
2024/9/23 16:07,1730445006,-0.000796095,0.010941684,0.002764165,0.324289206,0.03929163,0.18522131,0.037234068,-0.318635136,-0.947145879,0.009471014,0.013080686,0.009184714
2024/9/23 15:29,1730444982,0.010222785,-0.010296315,0.016473114,0.314006533,-0.038400291,0.10225429,-0.036513682,-0.308871746,-0.950402558,-0.087665081,-0.010120772,-0.006030564
2024/9/23 15:56,1730445004,0.00580804,0.001343518,0.006209493,0.329509107,0.043367129,0.12355149,0.041021172,-0.323578596,-0.945311666,-0.001767177,0.026654284,-0.105765365
2024/9/23 15:25,1730444980,-0.021382272,0.00423795,0.00244993,-0.35860825,-0.109933207,0.066177073,-0.102732718,0.350971371,-0.930733621,0.376005799,-0.054135367,-0.015050211
2024/9/23 16:28,1730445018,-0.008468054,-0.003790557,0.045853436,0.412369076,0.12827718,0.247215085,0.117202155,-0.400780946,-0.908646405,-0.013622806,-0.134928748,-0.152750224
2024/9/23 15:40,1730444989,-0.096524954,-0.097906232,-0.056238413,0.348123899,-0.00886536,0.125995354,-0.008333456,-0.341134846,-0.939977407,-0.178791881,-0.068735085,-0.208411247
2024/9/23 15:18,1730444976,0.023313262,-0.001298398,0.029888034,0.327378935,0.086969892,0.06778744,0.082247011,-0.32156229,-0.943309665,-0.365747452,0.765639126,0.25882104
2024/9/23 15:40,1730444989,0.008526437,-0.01500231,0.019728839,0.347266828,-0.013920189,0.135949857,-0.013088821,-0.340329051,-0.94021529,-0.075671382,-0.078513682,-0.034504123
2024/9/23 15:48,1730444994,0.006943136,-0.050757915,-0.049312294,0.298791378,-0.110070015,0.154350208,-0.104980856,-0.294365346,-0.949909508,0.02808976,0.051029403,0.054547455
2024/9/23 16:13,1730445009,0.007398807,0.00376609,0.009875953,0.319443488,0.021459367,0.182222477,0.02037218,-0.314038247,-0.949191749,0.0009721,0.026715538,0.026214352
2024/9/23 16:12,1730445008,-0.001987264,0.000224352,0.011724949,0.321001079,0.032089231,0.183195032,0.030444888,-0.315516651,-0.948431492,-0.004125019,-0.018094011,-0.011112142
2024/9/23 16:21,1730445014,-0.001929393,-0.000687093,0.011677027,0.335755448,0.030782958,0.19331535,0.0290595,-0.329482526,-0.94371438,-0.074759007,0.024932818,0.030700339
2024/9/23 15:37,1730444987,-0.048637472,0.015567303,-0.002035856,0.343025119,-0.030862928,0.093484035,-0.029060286,-0.336337507,-0.941293061,0.048258886,0.15176107,0.025549786
2024/9/23 15:21,1730444978,-0.004135635,0.008384645,0.003842592,0.302049531,0.044621992,0.088986536,0.042587765,-0.297477573,-0.953778446,-0.002996752,0.011945115,0.019182008
2024/9/23 15:39,1730444989,-0.005270155,0.065893263,-0.011852562,0.347990188,-0.018498971,0.13122153,-0.01738915,-0.34100914,-0.939899147,0.026874939,0.086600974,0.030363822
2024/9/23 15:47,1730444993,0.015915714,0.011507541,-0.006554842,0.296806238,-0.100311834,0.152197895,-0.09576495,-0.292467594,-0.951468229,0.078052714,0.08590243,0.023445463
2024/9/23 15:32,1730444984,-0.059772462,0.023670346,-0.032734036,0.325177706,-0.045324428,-0.054327269,-0.042934451,-0.319477171,-0.946620822,0.091490529,0.274868876,0.603437006
2024/9/23 16:27,1730445018,-0.025016353,0.001395077,0.054261923,0.258317122,-0.131794048,0.196620467,-0.127052724,-0.255453885,-0.958436728,0.351964504,0.142058104,-0.026900265
2024/9/23 16:04,1730445005,0.000566633,0.006963491,0.000242531,0.316175364,0.031341507,0.177455656,0.029783081,-0.310933799,-0.949964821,0.023407619,0.017214179,0.009369005
2024/9/23 16:09,1730445006,-0.003051315,0.007867128,0.00406009,0.317447491,0.0327704,0.183871287,0.031127464,-0.312142611,-0.949525177,0.014822042,0.003085577,0.011196147
2024/9/23 16:03,1730445005,0.005117634,0.004742533,0.007644057,0.31250824,0.030931079,0.174769048,0.029428251,-0.307446361,-0.951110244,0.005718967,0.005900804,0.009764325
2024/9/23 15:43,1730444992,-0.00807406,-0.006021231,0.012563348,0.314474584,-0.072716658,0.136492213,-0.069089636,-0.309316874,-0.948445916,-0.060802277,-0.006650674,0.012697424
2024/9/23 16:10,1730445007,-0.014018755,0.001303583,0.006561279,0.325599162,0.035756307,0.183136782,0.033870425,-0.319876522,-0.946853638,-0.00589204,0.024506446,-0.003308866
2024/9/23 15:15,1730444974,0.004191652,-0.000562057,0.008650959,0.199582289,-0.169277573,0.02227634,-0.16512607,-0.198259935,-0.966139913,-0.078767963,-0.030994365,0.024759999
2024/9/23 15:34,1730444985,0.001779821,0.004033446,0.00706619,0.345572027,-0.017591148,0.090450702,-0.016550338,-0.338734955,-0.940736234,-0.01663878,-0.032138187,0.00166203
2024/9/23 16:01,1730445004,-0.000560861,0.001005024,0.008797109,0.328119623,0.052083073,0.160977136,0.049282152,-0.322263539,-0.945366323,-0.012479273,-0.011057407,0.018735982
2024/9/23 15:26,1730444980,-0.031059593,0.037357338,-0.041350901,0.047766731,-0.207945443,0.078846546,-0.206214562,-0.047748569,-0.977341115,1.088210106,0.113187574,-0.206809416
2024/9/23 15:59,1730445004,-0.005266089,0.001021326,-0.005912244,0.331200983,0.051368351,0.163712467,0.048555247,-0.325178981,-0.944405079,0.013311061,-0.009138333,-0.02291362
2024/9/23 16:11,1730445008,-0.009159118,0.001340866,0.012116611,0.319203428,0.0307519,0.182565939,0.029193887,-0.313810319,-0.949036777,-0.012239279,-0.021501793,-0.005739267
2024/9/23 15:54,1730445002,0.000166509,-0.005726427,0.013533592,0.334377906,0.03281496,0.161750112,0.030991929,-0.328181595,-0.944106102,0.002947167,0.003347632,-0.087924153
2024/9/23 15:24,1730444979,-0.003236406,0.073514044,0.050922871,0.017667799,-0.028968218,0.090131723,-0.028959645,-0.01766688,-0.999424458,-2.116345406,-0.478125781,0.025154838
2024/9/23 16:25,1730445017,0.0079278,-0.002877206,0.007089555,0.322412239,0.020102049,0.189518318,0.019064983,-0.316855431,-0.948282242,-0.008739477,0.006009994,-0.019786272
2024/9/23 15:45,1730444993,0.021485314,-0.0088287,0.007974267,0.294927802,-0.100078076,0.148657827,-0.095597252,-0.290670782,-0.952035546,-0.051804036,-0.066786982,0.016564174
2024/9/23 16:03,1730445005,0.003758622,0.00505802,0.006726265,0.313048275,0.031579361,0.174991211,0.030039586,-0.307960182,-0.950924873,0.001014289,0.001018964,0.013124755
2024/9/23 16:06,1730445005,0.000491433,0.002540976,0.004964411,0.325214169,0.035172557,0.182803434,0.033322021,-0.319511741,-0.946996272,-0.011003804,0.032547329,-0.00879402
2024/9/23 15:51,1730444998,-0.013674643,-0.015948921,0.013405859,0.332279676,0.046055379,0.218890633,0.043520816,-0.326198846,-0.944298804,-0.075471461,0.03790348,-0.187624708
2024/9/23 15:14,1730444950,0.004457295,-0.000122786,0.017592192,0.576732004,-0.055823769,-0.001494784,-0.046769924,-0.54528743,-0.836943328,0.049172517,-0.020759836,-0.018762073
2024/9/23 16:23,1730445015,-0.012029635,0.00649038,0.003994763,0.318825425,0.02300216,0.191127062,0.021841023,-0.313451409,-0.949353039,-0.027814664,-0.018439157,-0.040734693
2024/9/23 15:54,1730445003,0.006153829,-0.002053052,0.008153856,0.325808869,0.024688351,0.153933178,0.023387173,-0.320075214,-0.947103441,0.006500968,-0.003047151,-0.087400518
2024/9/23 15:57,1730445004,-0.005971421,-0.003855437,0.008076906,0.332433962,0.049745185,0.111652089,0.047002286,-0.326344699,-0.944081545,0.004849964,0.109813087,-0.175667912
2024/9/23 16:27,1730445018,0.023884252,0.008164451,0.022624493,0.218579991,-0.126591354,0.196452133,-0.123249479,-0.21684362,-0.968394756,0.135292783,0.007142902,0.032375626
2024/9/23 16:17,1730445011,0.001293063,0.004636228,0.002550662,0.320906782,0.026120463,0.189792282,0.024784189,-0.315427184,-0.948626041,0.006820136,0.010715533,0.016477887
2024/9/23 16:27,1730445018,-0.003051855,0.017436728,0.009405792,0.222405948,-0.127689658,0.197208574,-0.124206439,-0.220576942,-0.967428863,0.33330074,-0.126917168,-0.01500238
2024/9/23 16:17,1730445011,-0.00398377,0.004405439,0.001943588,0.321387214,0.026636596,0.190447919,0.025269764,-0.31588304,-0.948461592,0.008327923,0.003087974,-0.00176418
2024/9/23 16:03,1730445005,-0.009561203,0.01228407,-0.002176821,0.312945116,0.031352503,0.174806562,0.029824857,-0.307862043,-0.950963438,0.00137117,0.019717017,-0.000135657
2024/9/23 16:18,1730445012,-0.003694221,0.006180853,0.010921597,0.321119536,0.01812571,0.189458922,0.017198231,-0.315629065,-0.948726773,0.015454746,0.028230345,0.02000338
2024/9/23 15:32,1730444984,0.016673122,0.012463301,0.017929912,0.326507046,-0.045617957,0.00129663,-0.043192904,-0.320736587,-0.946183085,-0.001445272,-0.046806347,-0.063744515
2024/9/23 16:19,1730445012,-0.006863961,0.005533338,0.00684315,0.330921861,0.027687134,0.196870753,0.026181573,-0.324915022,-0.945380747,0.011273129,-0.014097139,-0.021310771
2024/9/23 15:40,1730444989,-0.024761263,0.007484913,-0.011808336,0.345072453,-0.012197701,0.135496946,-0.011478374,-0.338264853,-0.940980911,0.110426232,0.149659306,-0.069677718
2024/9/23 16:09,1730445006,-0.000445165,-0.001403987,0.007799327,0.317405876,0.033158905,0.183433862,0.031496786,-0.312103063,-0.949526012,-0.014537288,-0.0082017,-0.003918411
2024/9/23 15:33,1730444985,7.74e-05,0.010752529,0.002915323,0.344474976,-0.014948416,0.087344522,-0.014069716,-0.337702543,-0.941147745,0.019733768,0.004462698,0.020712472
2024/9/23 16:26,1730445017,-0.009032469,-0.03956598,-0.029548705,0.269406166,-0.020723441,0.189643902,-0.019974498,-0.266159058,-0.96372211,0.054861274,-0.093071587,0.16413258
2024/9/23 15:15,1730444974,-0.003105834,0.014386117,0.002826929,0.175812895,-0.182149635,0.020347669,-0.178351671,-0.174908563,-0.968296289,-0.039788231,-0.047717415,-0.011069584
2024/9/23 16:17,1730445011,0.005344354,0.002333403,0.005343914,0.320859891,0.026063672,0.189631501,0.024730701,-0.315382689,-0.948642254,0.003066818,0.010629779,0.011822735
2024/9/23 15:53,1730445002,0.002495885,0.01667884,0.000766695,0.333818273,0.030099507,0.166458257,0.028433666,-0.327652901,-0.94437021,0.015921742,0.019087711,-0.010458389
2024/9/23 15:38,1730444988,0.00501436,0.034074575,0.017738581,0.343266434,-0.034693876,0.091884122,-0.032663293,-0.336564749,-0.941093624,-0.010003294,-0.065973386,0.205092698
2024/9/23 15:56,1730445004,-0.001404438,-0.000440955,0.007600248,0.329445439,0.043812921,0.122465969,0.041443482,-0.323518336,-0.945313871,-0.00141235,-0.004184321,-0.101991817
2024/9/23 16:22,1730445014,-0.000174711,-0.008885831,0.014408648,0.318653555,0.023034211,0.192064274,0.021872692,-0.313288182,-0.949406147,-0.037076075,0.009957863,-0.031588599
2024/9/23 15:54,1730445002,0.005764961,-0.01251635,0.01660049,0.326828169,0.034037376,0.170458482,0.032229397,-0.32104072,-0.946516812,-0.096139081,-0.048552051,0.072793297
2024/9/23 15:47,1730444993,-0.019234374,0.023472071,0.050876021,0.292693747,-0.105752166,0.15145401,-0.101065911,-0.288532436,-0.952121139,0.114712574,0.10649585,0.022978982
2024/9/23 16:03,1730445005,0.001731757,0.006422907,0.007725716,0.31328001,0.03199628,0.175336767,0.030433759,-0.30818066,-0.95084089,0.010940454,0.013190676,0.017400779
2024/9/23 15:36,1730444986,0.018585183,0.002774507,-0.003650248,0.332716486,-0.033683056,0.041939382,-0.031829808,-0.326611727,-0.944622457,0.042382292,0.381504238,0.446167827
2024/9/23 16:28,1730445018,0.002573766,0.007569909,-0.010722399,0.419233247,0.135584312,0.253564997,0.123463802,-0.407060206,-0.905018568,0.003409799,0.197261706,0.057410032
2024/9/23 16:12,1730445008,-0.003407862,-0.001733184,0.007455051,0.319646029,0.032478458,0.183602815,0.030827897,-0.314230531,-0.948846042,0.011499952,0.016734811,0.006513671
2024/9/23 15:38,1730444988,0.034855574,0.036246896,0.032881439,0.360600483,-0.016296841,0.088957356,-0.015248036,-0.352836162,-0.935560882,-0.077903219,-0.035413876,0.103693701
2024/9/23 15:54,1730445002,0.00152906,0.00486362,0.003605187,0.322706651,0.027673768,0.175506771,0.026241912,-0.317134649,-0.948017359,-0.042501368,-0.17311582,0.109306835
2024/9/23 16:25,1730445017,0.006803007,-0.001685858,-0.00968039,0.319261925,0.01229707,0.182885346,0.011675373,-0.31386587,-0.949395537,-0.110303089,-0.101242162,-0.07828255
2024/9/23 16:08,1730445006,-0.00667925,0.011336446,0.002778471,0.321535684,0.031716711,0.180538193,0.030086223,-0.316023916,-0.948274076,-0.05798034,-0.044517893,-0.009314988
2024/9/23 15:30,1730444983,0.005765066,0.021466613,-0.002756059,0.310793403,-0.057708884,0.090571168,-0.054913629,-0.305814117,-0.95050627,0.014622252,0.003906363,-0.002684835
2024/9/23 15:46,1730444993,0.000429705,0.004082978,0.015295744,0.293160982,-0.099849746,0.150324766,-0.095430918,-0.288979769,-0.952566862,-0.012107555,-0.024254436,0.001365886
2024/9/23 15:27,1730444981,-0.007855814,-0.002583236,-0.000138521,0.358925068,0.050361108,0.048756643,0.047131915,-0.351267993,-0.93508786,0.020021325,-0.027538912,-0.120234683
2024/9/23 16:10,1730445007,-0.00054843,-0.003265858,0.008136988,0.32037829,0.035874166,0.182885698,0.034041453,-0.314925611,-0.9485057,-0.053340018,-0.046669461,-0.050958626
2024/9/23 16:21,1730445014,-0.021060377,0.014672071,-0.01732409,0.326970324,0.027365739,0.190899895,0.025912661,-0.321175337,-0.946665168,0.001016512,-0.047327261,-0.049379051
2024/9/23 16:33,1730445021,-0.001218442,0.000399709,0.010581315,0.33981841,0.047564945,0.225542094,0.044828046,-0.333315879,-0.941748857,0.01995519,0.026252149,0.01521459
2024/9/23 16:12,1730445008,0.004907576,0.005734384,0.009112656,0.320681158,0.029916435,0.182524616,0.028387086,-0.315213054,-0.948596239,-0.007155241,-0.033962987,0.007599548
2024/9/23 16:16,1730445011,-0.015081782,0.011041015,0.014930248,0.32106349,0.021716795,0.186193604,0.020605454,-0.315575898,-0.948676586,0.059880659,0.028865775,0.014456176
2024/9/23 15:25,1730444980,0.004281245,0.005391151,0.005166233,-0.300119292,-0.114094356,0.071267843,-0.108758159,0.29563418,-0.949090123,0.452831954,-0.037239473,-0.002968355
2024/9/23 15:56,1730445004,-0.001716319,0.006652147,0.008000791,0.330572123,0.040300851,0.124180337,0.038108516,-0.324584216,-0.945088804,-0.011380515,-0.027856894,0.073380478
2024/9/23 16:14,1730445010,-0.017336741,0.005425364,0.011295259,0.322945063,0.025283918,0.183288481,0.023974309,-0.317360759,-0.948001802,0.019916637,0.043423414,0.010479704
2024/9/23 15:18,1730444976,0.009993255,0.011207491,0.006694257,0.294291433,0.139326149,0.089486297,0.13290526,-0.290061831,-0.947734296,-0.012065286,0.105965883,0.161021009
2024/9/23 15:23,1730444979,0.000561342,0.006518304,0.004851699,0.298626205,0.053768779,0.082678451,0.051364299,-0.294207484,-0.954360366,-0.031286273,-0.011427319,0.028869417
2024/9/23 15:50,1730444996,-0.020944476,0.019292325,-0.025540292,0.332256599,-0.082470188,0.172990259,-0.077871442,-0.326177031,-0.942095816,0.157770336,0.235234126,0.052228536
2024/9/23 16:23,1730445015,0.005423089,0.001822919,0.005004048,0.319582571,0.021773522,0.192261973,0.020669421,-0.314170301,-0.949141622,-0.013295706,0.016082335,-0.016279846
2024/9/23 15:49,1730444995,-0.00932087,0.015697986,-0.00117445,0.315219044,-0.103885432,0.163555277,-0.098589286,-0.310024738,-0.945602894,0.001519918,-0.018859936,0.005078493
2024/9/23 15:55,1730445003,0.004814461,-0.002327204,0.014289498,0.319582821,0.036838344,0.140049094,0.034965184,-0.314170539,-0.948722482,-0.002534181,-0.035284448,0.142926961
2024/9/23 15:41,1730444990,-0.002496399,0.005849779,0.007147372,0.33933581,-0.030351433,0.137639912,-0.028616278,-0.332860857,-0.942541659,-0.022669774,-0.064432219,-0.022678996
2024/9/23 15:34,1730444985,0.001274755,0.010220885,0.008599281,0.346731791,-0.015373857,0.090173884,-0.014458364,-0.339825928,-0.940377176,-0.01610356,-0.026816396,0.007002041
2024/9/23 15:37,1730444987,0.09792573,0.008544981,0.001136661,0.355477148,-0.015343715,0.081749739,-0.01438387,-0.34803772,-0.937370181,0.097604111,0.023993788,-0.144057721
2024/9/23 15:53,1730445002,-0.001232751,-0.00185436,0.009109974,0.334503286,0.03242366,0.162860679,0.030621164,-0.328300029,-0.944077015,-0.010944381,0.006905615,-0.114605457
2024/9/23 15:48,1730444995,-0.003365628,-0.002459615,0.00962019,0.296832521,-0.115630623,0.15843852,-0.110327594,-0.292492718,-0.949881971,0.016846739,0.016978223,0.047908355
2024/9/23 16:19,1730445013,-0.00025069,0.0004372,0.010751665,0.333440185,0.026525364,0.196299735,0.02506146,-0.327295661,-0.944589555,-0.012934363,0.012578415,0.006470048
2024/9/23 15:34,1730444985,0.00735905,0.000847906,0.010960996,0.346549008,-0.015676896,0.090224165,-0.014744308,-0.339653999,-0.940434873,-0.022547878,-0.032551244,0.004476565
2024/9/23 15:17,1730444975,0.002819657,0.05738394,-0.011037111,0.218793325,-0.176150325,0.028560748,-0.171063051,-0.217051879,-0.961054564,0.380672693,0.168946177,0.114282638
2024/9/23 16:05,1730445005,0.00193725,-0.00091365,0.010352969,0.31837181,0.031093684,0.178056215,0.029526355,-0.313020617,-0.949287236,0.01464087,-0.002390415,0.010303508
2024/9/23 16:21,1730445013,-0.001789575,-0.002382278,0.0108006,0.343230228,0.030456424,0.188939915,0.028675543,-0.336530656,-0.941235781,-0.054576881,0.01592654,-0.010012842
2024/9/23 16:26,1730445017,0.003139699,-0.019036084,0.01419431,0.270584858,-0.015119217,0.186394829,-0.014568545,-0.267295063,-0.963504612,-0.075596221,0.066332452,0.100170173
2024/9/23 16:02,1730445004,-0.008742031,0.00329715,0.008432925,0.320187172,0.037431901,0.163149157,0.035521183,-0.314744234,-0.9485116,-0.0268858,0.002426444,-0.002410849
2024/9/23 15:27,1730444982,-0.003469404,-0.009972006,0.017321944,0.359410316,0.053055812,0.04019785,0.049642481,-0.3517223,-0.934787154,0.028824249,-0.002337152,-0.312009066
2024/9/23 15:36,1730444987,-0.001491273,0.004273981,0.009864151,0.347271549,-0.014366182,0.083258563,-0.013508125,-0.340333492,-0.940207779,-0.00532744,-0.004426402,-0.009633289
2024/9/23 15:59,1730445004,-0.008531421,0.008165538,0.004919052,0.330091125,0.053141563,0.161235591,0.05024894,-0.324129224,-0.944677353,-0.016048865,-0.006563855,-0.007184619
2024/9/23 15:40,1730444989,-0.043417618,-1.1e-05,-0.012666225,0.346268592,-0.010261705,0.134416006,-0.009652458,-0.339390248,-0.940596104,0.126026765,0.170225292,-0.126570836
2024/9/23 15:18,1730444976,-0.010594897,-0.007774681,0.011550248,0.302193111,0.106027785,0.093140193,0.101033702,-0.297614664,-0.949324846,0.051845897,-0.180090636,0.00339889
2024/9/23 16:28,1730445018,0.008325532,0.007695824,0.04063791,0.418953448,0.138451486,0.254039696,0.126073852,-0.406804621,-0.904773653,-0.015581546,-0.056468297,-0.01835365
2024/9/23 16:18,1730445012,-0.028465837,0.00557366,0.00811094,0.32395439,0.018407446,0.193769783,0.01744898,-0.318317741,-0.947823465,0.017537368,0.041593291,0.013754326
2024/9/23 15:25,1730444980,0.001857236,0.003935754,0.007177949,-0.295767742,-0.114280763,0.071736048,-0.109080739,0.291474342,-0.9503389,0.425409645,-0.024627011,-0.008977777
2024/9/23 16:13,1730445009,-0.007710434,0.004202783,0.01098907,0.320643009,0.023819132,0.183424441,0.022603003,-0.315176874,-0.948763728,-0.035728313,-0.041899741,-0.035613913
2024/9/23 15:33,1730444985,0.003741015,0.011036187,0.012054265,0.346446795,-0.015285119,0.088960897,-0.014376396,-0.339557856,-0.940475285,0.016868223,0.034380384,0.009478567
2024/9/23 15:17,1730444976,-0.034368083,-0.02054882,0.005297959,0.33183649,-0.022381429,0.053045757,-0.021158658,-0.325779885,-0.945208848,0.221117735,0.79802984,0.026058715
2024/9/23 16:27,1730445018,0.022992164,0.082374066,-0.002906501,0.231484808,-0.130865171,0.19734425,-0.127011329,-0.229422987,-0.965004265,0.536924422,-0.157277197,-0.080970421
2024/9/23 15:26,1730444981,0.005242512,-0.026180804,0.018668234,0.161748902,-0.200607798,0.075403367,-0.196664006,-0.161044523,-0.967154562,0.849605918,0.124847963,-0.250376552
2024/9/23 15:42,1730444990,-0.009275205,0.011779159,-0.028813541,0.318128214,-0.072582852,0.145800856,-0.068880312,-0.312789232,-0.947321713,0.098172933,0.130963117,-0.027968779
2024/9/23 15:35,1730444986,-0.008900953,0.011685461,0.006063342,0.337369535,-0.031807029,-0.041556503,-0.030008962,-0.33100605,-0.943151295,0.007611105,-0.053338815,-0.479651928
2024/9/23 16:23,1730445016,-0.000326788,0.003693849,0.011691928,0.318804969,0.022986616,0.191078201,0.021826413,-0.313431978,-0.949359775,-0.004398508,-0.014389021,0.000563423
2024/9/23 15:47,1730444993,-0.001312591,-0.012510121,0.00485611,0.296343177,-0.102204741,0.152420351,-0.097579621,-0.292024732,-0.95141983,0.019164959,0.019547639,0.004294831
2024/9/23 15:32,1730444984,0.016082939,-0.051161706,0.006253839,0.324079812,-0.054611298,-0.047352614,-0.051742733,-0.318436623,-0.946530938,-0.104136385,-0.10054335,-0.484324932
2024/9/23 15:56,1730445004,0.013642386,0.001423985,0.011262357,0.330626407,0.039937545,0.12480698,0.037764452,-0.324635565,-0.945084929,0.012097505,-0.010560727,0.052443665
2024/9/23 16:21,1730445014,-0.008241666,0.001081705,0.0089432,0.321550881,0.021925046,0.189483298,0.020799642,-0.31603834,-0.948518395,-0.0455539,-0.040992934,0.011513063
2024/9/23 15:36,1730444987,-0.014697777,-0.021995753,0.012919068,0.344860971,-0.018658916,0.08119324,-0.017559305,-0.338065833,-0.940958619,0.068584599,0.123769112,0.089750551
2024/9/23 15:24,1730444980,-0.015618131,0.017655015,-0.001081467,-0.317839083,-0.113190232,0.062146159,-0.107291423,0.312514603,-0.943834305,0.062503003,-0.022797687,-0.037980504
2024/9/23 15:45,1730444993,0.004027084,0.000828505,0.006569982,0.296441481,-0.093005033,0.150672486,-0.088820167,-0.292118758,-0.952248693,-0.012948627,-0.013789278,-0.009758563
2024/9/23 15:43,1730444992,-0.00776685,0.008431792,0.003152966,0.309491495,-0.073308579,0.138375106,-0.069763057,-0.304574341,-0.94993031,-0.048421197,0.032602455,0.050942816
2024/9/23 15:35,1730444986,0.047555752,0.008646071,0.011648595,0.339178184,-0.024736451,0.028389282,-0.023324797,-0.332712203,-0.942739904,-0.014944789,-0.409591198,-0.814370871
2024/9/23 15:59,1730445004,-0.003111109,-0.002837658,0.005986631,0.331347806,0.053241663,0.164127779,0.050321788,-0.32531783,-0.944264829,-0.01415871,-0.053405393,-0.029825909
2024/9/23 15:45,1730444993,-0.001983345,0.00110966,0.009533644,0.295235915,-0.093468955,0.150628612,-0.089294732,-0.290965557,-0.952557325,-0.02290667,-0.021417903,0.005162596
2024/9/23 16:21,1730445014,-0.001402203,0.005563706,0.008395314,0.32321968,0.02352708,0.189218419,0.022306735,-0.317621171,-0.947955251,-0.05414404,-0.059111483,0.013758001
2024/9/23 15:36,1730444987,0.004346332,-6.22e-05,0.012028694,0.34543565,-0.019183015,0.086297579,-0.01804873,-0.338606626,-0.94075489,0.003198873,-0.008150566,0.076735526
2024/9/23 15:38,1730444988,0.029627468,-0.010573,0.045816422,0.350762476,-0.026709666,0.124415528,-0.025080359,-0.343613952,-0.938776016,-0.124956645,-0.02298251,-0.143771648
2024/9/23 15:15,1730444974,-0.003999695,0.009875998,0.009186089,0.203102951,-0.167459439,0.020436709,-0.163251877,-0.201709464,-0.965744317,-0.055634618,-0.032134727,0.019403636
2024/9/23 16:23,1730445015,-0.003098521,0.002834618,0.007123351,0.319426718,0.02200505,0.192151925,0.020890251,-0.314022332,-0.949185729,-0.01530586,0.027259089,-0.004598689
2024/9/23 15:29,1730444982,-0.021728791,0.001638502,0.005087852,0.30953622,-0.040012691,0.099829029,-0.038100917,-0.304616928,-0.951712608,-0.061328281,-0.095163494,-0.007084324
2024/9/23 15:43,1730444993,0.022897609,0.009265929,0.013202608,0.307932606,-0.076589876,0.143842357,-0.072915919,-0.303089142,-0.95016855,-0.025096243,-0.023515409,0.043162122
2024/9/23 16:01,1730445004,-0.004728522,-0.004126161,0.015357435,0.327293168,0.049698704,0.166495441,0.047041126,-0.321481079,-0.945746839,0.008018011,0.005011308,0.00509836
2024/9/23 16:12,1730445008,-0.001397129,0.006875694,0.000860095,0.318829466,0.030431575,0.182618493,0.028893454,-0.313455224,-0.949163318,0.008888862,-0.001959516,-0.000171929
2024/9/23 15:28,1730444982,0.003797021,0.001944184,0.021095812,0.35743772,0.015477041,0.077122859,0.014498257,-0.349875063,-0.936684191,-0.054043986,-0.087612636,0.131409749
2024/9/23 16:17,1730445011,-0.003567483,0.003204405,0.008606255,0.321440136,0.026793417,0.187933662,0.025418054,-0.315933257,-0.94844085,-0.005000963,-0.014421511,-0.006653477
2024/9/23 15:17,1730444976,-0.000205699,-0.059205383,0.007857025,0.326621747,-0.039860247,0.052879909,-0.037742905,-0.320845217,-0.946379304,0.208940864,0.785369158,0.022665743
2024/9/23 16:32,1730445020,0.002804033,0.004963696,0.005938411,0.335146735,0.054984064,0.228399295,0.051898703,-0.328907758,-0.942934871,0.013652973,-0.011701092,-0.002454524
