Unnamed: 0,timestamp,UserAccelerationX,UserAccelerationY,UserAccelerationZ,AttitudePitch,AttitudeRoll,AttitudeYaw,GravityX,GravityY,GravityZ,RotationRateX,RotationRateY,RotationRateZ,Date
1715,1730433581.137944,-0.0034127086400985,0.0089405179023742,-0.0015539526939392,0.3045507664604025,-0.1097262831491344,0.1509143046211195,-0.1044669523835182,-0.299864649772644,-0.9482446312904358,0.000300402753055,0.0042698355391621,-0.0072199464775621,2024/09/23 03:42:49 PM
585,1730433569.857689,0.0067553892731666,0.0138731896877288,0.0216522216796875,0.2585344299964717,0.0717380490942741,-0.30480016133062,0.0692944154143333,-0.2556639611721039,-0.9642791152000428,0.03019680082798,-0.0709767192602157,0.0012332468759268,2024/09/23 03:23:59 PM
332,1730433567.331848,0.0266998931765556,0.0757516622543335,0.0010190606117248,0.2812103550993532,0.0620010704022559,-0.3195611651461831,0.0595275275409221,-0.2775186598300934,-0.9588742852211,-0.0134747149422764,-0.0610188916325569,0.1138002201914787,2024/09/23 03:19:46 PM
57,1730433564.585849,0.0370776653289794,0.0954029262065887,-0.0092324018478393,0.4238525641816265,-0.1890982307080495,0.0403557223974045,-0.171339750289917,-0.4112751483917236,-0.8952627778053284,0.0670651495456695,-0.0292577650398015,0.0027374536730349,2024/09/23 03:15:11 PM
2047,1730433584.451744,-0.0376833453774452,-0.0442977547645568,-0.0399940609931945,0.3383899564234774,-0.1004346592977783,0.0897026018182439,-0.0945798531174659,-0.3319687843322754,-0.938536822795868,0.0402789786458015,0.0459256693720817,-0.0183471124619245,2024/09/23 03:48:21 PM
634,1730433570.346397,0.0078928135335445,0.0220228284597396,0.0256358981132507,0.2514873167219291,0.0554008012264543,-0.3091334882177058,0.0536306351423263,-0.2488447576761245,-0.9670574069023132,-1.7105493545532229,-2.481112480163574,-0.2503341138362884,2024/09/23 03:24:48 PM
824,1730433572.243619,0.0407266318798065,-0.0146417319774627,0.0281974673271179,0.2825444297917344,0.1318766229944608,-0.3382904941628265,0.1262808293104171,-0.2788001000881195,-0.9520103335380554,-0.4608339369297027,-0.9675922393798828,-0.1566983759403228,2024/09/23 03:27:58 PM
838,1730433572.382884,0.0085039585828781,0.016550064086914,-0.004315435886383,0.243183084036242,0.0615673779803881,-0.3387276947301204,0.0597181022167205,-0.2407932728528976,-0.9687374830245972,-0.1164180785417556,-0.1811407655477523,0.0113516077399253,2024/09/23 03:28:12 PM
1229,1730433576.286007,-0.0012695528566837,0.0184739828109741,0.0031155347824096,0.1582480564800832,0.0404516707722543,-0.316942191540518,0.039935328066349,-0.157588392496109,-0.9866970777511596,-0.0073825032450258,0.003042384982109,-0.0209783688187599,2024/09/23 03:34:43 PM
892,1730433572.922886,-0.0176104381680488,0.036614716053009,-0.0309671759605407,0.2528943633741548,0.0836593661931564,-0.3302843581420315,0.0809039026498794,-0.2502073049545288,-0.9648061394691468,0.4013802409172058,0.8088544607162476,0.1874872148036956,2024/09/23 03:29:06 PM
205,1730433566.064141,-0.087555281817913,0.3511939644813537,0.0287075638771057,-0.2977158596442091,-0.1155262354305286,-0.7795535153703477,-0.1101986169815063,0.2933373153209686,-0.9496365189552308,3.610420227050781,0.3819977045059204,-0.2814463675022125,2024/09/23 03:17:39 PM
1399,1730433577.983495,-0.0140706822276115,0.0418135523796081,-0.0237548947334289,0.2012192479270863,0.0451791888047085,-0.3427412990622315,0.0442525781691074,-0.1998641341924667,-0.9788237810134888,0.5914245843887329,0.1880567073822021,-0.0799979045987129,2024/09/23 03:37:33 PM
729,1730433571.294903,-0.0151402726769447,0.0175426006317138,-0.0061119198799133,0.2492883849698638,0.0707127041650501,-0.3146370658318725,0.0684697553515434,-0.2467143982648849,-0.9666664004325868,0.1006058901548385,0.1461220383644104,-0.0813616588711738,2024/09/23 03:26:23 PM
1113,1730433575.128466,-0.0002460703253746,0.0205840617418289,0.0072655081748962,0.2260724021166174,0.0730294232578151,-0.358338275950792,0.0711078941822052,-0.224151611328125,-0.9719566702842712,0.0824480205774307,0.2231105715036392,0.2804594933986664,2024/09/23 03:32:47 PM
823,1730433572.233326,0.0361604690551757,-0.0053144395351409,0.0252008438110351,0.2869050634295747,0.1409785614827188,-0.3376414544921277,0.1347685009241104,-0.2829851508140564,-0.9496088027954102,-0.385427325963974,-0.8975105881690979,-0.0867278203368187,2024/09/23 03:27:57 PM
1272,1730433576.715932,-0.1560769975185394,0.1456045508384704,-0.0346954464912414,0.1425776396709857,0.0227650286252671,-0.3309476254825058,0.0225320868194103,-0.142095074057579,-0.9895965456962584,0.3545703887939453,0.2022100836038589,-0.1305043250322342,2024/09/23 03:35:26 PM
1176,1730433575.761502,0.0272727385163307,-0.0027998238801956,0.026505708694458,0.2198063678876436,0.0729495002817273,-0.3447892462956005,0.0711311846971511,-0.2180406600236892,-0.9733440279960632,-0.0988372191786766,-0.0515260510146617,0.3153918087482452,2024/09/23 03:33:50 PM
404,1730433568.055935,0.0297889485955238,-0.0072849690914154,0.0524249672889709,0.2574357802411687,0.0720885643169222,-0.2957761985969366,0.0696525946259498,-0.2546016871929168,-0.964534342288971,0.0437539219856262,-0.0156138567253947,-0.0708056315779686,2024/09/23 03:20:58 PM
1947,1730433583.454345,-0.0431505367159843,-0.0377557575702667,-0.0330743789672851,0.3450905593710508,-0.101094007648046,0.1242081589985691,-0.0949720293283462,-0.338281899690628,-0.9362401962280272,0.0673446208238601,0.1001311168074607,0.1324993371963501,2024/09/23 03:46:41 PM
1302,1730433577.015259,0.0091422535479068,0.0582062155008316,0.0100833177566528,0.1599154033694064,0.0393124591187732,-0.2831931965852931,0.0388008654117584,-0.1592346876859665,-0.9864779710769652,0.2306005209684372,0.17789888381958,0.0797622501850128,2024/09/23 03:35:56 PM
1750,1730433581.487673,-0.0553961917757988,0.0313042104244232,-0.0336564779281616,0.3198894227971568,-0.0990756977687203,0.1529790886628617,-0.0938958153128624,-0.3144615888595581,-0.9446150064468384,0.1218805462121963,0.1592359840869903,-0.0533080287277698,2024/09/23 03:43:24 PM
614,1730433570.146004,0.1112060695886612,-0.1106507331132888,-0.0115158557891845,0.2510636413370617,0.0476540516689401,-0.3024287289686298,0.0461425669491291,-0.2484343945980072,-0.9675490856170654,-0.2146598398685455,-0.2374578416347503,0.0632011666893959,2024/09/23 03:24:28 PM
948,1730433573.481261,0.0974020212888717,-0.0187353789806365,0.0542653799057006,0.284415346794806,0.1350562859923777,-0.3353888492109289,0.1292368024587631,-0.2805963456630707,-0.9510854482650756,-0.288221925497055,-0.620674729347229,-0.1907635778188705,2024/09/23 03:30:02 PM
1636,1730433580.35271,-0.0315768867731094,0.0052607059478759,-0.0246497392654418,0.301302893062449,-0.1157932123094348,0.1486437774670788,-0.1103298664093017,-0.2967646420001983,-0.9485557675361632,0.1265089064836502,0.1622064709663391,-0.0307940896600484,2024/09/23 03:41:30 PM
175,1730433565.764503,0.0146862044930458,-0.0200270414352417,0.0470060110092163,-0.4881773522251438,-0.0899695118781244,-0.8084708404462446,-0.0793529450893402,0.4690169394016266,-0.8796170949935913,-0.861618161201477,-0.1757036596536636,0.1678266525268554,2024/09/23 03:17:09 PM
846,1730433572.463222,-0.0643943920731544,0.0407115519046783,-0.012330949306488,0.2490585054137638,0.0773697440692292,-0.3343826047214784,0.0749077126383781,-0.2464916259050369,-0.966245710849762,0.4023690223693847,0.8149568438529968,0.0971413478255271,2024/09/23 03:28:20 PM
581,1730433569.818076,0.0048874542117118,0.0082682371139526,0.0074228048324584,0.2576928748082332,0.0738171500739887,-0.3048506865609551,0.0713149383664131,-0.254850298166275,-0.9643471837043762,0.0360155403614044,-0.0412984490394592,0.0085050612688064,2024/09/23 03:23:55 PM
2024,1730433584.222622,-0.040760263800621,-0.0352415740489959,-0.00852632522583,0.3397734488152874,-0.1015143728298385,0.0961223336390944,-0.0955465137958526,-0.3332735002040863,-0.9379763603210448,0.0624189637601375,0.0420856587588787,-0.0261613596230745,2024/09/23 03:47:58 PM
1700,1730433580.988449,0.0075776055455207,0.0018753111362457,0.0187641382217407,0.3067583944295546,-0.1091631651531245,0.1508042544248257,-0.1038605868816375,-0.3019699454307556,-0.9476429224014282,-0.0136068435385823,0.0007925464306026,0.0133907366544008,2024/09/23 03:42:34 PM
1678,1730433580.7686648,0.001168705523014,0.0040507912635803,0.0099184513092041,0.3099543593958374,-0.1093873882678056,0.1517148433120168,-0.1039671748876571,-0.3050151765346527,-0.9466554522514344,-0.025739062577486,-0.0122689269483089,-0.028884869068861,2024/09/23 03:42:12 PM
351,1730433567.521598,-0.0172107852995395,0.0199165344238281,-0.0148565173149108,0.2759221091762003,0.0587254507786653,-0.3006469510693718,0.0564716532826423,-0.2724342942237854,-0.9605157375335692,-0.0160743668675422,0.0729804560542106,0.0243788864463567,2024/09/23 03:20:05 PM
1008,1730433574.080344,-0.0195116028189659,0.00364950299263,-0.0101864337921142,0.2517848686419951,0.0725978878954953,-0.3378991026148835,0.070247083902359,-0.2491329461336136,-0.9659183025360109,0.0022397034335881,0.0374762564897537,-0.0195149611681699,2024/09/23 03:31:02 PM
1043,1730433574.429608,-0.0314835831522941,-0.017449602484703,0.0249592661857604,0.2393300033716383,0.0644774563157107,-0.3306331385924503,0.0625962615013122,-0.237051784992218,-0.9694783091545104,-0.0482632778584957,-0.0578659735620021,-0.1521176993846893,2024/09/23 03:31:37 PM
308,1730433567.092109,-0.0125683508813381,0.0587821304798126,-0.0241878628730773,0.2901940240493206,0.0564458153788461,-0.3158813372241666,0.0540570095181465,-0.2861381471157074,-0.9566623568534852,0.0556567162275314,0.0942218303680419,-0.0096271242946386,2024/09/23 03:19:22 PM
1814,1730433582.126482,-0.0119961574673652,-0.0127174258232116,-0.0012499690055847,0.3374785117773541,-0.0894446445071449,0.0961770030886128,-0.0842868089675903,-0.3311088979244232,-0.9398205280303956,0.155691921710968,0.2337158024311065,0.563963770866394,2024/09/23 03:44:28 PM
419,1730433568.1999931,-4.874914884567261e-05,0.0436993539333343,0.0016826391220092,0.2570777568771343,0.0776579761331975,-0.3011924982656331,0.0750304386019706,-0.2542554438114166,-0.9642223119735718,-0.0145632605999708,0.0598430819809436,0.0058664549142122,2024/09/23 03:21:13 PM
1409,1730433578.083444,-0.0136150270700454,0.0744458585977554,0.0033544898033142,0.2449640728702426,0.0655755807947609,-0.3380919148270073,0.0635723024606704,-0.2425214648246765,-0.9680609107017516,0.3181873261928558,0.2477458715438842,0.3096292018890381,2024/09/23 03:37:43 PM
1100,1730433574.998691,-0.006264291703701,-0.0029088705778121,0.0035785436630249,0.2233233443295383,0.0654924705355795,-0.3570243516965249,0.0638204365968704,-0.2214716523885727,-0.9730761647224426,-0.0532901063561439,0.0027821939438581,-0.0071308366023004,2024/09/23 03:32:34 PM
771,1730433571.714047,-0.0040784105658531,0.0137420296669006,0.0045731663703918,0.2744688887541553,0.1161765397534827,-0.3342081741815426,0.1115765795111656,-0.2710357308387756,-0.956080675125122,0.0342740826308727,0.0603988841176033,0.0108457673341035,2024/09/23 03:27:05 PM
47,1730433496.370929,0.0121809244155883,0.0038719773292541,-0.007291555404663,0.8114586833295119,0.1568047246698946,-0.0847603387295314,0.1075089871883392,-0.7252921462059021,-0.6799948811531067,0.0014023232506588,-0.1223765239119529,-0.0008025105926208,2024/09/23 03:15:01 PM
1241,1730433576.405999,0.0119386315345764,0.008378654718399,-0.0294053554534912,0.1583468244138913,0.0343659090190124,-0.3146277044951786,0.0339292883872985,-0.1576859354972839,-0.9869062304496764,-0.0574434138834476,-0.0730262845754623,0.0122740734368562,2024/09/23 03:34:55 PM
326,1730433567.271035,0.0352101735770702,0.0959602892398834,-0.0252666473388671,0.2833455416446182,0.0634610504221491,-0.322338116854396,0.060889683663845,-0.2795693576335907,-0.958192765712738,0.0496428720653057,-0.0419120416045188,-0.0075493790209293,2024/09/23 03:19:40 PM
487,1730433568.879312,0.008739061653614,0.0295986831188201,8.046627044677734e-06,0.256665933318138,0.0785844588006674,-0.3055275042093013,0.0759319588541984,-0.2538571059703827,-0.9642566442489624,-0.0137067390605807,-0.0051508303731679,-0.0117536047473549,2024/09/23 03:22:21 PM
764,1730433571.644556,0.0249008014798164,0.0087139308452606,0.0201749205589294,0.2718301649269726,0.1108421747174526,-0.3339827595491544,0.1065536737442016,-0.2684948444366455,-0.9573697447776794,0.0450189858675003,0.112953171133995,-0.0355152897536754,2024/09/23 03:26:58 PM
1017,1730433574.169434,-0.0199700891971588,0.0384426116943359,0.0089919567108154,0.2601317714442394,0.0904384032219432,-0.3360269739607734,0.0872766152024269,-0.2572079002857208,-0.9624068140983582,0.1279165148735046,0.202650561928749,-0.0152289224788546,2024/09/23 03:31:11 PM
1591,1730433579.900961,0.0192986950278282,-0.024365484714508,0.0226982831954956,0.3154020852114348,-0.1192774307914184,0.147932713546341,-0.1131249964237213,-0.3101987540721893,-0.9439170956611632,-0.101290762424469,0.044163454324007,0.0423762649297714,2024/09/23 03:40:45 PM
1285,1730433576.8466349,-0.0132835684344172,0.011992871761322,0.0151082873344421,0.1351764229815189,0.0146999318782456,-0.2963073905101229,0.0145653085783123,-0.1347651332616806,-0.9907705187797546,0.1032864972949028,0.1882926672697067,0.5633544325828552,2024/09/23 03:35:39 PM
479,1730433568.7991,-0.0057248696684837,0.0167608857154846,0.005997359752655,0.256297794249034,0.0787019898288064,-0.3035623661861036,0.0760526284575462,-0.2535010278224945,-0.9643408060073853,0.0512675568461418,0.0217417702078819,-0.0326989404857158,2024/09/23 03:22:13 PM
35,1730433496.250716,0.0173355862498283,0.0155065655708312,-0.0095114707946777,0.8174728578485848,0.1601016519152412,-0.083583984873415,0.1090529337525367,-0.7294194102287292,-0.6753183007240295,0.0204216632992029,-0.006883748807013,0.0076172859407961,2024/09/23 03:14:49 PM
720,1730433571.2049952,0.0360618233680725,0.0131279528141021,0.0238056182861328,0.2480081895651953,0.0663259535456263,-0.3106036272345652,0.064249463379383,-0.2454735785722732,-0.9672718048095704,-0.121835321187973,-0.1382678747177124,0.0061904015019536,2024/09/23 03:26:14 PM
1665,1730433580.639179,0.0064935162663459,0.0128487050533294,0.0078157186508178,0.3107809079982984,-0.1088516857268954,0.1517643064525535,-0.103432610630989,-0.3058022260665893,-0.9464601278305054,0.0344126746058464,0.0075303437188267,0.0068922513164579,2024/09/23 03:41:59 PM
274,1730433566.752963,-0.0153517164289951,-0.007020354270935,0.0358874797821044,0.3056704057013203,0.0197473265499197,-0.3427374927821222,0.0188307240605354,-0.3009325861930847,-0.9534595012664796,-0.0892983898520469,0.2418866604566574,0.4054361581802368,2024/09/23 03:18:48 PM
748,1730433571.485359,-0.0151835083961486,0.0048179626464843,-0.0127235651016235,0.2555613765087602,0.0797132642093683,-0.3157156762037476,0.0770426467061042,-0.2527886033058166,-0.9644492268562316,0.0408909581601619,0.0739559754729271,-0.0426496304571628,2024/09/23 03:26:42 PM
1945,1730433583.433947,-0.0512643679976463,-0.0286998152732849,-0.0102797150611877,0.3436719798442303,-0.1022683163892263,0.1217899911275271,-0.0961202904582023,-0.3369466066360473,-0.9366044402122498,0.0872041285037994,0.0759088695049285,0.0557535327970981,2024/09/23 03:46:39 PM
282,1730433566.83254,-0.0094443745911121,-0.0361794233322143,0.0133554935455322,0.3025363649619544,0.0306307301710245,-0.3215672876102038,0.02923502959311,-0.2979423403739929,-0.954136073589325,-0.078474722802639,0.1243568286299705,0.1136127784848213,2024/09/23 03:18:56 PM
598,1730433569.9874911,-0.0037115551531314,0.0241948068141937,-0.0006482601165771,0.2548498452741595,0.064224032648422,-0.3039237608352261,0.0621069557964801,-0.2521001100540161,-0.9657061100006104,0.0186558999121189,-0.0265341494232416,-0.0099095255136489,2024/09/23 03:24:12 PM
425,1730433568.259992,0.0078294426202774,0.0148837864398956,-0.002495527267456,0.2556035537258183,0.0793158187861157,-0.301479401011829,0.0766584798693656,-0.2528294026851654,-0.9644691944122314,0.0086072906851768,0.0319145135581493,-0.02020631916821,2024/09/23 03:21:19 PM
1343,1730433577.4242458,0.0031401924788951,0.0480910092592239,0.0005200505256652,0.1732081195109023,0.0551931286137204,-0.3322217715961868,0.0543396733701229,-0.1723433434963226,-0.983536958694458,-0.2997255325317383,-0.0720670148730278,0.0786032453179359,2024/09/23 03:36:37 PM
872,1730433572.723226,0.0270971804857254,-0.0027879774570465,0.0109526515007019,0.2880598619369947,0.1454965936722908,-0.3259123281098201,0.1390100121498108,-0.2840925753116607,-0.9486662745475768,-0.2100803405046463,-0.5874137282371521,-0.1252092719078064,2024/09/23 03:28:46 PM
923,1730433573.231466,-0.0278694704174995,0.1010298430919647,-0.0027940273284912,0.2515787524078511,0.0732218112548193,-0.3492967760834133,0.070853479206562,-0.2489333301782608,-0.9659254550933838,-0.1610938161611557,-0.3197683990001678,-0.0179373584687709,2024/09/23 03:29:37 PM
1227,1730433576.266423,-0.0091052539646625,0.0205645114183425,-0.0139757990837097,0.1586498835025636,0.0404313873902375,-0.3163800659175627,0.0399127528071403,-0.1579851955175399,-0.9866344928741456,-0.0098330648615956,0.0010316983098164,-0.0378974303603172,2024/09/23 03:34:41 PM
1057,1730433574.6376948,0.0133864507079124,0.0260593295097351,-0.0106080174446105,0.2385353558399185,0.0669262486965382,-0.3304598235135955,0.0649827048182487,-0.2362797111272812,-0.969509780406952,0.0005283874925225,0.0142207369208335,0.0726706832647323,2024/09/23 03:31:51 PM
280,1730433566.81249,-0.0202808901667594,-0.0449041724205017,0.0315818786621093,0.3039307743904664,0.0285991712705739,-0.3245533343597042,0.0272846799343824,-0.299273133277893,-0.953777313232422,-0.0574986487627029,0.1720604300498962,0.1764183193445205,2024/09/23 03:18:54 PM
156,1730433565.580006,-0.0369129329919815,0.1440377533435821,0.0159767866134643,-0.1949635835914961,-0.0730241702035827,-0.8401047040011874,-0.0715770497918129,0.1937308013439178,-0.9784401655197144,-2.822401285171509,-0.2065063118934631,0.2181293368339538,2024/09/23 03:16:50 PM
602,1730433570.026959,0.0013832300901412,0.0071359872817993,0.014621615409851,0.2547400192926603,0.0625017610808743,-0.3041790529119638,0.0604453831911087,-0.2519938349723816,-0.9658392667770386,0.0071650343015789,-0.0538350120186805,-0.0001997468061745,2024/09/23 03:24:16 PM
256,1730433566.5729809,0.0087619312107563,0.1596736311912536,-0.0423129200935363,0.3009770230215134,0.0211515904622885,-0.4621795210333647,0.0201992634683847,-0.296453446149826,-0.954833686351776,0.1658580899238586,0.0738664865493774,0.8149314522743225,2024/09/23 03:18:30 PM
1811,1730433582.09662,-0.0493693128228187,-0.0446692705154418,-0.0190263986587524,0.3354094596891601,-0.0899105215591838,0.084689890269721,-0.0847859755158424,-0.329155832529068,-0.9404614567756652,0.0954901948571205,0.0926542952656745,0.1986557245254516,2024/09/23 03:44:25 PM
185,1730433565.864582,-0.007362961769104,0.1841504573822021,0.0440137386322021,-0.5343363379478118,-0.1092487701598473,-0.7988087556600405,-0.0938333198428154,0.5092700123786926,-0.8554761409759521,0.4824449121952057,-0.1830060482025146,-0.0074015734717249,2024/09/23 03:17:19 PM
1632,1730433580.308847,-4.047900438308716e-05,0.0061294436454772,0.0109769105911254,0.2987941542351507,-0.1174997191987186,0.1481630548131308,-0.1120353490114212,-0.2943679988384247,-0.949102520942688,0.0339735224843025,-0.0215955842286348,0.0255004484206438,2024/09/23 03:41:26 PM
224,1730433566.253737,-0.0369834676384925,0.1830528974533081,0.045906126499176,0.22963678466521,-0.0217714743073775,-0.7119146915826364,-0.0211982801556587,-0.2276238650083542,-0.9735183715820312,0.6903172135353088,0.5392546653747559,0.761096715927124,2024/09/23 03:17:58 PM
860,1730433572.6059,0.0320294052362442,0.0029422640800476,0.0392327308654785,0.291268739744573,0.1635286003029768,-0.326109411289021,0.1559436172246933,-0.2871677577495575,-0.9451012015342712,0.0903523936867713,0.196136474609375,-0.0309941992163658,2024/09/23 03:28:34 PM
635,1730433570.357048,0.0204736180603504,0.0034880489110946,0.0917310714721679,0.2451954110842067,0.0489413032092273,-0.3101809206129939,0.0474585145711898,-0.242745891213417,-0.968928337097168,-0.0588187649846077,-0.3426185846328735,-0.0597330592572689,2024/09/23 03:24:49 PM
2006,1730433584.043141,-0.0397716909646987,-0.0128675401210784,-0.0026896595954895,0.3442649167795574,-0.0997839842287932,0.1067073197283001,-0.0937732458114624,-0.3375048041343689,-0.9366413950920104,0.0662349089980125,0.1005465686321258,0.2213145941495895,2024/09/23 03:47:40 PM
1988,1730433583.862932,0.0214986875653266,0.0287477076053619,0.0213530659675598,0.3521264677390584,-0.0936254061937407,0.139403764228857,-0.0877523496747016,-0.3448945879936218,-0.93453049659729,0.0724178925156593,0.1323660165071487,0.1367496997117996,2024/09/23 03:47:22 PM
1138,1730433575.3779268,-0.0236562490463256,-0.0180835127830505,-0.0074802637100219,0.22283071404167,0.0682731635842883,-0.3597020232450713,0.0665334463119506,-0.220991238951683,-0.9730036854743958,0.0380476750433445,0.0975100323557853,0.1570734828710556,2024/09/23 03:33:12 PM
1459,1730433578.582504,0.009632758796215,-0.003610074520111,0.0236721634864807,0.4729983178495342,-0.1018254439574038,-0.0235932899323224,-0.0904890969395637,-0.4555574655532837,-0.8855953812599182,0.1774962246417999,-0.0615203604102134,0.2692981660366058,2024/09/23 03:38:33 PM
1556,1730433579.550616,-0.0178960114717483,0.0661519765853881,-0.0227049589157104,0.2633221128364718,-0.1540156544913352,0.1541163961790027,-0.1481196135282516,-0.260289579629898,-0.9541016221046448,0.878865122795105,0.179487720131874,-0.1775509864091873,2024/09/23 03:40:10 PM
589,1730433569.897414,0.0094841867685318,0.0060294568538665,0.0032904148101806,0.2573186013886894,0.0675736804423326,-0.304251312612334,0.0652991533279419,-0.2544883489608764,-0.9648687243461608,-0.0560126192867755,-0.0957174822688102,0.0164442639797925,2024/09/23 03:24:03 PM
247,1730433566.483397,-0.0955218598246574,0.1354598999023437,0.0570057034492492,0.2990624391623045,0.0240673320788315,-0.5293686586441819,0.0229968391358852,-0.294624388217926,-0.9553363919258118,-0.0164302922785282,0.3786700963973999,0.555332601070404,2024/09/23 03:18:21 PM
1210,1730433576.096071,0.0031863860785961,0.0287149995565414,-0.0033184885978698,0.1706244772153966,0.0527489580703532,-0.3162355844527375,0.0519588850438594,-0.1697977930307388,-0.9841082096099854,-0.0472056753933429,-0.0143302138894796,0.0235156491398811,2024/09/23 03:34:24 PM
816,1730433572.163713,0.0194790214300155,0.0096364617347717,0.0146877169609069,0.3018105739511882,0.1826787293383957,-0.336856854989563,0.1734531223773956,-0.297249436378479,-0.938912570476532,-0.0543209351599216,-0.2770851254463196,-0.059721503406763,2024/09/23 03:27:50 PM
98,1730433564.9955869,-0.1106152683496475,-0.0358923077583313,0.0514826774597168,0.3988214799094541,-0.1488403871556161,-0.0310063517045662,-0.1366534233093261,-0.3883325755596161,-0.9113306999206544,-0.091020330786705,0.0412832461297512,-0.7629199028015137,2024/09/23 03:15:52 PM
1690,1730433580.887939,-0.0220481902360916,0.0157497227191925,-0.0247029662132263,0.3022363033403449,-0.1173634136946331,0.1507636870281486,-0.1117866709828376,-0.2976558804512024,-0.9481058716773988,0.0654242634773254,0.0772132873535156,-0.0245497748255729,2024/09/23 03:42:24 PM
1479,1730433578.781795,-0.0094757266342639,-0.030948519706726,-0.0156877040863037,0.4503026685058638,-0.0585727917864085,-0.0138799843617896,-0.0527038387954235,-0.4352380633354187,-0.8987714648246765,-0.4145761132240295,0.569960355758667,-0.2040992826223373,2024/09/23 03:38:53 PM
204,1730433566.053893,-0.002285286784172,0.4061751961708069,0.0338632464408874,-0.3334604271595595,-0.1195110173308215,-0.780883197909138,-0.1126591637730598,0.3273147940635681,-0.9381753206253052,3.513925313949585,0.3263488113880157,-0.3133868277072906,2024/09/23 03:17:38 PM
1286,1730433576.855095,-0.0105715375393629,0.0432432740926742,0.0159908533096313,0.1368093368427766,0.0163401745861299,-0.2912228250159748,0.0161867756396532,-0.1363829672336578,-0.9905239343643188,0.2033997923135757,0.270365446805954,0.4514326751232147,2024/09/23 03:35:40 PM
1792,1730433581.9062362,-0.0127771645784378,0.0167795121669769,0.0024402737617492,0.3324878383278496,-0.0902098505775079,0.1060413179655485,-0.0851537436246872,-0.3263956308364868,-0.941389799118042,0.0682906806468963,0.0431197620928287,0.2439911961555481,2024/09/23 03:44:06 PM
52,1730433496.420656,0.0292005613446235,-0.0093994736671447,-0.003103494644165,0.8179359919550333,0.1501615896454894,-0.0794600085363085,0.1022843942046165,-0.7297361493110657,-0.6760347485542297,0.1339753717184066,0.0737988427281379,0.1807897686958313,2024/09/23 03:15:06 PM
103,1730433565.045414,-0.0262615010142326,-0.0063288509845733,0.0461463928222656,0.3997236158361423,-0.1339093073379729,-0.0778828506691875,-0.1229847222566604,-0.3891637623310089,-0.912921905517578,-0.0941035151481628,-0.1836705058813095,-0.906964123249054,2024/09/23 03:15:57 PM
670,1730433570.706687,0.0178184807300567,0.0156182199716568,0.025053322315216,0.25056211988888,0.0707043797506409,-0.3114428073646121,0.0684394538402557,-0.2479485720396042,-0.9663527011871338,-0.088852159678936,0.1672670096158981,-0.0003778058453463,2024/09/23 03:25:24 PM
119,1730433565.205387,-0.0984119549393653,-0.0879851281642913,0.1177376508712768,0.3492148911031532,-0.0778057693113498,-0.2842851527724959,-0.0730357989668846,-0.3421601951122284,-0.936798930168152,-1.3256782293319702,-0.0495238862931728,-1.5795520544052124,2024/09/23 03:16:13 PM
158,1730433565.594719,0.0059893205761909,0.1187872290611267,-0.0643649697303772,-0.2540540723505359,-0.0779494678062811,-0.8389643256088247,-0.0753710195422172,0.2513299584388733,-0.9649624228477478,-2.995469093322754,-0.2879233956336975,0.3189209103584289,2024/09/23 03:16:52 PM
291,1730433566.9223409,-0.0016401521861553,0.0350799262523651,0.0002089738845825,0.3012107181501773,0.040667463268888,-0.3188469117205209,0.0388258285820484,-0.2966766357421875,-0.9541884064674376,-0.0459502749145031,0.141139805316925,0.0045342883095145,2024/09/23 03:19:05 PM
1128,1730433575.277952,-0.000234343111515,0.012996420264244,0.019427478313446,0.2247219620925969,0.0683029484353081,-0.3412857653080445,0.0665337815880775,-0.2228353172540664,-0.972582995891571,-0.1780236959457397,-0.3889229893684387,-0.5617771148681641,2024/09/23 03:33:02 PM
1335,1730433577.345066,0.0403656587004661,0.014125257730484,0.0319766402244567,0.1959804590483279,0.065736512207793,-0.3357373786286547,0.0644317045807838,-0.1947283148765564,-0.9787387251853944,-0.4153136312961578,-0.4288448393344879,0.0078411353752017,2024/09/23 03:36:29 PM
8,1730433496.051486,-0.0006972476840019,0.0082049965858459,0.0025403499603271,0.8166809618726814,0.1626706181188457,-0.0813363686903678,0.1108809486031532,-0.7288774847984314,-0.6756055951118469,0.0040194108150899,-0.002266626805067,0.0004757533897645,2024/09/23 03:14:22 PM
118,1730433565.195078,-0.109682559967041,-0.0736869573593139,0.1032153367996215,0.3605741337955667,-0.0834416224530507,-0.2669989763219348,-0.077985294163227,-0.3528115153312683,-0.9324389100074768,-1.1972205638885498,-0.0224858783185482,-1.476355791091919,2024/09/23 03:16:12 PM
1011,1730433574.110466,-0.0098312422633171,0.0076645016670227,-0.0165807604789733,0.2530317687610731,0.0759336584712637,-0.3379583268112925,0.0734451413154602,-0.2503403425216675,-0.9653680920600892,0.0838975831866264,0.2003621160984039,0.0237661991268396,2024/09/23 03:31:05 PM
1173,1730433575.727936,-0.0020508393645286,0.0143954902887344,0.0034651756286621,0.2180542356316263,0.0720552694823188,-0.3579668677738828,0.0702881589531898,-0.216330349445343,-0.9737868309020996,0.0869537442922592,0.2184327244758606,0.4599880576133728,2024/09/23 03:33:47 PM
136,1730433565.375854,0.0100443661212921,0.1237389147281646,0.0074472427368164,0.1767358293806528,0.0057619857385787,-0.6656453805135615,0.0056721987202763,-0.1758171916007995,-0.9844064712524414,-1.4532150030136108,-0.644275963306427,-1.997789740562439,2024/09/23 03:16:30 PM
1552,1730433579.510668,0.0049547106027603,-0.0320598781108856,0.016821801662445,0.2388353046650327,-0.1573123924116959,0.1557802988130853,-0.1522173136472702,-0.2365711480379104,-0.9596166014671326,0.2401926070451736,0.0395854823291301,-0.0200293771922588,2024/09/23 03:40:06 PM
674,1730433570.74592,0.0068258792161941,0.0374417304992675,0.0189369916915893,0.247306657168546,0.0763331559831774,-0.3105107161937773,0.0739388838410377,-0.2447934448719024,-0.9667518734931946,-0.0499231591820716,0.1303630620241165,0.0230964142829179,2024/09/23 03:25:28 PM
2041,1730433584.392456,0.0534951388835907,0.0476263165473938,0.005957007408142,0.3379586454392821,-0.1018576612689683,0.1041071613939318,-0.0959298461675643,-0.3315618932247162,-0.9385436177253724,-0.1681352406740188,-0.2140720933675766,-0.521894097328186,2024/09/23 03:48:15 PM
1367,1730433577.6638942,0.0079674366861581,0.0299489572644233,0.0077032446861267,0.1242472962931199,0.0259882531933775,-0.320049298609586,0.0257850121706724,-0.1239278689026832,-0.9919561743736268,0.1217090561985969,-0.0103306779637932,-0.0046090362593531,2024/09/23 03:37:01 PM
459,1730433568.599584,-0.0425995737314224,0.0136080980300903,-0.07101970911026,0.2535600918060451,0.0696617826325969,-0.3016739672010194,0.067379854619503,-0.2508518099784851,-0.9656776785850524,0.0982185751199722,0.1213527843356132,0.0057397410273551,2024/09/23 03:21:53 PM
1951,1730433583.49446,-0.0225165262818336,0.012745589017868,-0.0071954727172851,0.3462851159313175,-0.0980934959836778,0.1322917363153021,-0.09212277084589,-0.3394057750701904,-0.9361181259155272,0.0708934888243675,0.2348551154136657,0.2145477533340454,2024/09/23 03:46:45 PM
474,1730433568.7501822,-0.0022510513663291,0.0191742181777954,-0.0076760649681091,0.2557640643249516,0.0766556378017819,-0.3028216161323522,0.0740894451737403,-0.2529847025871277,-0.9646292328834534,0.023044005036354,0.0153336720541119,-0.0037167170085012,2024/09/23 03:22:08 PM
53,1730433564.5488749,0.0644466131925582,0.0657241344451904,-0.0363261699676513,0.4274541548427605,-0.1889099756968116,0.0411179595536704,-0.1708919554948806,-0.4145553708076477,-0.8938343524932861,-0.0173545964062213,-0.0286457706242799,0.0070907631888985,2024/09/23 03:15:07 PM
1162,1730433575.617567,-0.024222195148468,-0.0118185728788375,-0.008277416229248,0.2123694241144743,0.0627666955735415,-0.369871293726459,0.0613163150846958,-0.210776686668396,-0.975609302520752,0.0281243585050106,0.027186069637537,-0.2207454890012741,2024/09/23 03:33:36 PM
1622,1730433580.20909,0.0243602991104125,-0.0061862170696258,-0.036856472492218,0.3030420211155206,-0.1116065793193515,0.1447549877096573,-0.1063000112771987,-0.2984249889850616,-0.9484950304031372,-0.1694093197584152,-0.1732684671878814,0.0105021661147475,2024/09/23 03:41:16 PM
1157,1730433575.567483,0.0863069146871566,0.0223721116781234,0.03411465883255,0.2093378119644883,0.0573870020386455,-0.3459050591891818,0.0561033673584461,-0.2078122198581695,-0.9765585064888,-0.009561407379806,-0.1116612926125526,-0.6809231638908386,2024/09/23 03:33:31 PM
1757,1730433581.557546,-0.0126122087240219,0.0382308661937713,0.0261352062225341,0.3149738264343501,-0.1065123544682022,0.1508042930847464,-0.1010810434818267,-0.3097915947437286,-0.9454162120819092,0.0646365731954574,-0.0547122582793235,-0.0506437458097934,2024/09/23 03:43:31 PM
1786,1730433581.846386,-0.0203755050897598,-0.0105365812778472,0.0025320053100585,0.3272914554818966,-0.0926548808391823,0.1058974956385765,-0.0876109600067138,-0.3214794397354126,-0.9428548812866212,-0.0229976829141378,-0.0287163443863391,-0.0965879559516906,2024/09/23 03:44:00 PM
473,1730433568.739105,-0.0025944486260414,0.0291973948478698,-0.0057349801063537,0.2556517653740123,0.0765822838660863,-0.3027859354229018,0.0740208551287651,-0.2528760433197021,-0.9646629691123962,0.0123655283823609,-0.0029278898146003,0.0011957496171817,2024/09/23 03:22:07 PM
482,1730433568.829022,0.0093095749616622,0.0080941021442413,0.0162640213966369,0.256566192029519,0.0788452706405955,-0.304607405157028,0.076185442507267,-0.2537606358528137,-0.964262068271637,0.0117020094767212,-0.0089855156838893,-0.0240847319364547,2024/09/23 03:22:16 PM
1069,1730433574.69003,-0.001525018364191,0.0334656238555908,0.0063568353652954,0.228299529272489,0.0539607943055581,-0.3219371283907298,0.0525351502001285,-0.2263215035200119,-0.9726349115371704,-0.0025437891017645,-0.0933478027582168,-0.2203735560178756,2024/09/23 03:32:03 PM
1568,1730433579.670259,-0.0162934809923172,-0.0026508271694183,-0.0524855256080627,0.3121630768328046,-0.1408268715797123,0.1473152145544634,-0.1335783749818802,-0.3071178793907165,-0.9422501921653748,0.1753203868865966,0.2273979932069778,-0.0962177291512489,2024/09/23 03:40:22 PM
839,1730433572.39352,0.0189428180456161,0.0132205635309219,0.0007516741752624,0.2419538271317824,0.0598146930633458,-0.3387574860167122,0.058037769049406,-0.2396000027656555,-0.9691354036331176,-0.1279201954603195,-0.1725944131612777,-0.0202586222440004,2024/09/23 03:28:13 PM
1376,1730433577.753357,0.0036619622260332,0.0041696578264236,0.0084137916564941,0.1329330517589513,0.0305940203284112,-0.3235103010791917,0.0303193721920251,-0.1325418800115585,-0.990713596343994,0.0828423872590065,0.0382536351680755,-0.0273999944329261,2024/09/23 03:37:10 PM
688,1730433570.886006,0.0039909780025482,0.0053659081459045,0.0209249854087829,0.2484694964588801,0.0710011809482746,-0.3054751086234957,0.0687629207968711,-0.2459207475185394,-0.9668477773666382,0.0285031553357839,-0.1621822565793991,-0.0018401476554572,2024/09/23 03:25:42 PM
2017,1730433584.15269,0.0528021156787872,0.0635316371917724,0.0172423720359802,0.3421891581434097,-0.1009619378736482,0.1158372353869667,-0.0949469059705734,-0.3355501294136047,-0.9372252821922302,-0.2812757492065429,-0.3222688436508178,-0.5702561140060425,2024/09/23 03:47:51 PM
675,1730433570.756075,0.0049806535243988,0.026863008737564,0.0295714735984802,0.2468457948369855,0.0774437107823937,-0.310237038261562,0.0750211924314498,-0.2443465888500213,-0.9667815566062928,-0.0493309088051319,0.1096487194299697,0.0233398806303739,2024/09/23 03:25:29 PM
305,1730433567.0615911,0.0175279527902603,0.0421429276466369,0.0329416394233703,0.2925282969490457,0.0553299668193625,-0.3160287718095733,0.0529524013400077,-0.2883740365505218,-0.956052541732788,-0.0766654312610626,0.0360629186034202,0.0348794646561145,2024/09/23 03:19:19 PM
78,1730433564.795508,0.0105708539485931,0.0548005104064941,-0.0233678817749023,0.410185484670895,-0.1850450767223705,0.0358992182852533,-0.168728232383728,-0.398779422044754,-0.9013910293579102,0.0359339714050293,-0.0082265147939324,-0.0450204275548458,2024/09/23 03:15:32 PM
191,1730433565.924467,-0.0540698915719985,0.1321632266044616,0.030186116695404,-0.4915504208209016,-0.1158675916475214,-0.7947213674550936,-0.1019207090139389,0.4719932973384857,-0.8756908774375916,0.681972324848175,-0.0849708244204521,0.0365028232336044,2024/09/23 03:17:25 PM
449,1730433568.500097,0.0038356930017471,0.0270719528198242,0.0104108452796936,0.256656625644562,0.0790645083616748,-0.3029879983701594,0.0763950273394584,-0.2538481056690216,-0.9642224311828612,0.0497336909174919,-0.0127805201336741,-0.0198368839919567,2024/09/23 03:21:43 PM
1530,1730433579.291265,-0.1403311043977737,0.0701525956392288,-0.2783803939819336,0.0596288596525114,-0.1456277552440522,0.1464348325343122,-0.1448556631803512,-0.05959352850914,-0.9876565337181092,1.517597794532776,0.1136415973305702,-0.2055218964815139,2024/09/23 03:39:44 PM
1498,1730433578.971743,-0.0137296002358198,0.1181623637676239,0.1685638427734375,0.4189124245993608,-0.0155381192805231,0.0141297170611565,-0.0141939958557486,-0.4067671597003937,-0.913421630859375,-0.3078049719333648,-0.023757804185152,0.2675258219242096,2024/09/23 03:39:12 PM
578,1730433569.787704,-0.0036844536662101,0.0119611620903015,-0.0043296217918396,0.2571567042627861,0.0744833546687077,-0.305125490797379,0.0719675347208976,-0.2543317973613739,-0.964435577392578,0.0418968200683593,-0.0259131006896495,0.0144670801237225,2024/09/23 03:23:52 PM
1810,1730433582.087421,-0.0536778718233108,-0.0485712587833404,-0.0198532342910766,0.3344284290615054,-0.0903117431481988,0.0828378724106142,-0.0851923823356628,-0.3282293081283569,-0.9407485127449036,0.1252131313085556,0.1039402335882186,0.1367027163505554,2024/09/23 03:44:24 PM
1097,1730433574.968452,-0.0072056129574775,0.0066757798194885,0.0169141888618469,0.223998399692377,0.0645880845095321,-0.3532942733068974,0.0629307106137275,-0.2221298962831497,-0.9729840755462646,0.0242419391870498,-0.0098771415650844,-0.2540535926818847,2024/09/23 03:32:31 PM
755,1730433571.554172,-0.0081384629011154,0.017794519662857,0.00666344165802,0.2585974147506404,0.0869249440920855,-0.3212819612216543,0.0839288681745529,-0.2557248473167419,-0.9630995392799376,0.1144992411136627,0.1838089674711227,-0.0564008094370365,2024/09/23 03:26:49 PM
2009,1730433584.073539,-0.0153488963842391,0.0051443874835968,0.0066688656806945,0.3464610882504472,-0.0983400014004652,0.1170993710647807,-0.0923476591706276,-0.3395712971687317,-0.936035931110382,0.1415613293647766,0.2307125627994537,0.4455482065677643,2024/09/23 03:47:43 PM
244,1730433566.452719,-0.076604776084423,0.0722834765911102,0.0763127207756042,0.2991210204592522,0.0176033788174582,-0.5460207931636193,0.0168208479881286,-0.2946803569793701,-0.9554478526115416,-0.0085604945197701,0.3561626374721527,0.5624998807907104,2024/09/23 03:18:18 PM
84,1730433564.855256,0.0128751099109649,0.0332929790019989,-0.0202670693397521,0.4067352003531869,-0.1814035413111355,0.0302122274344693,-0.1656919121742248,-0.3956129848957062,-0.9033474326133728,-0.0240157879889011,0.0008215748821385,-0.1011087819933891,2024/09/23 03:15:38 PM
1791,1730433581.896172,-0.0232460275292396,0.0334067642688751,0.00651216506958,0.3317402883422569,-0.0900392904374056,0.1039675485837591,-0.085015095770359,-0.3256889283657074,-0.9416470527648926,0.1216170191764831,0.0615190081298351,0.1226708889007568,2024/09/23 03:44:05 PM
211,1730433566.123762,-0.1203141286969184,0.3340615630149841,-0.0162351131439209,-0.0591461224309792,-0.1011499486650945,-0.7770410214289671,-0.100800983607769,0.0591116435825824,-0.9931490421295166,4.542259216308594,0.5790465474128723,-0.331298679113388,2024/09/23 03:17:45 PM
1751,1730433581.497473,0.0181546509265899,-0.0363781154155731,0.0103013515472412,0.3199596919207365,-0.0990332341488914,0.1528101882348019,-0.0938535183668136,-0.3145282864570617,-0.9445970058441162,-0.1138019189238548,-0.1780349910259246,0.0239825546741485,2024/09/23 03:43:25 PM
97,1730433564.985672,-0.107629120349884,-0.0440218448638916,0.0417863726615905,0.3986761154756798,-0.1524937541588056,-0.0229329475543205,-0.1399905085563659,-0.3881986141204834,-0.9108811616897584,-0.1070411056280136,0.061821810901165,-0.7127528786659241,2024/09/23 03:15:51 PM
676,1730433570.7657208,0.0069777369499206,0.0176968872547149,0.0345956087112426,0.2463940183788763,0.078241640952553,-0.3098925708741246,0.0758012160658836,-0.243908479809761,-0.9668313264846802,-0.0438791513442993,0.0682038068771362,0.0341989211738109,2024/09/23 03:25:30 PM
1385,1730433577.847615,0.0094749331474304,0.011262223124504,0.0132225155830383,0.1413405269262919,0.0323418102348295,-0.326160801420561,0.0320137180387973,-0.1408704072237014,-0.9895102977752686,0.1417737007141113,-0.0022879319731146,-0.0315244831144809,2024/09/23 03:37:19 PM
281,1730433566.8224149,-0.0141963250935077,-0.0460335314273834,0.0284770727157592,0.3032909515386457,0.0297009910545163,-0.3228955131031907,0.0283412337303161,-0.2986625730991363,-0.9539378881454468,-0.0780976191163063,0.143961951136589,0.138207346200943,2024/09/23 03:18:55 PM
1804,1730433582.026495,-0.0993789061903953,0.0796758830547332,0.0090941190719604,0.3269074106776726,-0.0947212124419224,0.0887692104024043,-0.0895706936717033,-0.3211157619953155,-0.942794680595398,0.1032389253377914,-0.0459645725786685,-0.3736328780651092,2024/09/23 03:44:18 PM
1564,1730433579.629829,0.0097837597131729,0.0145657062530517,0.0433980226516723,0.3033617991198571,-0.1482830892590636,0.1510822082502449,-0.1409941166639328,-0.298730194568634,-0.94386488199234,0.1749031990766525,0.0379729382693767,-0.1282689720392227,2024/09/23 03:40:18 PM
1329,1730433577.284996,0.0611748993396759,0.0263496041297912,0.0479720830917358,0.2220636548590936,0.0946060773590273,-0.3310535652193758,0.0921454280614852,-0.2202430665493011,-0.9710829854011536,-0.2414535582065582,-0.2822423279285431,-0.1479056924581527,2024/09/23 03:36:23 PM
1365,1730433577.645451,0.0066851191222667,0.0059472844004631,0.0005284547805786,0.1221566533288729,0.0265972541946329,-0.3192618086430528,0.0263959430158138,-0.1218530684709549,-0.9921970963478088,0.0922966077923774,-0.0567048341035842,-0.0518119148910045,2024/09/23 03:36:59 PM
1355,1730433577.5468,-0.0097953267395496,0.0163736119866371,-0.005757987499237,0.1196096918729465,0.0346776761092233,-0.3124049049086944,0.0344230122864246,-0.1193246990442276,-0.992258369922638,-0.0522147826850414,-0.0755970329046249,0.0073053073137998,2024/09/23 03:36:49 PM
1379,1730433577.784239,0.0007543936371803,0.0157077014446258,0.0090821385383605,0.1356454241026177,0.0317847000574032,-0.3245346033182507,0.0314874313771724,-0.1352298408746719,-0.9903138279914856,0.1133836433291435,0.0258425045758485,-0.0316523723304271,2024/09/23 03:37:13 PM
1398,1730433577.9729462,-0.0271873623132705,0.0571925044059753,-0.0326008796691894,0.1952875238101794,0.0431419995337014,-0.3415726012000203,0.0423088259994983,-0.194048598408699,-0.9800791144371032,0.605872392654419,0.1708289831876754,-0.0967903062701225,2024/09/23 03:37:32 PM
913,1730433573.1318278,0.0129234045743942,0.0038937330245971,0.0205558538436889,0.2833030268128726,0.1363978525160314,-0.3369247651481871,0.1305549889802932,-0.2795285284519195,-0.9512198567390442,-0.1608582437038421,-0.5552326440811157,-0.2334800362586975,2024/09/23 03:29:27 PM
285,1730433566.862824,-0.0186975114047527,-0.0162144303321838,-0.0104504227638244,0.3004658045652032,0.0328551730660029,-0.3193280207502313,0.0313775725662708,-0.295965164899826,-0.954683244228363,-0.0421763062477111,0.0864443331956863,0.0262744184583425,2024/09/23 03:18:59 PM
1124,1730433575.237663,0.0499454513192176,-0.044374942779541,0.0327708721160888,0.2317729931483867,0.0769888226518967,-0.325550437942076,0.0748561918735504,-0.2297034710645675,-0.9703776836395264,-0.0739061757922172,-0.1514683663845062,-0.2621072232723236,2024/09/23 03:32:58 PM
942,1730433573.422025,0.0006331205368041,0.0122482776641845,0.0022458434104919,0.2880982981447617,0.1437186999520953,-0.3295024111258658,0.1373215913772583,-0.2841294109821319,-0.9489010572433472,0.0683127492666244,0.1907017678022384,-0.0195640176534652,2024/09/23 03:29:56 PM
1838,1730433582.3654718,-0.005869947373867,-0.0137019455432891,0.0035222172737121,0.3376480095508545,-0.0900911574459622,0.091689770171466,-0.0848893448710441,-0.3312688171863556,-0.9397099614143372,0.0792211443185806,0.1419286280870437,0.4113862216472626,2024/09/23 03:44:52 PM
421,1730433568.220107,0.0071652010083198,0.0350585579872131,0.0177567601203918,0.2565369001949353,0.0781726811803102,-0.3010269664447828,0.0755374506115913,-0.2537323236465454,-0.9643204808235168,-0.0046022534370422,0.0375196672976017,0.0016854515997692,2024/09/23 03:21:15 PM
195,1730433565.964469,-0.0042904466390609,0.0543909668922424,0.0480760335922241,-0.4713196472330974,-0.1179777237480078,-0.7893745113649987,-0.1048709228634834,0.4540624320507049,-0.8847764730453491,0.4568164348602295,-0.1241344809532165,0.0806271359324455,2024/09/23 03:17:29 PM
1787,1730433581.857139,-0.0268901288509368,0.001195341348648,0.0076681971549987,0.3273537258546881,-0.0924959395326664,0.104961232643526,-0.0874592512845993,-0.3215384185314178,-0.9428488612174988,0.0120315169915556,-0.00910668913275,-0.0930941626429557,2024/09/23 03:44:01 PM
276,1730433566.772801,-0.0459147915244102,-0.0189461410045623,0.0111699700355529,0.3048134031617013,0.0225896586022979,-0.3350053637334219,0.021546509116888,-0.3001151978969574,-0.9536595940589904,-0.0224222633987665,0.265357106924057,0.3328540325164795,2024/09/23 03:18:50 PM
54,1730433564.55679,0.0048848241567611,0.0696887075901031,-0.0232478976249694,0.4264956454726461,-0.1886825790796297,0.0407855798306353,-0.1707631349563598,-0.4136829078197479,-0.8942630887031555,0.0088985785841941,-0.0367276668548584,-0.0239513088017702,2024/09/23 03:15:08 PM
273,1730433566.747205,-0.0160758402198553,-0.0003979206085205,0.0474799275398254,0.306710728130165,0.0186885463640472,-0.347186068847776,0.0178153496235609,-0.3019244968891144,-0.9531653523445128,-0.1307395845651626,0.2339592278003692,0.4436197876930237,2024/09/23 03:18:47 PM
2051,1730433584.492364,-0.0207736417651176,-0.0345780253410339,0.0039190053939819,0.3394252895368113,-0.1008649503626116,0.0977039214372112,-0.0949490293860435,-0.3329452276229858,-0.9381536245346068,0.037284392863512,0.0836826339364051,0.3587682545185089,2024/09/23 03:48:25 PM
857,1730433572.572634,0.0114933252334594,0.0033241212368011,0.0132189393043518,0.2872731950121501,0.1537107431913493,-0.3251597230882441,0.1468318849802017,-0.2833382189273834,-0.9477129578590392,0.1920534372329712,0.4673727750778198,0.0332382097840309,2024/09/23 03:28:31 PM
1363,1730433577.6235828,0.0271046590059995,-0.0394103452563285,-0.0532543659210205,0.1204879337774385,0.0276955949723678,-0.3176922453962662,0.0274912901222705,-0.1201966181397438,-0.9923694133758544,0.0864359810948371,-0.1011135801672935,-0.0990776494145393,2024/09/23 03:36:57 PM
1884,1730433582.82524,0.0478707030415535,0.0685743391513824,0.0114705562591552,0.3484563414331684,-0.0813310511296837,0.1367094054982497,-0.0763588845729827,-0.3414473235607147,-0.9367940425872804,-0.0244357269257307,-0.2538599669933319,0.0281050745397806,2024/09/23 03:45:38 PM
436,1730433568.370023,0.0101865828037261,0.0329746007919311,0.0109467506408691,0.2552187438088269,0.0801862006261445,-0.3021827578880522,0.0775057002902031,-0.2524570822715759,-0.9644989967346193,0.0042211608961224,-0.0479078814387321,0.0135311391204595,2024/09/23 03:21:30 PM
502,1730433569.028264,0.0173212736845016,0.048814058303833,-0.0230301618576049,0.2509326275231732,0.0666151139020797,-0.3047975060718809,0.0644811019301414,-0.2483074814081192,-0.9665327668190002,-0.0543433204293251,-0.0500732995569705,0.0344195365905761,2024/09/23 03:22:36 PM
1663,1730433580.618917,0.0056355595588684,0.0166637897491455,-0.0008783340454101,0.3102364773637405,-0.1089417793621576,0.151502508034326,-0.1035359725356102,-0.3052838444709778,-0.9466161131858826,0.0297502167522907,0.0118622416630387,0.0054673003032803,2024/09/23 03:41:57 PM
730,1730433571.3049212,-0.0144012570381164,0.0145781487226486,0.0035257339477539,0.2502445888717408,0.0724600349242638,-0.3155501251801546,0.0701416209340095,-0.2476409375667572,-0.9663095474243164,0.1048680171370506,0.1565078347921371,-0.0785706639289856,2024/09/23 03:26:24 PM
382,1730433567.831431,0.0026520267128944,0.0371177792549133,-0.0037776231765747,0.2656493792047783,0.0669600291833577,-0.2948923759596661,0.0645629465579986,-0.2625359296798706,-0.9627598524093628,0.0038603469729423,0.050851184874773,0.0063656903803348,2024/09/23 03:20:36 PM
786,1730433571.863582,-0.0082397907972335,0.01333749294281,0.000428020954132,0.2773470694038885,0.1253447744678091,-0.3337759281237039,0.1202393174171447,-0.2738050520420074,-0.9542396664619446,0.0129629056900739,0.05778019875288,0.0095322430133819,2024/09/23 03:27:20 PM
309,1730433567.102717,-0.0267686657607555,0.0577858686447143,-0.0274697542190551,0.2902530726060541,0.0575574859746606,-0.3161250919618582,0.0551194958388805,-0.2861947119235992,-0.9565847516059875,0.0653468370437622,0.1081456318497657,-0.0277383252978324,2024/09/23 03:19:23 PM
1555,1730433579.540802,0.0091230422258377,0.0381164848804473,-0.0282512307167053,0.2545719074400808,-0.1557103109709488,0.1546384361676376,-0.1500837504863739,-0.2518311440944671,-0.9560627341270448,0.8190270662307739,0.1288280040025711,-0.189867302775383,2024/09/23 03:40:09 PM
924,1730433573.241271,-0.0332892015576362,0.0092135816812515,-0.0089182257652282,0.2500938116427507,0.0702442546732806,-0.3490205210458316,0.0680029466748237,-0.2474948465824127,-0.9664998054504396,-0.1337852329015731,-0.2569079399108886,0.0368470586836338,2024/09/23 03:29:38 PM
18,1730433496.080899,-0.000115655362606,0.005720317363739,0.0056731700897216,0.816929838602949,0.1628018845100817,-0.0812113159237851,0.1109402179718017,-0.7290478348731995,-0.6754119992256165,0.0019342664163559,0.0086286319419741,0.0094531094655394,2024/09/23 03:14:32 PM
845,1730433572.456558,-0.0728673860430717,0.0412573665380477,-0.0157851576805114,0.2450892500756929,0.0696160107682932,-0.3353940064992885,0.0674810484051704,-0.2426429092884063,-0.9677658677101136,0.3700107932090759,0.7884442806243896,0.1560131907463073,2024/09/23 03:28:19 PM
427,1730433568.2803931,5.8650970458984375e-05,0.0265615880489349,-0.0009090304374694,0.2555296657687037,0.080157018044653,-0.301929100696615,0.0774712637066841,-0.2527579069137573,-0.9644229412078856,0.017537198960781,0.0443189851939678,-0.0214064978063106,2024/09/23 03:21:21 PM
876,1730433572.762104,0.0528178289532661,-0.0355065166950225,0.0248934030532836,0.2722574081749346,0.1128709851846541,-0.3348292998892939,0.1084828451275825,-0.2689063847064972,-0.9570375084877014,-0.5587471723556519,-1.1328493356704712,-0.34987872838974,2024/09/23 03:28:50 PM
1123,1730433575.227839,0.0355378687381744,-0.0039278119802474,0.0270704627037048,0.2326470320484829,0.077888945993972,-0.3232946507864606,0.0757139697670936,-0.2305540442466735,-0.9701094031333924,-0.073544256389141,-0.1307708024978637,-0.170288860797882,2024/09/23 03:32:57 PM
60,1730433564.619687,0.0080305188894271,0.0877059698104858,-0.0210804939270019,0.4236110944701682,-0.1886405790348027,0.0406326615641048,-0.170948639512062,-0.4110550284385681,-0.8954386115074158,0.05911810323596,-0.0181920640170574,0.0084162186831235,2024/09/23 03:15:14 PM
1480,1730433578.791295,-0.0160917490720748,-0.0239731967449188,-0.0390307903289794,0.4465966342834485,-0.0514775721884236,-0.0164776830872473,-0.0464082658290863,-0.4318984746932983,-0.9007274508476256,-0.3508927226066589,0.6245125532150269,-0.2209760099649429,2024/09/23 03:38:54 PM
335,1730433567.361419,0.008492887020111,0.0814031362533569,-0.0143861174583435,0.2797554157059055,0.0606900870071528,-0.3161553241145454,0.0582948364317417,-0.2761205732822418,-0.959353506565094,0.0256049484014511,-0.0232241079211235,0.124980591237545,2024/09/23 03:19:49 PM
1659,1730433580.57904,0.0020026341080665,0.0166373252868652,-0.0071013569831848,0.3102727932484606,-0.1089577617051907,0.1516524946777479,-0.1035498902201652,-0.3053184151649475,-0.9466034770011902,-0.0033674277365207,0.0018780508544296,-0.0077945496886968,2024/09/23 03:41:53 PM
1854,1730433582.525498,-0.0056027993559837,-0.0064045488834381,0.0117493867874145,0.3403215514537869,-0.0900545790116519,0.1327136731095064,-0.0847750231623649,-0.3337902128696441,-0.938827633857727,-0.0027603055350482,-0.0451373942196369,0.0352261550724506,2024/09/23 03:45:08 PM
216,1730433566.1737242,-0.039070039987564,0.0438955724239349,0.1037075519561767,0.1319244229753597,-0.0622800735339891,-0.7651484315868777,-0.061698991805315,-0.1315420866012573,-0.989388644695282,2.423480272293091,0.6815239191055298,0.2805918455123901,2024/09/23 03:17:50 PM
218,1730433566.196134,0.0257456749677658,0.0325246453285217,0.091274082660675,0.1704335552090177,-0.0521284512881361,-0.7560976995216577,-0.0513499155640602,-0.1696096360683441,-0.9841726422309875,1.5374040603637695,0.6044903993606567,0.4346396028995514,2024/09/23 03:17:52 PM
74,1730433564.755505,0.0258351415395736,0.0721645653247833,-0.0068294405937194,0.4130986835580809,-0.1864930209985218,0.0378186425423714,-0.1698170900344848,-0.4014492630958557,-0.9000003337860107,0.0217305365949869,-0.0393753796815872,-0.0103742470964789,2024/09/23 03:15:28 PM
113,1730433565.145307,-0.0771023407578468,-0.0055004954338073,0.044044554233551,0.3935577662832633,-0.1079490423900426,-0.1927280812615875,-0.0995028913021087,-0.3834766149520874,-0.9181747436523438,-0.4487966895103454,-0.1247624456882476,-1.1882017850875854,2024/09/23 03:16:07 PM
146,1730433565.478552,0.0246766190975904,0.1634555011987686,-0.0255524516105651,0.0415955690797761,-0.0258768009861519,-0.803548833180729,-0.0258515328168869,-0.0415835753083229,-0.99880051612854,-2.0787150859832764,-0.6416569948196411,-0.6818346977233887,2024/09/23 03:16:40 PM
186,1730433565.874069,-0.0236556455492973,0.1738232374191284,0.0401516556739807,-0.52884538478716,-0.1109264613010975,-0.7983136852806009,-0.0955765321850776,0.5045368075370789,-0.8580837845802307,0.6146716475486755,-0.1989919394254684,-0.0308845285326242,2024/09/23 03:17:20 PM
167,1730433565.684814,0.0265438631176948,0.1859985888004303,-0.0422523021697998,-0.4308286421886802,-0.0893179999124818,-0.8221884840476565,-0.0810482576489448,0.4176238775253296,-0.9049980640411376,-0.6869121193885803,-0.0959526374936103,0.2873017489910126,2024/09/23 03:17:01 PM
1373,1730433577.7235289,-0.0257561523467302,0.0278308093547821,-0.0033383965492248,0.131003704695926,0.0294767127962405,-0.3223987232518889,0.0292199030518531,-0.1306293159723281,-0.9910005927085876,0.0992847234010696,0.0525076724588871,-0.0280952397733926,2024/09/23 03:37:07 PM
1364,1730433577.6335568,-0.0110774897038936,0.0746654421091079,0.0291718244552612,0.1212729416021218,0.0270878374097134,-0.3186189039452349,0.0268856007605791,-0.1209758967161178,-0.992291271686554,0.0837206169962883,-0.0591426938772201,-0.0739837437868118,2024/09/23 03:36:58 PM
173,1730433565.744146,0.0169144868850708,0.018967181444168,0.0412616729736328,-0.4711403536026551,-0.0879706841936881,-0.8104218459066327,-0.0782853215932846,0.4539026916027069,-0.887605607509613,-0.8117138147354126,-0.1138011440634727,0.1786849498748779,2024/09/23 03:17:07 PM
1269,1730433576.685669,0.0278056357055902,-0.0253108441829681,-0.0153910517692565,0.1500100881733284,0.0312663619622806,-0.3220192564448175,0.0309101901948452,-0.1494481116533279,-0.988286316394806,-0.5132833123207092,-0.6777441501617432,-0.3164601325988769,2024/09/23 03:35:23 PM
819,1730433572.193598,0.0200577974319458,0.0102527141571044,0.017077624797821,0.2987977213824059,0.1716078103892168,-0.3375428428067265,0.1632002741098404,-0.2943714261054992,-0.9416534304618835,-0.1684295535087585,-0.5668624043464661,-0.0177316553890705,2024/09/23 03:27:53 PM
1954,1730433583.524674,0.053367294371128,0.0310944020748138,0.0190417766571044,0.3470558685601835,-0.0951395695591381,0.1365931219091462,-0.0893322676420211,-0.3401306867599487,-0.9361254572868348,0.0039266874082386,-0.1318107694387436,-0.0157879739999771,2024/09/23 03:46:48 PM
1917,1730433583.155177,0.061055451631546,0.032648891210556,0.0029432773590087,0.3417529122885822,-0.1000979855975428,0.1243717520617734,-0.0941517725586891,-0.3351391553878784,-0.937452495098114,-0.1350844949483871,-0.2598704397678375,-0.4272615909576416,2024/09/23 03:46:11 PM
1797,1730433581.956122,0.0005466043949127,-0.0167913734912872,0.0022469758987426,0.3324862288405841,-0.0928065510958656,0.1260987513073674,-0.0875980108976364,-0.326394110918045,-0.9411660432815552,-0.030901052057743,-0.0440023578703403,0.0818570330739021,2024/09/23 03:44:11 PM
248,1730433566.495906,-0.080393448472023,0.1366928219795227,0.0609654784202575,0.2990272949995712,0.0260883022281715,-0.5234791067021863,0.0249277669936418,-0.2945908010005951,-0.9552983045578004,-0.018445773050189,0.3687319755554199,0.5747497081756592,2024/09/23 03:18:22 PM
1240,1730433576.3964171,0.0214803032577037,0.0055303573608398,0.0032089352607727,0.1584910676267908,0.0348564892116278,-0.3148606744849877,0.0344126485288143,-0.1578283607959747,-0.9868667721748352,0.0357689000666141,-0.0371729470789432,0.0404148958623409,2024/09/23 03:34:54 PM
1601,1730433580.000465,0.0049220845103263,0.0180341303348541,0.0114684104919433,0.3169546118531378,-0.1116885866656119,0.1487041632246626,-0.1059047654271125,-0.3116743266582489,-0.9442687034606934,-0.0092475162819027,0.0637936145067215,0.0007049823179841,2024/09/23 03:40:55 PM
842,1730433572.423376,-0.0125851109623909,0.0202284455299377,0.0040006041526794,0.2395227025225586,0.0565726460871538,-0.3387090148968508,0.0549282617866992,-0.2372389882802963,-0.969897210597992,-0.0139604303985834,0.0425996482372283,0.0082475338131189,2024/09/23 03:28:16 PM
1985,1730433583.832688,-0.0109100192785263,0.0111291706562042,-0.0205445289611816,0.3500521983815755,-0.097096139418999,0.1307953281656071,-0.0910644829273223,-0.3429468274116516,-0.9349303245544434,0.0992024168372154,0.2373387664556503,0.268122524023056,2024/09/23 03:47:19 PM
1570,1730433579.6902,0.004040241241455,-0.0145787894725799,-0.0336865186691284,0.3101160672945636,-0.1418113100414977,0.1447086235576514,-0.1345944702625274,-0.3051691651344299,-0.9427386522293092,0.122737243771553,0.542973518371582,-0.0639696717262268,2024/09/23 03:40:24 PM
37,1730433496.270591,-0.0183427408337593,-0.0372345447540283,0.0700005888938903,0.8157692495785449,0.1598815953202351,-0.0831829168136929,0.1091019883751869,-0.7282530069351196,-0.6765680313110352,-0.1009331792593002,-0.0370283350348472,-0.0127284117043018,2024/09/23 03:14:51 PM
863,1730433572.632777,0.0206650048494339,0.0133514404296875,0.0234801769256591,0.2931836810102439,0.1673691626531067,-0.3265299649726039,0.1594802737236023,-0.2890015244483948,-0.9439513683319092,0.0612921640276908,0.1150384247303009,0.0817904099822044,2024/09/23 03:28:37 PM
1575,1730433579.73995,0.0209855288267135,-0.0365647971630096,0.0069420337677001,0.310310364582142,-0.1392393231298968,0.1459783228218465,-0.1321610808372497,-0.3053541779518127,-0.9430229663848876,0.0084930229932069,0.0873021408915519,-0.0678023844957351,2024/09/23 03:40:29 PM
3,1730433496.044763,0.0005638822913169,0.0027028918266296,0.0080944895744323,0.8168907532951072,0.1630992326844392,-0.0816530073645565,0.1111456826329231,-0.7290211319923401,-0.6754071712493896,0.0021480391733348,0.0092398272827267,0.0095670400187373,2024/09/23 03:14:17 PM
433,1730433568.339902,0.0089765638113021,0.038649171590805,0.021890103816986,0.2553273604320114,0.0813640084647502,-0.3025383566934385,0.0786394104361534,-0.2525621652603149,-0.9643797278404236,0.0083936592563986,-0.0167078841477632,0.0059494921006262,2024/09/23 03:21:27 PM
978,1730433573.780338,-0.0588588789105415,0.0418300926685333,-0.0126348137855529,0.2565334095305783,0.083600471052664,-0.3352968462561014,0.0807705149054527,-0.2537289261817932,-0.963897168636322,0.4548624157905578,0.8659425377845764,0.1229067370295524,2024/09/23 03:30:32 PM
56,1730433564.575848,0.0411277711391449,0.0895614326000213,-0.0063295364379882,0.4249438572265457,-0.1886372257146084,0.0402429572963919,-0.1708427518606186,-0.4122696220874786,-0.8949002623558044,0.0332375988364219,-0.0453214198350906,-0.003017317969352,2024/09/23 03:15:10 PM
114,1730433565.154734,-0.0806558057665824,-0.0082807838916778,0.0503947734832763,0.3898727547207465,-0.1039705947437034,-0.2062142900268455,-0.0959952101111412,-0.3800707161426544,-0.9199625849723816,-0.5524845123291016,-0.1112053617835044,-1.218725323677063,2024/09/23 03:16:08 PM
303,1730433567.041553,0.0092794857919216,0.0459161102771759,0.0160569548606872,0.2958490602802059,0.0543244701353217,-0.3170370420502914,0.0519387833774089,-0.2915521264076233,-0.9551438093185424,-0.0787712633609771,0.104380190372467,0.0358593985438346,2024/09/23 03:19:17 PM
1703,1730433581.018499,0.007102720439434,-0.0018141567707061,0.0059440732002258,0.3058815298529951,-0.1096620261954188,0.1509619844315178,-0.1043622568249702,-0.3011339008808136,-0.9478538632392884,-0.0300581604242324,-0.0094963097944855,0.0070903906598687,2024/09/23 03:42:37 PM
495,1730433568.958821,-0.0003577023744583,0.0321891009807586,0.0022032260894775,0.2557000704090919,0.0771908750387088,-0.3073485317253694,0.0746069848537445,-0.252922773361206,-0.9646055698394777,0.053930390626192,-0.0114619890227913,-0.0381753593683242,2024/09/23 03:22:29 PM
1184,1730433575.83643,-0.0800312533974647,0.0394844412803649,-0.0062178969383239,0.2032964956570367,0.0486264977617221,-0.326802235546853,0.0476063340902328,-0.2018990367650985,-0.978248655796051,-0.1020977646112442,-0.0004319750005379,0.1152791231870651,2024/09/23 03:33:58 PM
1977,1730433583.758058,-0.0209445506334304,0.0007238090038299,0.0273060202598571,0.3472446400337695,-0.1001663946618288,0.1241254041855659,-0.0940304324030876,-0.3403081893920898,-0.9356006979942322,-0.1689870357513427,-0.2286949753761291,-0.204170361161232,2024/09/23 03:47:11 PM
1843,1730433582.415638,-0.0355227068066597,0.0084326267242431,-0.0057453513145446,0.3431454688304858,-0.0868946382120095,0.1303787748911787,-0.0817258358001709,-0.336450845003128,-0.938148021697998,0.1351664066314697,0.4673767685890198,0.9228794574737548,2024/09/23 03:44:57 PM
579,1730433569.803258,0.0011533200740814,0.0072928369045257,0.0025520920753479,0.2573942670126894,0.0742815692569278,-0.3050179074689294,0.0717684403061866,-0.2545615136623382,-0.9643898010253906,0.0259598679840564,-0.0284542888402938,0.0130174681544303,2024/09/23 03:23:53 PM
455,1730433568.5590549,0.04188222438097,-0.032528668642044,-0.0207312107086181,0.255158471745051,0.0692070909844241,-0.3015545904850879,0.0669129490852356,-0.2523987591266632,-0.9653069376945496,-0.0582159608602523,-0.0865380987524986,0.0412079319357872,2024/09/23 03:21:49 PM
529,1730433569.299485,0.0060150772333145,0.0183283984661102,0.0131194591522216,0.2558361013084579,0.0825947347857798,-0.3079581412267966,0.0798156261444091,-0.2530543804168701,-0.9641540050506592,0.0205312184989452,-0.0002167916391044,-0.0074620805680751,2024/09/23 03:23:03 PM
1055,1730433574.634511,-0.0080698877573013,0.0280435681343078,-0.0108717679977417,0.2379078930091269,0.0664465123930617,-0.3316480846218131,0.0645274147391319,-0.2356699705123901,-0.9696885347366332,0.0225513186305761,0.0429354719817638,0.0433657318353652,2024/09/23 03:31:49 PM
1064,1730433574.647124,0.0058119632303714,0.0201304107904434,0.0116307735443115,0.229647951465037,0.0560519476932948,-0.3195782003744572,0.0545518174767494,-0.2276347279548645,-0.972217321395874,-0.1418261677026748,-0.1833959370851516,0.1320386677980423,2024/09/23 03:31:58 PM
807,1730433572.073984,0.0054544657468795,0.0007848143577575,0.0132682919502258,0.2999876014930635,0.1838918634989388,-0.3305361762650826,0.1746908128261566,-0.2955083549022674,-0.9392326474189758,0.1237567514181137,0.3281254172325134,0.0516269654035568,2024/09/23 03:27:41 PM
1276,1730433576.7549849,0.0469929836690425,0.0228450149297714,-0.0258469581604003,0.1410182613836021,0.0195166787065886,-0.3370057034526855,0.0193217173218727,-0.1405513435602188,-0.9898848533630372,-0.1792906075716018,-0.130597174167633,0.100114494562149,2024/09/23 03:35:30 PM
1165,1730433575.647364,-0.0134761184453964,-0.010788470506668,-0.0287323594093322,0.2120963920452983,0.0645576463601978,-0.3743527971502576,0.063067190349102,-0.2105097770690918,-0.9755553007125854,0.0260404832661151,0.0550006553530693,-0.0857360586524009,2024/09/23 03:33:39 PM
1216,1730433576.1565042,-0.0196688622236251,-0.0140202343463897,0.0262669324874877,0.167161890140074,0.0478811793582399,-0.3150616694544233,0.0471957214176654,-0.1663844734430313,-0.9849308729171752,-0.1120401248335838,-0.164087489247322,0.0507637821137905,2024/09/23 03:34:30 PM
741,1730433571.414551,0.0034689381718635,0.0338432490825653,0.0120987296104431,0.2533257168234937,0.0764825822694075,-0.3172743210187171,0.0739694237709045,-0.2506249248981476,-0.9652541875839232,0.0048055341467261,-0.0229045283049345,0.0264491755515337,2024/09/23 03:26:35 PM
1080,1730433574.7987928,-0.0105970725417137,-0.0072799026966094,-0.0312031507492065,0.2209071297843337,0.0501354666240794,-0.3475440442214806,0.0488966405391693,-0.2191147953271865,-0.9744731187820436,0.0240608602762222,0.1176001206040382,-0.1051978543400764,2024/09/23 03:32:14 PM
556,1730433569.567941,0.011531077325344,0.0486974120140075,0.0064975023269653,0.2590275862719527,0.0814210316057736,-0.3116542904578074,0.0786178559064865,-0.2561407089233398,-0.9634371995925904,-0.021319905295968,0.0194975230842828,-0.023968618363142,2024/09/23 03:23:30 PM
494,1730433568.948947,0.0125913396477699,0.0147557854652404,0.0106996297836303,0.255329301500986,0.077252530499081,-0.3069267388701378,0.0746736899018287,-0.2525640428066253,-0.9646943807601928,0.0395677760243415,-0.0314133279025554,-0.034788828343153,2024/09/23 03:22:28 PM
827,1730433572.272862,0.0493623614311218,-0.0193105340003967,0.0454456210136413,0.265505704519886,0.1000566182026105,-0.3394003656345459,0.0963896065950393,-0.262397289276123,-0.9601336717605592,-0.6037672758102417,-1.070163369178772,0.057063914835453,2024/09/23 03:28:01 PM
881,1730433572.812494,-0.0703581944108009,0.0252270251512527,-0.0105425715446472,0.2447972514599073,0.0666244937565267,-0.3392872383362835,0.0645903721451759,-0.2423596233129501,-0.968034029006958,-0.3808212876319885,-0.6487657427787781,-0.0149571755900979,2024/09/23 03:28:55 PM
1178,1730433575.777031,0.0856943503022193,-0.0250443369150161,0.04310804605484,0.2163396385823247,0.0682931829495155,-0.3366288912171455,0.0666494145989418,-0.2146560251712799,-0.9744129776954652,-0.2315908819437027,-0.2574251294136047,0.4644559919834137,2024/09/23 03:33:52 PM
993,1730433573.930707,0.0333260148763656,0.0070333778858184,0.028829276561737,0.2770115913874034,0.1213036312953021,-0.3282990344526542,0.1163932383060455,-0.2734823822975158,-0.9548088908195496,-0.1129498034715652,-0.3233479559421539,-0.1033570244908332,2024/09/23 03:30:47 PM
1857,1730433582.555665,-0.0124590322375297,0.0128306746482849,0.0076441168785095,0.3400884657362247,-0.0915045127746266,0.1349045088867104,-0.0861432775855064,-0.3335704803466797,-0.9387811422348022,-0.0081172082573175,-0.0025774175301194,0.0407838001847267,2024/09/23 03:45:11 PM
1932,1730433583.303979,-0.0264428779482841,-0.0251841247081756,-0.0025074481964111,0.3491779824167504,-0.0930691919260958,0.1221190864165186,-0.087326668202877,-0.3421255052089691,-0.9355876445770264,0.0931990146636962,0.3010447919368744,0.2836684584617615,2024/09/23 03:46:26 PM
2029,1730433584.27318,-0.0089178532361984,-0.0135262310504913,0.0002411007881164,0.3416698040148084,-0.1000824854072196,0.1029462420585693,-0.0941400229930877,-0.3350608348846435,-0.937481701374054,0.0631917044520378,0.1247081011533737,0.2759263217449188,2024/09/23 03:48:03 PM
1013,1730433574.129976,-0.0134984105825424,0.0138282775878906,-0.0089502334594726,0.2551119300660442,0.0803298039403616,-0.337095601853313,0.077646367251873,-0.2523537278175354,-0.9645147323608398,0.0993990153074264,0.2379230707883834,0.0569158419966697,2024/09/23 03:31:07 PM
769,1730433571.6940398,0.0102343410253524,0.0141828656196594,0.0079197287559509,0.2737063557398731,0.1149548916649063,-0.3341032089409813,0.1104321777820587,-0.2703016698360443,-0.9564213156700134,0.0461976341903209,0.0526882335543632,-0.0138825885951519,2024/09/23 03:27:03 PM
834,1730433572.343237,-0.0200086534023284,0.0038508176803588,-0.008815050125122,0.2468595256148136,0.068020000157379,-0.3400601349749159,0.065907098352909,-0.2443598955869674,-0.967442274093628,-0.1071318686008453,-0.1944674998521804,0.0215252023190259,2024/09/23 03:28:08 PM
992,1730433573.919705,0.0396857038140296,-0.0105053484439849,0.0283386707305908,0.2783536417406173,0.1243118230321608,-0.3272806904085006,0.1192193403840065,-0.2747730314731598,-0.9540894031524658,-0.132688820362091,-0.3319723308086395,-0.1132353246212005,2024/09/23 03:30:46 PM
1569,1730433579.6825252,-0.0102324336767196,-0.0113456547260284,-0.0520602464675903,0.3132884527734585,-0.1392945531615579,0.1467303242643741,-0.132086306810379,-0.3081886768341064,-0.9421108961105348,-0.0569161400198936,-0.1354039013385772,-0.0292164850980043,2024/09/23 03:40:23 PM
1578,1730433579.770582,-0.0571857392787933,0.0494865477085113,-0.0364121198654174,0.3169267193180125,-0.1301243548442409,0.1454028458463902,-0.1232952252030372,-0.3116478025913238,-0.9421644806861876,0.3220999836921692,0.3012160360813141,0.0133504169061779,2024/09/23 03:40:32 PM
947,1730433573.4744558,0.0583906471729278,-0.0071150958538055,0.0411435365676879,0.2872708880863452,0.1406905294010977,-0.3336206241734975,0.1344804614782333,-0.2833360135555267,-0.9495450258255004,-0.2171173691749572,-0.5767975449562073,-0.2119932323694229,2024/09/23 03:30:01 PM
994,1730433573.941359,0.0157972797751426,0.0340888798236846,0.0236904621124267,0.2758237577068147,0.1183677164128941,-0.3290410301791867,0.1136277839541435,-0.2723396420478821,-0.9554684162139891,-0.1051419451832771,-0.3083429038524627,-0.0657931417226791,2024/09/23 03:30:48 PM
620,1730433570.207466,-0.1046359241008758,0.0113406479358673,-0.0756181478500366,0.2523843635943478,0.051921053894122,-0.3028664809505262,0.0502535961568355,-0.2497134953737259,-0.9670148491859436,0.3296266198158264,0.4064202308654785,-0.0274252966046333,2024/09/23 03:24:34 PM
557,1730433569.5775409,0.00516177713871,0.0450569987297058,0.0111783146858215,0.2586238262846003,0.0814189313385087,-0.3116653872290741,0.0786242336034774,-0.2557503879070282,-0.9635403156280518,-0.0347209312021732,0.0082336850464344,0.0117843719199299,2024/09/23 03:23:31 PM
1780,1730433581.786985,0.0161471590399742,0.0004514455795288,-0.0053266286849975,0.3309534548887154,-0.0915648419481817,0.1169516550180994,-0.0864749327301979,-0.3249448835849762,-0.9417711496353148,-0.0849044099450111,-0.1293143182992935,-0.2722554504871368,2024/09/23 03:43:54 PM
1369,1730433577.684488,-0.0006866939365863,0.035783439874649,-0.0099749565124511,0.1268983117325658,0.0264610014947712,-0.3203343746399642,0.0262451712042093,-0.1265580058097839,-0.9916119575500488,0.1327016204595565,0.040796685963869,-0.0306213032454252,2024/09/23 03:37:03 PM
1645,1730433580.439285,0.018652006983757,0.0063201785087585,0.0393117666244506,0.3081880482905172,-0.1091931483409991,0.1489337770155177,-0.1038418486714363,-0.3033325672149658,-0.9472097158432008,0.0021533041726797,-0.0204347129911184,0.0118267685174942,2024/09/23 03:41:39 PM
767,1730433571.674049,0.0099853053689002,0.0187529921531677,0.0064404010772705,0.2727952988328538,0.1135589339510381,-0.3340021787774712,0.1091248095035553,-0.2694244086742401,-0.9568188190460204,0.049622930586338,0.0969467759132385,0.0154197458177804,2024/09/23 03:27:01 PM
154,1730433565.554624,0.0305814445018768,0.1698085665702819,0.0797562003135681,-0.1437351589500111,-0.069655023143428,-0.8387827655797583,-0.0688809975981712,0.143240749835968,-0.987287938594818,-2.306810140609741,-0.1680625230073928,-0.0019367138156667,2024/09/23 03:16:48 PM
447,1730433568.483031,0.0047307163476943,0.0204384922981262,0.0051316618919372,0.256029885595998,0.0791360369719444,-0.302488788237317,0.0764765590429306,-0.2532418668270111,-0.964375376701355,0.0438209399580955,-0.0074073262512683,-0.0217751320451498,2024/09/23 03:21:41 PM
1617,1730433580.159779,0.0011351704597473,-0.0046300888061523,0.0749645233154296,0.3091548185050491,-0.1071648230044228,0.1457520316757909,-0.101888969540596,-0.3042536377906799,-0.9471263885498048,0.0090533848851919,-0.0246915090829134,-0.0289773866534233,2024/09/23 03:41:11 PM
2053,1730433584.512341,0.0056807324290275,0.0145658552646636,0.0182845592498779,0.3401647843225167,-0.1012609504878643,0.1078558031864807,-0.0952956154942512,-0.3336424529552459,-0.9378706812858582,0.1376177221536636,0.2096666693687439,0.6024165749549866,2024/09/23 03:48:27 PM
1220,1730433576.196458,-0.036922387778759,0.0056593865156173,-0.0276215076446533,0.1605999962243508,0.0415583448834795,-0.3141744687929677,0.041011743247509,-0.1599105149507522,-0.9862791895866394,-0.0424248315393924,-0.0421386770904064,0.0145522486418485,2024/09/23 03:34:34 PM
1073,1730433574.72874,0.0482051111757755,0.0081395804882049,0.0251413583755493,0.2234965896886873,0.0482431296350007,-0.3336368902245993,0.0470250025391578,-0.2216406017541885,-0.9739938974380492,-0.21138696372509,-0.3318261504173279,-0.4256598949432373,2024/09/23 03:32:07 PM
959,1730433573.590766,0.0142399594187736,-0.0161815881729125,0.0057887434959411,0.2514437584353292,0.0684861120798067,-0.3358187854844329,0.0662806704640388,-0.2488025724887848,-0.966283679008484,-0.2947932183742523,-0.5475057363510132,0.0467794798314571,2024/09/23 03:30:13 PM
1112,1730433575.118367,0.0037518516182899,0.0119167864322662,0.0025986433029174,0.2251014642553923,0.071302287258163,-0.3609071466487161,0.0694445595145225,-0.2232052683830261,-0.9722946286201476,0.0777960121631622,0.2292504906654358,0.2392177432775497,2024/09/23 03:32:46 PM
1005,1730433574.0496712,-0.0619934946298599,0.0208755135536193,-0.0148215889930725,0.2528551880953184,0.0737413964838947,-0.3367322513345905,0.0713318884372711,-0.2501693665981293,-0.965570867061615,-0.0623761489987373,-0.1387826651334762,-0.0647965297102928,2024/09/23 03:30:59 PM
1395,1730433577.9449492,-0.0041359513998031,-0.0101469308137893,-0.0660931468009948,0.1776761133098962,0.0376661644395114,-0.3377573175127323,0.0370644219219684,-0.176742747426033,-0.98355895280838,0.5923498272895813,0.1576977372169494,-0.1174817904829979,2024/09/23 03:37:29 PM
1540,1730433579.391098,0.0030675828456878,0.1082794070243835,-0.0492809414863586,0.1626454805185752,-0.1577255009366482,0.139717445523038,-0.1549993604421615,-0.1619293391704559,-0.9745532870292664,0.9034217596054076,-0.2432291805744171,-0.0173309035599231,2024/09/23 03:39:54 PM
1022,1730433574.2197762,0.0574117451906204,0.0075461268424987,0.0022177100181579,0.2576088893349598,0.0844965064364291,-0.3292886569003552,0.0816110894083976,-0.2547690868377685,-0.963551938533783,-0.2734316885471344,-0.4576493203639984,0.4316154718399048,2024/09/23 03:31:16 PM
422,1730433568.232366,-0.0011194497346878,0.0289256274700164,0.0128994584083557,0.2561910163955706,0.0783861781090561,-0.3009727986401871,0.0757501944899559,-0.2533977329730987,-0.9643917679786682,-0.0026573466602712,0.0271085724234581,-0.0026893229223787,2024/09/23 03:21:16 PM
2003,1730433584.013577,-0.0392873063683509,-0.0105777084827423,-0.0002851486206054,0.3437311397424877,-0.0998095471808034,0.1028677836370916,-0.0938151255249977,-0.3370023071765899,-0.9368181228637696,-0.0144375460222363,-0.0116007393226027,0.0076512517407536,2024/09/23 03:47:37 PM
293,1730433566.9424438,0.0136084295809268,0.0405701100826263,0.0052412152290344,0.300121285846895,0.0427107027036074,-0.3186356947177992,0.0407891571521759,-0.2956360876560211,-0.9544294476509094,-0.0621769800782203,0.1053114980459213,0.0037690554745495,2024/09/23 03:19:07 PM
1633,1730433580.318922,-0.0039571225643157,-0.0012683272361755,0.0049905180931091,0.2989567123023244,-0.1178001584335911,0.1484905951191816,-0.1123148649930954,-0.2945233583450317,-0.9490212798118592,0.0394016839563846,-0.0095045659691095,0.0279058702290058,2024/09/23 03:41:27 PM
798,1730433571.9841971,-0.024358332157135,0.0282800495624542,0.0041075348854064,0.2869631191700414,0.1506476813538362,-0.3306766289299822,0.1439414769411087,-0.283040851354599,-0.948245108127594,0.145213782787323,0.3923046588897705,0.0130838342010974,2024/09/23 03:27:32 PM
1668,1730433580.66918,0.0069691836833953,-0.001565009355545,0.0136167407035827,0.3112839457523978,-0.1089689084998676,0.1520827021653336,-0.1035268157720565,-0.3062811195850372,-0.946294903755188,0.0173631981015205,-0.0141589725390076,0.0056482353247702,2024/09/23 03:42:02 PM
314,1730433567.152241,0.0130762830376625,0.0345826745033264,-0.0125799775123596,0.2882209575538288,0.0621100271466649,-0.3184694017009348,0.0595097765326499,-0.2842470109462738,-0.9569023847579956,-0.0646437406539917,0.0319291613996028,-0.0395654216408729,2024/09/23 03:19:28 PM
1829,1730433582.276264,-0.0563002005219459,-0.0070995986461639,-0.005952775478363,0.3358161455001975,-0.0921268045541362,0.0895408721442631,-0.0868577659130096,-0.3295398354530334,-0.9401378631591796,0.0269566234201192,-0.0290258042514324,-0.3459486961364746,2024/09/23 03:44:43 PM
957,1730433573.574206,0.0521442964673042,0.0394939184188842,0.0142733454704284,0.2587409296734749,0.0820383742241562,-0.3368844175593336,0.0792186260223388,-0.255863606929779,-0.9634615778923036,-0.4073487818241119,-0.7786055207252502,0.0103306584060192,2024/09/23 03:30:11 PM
1030,1730433574.29979,0.0097026005387306,0.033286765217781,0.0184293389320373,0.2445488224419971,0.0654877033989698,-0.3216160150673605,0.0634938180446624,-0.2421185970306396,-0.9681668877601624,0.0140824988484382,-0.0430718474090099,0.071590282022953,2024/09/23 03:31:24 PM
504,1730433569.050926,0.0053352639079093,0.0288440734148025,-0.0507203340530395,0.2499127877898491,0.0664322345181664,-0.3045136541735256,0.0643211156129837,-0.2473194599151611,-0.9667966961860656,-0.0363022685050964,0.0477933436632156,-0.0557047091424465,2024/09/23 03:22:38 PM
597,1730433569.9771252,0.0016885474324226,0.0157921314239501,-0.0017862319946289,0.2548864734402524,0.0644632101593302,-0.3038606357958724,0.0623373351991176,-0.2521355450153351,-0.9656820297241212,-0.0043780473060905,-0.0317978896200656,-0.0024572019465267,2024/09/23 03:24:11 PM
1228,1730433576.2786489,-0.0034404546022415,0.0174276381731033,-0.0052388906478881,0.1584864172387237,0.0404728842242761,-0.3167155759782649,0.0399547405540943,-0.157823771238327,-0.9866586327552797,-0.0139143755659461,0.000572569319047,-0.0289262011647224,2024/09/23 03:34:42 PM
1691,1730433580.9003448,-0.0117663666605949,0.0185508131980896,-0.0248315930366516,0.303044731330696,-0.1162314497942478,0.1505816169927928,-0.1106854304671287,-0.2984275817871094,-0.9479924440383912,0.085368737578392,0.1122511625289917,-0.017866251990199,2024/09/23 03:42:25 PM
2008,1730433584.063097,-0.0227508023381233,-0.0123659670352935,0.0051707029342651,0.3455761517205031,-0.098958913579485,0.11278275693375,-0.0929566174745559,-0.3387388288974762,-0.9362772703170776,0.1150134280323982,0.183769553899765,0.3470768630504608,2024/09/23 03:47:42 PM
1719,1730433581.178132,0.0014909580349922,0.0046601593494415,0.0057486891746521,0.3046704531058264,-0.1095915008120996,0.1505041800099645,-0.104335218667984,-0.2999788224697113,-0.9482229948043824,0.009888457134366,-0.0058456491678953,-0.0163877718150615,2024/09/23 03:42:53 PM
1310,1730433577.095093,0.0033273100852966,0.0157179236412048,0.0141846537590026,0.1843010505866381,0.0601507347230947,-0.287776573762468,0.0590964071452617,-0.1832594722509384,-0.9812867045402528,0.3029930889606476,0.2640902400016784,-0.2275726646184921,2024/09/23 03:36:04 PM
1092,1730433574.918635,0.0152939930558204,0.0145956873893737,0.0336315035820007,0.2250790088741225,0.0642662783860735,-0.3321382560149334,0.0626021400094032,-0.2231833785772323,-0.9727641940116882,-0.0408608801662921,-0.0852363482117652,-0.1287571340799331,2024/09/23 03:32:26 PM
1616,1730433580.151792,0.0026596784591674,-0.0103163719177246,0.0440131425857543,0.3087599036161925,-0.1070531699320267,0.1462082326679013,-0.1017960533499717,-0.3038774132728576,-0.947257161140442,0.0502806529402732,-0.0285786595195531,-0.063993901014328,2024/09/23 03:41:10 PM
1510,1730433579.091469,-0.0385817065834999,0.0367235839366912,-0.0265470147132873,0.2703991260259412,-0.0964448836721526,0.0868980916210553,-0.0927964821457862,-0.2671160697937011,-0.9591860175132751,-1.571451187133789,-0.4158986806869507,0.6633544564247131,2024/09/23 03:39:24 PM
918,1730433573.181728,0.0256531238555908,0.00879967212677,0.0234838724136352,0.2659362979391503,0.1019251407388776,-0.3488429327822775,0.0981719642877578,-0.2628127634525299,-0.959839403629303,-0.3559886813163757,-0.7999587655067444,0.1128260344266891,2024/09/23 03:29:32 PM
1862,1730433582.60642,0.0710513815283775,0.077331393957138,0.0254561901092529,0.3365478903731954,-0.09755975961015,0.1287888900568349,-0.0919406786561012,-0.3302306234836578,-0.9394118785858154,-0.0897468850016594,-0.2754608690738678,-0.2459281831979751,2024/09/23 03:45:16 PM
1853,1730433582.515019,0.0119985714554786,0.0188064575195312,0.0126853585243225,0.3404385531276929,-0.0893516967087741,0.132429453606709,-0.0841116309165954,-0.333900511264801,-0.938848078250885,-0.0166516192257404,-0.0785739123821258,0.0282854251563549,2024/09/23 03:45:07 PM
718,1730433571.186108,0.0814762413501739,-0.0181430131196975,0.0374186038970947,0.2507578282995123,0.0696835497501329,-0.3105180200590807,0.0674495548009872,-0.2481381595134735,-0.96637362241745,-0.1299645900726318,-0.169583186507225,-0.0524207130074501,2024/09/23 03:26:12 PM
647,1730433570.4762511,-0.0147695280611515,-0.0133636146783828,0.0095612406730651,0.2521477012784999,0.0517840207471579,-0.3123166201176421,0.050124142318964,-0.2494843155145645,-0.9670807123184204,-0.0061320541426539,0.0815909877419471,-0.0391939654946327,2024/09/23 03:25:01 PM
1705,1730433581.038276,0.00211613625288,0.001781553030014,0.0025650858879089,0.305459862731576,-0.1094735319898067,0.1509582626003968,-0.1041974499821662,-0.3007317781448364,-0.9479996562004088,-0.0278720501810312,-0.0060363309457898,0.0085961408913135,2024/09/23 03:42:39 PM
1503,1730433579.021975,0.0495043322443962,0.0243003070354461,0.1707313060760498,0.3860194134500072,-0.0369740854755671,0.0384919497709691,-0.0342455469071865,-0.3765037357807159,-0.9257819056510924,-1.0574482679367063,-0.4918389618396759,0.6895128488540649,2024/09/23 03:39:17 PM
1234,1730433576.3362188,0.0134428925812244,0.0185437351465225,0.0217877030372619,0.1577315318326125,0.0395330090405014,-0.3167989766809702,0.039032083004713,-0.1570783108472824,-0.9868144989013672,-0.026113798841834,-0.0604260712862014,0.0226449538022279,2024/09/23 03:34:48 PM
1477,1730433578.7677078,-0.0461998805403709,-0.0628351867198944,0.0352335572242736,0.4583055378610321,-0.0714242727365104,-0.0097080227517476,-0.0639990866184234,-0.4424291551113128,-0.8945169448852539,-0.3736763894557953,0.5498313903808594,-0.1111106574535369,2024/09/23 03:38:51 PM
1131,1730433575.3115668,-0.0618436597287654,0.021377608180046,-0.0074267387390136,0.220142434752961,0.0630552409077674,-0.3543261422322286,0.0614927187561988,-0.2183686196804046,-0.9739270210266112,-0.0468075759708881,-0.1196566373109817,-0.3264441192150116,2024/09/23 03:33:05 PM
1562,1730433579.610348,0.0244628489017486,-0.0386934578418731,0.0641433000564575,0.2991532014294463,-0.1485400837878676,0.1526501660015679,-0.1414214819669723,-0.2947111129760742,-0.9450636506080629,0.2389647513628006,-0.0304580517113208,-0.0782914087176323,2024/09/23 03:40:16 PM
1896,1730433582.945032,-0.0343252718448638,-0.05938521027565,-0.0235739946365356,0.3464771283824159,-0.0954289354898613,0.1211153983845727,-0.0896218866109848,-0.3395864069461822,-0.9362953901290894,0.0609336867928504,0.0512229613959789,-0.0040163230150938,2024/09/23 03:45:50 PM
1140,1730433575.398242,-0.0044888406991958,-0.0292919427156448,-0.0038431286811828,0.2230254213995397,0.0689167626136058,-0.3555471741341262,0.0671566948294639,-0.2211811244487762,-0.9729177355766296,-0.0567236877977848,0.0405474156141281,0.2305324673652649,2024/09/23 03:33:14 PM
493,1730433568.9388242,0.0152729526162147,0.0140550732612609,0.0154148936271667,0.2553305652222196,0.0776520574639173,-0.3066088487359249,0.0750590786337852,-0.2525652647018432,-0.9646641612052916,-0.0096311941742897,-0.0636386424303054,-0.0234853085130453,2024/09/23 03:22:27 PM
752,1730433571.524858,-0.0005524307489395,0.0065770745277404,0.0032979846000671,0.2566542213992474,0.0829988570200323,-0.3194460598811424,0.0801880657672882,-0.2538457810878753,-0.9639150500297546,0.0513171553611755,0.0819491818547248,-0.0840031430125236,2024/09/23 03:26:46 PM
1460,1730433578.592321,0.0096965581178665,0.0016910433769226,0.0168992280960083,0.4743771860059468,-0.1036424366021051,-0.0204801654344982,-0.0920329988002777,-0.4567844867706299,-0.8848038911819458,0.1492179781198501,-0.0235354304313659,0.2557602524757385,2024/09/23 03:38:34 PM
1727,1730433581.258045,0.0080601722002029,0.0045325458049774,0.0110189318656921,0.3053044917147071,-0.1096218209716173,0.1499640495766521,-0.1043431386351585,-0.3005836009979248,-0.9480305910110474,0.005151068791747,0.0024173408746719,0.0021709990687668,2024/09/23 03:43:01 PM
1208,1730433576.077433,0.0043044053018093,0.0313836187124252,-0.0131028294563293,0.1723417364465408,0.0530551600745791,-0.3170288345764685,0.0522446781396865,-0.1714898645877838,-0.9837996363639832,-0.1286022216081619,-0.0178594347089529,0.0459564551711082,2024/09/23 03:34:22 PM
40,1730433496.3005152,-0.0034612044692039,0.0083934664726257,-0.0051592588424682,0.8130407500744903,0.1596121614849023,-0.0829899814175135,0.1092351004481315,-0.7263804078102112,-0.6785566806793213,-0.0383736789226532,0.0067710764706134,-0.0029662756714969,2024/09/23 03:14:54 PM
1707,1730433581.0582662,0.0031260624527931,0.0046518743038177,0.0022400021553039,0.3049976790699651,-0.1095249037633229,0.151067549516697,-0.1042613312602043,-0.3002909719944,-0.948132336139679,-0.0258027426898479,-0.0028101778589189,0.0093403356149792,2024/09/23 03:42:41 PM
1507,1730433579.061518,0.0462953150272369,-0.0106936991214752,0.1023637652397155,0.3245807425349887,-0.0736733850788207,0.0683002590779396,-0.0697633475065231,-0.318911463022232,-0.945213496685028,-1.8405628204345703,-0.7145676612854004,0.804394543170929,2024/09/23 03:39:21 PM
1007,1730433574.070029,-0.0226754173636436,0.005287691950798,-0.0091252326965332,0.2519165860962323,0.072447800650479,-0.3376537600532059,0.0700997337698936,-0.2492605149745941,-0.9658960700035096,-0.0222025234252214,-0.0203723944723606,-0.0324464738368988,2024/09/23 03:31:01 PM
516,1730433569.168528,0.0119898542761802,0.0306389331817626,0.0078213214874267,0.2547603346747547,0.0792721261149875,-0.3075299958336204,0.0766332000494003,-0.2520134747028351,-0.9646846652030944,-0.0025831859093159,0.0136175313964486,0.005744535010308,2024/09/23 03:22:50 PM
1904,1730433583.024393,-0.0236840844154357,0.020230233669281,0.0071404576301574,0.3489226296862292,-0.0875629226302676,0.1336337295144816,-0.0821814090013504,-0.3418855667114258,-0.9361412525177002,0.1024983152747154,0.3091879487037658,0.1608073115348816,2024/09/23 03:45:58 PM
1,1730433496.0440931,-0.0019703730940818,0.0047981739044189,0.0049489736557006,0.8167418012136369,0.1629847248460434,-0.0818600384085407,0.1110859662294387,-0.7289191484451294,-0.675527036190033,0.0130066238343715,0.0150500461459159,0.007041297852993,2024/09/23 03:14:15 PM
1472,1730433578.713172,-0.0252856612205505,0.0584634542465209,0.019702136516571,0.4676585485452146,-0.0968171750188534,-0.0067357306516692,-0.0862866044044494,-0.4507974684238434,-0.8884459733963013,0.1517325937747955,0.5732909440994263,0.0585121400654315,2024/09/23 03:38:46 PM
1301,1730433577.005103,0.0131693445146083,0.0590108931064605,0.0069077014923095,0.1580877850838673,0.0381424517548614,-0.2836183035216006,0.0376576893031597,-0.1574301272630691,-0.9868118762969972,0.1469133496284485,0.080313466489315,0.0074254693463444,2024/09/23 03:35:55 PM
976,1730433573.760781,-0.0816885530948638,0.0266093462705612,-0.0090474486351013,0.2484728149721456,0.0676415571988429,-0.3362471748667552,0.0655142441391944,-0.2459239661693573,-0.9670725464820862,0.3319441378116607,0.7187418937683105,0.0138559378683567,2024/09/23 03:30:30 PM
893,1730433572.9321,-0.0187692940235137,0.0312038958072662,-0.022650122642517,0.257031958019114,0.0912085573782091,-0.3287529706509021,0.0880899876356124,-0.2542111277580261,-0.9631286859512328,0.3963772356510162,0.7814303040504456,0.1766585856676101,2024/09/23 03:29:07 PM
605,1730433570.057409,-0.0008526109158992,0.0232556164264678,-0.000897467136383,0.2549042725205332,0.0610593330815996,-0.3043555318687642,0.0590496435761451,-0.2521527707576751,-0.9658840894699096,0.0253607518970966,-0.0483558252453804,-0.0098175937309861,2024/09/23 03:24:19 PM
1483,1730433578.822032,-0.0445794761180877,0.0258304774761199,-0.0668104887008667,0.4388443926983849,-0.0275536228714659,-0.0244376838427838,-0.0249395761638879,-0.4248936474323272,-0.9048996567726136,-0.2116363942623138,0.7176896333694458,-0.210913747549057,2024/09/23 03:38:57 PM
415,1730433568.159667,0.0340296328067779,0.0344899594783782,-0.0098036527633667,0.2578107232698345,0.0750875766677367,-0.301038645910028,0.0725377574563026,-0.2549642324447632,-0.9642258882522584,-0.0236471612006425,0.0313283503055572,-0.0221182014793157,2024/09/23 03:21:09 PM
1051,1730433574.509436,0.0059364587068557,-0.0052875280380249,0.007680594921112,0.2374465079958323,0.0657952491569952,-0.3333043515461836,0.0639030188322067,-0.2352215498685836,-0.9698387384414672,-0.0015915208496153,0.0147930504754185,0.0246668271720409,2024/09/23 03:31:45 PM
1010,1730433574.099546,-0.0174833834171295,0.0055386126041412,-0.0188016295433044,0.2523647817369511,0.0743480479988424,-0.3380283056211153,0.0719267427921295,-0.2496945261955261,-0.9656496047973632,0.0523840337991714,0.1265941560268402,0.006877017673105,2024/09/23 03:31:04 PM
885,1730433572.8560882,-0.063215360045433,0.0521086156368255,-0.0012487173080444,0.2369208285774588,0.0534886201078903,-0.3400911697024231,0.0519696436822414,-0.2347105890512466,-0.9706750512123108,-0.0204627737402915,-0.0341420024633407,0.0120782246813178,2024/09/23 03:28:59 PM
1289,1730433576.885081,0.005198935046792,0.0672468990087509,0.0267360806465148,0.1460585467337394,0.0248533828436452,-0.2826718714618602,0.0245862230658531,-0.145539790391922,-0.98904687166214,0.1752682328224182,0.2658385932445526,0.5069618225097656,2024/09/23 03:35:43 PM
1760,1730433581.58737,-0.0007651969790458,0.0012401342391967,0.0072038173675537,0.3167199909271426,-0.1070159609398666,0.1494073800521861,-0.1014992147684097,-0.3114513754844665,-0.9448258876800536,0.2186761200428009,0.1216848790645599,-0.0075290324166417,2024/09/23 03:43:34 PM
1520,1730433579.1905751,0.1352361142635345,-0.0927779823541641,0.0421250462532043,0.1240315179374317,-0.1186006770327389,0.1258088718765525,-0.1174138709902763,-0.1237137466669082,-0.9853470921516418,-1.8435499668121336,-0.1795796304941177,0.5908790230751038,2024/09/23 03:39:34 PM
1389,1730433577.883527,-0.0056224577128887,0.0251313149929046,-0.0045308470726013,0.1509943706711193,0.0334599079748857,-0.3293000947022246,0.0330730304121971,-0.1504212617874145,-0.9880686402320862,0.3891245126724243,0.0416374467313289,-0.1114310398697853,2024/09/23 03:37:23 PM
304,1730433567.051906,0.01252206787467,0.0430734455585479,0.030982494354248,0.2941379515044758,0.0550226234974707,-0.3165507888531567,0.0526329688727855,-0.2899149358272552,-0.955604076385498,-0.0910758674144744,0.0712283626198768,0.043815329670906,2024/09/23 03:19:18 PM
1068,1730433574.678611,-0.0261760130524635,0.0566774308681488,-0.0018752813339233,0.2282401362028517,0.0537800816506358,-0.3193645569418633,0.0523601062595844,-0.2262636572122573,-0.9726577997207642,0.0508057810366153,-0.0188485328108072,-0.2453938424587249,2024/09/23 03:32:02 PM
1646,1730433580.449152,0.0242001339793205,-0.0006833970546722,0.0371153354644775,0.3081722417370754,-0.1095244764027451,0.1490776390874412,-0.1041562035679817,-0.3033174872398376,-0.9471800327301024,0.0091366451233625,-0.0184458643198013,0.0070570474490523,2024/09/23 03:41:40 PM
406,1730433568.069979,-0.0139587447047233,0.0475557148456573,-0.0307685136795043,0.2574679616682929,0.0709034904667685,-0.296415523843,0.0685089230537414,-0.2546328008174896,-0.9646080136299132,-0.0090305097401142,-0.0568004436790943,-0.0626621693372726,2024/09/23 03:21:00 PM
58,1730433564.6158972,0.0230152308940887,0.0985243022441864,-0.0114464163780212,0.4233598842745255,-0.1891989400279056,0.0404853893398928,-0.1714680045843124,-0.410826027393341,-0.895444393157959,0.0857168659567833,-0.0023201561998575,0.0023254626430571,2024/09/23 03:15:12 PM
1839,1730433582.37621,-0.0090350657701492,0.0053415596485137,0.0054181218147277,0.338263172541879,-0.0899900256959922,0.0967593043556091,-0.0847759842872619,-0.3318491876125335,-0.9395154118537904,0.1320566684007644,0.2106267362833023,0.5382317304611206,2024/09/23 03:44:53 PM
137,1730433565.385218,0.019966073334217,0.1279359012842178,0.0253055691719055,0.1626796403884616,0.0030076134147779,-0.6851325375262574,0.0029678989667445,-0.1619630455970764,-0.9867923855781556,-1.341728448867798,-0.5653063058853149,-1.8580985069274905,2024/09/23 03:16:31 PM
1247,1730433576.465527,-0.0031583830714225,0.0029186457395553,-0.0227203369140625,0.1547965151758636,0.0348781963148522,-0.3141968723752313,0.0344541668891906,-0.1541790515184402,-0.9874420166015624,-0.0155987162142992,0.0873769745230674,-0.0059947855770587,2024/09/23 03:35:01 PM
877,1730433572.773017,0.0635037347674369,-0.0485309362411499,0.0301740169525146,0.2659644750064807,0.1020916182346566,-0.33756161649846,0.0983310043811798,-0.2628399431705475,-0.9598156809806824,-0.6365898251533508,-1.1531919240951538,-0.2951087057590484,2024/09/23 03:28:51 PM
361,1730433567.6213531,0.0025067068636417,0.0427705943584442,0.0011898279190063,0.2710847487167808,0.0621012661597541,-0.2975287222399331,0.0597949400544166,-0.2677767276763916,-0.9616237282752992,0.0150066334754228,0.0215726587921381,0.012151195667684,2024/09/23 03:20:15 PM
990,1730433573.900593,0.0276392102241516,-0.0029795467853546,0.028626799583435,0.2806270814156293,0.1292516405320424,-0.3268354686674461,0.1238500550389289,-0.2769582569599151,-0.9528669118881226,-0.074256382882595,-0.1548628211021423,0.0205145869404077,2024/09/23 03:30:44 PM
460,1730433568.609704,-0.0821057483553886,0.0743005871772766,-0.0511279702186584,0.2547982968745369,0.0712345382283116,-0.3018935297223138,0.0688763856887817,-0.2520502209663391,-0.9652599096298218,0.1199467703700065,0.1563445925712585,-0.0309695396572351,2024/09/23 03:21:54 PM
208,1730433566.097471,-0.0115221515297889,0.2191057950258255,-0.001474916934967,-0.1890153647873397,-0.1079150140014019,-0.7765472170376835,-0.1057874113321304,0.187891885638237,-0.9764761328697203,3.900123119354248,-0.1095073297619819,-0.4447620213031769,2024/09/23 03:17:42 PM
268,1730433566.693294,-0.0369777157902717,-0.0186157524585723,-0.016091763973236,0.310427481254765,0.0128741700757175,-0.373267489118975,0.0122584858909249,-0.3054657280445099,-0.9521241784095764,0.0145849455147981,0.2690085768699646,0.545204222202301,2024/09/23 03:18:42 PM
608,1730433570.0867472,0.0021238476037979,0.0249240100383758,-0.0027335882186889,0.2554615581530909,0.0597874334358808,-0.3047016012165012,0.0578126795589923,-0.2526920139789581,-0.9658179879188538,0.0253649652004241,-0.049201913177967,-0.0097041428089141,2024/09/23 03:24:22 PM
1177,1730433575.7672029,0.0597359091043472,-0.0300124883651733,0.0338807106018066,0.2183461668607589,0.071303759050548,-0.341334851171362,0.0695518255233764,-0.2166153490543365,-0.9737763404846193,-0.2567857205867767,-0.1204358786344528,0.4316210746765136,2024/09/23 03:33:51 PM
1219,1730433576.1860929,0.0179273411631584,-0.0336220562458038,-0.0026877522468566,0.1614912229518088,0.0421425879048929,-0.3142892096961859,0.0415819436311721,-0.160790205001831,-0.9861122965812684,-0.139884278178215,-0.0893250927329063,-0.0021771972533315,2024/09/23 03:34:33 PM
346,1730433567.4715018,-0.0139214433729648,0.0266359746456146,-0.0327576398849487,0.2762767961869945,0.0561963536594734,-0.3022809834863607,0.0540368072688579,-0.2727755308151245,-0.9605589509010316,0.0544082410633564,0.0101453019306063,0.0726782381534576,2024/09/23 03:20:00 PM
1848,1730433582.4655209,0.0734494403004646,-0.1660423874855041,0.0618228316307067,0.3479556902157622,-0.0807841691303343,0.1321921503948102,-0.0758603438735008,-0.3409767150878906,-0.9370059370994568,-0.3043390214443207,-0.3575128614902496,-0.0499348640441894,2024/09/23 03:45:02 PM
288,1730433566.892301,-0.0306494198739528,0.0170435905456542,-0.0204183459281921,0.3006031659759468,0.0363617066045022,-0.3190406290320345,0.0347235240042209,-0.2960963845252991,-0.954526662826538,0.0317542031407356,0.1542950123548507,0.0035591984633356,2024/09/23 03:19:02 PM
265,1730433566.663585,-0.0247054770588874,0.0374296605587005,-0.0312815904617309,0.3084088894196039,0.0112278925414069,-0.3913725968899789,0.0106979105621576,-0.3035429716110229,-0.952757716178894,0.0758593454957008,0.1960842758417129,0.608224093914032,2024/09/23 03:18:39 PM
1242,1730433576.417776,0.0098776295781135,-0.0329599380493164,-0.0302942395210266,0.1572163680824558,0.0334024043735679,-0.314512930726503,0.0329843163490295,-0.1565695106983184,-0.987116038799286,-0.1462547779083252,-0.1250956058502197,0.0117840524762868,2024/09/23 03:34:56 PM
1587,1730433579.860072,0.0048384144902229,0.0064114034175872,0.0152575373649597,0.3178105603773404,-0.1215294020854326,0.1464131482047143,-0.1151594743132591,-0.3124875128269195,-0.9429156184196472,-0.0001221320126205,0.0976900607347488,0.0450786799192428,2024/09/23 03:40:41 PM
512,1730433569.128391,-0.007355123758316,0.0270235836505889,0.0164075493812561,0.2546825248098168,0.078587115084114,-0.3078537421704636,0.0759738981723785,-0.2519381940364837,-0.9647564888000488,-0.0300608202815055,0.0019257214153185,0.022452462464571,2024/09/23 03:22:46 PM
478,1730433568.789493,-0.0068871676921844,0.002219021320343,-0.0045083165168762,0.2560294416459546,0.0782878132678037,-0.3032125383451692,0.0756585374474525,-0.2532414197921753,-0.9644400477409364,0.0408435724675655,0.029246823862195,-0.0246295630931854,2024/09/23 03:22:12 PM
1045,1730433574.449513,-0.017489843070507,-0.024219587445259,0.0326845645904541,0.2383299770251344,0.0645232030011368,-0.3327017365979394,0.0626558661460876,-0.236080139875412,-0.9697114825248718,-0.0189599208533763,0.0184732712805271,-0.072747454047203,2024/09/23 03:31:39 PM
555,1730433569.557479,0.0187497064471244,0.0465437173843383,0.0070491433143615,0.2593094417888943,0.0812516345996079,-0.3114436357996872,0.0784487873315811,-0.2564131319522857,-0.9633784890174866,-0.0228200629353523,0.0147962467744946,-0.0212577879428863,2024/09/23 03:23:29 PM
1044,1730433574.4431071,-0.0214378498494625,-0.0035866945981979,0.0319685339927673,0.2386942424329895,0.0643516806289315,-0.3318654307953428,0.0624840036034584,-0.2364340871572494,-0.9696363806724548,-0.0425073876976966,-0.0176096316426992,-0.0966712161898613,2024/09/23 03:31:38 PM
349,1730433567.501826,-0.0276207029819488,0.0175158977508544,-0.0261396765708923,0.2762499421272769,0.0569710529143366,-0.3013560912697067,0.0547813512384891,-0.2727496922016144,-0.9605241417884828,0.0159127824008464,0.0508469231426715,0.0127265444025397,2024/09/23 03:20:03 PM
1065,1730433574.648508,-0.0100696682929992,0.02360799908638,0.0113773345947265,0.2284870573218176,0.0543080286391914,-0.3182979516841019,0.052870575338602,-0.2265041619539261,-0.9725741744041444,-0.0822171866893768,-0.127728670835495,0.1093574240803718,2024/09/23 03:31:59 PM
165,1730433565.664609,0.0222733914852142,0.1778427958488464,-0.0750637054443359,-0.4119247318474389,-0.0889490571692404,-0.827186023897793,-0.0814011991024017,0.4003737866878509,-0.912729263305664,-1.2096418142318726,-0.1314283460378646,0.336005836725235,2024/09/23 03:16:59 PM
1964,1730433583.623906,0.0034259036183357,-0.0149166882038116,0.0165707468986511,0.3474066849792477,-0.1001583034107245,0.1439165250675529,-0.0940173491835594,-0.3404605686664581,-0.935546576976776,0.0175078716129064,-0.0428366921842098,0.0558255463838577,2024/09/23 03:46:58 PM
1819,1730433582.176408,0.0222423151135444,0.0289726853370666,0.0211949348449707,0.3443304445959121,-0.0845023031149204,0.1353241241331911,-0.0794475302100181,-0.3375664949417114,-0.937942922115326,0.0883486568927764,0.2061912417411804,0.4314663112163543,2024/09/23 03:44:33 PM
1550,1730433579.490874,0.0137233585119247,-0.0571230351924896,-0.0027682185173034,0.2334750451447105,-0.1586113127431104,0.1552673864998598,-0.1536617279052734,-0.2313596755266189,-0.960656464099884,0.3394117057323456,0.0851713418960571,-0.0270411614328622,2024/09/23 03:40:04 PM
1412,1730433578.113916,-0.0064581409096717,0.1152489483356475,0.013687789440155,0.2545711487043415,0.0694340943326547,-0.3269659689125,0.0671423524618148,-0.2518303990364074,-0.9654394388198853,0.278628796339035,0.1734399497509002,0.4617347121238708,2024/09/23 03:37:46 PM
2046,1730433584.442471,-0.0425227060914039,-0.0446869432926178,-0.0297538638114929,0.3379450405869904,-0.1010016312988475,0.0902859209882214,-0.0951268449425697,-0.3315490782260895,-0.9386299252510072,0.0379024967551231,0.031526755541563,-0.0972860306501388,2024/09/23 03:48:20 PM
1653,1730433580.519156,-0.0010803490877151,0.0036192238330841,0.0002266764640808,0.3086042662634422,-0.1099620499112543,0.1509048167632892,-0.1045562624931335,-0.3037291467189789,-0.9470040202140808,0.023048372939229,0.0131104653701186,0.050235092639923,2024/09/23 03:41:47 PM
593,1730433569.9372358,-0.0040016025304794,0.0325446724891662,-0.0149033665657043,0.2564461870902789,0.06587923250577,-0.3039570427914942,0.0636787340044975,-0.2536445558071136,-0.9651991724967957,-0.0225733444094657,-0.0347686447203159,0.0034504882059991,2024/09/23 03:24:07 PM
2031,1730433584.292542,-0.0094227120280265,0.0116108357906341,0.0091673135757446,0.3427612832650977,-0.0994525535940149,0.1113068179462948,-0.093513086438179,-0.3360890448093414,-0.9371763467788696,0.1200393810868263,0.2125758975744247,0.4823173582553863,2024/09/23 03:48:05 PM
446,1730433568.470015,-0.0007470250129699,0.0195977389812469,-0.000593364238739,0.2557917425640109,0.0791625814587672,-0.3022070875219333,0.0765069276094436,-0.2530114650726318,-0.9644334316253662,0.0385489463806152,-0.0064927972853183,-0.0249104723334312,2024/09/23 03:21:40 PM
125,1730433565.265322,-0.1012512817978859,0.0408651530742645,0.0056661963462829,0.2902544133094608,-0.0380122933738133,-0.4079290957940947,-0.0364135093986988,-0.2861959934234619,-0.957478940486908,-0.6121666431427002,0.1328818798065185,-2.18666672706604,2024/09/23 03:16:19 PM
1847,1730433582.455848,0.1391396969556808,-0.2088257670402526,-0.016669750213623,0.3508488164842906,-0.077578256624833,0.1328683221027846,-0.0727792382240295,-0.3436950445175171,-0.9362568855285645,-0.2721387445926666,-0.3040355145931244,-0.0018925052136182,2024/09/23 03:45:01 PM
801,1730433572.013506,-0.0026250183582305,0.0343977212905883,0.0093892216682434,0.2907982999188028,0.1618124081301148,-0.3324284869207029,0.1543431729078292,-0.2867170870304107,-0.945500671863556,0.1414172947406768,0.3659580051898956,-0.0592107102274894,2024/09/23 03:27:35 PM
403,1730433568.0410051,0.0143032297492027,-0.0130164921283721,0.0085536241531372,0.2584201755917822,0.0724692462278013,-0.2948363844445438,0.0700015872716903,-0.2555535137653351,-0.9642572999000548,-0.2871334552764892,-0.9102964401245116,-0.1094600781798362,2024/09/23 03:20:57 PM
32,1730433496.2204962,-0.0007867068052291,0.0062230825424194,0.0017341971397399,0.8158591623235085,0.1616441300669029,-0.0821970963695596,0.1102837547659874,-0.7283145785331726,-0.6763100624084473,0.0183504149317741,-0.0585655868053436,-0.0232939720153808,2024/09/23 03:14:46 PM
231,1730433566.323944,-0.0585341714322567,0.0933105945587158,0.0107813477516174,0.2652169212883586,0.0006023579400064,-0.6517465015666726,0.000581296859309,-0.2621186077594757,-0.9650354981422424,0.3714308738708496,0.4832873046398163,0.8906371593475342,2024/09/23 03:18:05 PM
1179,1730433575.787352,0.1094852089881897,0.0535933822393417,0.0462849736213684,0.2141779184070748,0.0642832960351215,-0.3322384764254218,0.0627712607383728,-0.2125442028045654,-0.975133180618286,-0.2208134084939956,-0.3487238883972168,0.2488150149583816,2024/09/23 03:33:53 PM
1885,1730433582.838275,0.1175860911607742,0.089747667312622,0.0359732508659362,0.3470542426126792,-0.0853092820048977,0.1359609142753133,-0.0801257640123367,-0.3401291668415069,-0.936958909034729,-0.248240128159523,-0.5492628812789917,-0.1600362956523895,2024/09/23 03:45:39 PM
62,1730433564.635706,0.0243815183639526,0.0709026753902435,-0.0245046615600585,0.4228208278468263,-0.1883099362094346,0.0405170404136916,-0.1707133203744888,-0.4103344976902008,-0.8958138823509216,0.0408560894429683,-0.022760983556509,-0.0014585165772587,2024/09/23 03:15:16 PM
169,1730433565.704782,0.0088384971022605,0.1259922981262207,-0.0309454798698425,-0.4432169211993608,-0.0885093005175047,-0.8173622669588616,-0.0798528939485549,0.4288477599620819,-0.8998405933380127,-0.5685298442840576,-0.0441174060106277,0.2576431334018707,2024/09/23 03:17:03 PM
508,1730433569.088336,-0.0818004608154296,0.0995535850524902,-0.018704354763031,0.2554603398783079,0.0768132484131025,-0.3066146662237765,0.0742473676800727,-0.2526908218860626,-0.964694082736969,0.0901331976056099,0.1493348777294159,-0.0488099455833435,2024/09/23 03:22:42 PM
1675,1730433580.738692,0.0028726980090141,-0.0069012641906738,0.0141165852546691,0.3105512172924899,-0.1093870126582862,0.1523593723141864,-0.1039469316601753,-0.3055835366249084,-0.9464743733406068,-0.0262044891715049,-0.0054262010380625,-0.0045122038573026,2024/09/23 03:42:09 PM
215,1730433566.164086,-0.0161386877298355,0.1011604070663452,0.0981406569480896,0.1048620271193172,-0.0697037412303733,-0.7691768288909389,-0.0692647397518158,-0.1046699583530426,-0.9920920133590698,3.059229612350464,0.8833305239677429,0.1426683515310287,2024/09/23 03:17:49 PM
1004,1730433574.040756,-0.0588394254446029,0.0358358323574066,-0.0176206827163696,0.2537447650168946,0.0754070409337753,-0.3359922704197813,0.0729232877492904,-0.2510305643081665,-0.9652283787727356,-0.1034688204526901,-0.236994981765747,-0.0901107788085937,2024/09/23 03:30:58 PM
1583,1730433579.820014,-0.0152189657092094,0.0264394581317901,0.0015084743499755,0.318590654194357,-0.1244347701730795,0.1451345193721037,-0.1178682073950767,-0.3132284581661224,-0.9423348903656006,-0.0104484129697084,0.0977606400847435,0.0186763126403093,2024/09/23 03:40:37 PM
1060,1730433574.644302,0.0184267312288284,0.024747222661972,0.0027004480361938,0.2368869694423398,0.065069601440775,-0.326707563979145,0.0632077902555465,-0.2346776723861694,-0.970016062259674,-0.1337300986051559,-0.0925680249929428,0.1639189422130584,2024/09/23 03:31:54 PM
321,1730433567.2218351,0.0412198677659034,0.0677308738231659,0.0075564384460449,0.2838852605177648,0.063967171323272,-0.3208035692205698,0.0613649822771549,-0.2800875008106231,-0.9580111503601074,0.0147598050534725,-0.000949160894379,-0.0355477258563041,2024/09/23 03:19:35 PM
364,1730433567.6510038,-0.0040401518344879,0.0351625382900238,-0.0035263299942016,0.271106877448744,0.0625309566983445,-0.2972485940619585,0.060207761824131,-0.2677980363368988,-0.9615920186042786,0.0137867163866758,0.0242880173027515,0.0091721303761005,2024/09/23 03:20:18 PM
65,1730433564.665726,0.0251536816358566,0.0675249397754669,-0.03797447681427,0.4209749752856778,-0.1873625844901535,0.0400610633528353,-0.1700053811073303,-0.4086504876613617,-0.89671790599823,0.0529180467128753,-0.0036882220301777,-0.0117060411721467,2024/09/23 03:15:19 PM
1729,1730433581.277288,0.011447362601757,0.0005941987037658,0.0106669068336486,0.3055268368161633,-0.109725848356842,0.1500380381580343,-0.1044344380497932,-0.3007956445217132,-0.9479532837867736,0.0229247398674488,-0.0053457738831639,0.0015369005268439,2024/09/23 03:43:03 PM
226,1730433566.274026,-0.0148268733173608,0.1461445093154907,-0.0043603181838989,0.2417228608512528,-0.0152810458440783,-0.6958686376295194,-0.0148362023755908,-0.2393757551908493,-0.9708136320114136,0.5669031143188477,0.5035486221313477,0.7848184704780579,2024/09/23 03:18:00 PM
703,1730433571.036779,0.0261798575520515,0.0163406729698181,0.0547872185707092,0.2542077063974526,0.0684009003812925,-0.3125825137685151,0.0661510825157165,-0.2514786422252655,-0.9655995965003968,-0.039612453430891,-0.0877791345119476,0.0042593968100845,2024/09/23 03:25:57 PM
1260,1730433576.595931,0.010693471878767,0.0263518393039703,0.0355926156044006,0.149944724095242,0.0423300108131705,-0.3138382534738979,0.0418425425887107,-0.149383470416069,-0.9878935813903807,0.1251329034566879,-0.020406749099493,-0.0399000234901905,2024/09/23 03:35:14 PM
1561,1730433579.603562,0.0190702378749847,-0.0564056634902954,0.0632961988449096,0.2962038631954196,-0.1484949110836267,0.1529545204155099,-0.1415067762136459,-0.291891485452652,-0.9459255933761596,0.3416533172130584,0.0060834484174847,-0.0696142986416816,2024/09/23 03:40:15 PM
1716,1730433581.148161,-0.0001273304224014,0.0086927711963653,-0.0014646649360656,0.3045789550033543,-0.1096678731601431,0.1508568631147295,-0.1044106408953666,-0.2998915314674377,-0.9482423067092896,0.0036586488131433,0.0029595606029033,-0.0028481008484959,2024/09/23 03:42:50 PM
13,1730433496.057294,-0.0038029477000236,0.0045647025108337,0.0067386627197265,0.8170695314172122,0.1631573506230787,-0.0817515945290472,0.1111637651920318,-0.7291434407234192,-0.6752720475196838,-0.000790117541328,0.0013574028853327,-0.001961518311873,2024/09/23 03:14:27 PM
254,1730433566.552644,0.0293178763240575,0.1589613556861877,0.0175098180770874,0.2983948774208886,0.0249008174144868,-0.4790607020810817,0.0237979814410209,-0.2939863801002502,-0.9555132985115052,0.0521364547312259,0.0662349388003349,0.8044581413269043,2024/09/23 03:18:28 PM
1296,1730433576.9553242,-0.0002388656139373,0.0308127403259277,-7.045269012451172e-05,0.1510150168387454,0.0317949935050771,-0.275749181264594,0.0314278341829776,-0.1504416763782501,-0.9881192445755004,0.1259008944034576,0.1245435178279876,-0.1889159232378006,2024/09/23 03:35:50 PM
1171,1730433575.710277,0.0170167163014411,-0.010652020573616,-0.0097865462303161,0.2163742287391629,0.0703273475406659,-0.3663427673106094,0.0686308667063713,-0.2146898210048675,-0.9742679595947266,0.0247896574437618,0.1162911802530288,0.3628558218479156,2024/09/23 03:33:45 PM
1148,1730433575.477903,0.0269908681511878,0.0466603487730026,0.0117043852806091,0.2212047073619895,0.0701104056839557,-0.3310458590348106,0.0683460608124733,-0.2194051295518875,-0.9732369780540466,-0.0247215144336223,0.0292164646089077,0.1005691513419151,2024/09/23 03:33:22 PM
641,1730433570.417674,-0.0270909294486045,0.0018077939748764,-0.1117826700210571,0.2433065098075445,0.0417918980866212,-0.3076192877212838,0.0405491814017295,-0.2409130632877349,-0.9696992635726928,0.1497811675071716,0.1506853699684143,-0.0316164195537567,2024/09/23 03:24:55 PM
548,1730433569.488533,-0.0781366527080535,0.0753514170646667,-0.069593608379364,0.2559001199625256,0.0751119706505325,-0.3075589634994374,0.0725977048277854,-0.2531163096427917,-0.9647080898284912,0.3956515491008758,0.3534533977508545,-0.0079885879531502,2024/09/23 03:23:22 PM
1415,1730433578.142792,0.015480101108551,0.0995215773582458,0.0212325453758239,0.2648855971387156,0.0704214823652581,-0.3124380509906662,0.0679091960191726,-0.2617988586425781,-0.962730348110199,0.3257293403148651,0.1386284381151199,0.5379667282104492,2024/09/23 03:37:49 PM
800,1730433572.005209,-0.0162858963012695,0.0201264023780822,0.0104801058769226,0.2895834872742102,0.1581128927464248,-0.3315450341125967,0.1508989483118057,-0.2855530679225921,-0.9464084506034852,0.1453151404857635,0.3557029962539673,-0.0648612454533577,2024/09/23 03:27:34 PM
776,1730433571.764022,-0.0034402608871459,0.0169351994991302,0.0016591548919677,0.2759477328068437,0.1193900972236543,-0.3330915525691688,0.1146005541086196,-0.2724589407444,-0.9553182125091552,0.0265763904899358,0.0260933749377727,0.0004119280492886,2024/09/23 03:27:10 PM
547,1730433569.477604,-0.0081773847341537,0.0130167007446289,-0.0620391368865966,0.2521927886482841,0.0716292051340225,-0.3072155323659178,0.0693041011691093,-0.2495279759168625,-0.9658844470977784,0.3021716773509979,0.2976157069206238,-0.0088802138343453,2024/09/23 03:23:21 PM
1774,1730433581.7270288,0.0409335270524024,-0.0802035331726074,0.0494554638862609,0.329133999183329,-0.0938783916615582,0.1369429622168439,-0.0887088105082511,-0.3232236206531524,-0.942155659198761,-0.1018969118595123,-0.132246196269989,-0.3619703352451324,2024/09/23 03:43:48 PM
744,1730433571.444363,-0.008299633860588,0.0219281315803527,-0.0015029907226562,0.2538479545849318,0.0764497280923109,-0.3161500567309896,0.0739277005195617,-0.25113046169281,-0.9651259779930116,0.0401674583554267,0.0513129793107509,0.062168501317501,2024/09/23 03:26:38 PM
1721,1730433581.198184,2.5779008865356445e-06,0.0100502669811248,0.005218505859375,0.3049302999071506,-0.1096883190857676,0.1502560467128754,-0.1044184863567352,-0.3002266883850097,-0.9481353759765624,0.0177046135067939,-0.0062856031581759,-0.0149479070678353,2024/09/23 03:42:55 PM
1651,1730433580.500802,0.0077873617410659,-0.0196155309677124,0.0147106647491455,0.3086088656104974,-0.1099163618589132,0.149815592099379,-0.1045128405094146,-0.3037335276603699,-0.947007417678833,-0.0071975868195295,0.0042224312201142,0.0460071116685867,2024/09/23 03:41:45 PM
1203,1730433576.028027,0.0116937570273876,0.0137438476085662,0.0315412282943725,0.1795632054982662,0.0552003536857464,-0.3194553321159434,0.0542852543294429,-0.1785998195409774,-0.9824231266975404,-0.1265494227409362,-0.0511441566050052,0.0186644364148378,2024/09/23 03:34:17 PM
1040,1730433574.399591,0.0564504861831665,0.0191262811422348,0.0101949572563171,0.242143007874373,0.0660995598746175,-0.3233286884716229,0.064124472439289,-0.2397836595773697,-0.9687063097953796,-0.0693884119391441,-0.1426879167556762,-0.3956673443317413,2024/09/23 03:31:34 PM
861,1730433572.612753,0.0207239836454391,-0.0032202303409576,0.0313036441802978,0.2919878379253183,0.1653071288738293,-0.3265962903030036,0.157590240240097,-0.2878564894199371,-0.9446184039115906,0.0662727504968643,0.1383442878723144,-0.0315500535070896,2024/09/23 03:28:35 PM
395,1730433567.960787,0.0194445177912712,0.0394181609153747,-0.0275576710700988,0.2609676774581319,0.0728677210456237,-0.2943491394363249,0.0703381896018982,-0.2580155730247497,-0.9635769128799438,-0.0015318326186388,0.0653496980667114,0.0164980068802833,2024/09/23 03:20:49 PM
363,1730433567.641084,-0.0007038190960884,0.0411567389965057,-0.000596284866333,0.2711042977298665,0.0622825760515152,-0.2973098749672229,0.059968963265419,-0.2677955627441406,-0.9616076350212096,0.0223458502441644,0.0139450998976826,0.009870677255094,2024/09/23 03:20:17 PM
1789,1730433581.876422,-0.0235893204808235,0.0155436992645263,0.0062190890312194,0.3290354824223307,-0.0911941525046814,0.1032934957027865,-0.0861824229359626,-0.3231303989887237,-0.942422091960907,0.1212949380278587,0.0541668199002742,-0.055561751127243,2024/09/23 03:44:03 PM
315,1730433567.1636,0.022506508976221,0.0410145819187164,-0.0148926973342895,0.287194927799972,0.0625212649151151,-0.31883151499268,0.0599214769899845,-0.2832631468772888,-0.957168459892273,-0.0575651638209819,0.0331369042396545,-0.0395574308931827,2024/09/23 03:19:29 PM
790,1730433571.903689,-0.0104732140898704,0.0075214803218841,-0.0010022521018981,0.2779792285779437,0.1284127239712356,-0.3334516553907415,0.123144119977951,-0.2744130194187164,-0.9536944031715392,0.0434237979352474,0.1602996438741684,0.0177696663886308,2024/09/23 03:27:24 PM
201,1730433566.023584,-0.0337702706456184,0.1428532898426056,-0.0140383243560791,-0.4206347893554486,-0.1211157110241838,-0.7820360428325369,-0.1102879494428634,0.4083399772644043,-0.9061429500579834,1.9334871768951416,-0.2504473924636841,-0.165672481060028,2024/09/23 03:17:35 PM
498,1730433568.99349,0.0392476841807365,-0.0529282987117767,0.043386697769165,0.2530473530912443,0.0711544246958305,-0.307202848180548,0.0688303261995315,-0.2503554224967956,-0.9657042026519777,0.0129314493387937,-0.1411864310503006,0.0758343040943145,2024/09/23 03:22:32 PM
716,1730433571.164733,-0.0764228254556655,0.0435868948698043,0.00862318277359,0.2515223285701313,0.0705196344631755,-0.3093707949801484,0.0682441145181655,-0.2488786727190017,-0.9661273956298828,0.1049180701375007,0.1219099164009094,-0.0224814563989639,2024/09/23 03:26:10 PM
1673,1730433580.7185612,0.009009875357151,-0.0122388899326324,0.0148578286170959,0.310906878430916,-0.1092900177037554,0.1523514815817446,-0.1038432642817497,-0.3059221506118774,-0.946376383304596,-0.0120359547436237,-0.0104353399947285,0.0078444369137287,2024/09/23 03:42:07 PM
111,1730433565.127145,-0.0754249989986419,0.007317692041397,0.0255060791969299,0.3983051074501318,-0.1153262993693885,-0.1667505503248823,-0.1060630455613136,-0.3878566920757293,-0.9155969619750975,-0.2932378053665161,-0.1405179798603058,-1.1405998468399048,2024/09/23 03:16:05 PM
1595,1730433579.9395509,-0.000970534980297,0.0085266530513763,-0.0224570631980896,0.3134545127824929,-0.1170311738862766,0.1486597450653233,-0.111074760556221,-0.3083466589450836,-0.9447670578956604,0.0297745931893587,0.0838019475340843,-0.0037857466377317,2024/09/23 03:40:49 PM
462,1730433568.630703,-0.012510746717453,-0.0048262178897857,-0.0212401151657104,0.2561285347600276,0.0736951802350454,-0.3026624325560438,0.0712265819311142,-0.2533372938632965,-0.9647523164749146,0.0421967394649982,0.0866480618715286,-0.029974952340126,2024/09/23 03:21:56 PM
1667,1730433580.658855,0.0078292116522789,0.0022298991680145,0.01176518201828,0.3111829817104665,-0.1088744593314823,0.1519979023578876,-0.1034407988190651,-0.3061850070953369,-0.9463354349136353,0.0232386626303195,-0.0058760093525052,0.0073047215119004,2024/09/23 03:42:01 PM
619,1730433570.196579,-0.0148783102631568,-0.0051854401826858,-0.0566365122795105,0.2493591617358738,0.0475397367714764,-0.3019344449835209,0.0460520200431346,-0.2467829883098602,-0.967975914478302,0.2477221637964248,0.4138645529747009,-0.127726599574089,2024/09/23 03:24:33 PM
1292,1730433576.915347,0.0200303196907043,-0.0008359253406524,0.0211960673332214,0.1495006566531224,0.0282622880007301,-0.273770175908499,0.0279433187097311,-0.1489443778991699,-0.9884507060050964,0.0057641752064228,0.0642064064741134,0.1297914832830429,2024/09/23 03:35:46 PM
1576,1730433579.75032,0.0054483860731124,-0.0117533802986145,0.0078678131103515,0.3110482012497874,-0.1373429015254219,0.1452252521922673,-0.1303415894508361,-0.3060567080974579,-0.9430484771728516,0.1315009742975235,0.2521148025989532,-0.0836990624666214,2024/09/23 03:40:30 PM
735,1730433571.354835,0.0169671922922134,0.0095024406909942,0.0178611874580383,0.2537008812447923,0.0781561300232933,-0.3188536669695357,0.0755773708224296,-0.250988095998764,-0.9650352597236632,0.0378700904548168,0.0305270049721002,-0.0252119954675436,2024/09/23 03:26:29 PM
1924,1730433583.2246308,-0.0495578795671463,-0.041595309972763,-0.0157530307769775,0.3442373093313175,-0.1011947307812672,0.1107592773000366,-0.0950954556465148,-0.3374788165092468,-0.9365174174308776,0.0281459912657737,0.0470713600516319,-0.0411528795957565,2024/09/23 03:46:18 PM
400,1730433568.011306,0.0174451470375061,0.0085061490535736,-0.0175326466560363,0.2589016891689514,0.0736669724300094,-0.2935256609061732,0.0711473897099495,-0.2560189962387085,-0.9640499353408812,0.0220334306359291,0.0441900864243507,0.0337149687111377,2024/09/23 03:20:54 PM
1378,1730433577.7736812,-0.0056850500404834,0.018634483218193,0.0042842030525207,0.1346415350326942,0.0314416681791767,-0.3241704699106406,0.0311519727110862,-0.1342350989580154,-0.9904597401618958,0.1109837591648101,0.0395969338715076,-0.0318343192338943,2024/09/23 03:37:12 PM
719,1730433571.1945338,0.082358069717884,-0.0102183371782302,0.0412794947624206,0.2493144985546969,0.0679249906597549,-0.3107146949882606,0.0657742694020271,-0.2467397153377533,-0.9668470621109008,-0.1359932273626327,-0.1632091701030731,-0.0105853825807571,2024/09/23 03:26:13 PM
812,1730433572.123611,0.0281291455030441,0.012148380279541,0.0106154680252075,0.3030193081415742,0.1900711872661561,-0.3332425004007939,0.1803211867809295,-0.2984033226966858,-0.9372511506080629,0.0241887886077165,-0.118252083659172,-0.0925654172897338,2024/09/23 03:27:46 PM
1979,1730433583.773072,-0.0416807979345321,0.0129021108150482,0.0153501033782958,0.34581892138601,-0.1017942477778432,0.1210886334507179,-0.0956025347113609,-0.3389672338962555,-0.9359281063079834,-0.0051562120206654,-0.0352163203060627,-0.0594542808830738,2024/09/23 03:47:13 PM
139,1730433565.4057631,0.0041643436998128,0.1908552795648574,0.1061978936195373,0.138671763895438,-0.0017550344378128,-0.720400763073211,-0.001738185994327,-0.1382277458906173,-0.9903989434242249,-1.081477165222168,-0.4502766132354736,-1.644046425819397,2024/09/23 03:16:33 PM
