Date,TimeStamp,GravityX,GravityY,GravityZ,UserAccelerationX,UserAccelerationY,UserAccelerationZ,RotationRateX,RotationRateY,RotationRateZ,AttitudeRoll,AttitudePitch,AttitudeYaw
2024-10-15 13:50:20.324,74171.777,-0.209,0.256,-0.944,-0.03,0.182,0.083,0.001,0.075,-0.08,-0.218,-0.259,1.052
2024-10-15 13:50:20.334,74171.787,-0.209,0.256,-0.944,0.019,0.137,0.071,-0.042,0.065,-0.048,-0.218,-0.259,1.052
2024-10-15 13:50:20.344,74171.797,-0.208,0.257,-0.944,0.031,0.09,0.021,-0.128,0.047,-0.008,-0.217,-0.26,1.051
2024-10-15 13:50:20.354,74171.807,-0.208,0.259,-0.943,0.045,0.029,-0.028,-0.241,0.008,0.005,-0.217,-0.262,1.051
2024-10-15 13:50:20.364,74171.817,-0.208,0.261,-0.943,0.063,-0.025,-0.057,-0.31,-0.034,-0.012,-0.217,-0.264,1.05
2024-10-15 13:50:20.375,74171.827,-0.209,0.264,-0.942,0.068,-0.043,-0.058,-0.283,-0.029,0.006,-0.218,-0.267,1.049
2024-10-15 13:50:20.383,74171.837,-0.209,0.267,-0.941,0.084,-0.035,-0.04,-0.295,-0.057,0.037,-0.218,-0.27,1.049
2024-10-15 13:50:20.394,74171.847,-0.21,0.27,-0.94,0.094,-0.045,-0.029,-0.343,-0.106,0.037,-0.219,-0.273,1.049
2024-10-15 13:50:20.404,74171.857,-0.21,0.273,-0.939,0.108,-0.087,-0.004,-0.35,-0.097,0.037,-0.22,-0.277,1.048
2024-10-15 13:50:20.414,74171.867,-0.211,0.277,-0.937,0.119,-0.108,0.023,-0.357,-0.128,0.006,-0.222,-0.28,1.048
2024-10-15 13:50:20.424,74171.877,-0.212,0.28,-0.936,0.108,-0.105,0.029,-0.34,-0.081,-0.031,-0.223,-0.284,1.047
2024-10-15 13:50:20.434,74171.886,-0.213,0.283,-0.935,0.085,-0.099,0.016,-0.368,-0.027,-0.045,-0.224,-0.287,1.045
2024-10-15 13:50:20.444,74171.896,-0.213,0.287,-0.934,0.055,-0.085,-0.001,-0.441,0.012,-0.043,-0.224,-0.291,1.044
2024-10-15 13:50:20.454,74171.906,-0.213,0.291,-0.933,0.03,-0.094,-0.002,-0.485,0.068,-0.067,-0.225,-0.295,1.042
2024-10-15 13:50:20.464,74171.916,-0.212,0.295,-0.932,0.021,-0.089,0.014,-0.489,0.206,-0.126,-0.224,-0.3,1.04
2024-10-15 13:50:20.474,74171.926,-0.21,0.3,-0.931,0.01,-0.053,0.033,-0.478,0.42,-0.167,-0.222,-0.304,1.037
2024-10-15 13:50:20.484,74171.936,-0.205,0.304,-0.93,-0.012,-0.023,0.012,-0.526,0.595,-0.13,-0.217,-0.309,1.035
2024-10-15 13:50:20.494,74171.946,-0.199,0.309,-0.93,-0.036,-0.038,-0.047,-0.652,0.738,-0.06,-0.211,-0.314,1.032
2024-10-15 13:50:20.504,74171.956,-0.192,0.316,-0.929,-0.033,-0.078,-0.071,-0.79,0.841,-0.008,-0.204,-0.321,1.031
2024-10-15 13:50:20.514,74171.966,-0.184,0.324,-0.928,-0.015,-0.09,-0.085,-0.896,0.882,0.018,-0.196,-0.329,1.029
2024-10-15 13:50:20.524,74171.976,-0.176,0.332,-0.927,-0.006,-0.076,-0.118,-0.897,0.898,0.014,-0.188,-0.338,1.027
2024-10-15 13:50:20.533,74171.986,-0.168,0.34,-0.926,0.005,-0.053,-0.149,-0.754,0.92,-0.028,-0.179,-0.347,1.026
2024-10-15 13:50:20.544,74171.996,-0.159,0.345,-0.925,0.015,-0.011,-0.163,-0.525,0.96,-0.099,-0.17,-0.353,1.024
2024-10-15 13:50:20.553,74172.006,-0.151,0.349,-0.925,0.018,0.031,-0.15,-0.303,0.955,-0.181,-0.162,-0.357,1.022
2024-10-15 13:50:20.564,74172.016,-0.143,0.351,-0.926,0.022,0.039,-0.116,-0.14,0.911,-0.242,-0.153,-0.358,1.019
2024-10-15 13:50:20.573,74172.026,-0.136,0.351,-0.926,0.04,0.015,-0.08,-0.036,0.85,-0.275,-0.145,-0.359,1.016
2024-10-15 13:50:20.584,74172.036,-0.129,0.351,-0.927,0.057,-0.009,-0.044,-0.001,0.763,-0.305,-0.138,-0.359,1.014
2024-10-15 13:50:20.593,74172.046,-0.124,0.351,-0.928,0.07,-0.025,-0.012,-0.045,0.661,-0.321,-0.132,-0.358,1.01
2024-10-15 13:50:20.603,74172.056,-0.119,0.351,-0.929,0.082,-0.041,0.008,-0.114,0.54,-0.314,-0.128,-0.359,1.007
2024-10-15 13:50:20.613,74172.066,-0.116,0.352,-0.929,0.093,-0.061,0.018,-0.193,0.439,-0.289,-0.124,-0.36,1.004
2024-10-15 13:50:20.623,74172.076,-0.113,0.354,-0.928,0.105,-0.079,0.028,-0.291,0.331,-0.254,-0.121,-0.362,1.001
2024-10-15 13:50:20.633,74172.086,-0.111,0.357,-0.927,0.115,-0.087,0.044,-0.437,0.196,-0.229,-0.12,-0.365,0.998
2024-10-15 13:50:20.643,74172.096,-0.111,0.362,-0.926,0.123,-0.084,0.055,-0.562,0.054,-0.218,-0.119,-0.37,0.995
2024-10-15 13:50:20.653,74172.106,-0.112,0.367,-0.924,0.124,-0.068,0.072,-0.599,-0.058,-0.194,-0.121,-0.376,0.992
2024-10-15 13:50:20.664,74172.116,-0.113,0.372,-0.921,0.113,-0.043,0.095,-0.522,-0.124,-0.178,-0.123,-0.381,0.99
2024-10-15 13:50:20.673,74172.126,-0.115,0.376,-0.919,0.097,-0.009,0.108,-0.402,-0.173,-0.16,-0.125,-0.385,0.988
2024-10-15 13:50:20.683,74172.136,-0.118,0.379,-0.918,0.082,0.03,0.106,-0.264,-0.23,-0.15,-0.128,-0.388,0.986
2024-10-15 13:50:20.693,74172.146,-0.121,0.38,-0.917,0.075,0.068,0.095,-0.121,-0.287,-0.139,-0.131,-0.39,0.984
2024-10-15 13:50:20.703,74172.156,-0.124,0.381,-0.916,0.073,0.094,0.086,-0.002,-0.35,-0.116,-0.135,-0.391,0.983
2024-10-15 13:50:20.713,74172.166,-0.128,0.38,-0.916,0.068,0.105,0.078,0.095,-0.408,-0.11,-0.139,-0.39,0.982
2024-10-15 13:50:20.723,74172.176,-0.132,0.379,-0.916,0.052,0.108,0.058,0.187,-0.445,-0.093,-0.144,-0.388,0.981
2024-10-15 13:50:20.733,74172.186,-0.137,0.377,-0.916,0.029,0.107,0.039,0.273,-0.433,-0.072,-0.148,-0.386,0.98
2024-10-15 13:50:20.743,74172.196,-0.141,0.374,-0.917,0.007,0.112,0.043,0.321,-0.357,-0.038,-0.152,-0.383,0.98
2024-10-15 13:50:20.753,74172.206,-0.144,0.371,-0.918,-0.011,0.113,0.052,0.347,-0.296,0.024,-0.155,-0.38,0.981
2024-10-15 13:50:20.764,74172.216,-0.146,0.367,-0.919,-0.021,0.1,0.07,0.364,-0.236,0.053,-0.158,-0.376,0.982
2024-10-15 13:50:20.772,74172.226,-0.148,0.364,-0.919,-0.017,0.095,0.079,0.331,-0.192,0.043,-0.159,-0.373,0.983
2024-10-15 13:50:20.783,74172.236,-0.149,0.362,-0.92,-0.005,0.095,0.071,0.253,-0.17,0.06,-0.161,-0.37,0.985
2024-10-15 13:50:20.793,74172.246,-0.151,0.36,-0.921,0.001,0.063,0.05,0.156,-0.164,0.107,-0.162,-0.368,0.986
2024-10-15 13:50:20.803,74172.256,-0.152,0.359,-0.921,-0.009,0.022,0.014,0.04,-0.193,0.179,-0.163,-0.367,0.988
2024-10-15 13:50:20.813,74172.266,-0.153,0.359,-0.921,-0.018,-0.008,0.009,-0.026,-0.235,0.196,-0.165,-0.368,0.99
2024-10-15 13:50:20.823,74172.276,-0.154,0.36,-0.92,-0.011,-0.032,0.004,-0.002,-0.237,0.181,-0.166,-0.368,0.992
2024-10-15 13:50:20.833,74172.286,-0.156,0.36,-0.92,-0.016,-0.01,0.001,0.106,-0.224,0.148,-0.168,-0.368,0.994
2024-10-15 13:50:20.843,74172.296,-0.158,0.358,-0.92,-0.044,0.029,0.007,0.3,-0.213,0.087,-0.17,-0.366,0.996
2024-10-15 13:50:20.853,74172.306,-0.159,0.354,-0.921,-0.069,0.052,-0.009,0.536,-0.182,0.034,-0.171,-0.362,0.997
2024-10-15 13:50:20.863,74172.316,-0.16,0.349,-0.923,-0.078,0.063,-0.008,0.682,-0.124,0.018,-0.172,-0.356,0.998
2024-10-15 13:50:20.873,74172.326,-0.161,0.342,-0.926,-0.088,0.062,-0.001,0.668,-0.072,0.027,-0.172,-0.349,1.0
2024-10-15 13:50:20.883,74172.336,-0.162,0.337,-0.928,-0.109,0.035,0.001,0.486,-0.042,0.068,-0.173,-0.344,1.002
2024-10-15 13:50:20.893,74172.346,-0.162,0.334,-0.929,-0.113,-0.021,0.008,0.215,-0.059,0.118,-0.172,-0.34,1.004
2024-10-15 13:50:20.902,74172.356,-0.162,0.333,-0.929,-0.1,-0.084,0.006,-0.064,-0.114,0.143,-0.173,-0.34,1.005
2024-10-15 13:50:20.912,74172.366,-0.163,0.335,-0.928,-0.087,-0.118,0.004,-0.227,-0.195,0.135,-0.174,-0.342,1.006
2024-10-15 13:50:20.923,74172.376,-0.165,0.338,-0.927,-0.077,-0.11,0.011,-0.231,-0.258,0.105,-0.176,-0.344,1.007
2024-10-15 13:50:20.933,74172.386,-0.167,0.339,-0.926,-0.068,-0.085,0.008,-0.058,-0.279,0.051,-0.178,-0.346,1.008
2024-10-15 13:50:20.943,74172.396,-0.169,0.338,-0.926,-0.078,-0.041,0.02,0.301,-0.167,0.046,-0.181,-0.345,1.008
2024-10-15 13:50:20.953,74172.406,-0.17,0.334,-0.927,-0.094,0.001,0.047,0.569,-0.001,0.099,-0.181,-0.341,1.01
2024-10-15 13:50:20.963,74172.416,-0.169,0.329,-0.929,-0.115,0.013,0.08,0.6,0.109,0.125,-0.179,-0.335,1.012
2024-10-15 13:50:20.973,74172.426,-0.167,0.325,-0.931,-0.146,0.025,0.089,0.298,0.084,0.127,-0.178,-0.331,1.014
2024-10-15 13:50:20.983,74172.436,-0.167,0.324,-0.931,-0.139,-0.017,0.088,-0.171,-0.074,0.146,-0.177,-0.33,1.016
2024-10-15 13:50:20.993,74172.446,-0.168,0.328,-0.93,-0.076,-0.083,0.062,-0.532,-0.263,0.154,-0.178,-0.334,1.017
2024-10-15 13:50:21.003,74172.456,-0.17,0.334,-0.927,-0.026,-0.103,-0.014,-0.619,-0.332,0.104,-0.181,-0.34,1.017
2024-10-15 13:50:21.013,74172.466,-0.173,0.338,-0.925,-0.032,-0.051,-0.12,-0.36,-0.319,0.072,-0.185,-0.345,1.017
2024-10-15 13:50:21.023,74172.476,-0.175,0.34,-0.924,-0.089,0.027,-0.186,0.02,-0.308,0.072,-0.188,-0.347,1.017
2024-10-15 13:50:21.032,74172.485,-0.178,0.338,-0.924,-0.113,0.095,-0.127,0.456,-0.223,0.047,-0.19,-0.345,1.018
2024-10-15 13:50:21.042,74172.495,-0.179,0.333,-0.926,-0.076,0.151,0.031,0.686,-0.162,-0.015,-0.191,-0.339,1.02
2024-10-15 13:50:21.052,74172.505,-0.181,0.326,-0.928,-0.029,0.176,0.17,0.616,-0.145,-0.047,-0.193,-0.332,1.021
2024-10-15 13:50:21.062,74172.515,-0.182,0.322,-0.929,0.01,0.144,0.235,0.255,-0.203,0.038,-0.194,-0.328,1.022
2024-10-15 13:50:21.072,74172.525,-0.185,0.322,-0.929,0.041,0.011,0.193,-0.079,-0.355,0.136,-0.197,-0.327,1.023
2024-10-15 13:50:21.083,74172.535,-0.188,0.324,-0.927,0.062,-0.108,0.109,-0.447,-0.248,0.047,-0.2,-0.33,1.023
2024-10-15 13:50:21.093,74172.545,-0.189,0.327,-0.926,0.052,-0.103,-0.005,-0.124,-0.118,0.095,-0.201,-0.334,1.023
2024-10-15 13:50:21.102,74172.555,-0.189,0.327,-0.926,-0.056,-0.007,-0.304,0.199,0.036,0.236,-0.201,-0.333,1.025
2024-10-15 13:50:21.113,74172.565,-0.187,0.326,-0.927,-0.088,0.035,-0.308,0.206,0.214,0.196,-0.199,-0.332,1.028
2024-10-15 13:50:21.122,74172.575,-0.184,0.325,-0.928,-0.038,0.084,-0.151,0.026,0.096,0.318,-0.196,-0.331,1.03
2024-10-15 13:50:21.132,74172.585,-0.183,0.327,-0.927,0.004,0.072,-0.082,-0.192,-0.151,0.528,-0.195,-0.333,1.035
2024-10-15 13:50:21.144,74172.595,-0.183,0.329,-0.926,0.101,0.018,0.137,-0.09,-0.118,0.42,-0.195,-0.335,1.039
2024-10-15 13:50:21.152,74172.605,-0.183,0.329,-0.926,0.155,0.129,0.274,0.132,-0.144,0.31,-0.195,-0.336,1.043
2024-10-15 13:50:21.162,74172.615,-0.184,0.328,-0.927,0.139,0.207,0.237,0.352,-0.111,0.227,-0.195,-0.334,1.046
2024-10-15 13:50:21.172,74172.625,-0.184,0.324,-0.928,0.169,0.11,0.191,0.437,-0.104,0.16,-0.196,-0.33,1.049
2024-10-15 13:50:21.182,74172.635,-0.185,0.322,-0.929,0.153,0.032,0.065,0.149,-0.192,0.196,-0.196,-0.327,1.052
2024-10-15 13:50:21.192,74172.645,-0.186,0.322,-0.928,0.093,-0.117,-0.028,-0.123,-0.257,0.26,-0.198,-0.328,1.054
2024-10-15 13:50:21.202,74172.655,-0.188,0.324,-0.927,0.046,-0.223,-0.042,-0.252,-0.311,0.305,-0.2,-0.33,1.057
2024-10-15 13:50:21.212,74172.665,-0.19,0.326,-0.926,0.038,-0.223,-0.007,0.009,-0.263,0.113,-0.202,-0.332,1.059
2024-10-15 13:50:21.222,74172.675,-0.192,0.325,-0.926,0.07,-0.105,0.017,0.276,-0.286,-0.025,-0.204,-0.331,1.059
2024-10-15 13:50:21.232,74172.685,-0.195,0.322,-0.926,0.08,-0.028,-0.007,0.273,-0.403,-0.037,-0.208,-0.328,1.06
2024-10-15 13:50:21.242,74172.695,-0.199,0.32,-0.926,0.092,-0.052,-0.039,0.248,-0.458,-0.046,-0.212,-0.325,1.06
2024-10-15 13:50:21.252,74172.705,-0.204,0.317,-0.926,0.063,0.015,-0.102,0.336,-0.439,-0.032,-0.217,-0.322,1.06
2024-10-15 13:50:21.263,74172.715,-0.207,0.312,-0.927,-0.047,0.119,-0.161,0.651,-0.276,-0.104,-0.22,-0.318,1.06
2024-10-15 13:50:21.273,74172.725,-0.21,0.305,-0.929,-0.137,0.228,-0.178,0.818,-0.147,-0.227,-0.222,-0.31,1.06
2024-10-15 13:50:21.282,74172.735,-0.212,0.297,-0.931,-0.174,0.265,-0.172,0.731,-0.198,-0.3,-0.224,-0.302,1.059
2024-10-15 13:50:21.292,74172.745,-0.215,0.29,-0.932,-0.181,0.137,-0.143,0.646,-0.249,-0.326,-0.227,-0.294,1.058
2024-10-15 13:50:21.302,74172.755,-0.218,0.283,-0.934,-0.193,-0.041,-0.097,0.717,-0.156,-0.384,-0.229,-0.287,1.056
2024-10-15 13:50:21.312,74172.765,-0.22,0.275,-0.936,-0.221,-0.101,-0.041,0.835,-0.1,-0.436,-0.231,-0.279,1.054
2024-10-15 13:50:21.323,74172.775,-0.222,0.266,-0.938,-0.211,-0.153,0.034,0.782,-0.025,-0.564,-0.233,-0.269,1.051
2024-10-15 13:50:21.332,74172.785,-0.224,0.258,-0.94,-0.154,-0.22,0.078,0.566,-0.027,-0.596,-0.234,-0.261,1.046
2024-10-15 13:50:21.343,74172.795,-0.226,0.254,-0.941,-0.137,-0.269,0.072,0.203,-0.153,-0.471,-0.236,-0.256,1.042
2024-10-15 13:50:21.352,74172.805,-0.229,0.252,-0.94,-0.133,-0.334,0.093,-0.044,-0.18,-0.429,-0.239,-0.255,1.038
2024-10-15 13:50:21.362,74172.815,-0.231,0.252,-0.94,-0.131,-0.236,0.107,-0.163,-0.124,-0.32,-0.241,-0.255,1.033
2024-10-15 13:50:21.372,74172.825,-0.233,0.253,-0.939,-0.17,-0.063,0.104,-0.174,-0.083,-0.209,-0.243,-0.256,1.03
2024-10-15 13:50:21.382,74172.835,-0.234,0.254,-0.939,-0.183,0.088,0.095,-0.051,0.025,-0.098,-0.244,-0.257,1.029
2024-10-15 13:50:21.392,74172.845,-0.233,0.254,-0.939,-0.165,0.218,0.077,-0.014,0.066,0.001,-0.244,-0.257,1.028
2024-10-15 13:50:21.403,74172.855,-0.232,0.254,-0.939,-0.122,0.26,0.074,0.009,0.133,0.089,-0.243,-0.257,1.028
2024-10-15 13:50:21.412,74172.865,-0.231,0.255,-0.939,-0.067,0.265,0.087,-0.094,0.135,0.198,-0.241,-0.258,1.03
2024-10-15 13:50:21.422,74172.875,-0.229,0.257,-0.939,0.001,0.214,0.11,-0.286,0.074,0.27,-0.239,-0.26,1.032
2024-10-15 13:50:21.432,74172.885,-0.228,0.261,-0.938,0.081,0.122,0.13,-0.4,0.016,0.297,-0.238,-0.264,1.034
2024-10-15 13:50:21.442,74172.895,-0.227,0.265,-0.937,0.144,0.075,0.118,-0.438,-0.03,0.316,-0.238,-0.269,1.036
2024-10-15 13:50:21.452,74172.905,-0.227,0.27,-0.936,0.159,0.07,0.07,-0.401,-0.076,0.348,-0.238,-0.274,1.038
2024-10-15 13:50:21.463,74172.915,-0.227,0.274,-0.935,0.156,0.09,0.035,-0.211,-0.118,0.325,-0.238,-0.278,1.041
2024-10-15 13:50:21.472,74172.925,-0.227,0.275,-0.934,0.157,0.104,-0.003,0.067,0.001,0.266,-0.238,-0.279,1.044
2024-10-15 13:50:21.482,74172.935,-0.225,0.275,-0.935,0.145,0.167,-0.061,0.111,0.117,0.342,-0.236,-0.278,1.047
2024-10-15 13:50:21.492,74172.945,-0.223,0.277,-0.935,0.099,0.165,-0.098,-0.313,-0.041,0.626,-0.235,-0.28,1.051
2024-10-15 13:50:21.502,74172.955,-0.223,0.283,-0.933,0.14,0.017,-0.017,-0.695,-0.345,0.809,-0.235,-0.287,1.058
2024-10-15 13:50:21.512,74172.965,-0.225,0.29,-0.93,0.29,-0.081,0.181,-0.397,-0.459,0.684,-0.237,-0.295,1.064
2024-10-15 13:50:21.522,74172.975,-0.227,0.292,-0.929,0.4,0.068,0.29,0.43,-0.27,0.263,-0.24,-0.296,1.069
2024-10-15 13:50:21.532,74172.985,-0.227,0.284,-0.931,0.341,0.333,0.173,1.133,0.143,-0.153,-0.239,-0.288,1.071
2024-10-15 13:50:21.542,74172.995,-0.226,0.273,-0.935,0.104,0.383,-0.185,0.977,0.193,-0.017,-0.237,-0.277,1.073
2024-10-15 13:50:21.552,74173.005,-0.225,0.267,-0.937,-0.169,0.036,-0.447,0.491,-0.182,0.224,-0.236,-0.27,1.076
2024-10-15 13:50:21.562,74173.015,-0.227,0.263,-0.938,-0.173,-0.436,-0.29,0.501,-0.247,0.017,-0.238,-0.266,1.078
2024-10-15 13:50:21.571,74173.025,-0.229,0.257,-0.939,0.008,-0.358,-0.015,0.606,-0.104,-0.256,-0.239,-0.26,1.078
2024-10-15 13:50:21.582,74173.035,-0.231,0.251,-0.94,0.052,-0.061,0.031,0.559,-0.106,-0.265,-0.241,-0.254,1.077
2024-10-15 13:50:21.592,74173.045,-0.232,0.245,-0.941,-0.109,-0.078,-0.067,0.614,-0.11,-0.213,-0.242,-0.248,1.076
2024-10-15 13:50:21.602,74173.055,-0.233,0.238,-0.943,-0.235,-0.197,-0.055,0.797,0.041,-0.29,-0.243,-0.24,1.075
2024-10-15 13:50:21.612,74173.065,-0.234,0.23,-0.945,-0.169,-0.109,-0.022,0.734,-0.007,-0.378,-0.243,-0.232,1.074
2024-10-15 13:50:21.622,74173.074,-0.235,0.222,-0.946,-0.115,-0.094,-0.012,0.646,-0.069,-0.495,-0.244,-0.224,1.071
2024-10-15 13:50:21.631,74173.084,-0.237,0.215,-0.947,-0.11,-0.218,-0.007,0.632,-0.047,-0.604,-0.245,-0.217,1.067
2024-10-15 13:50:21.641,74173.094,-0.239,0.208,-0.949,-0.129,-0.228,-0.024,0.561,-0.024,-0.611,-0.246,-0.21,1.063
2024-10-15 13:50:21.651,74173.104,-0.24,0.202,-0.949,-0.168,-0.174,-0.032,0.332,-0.068,-0.497,-0.248,-0.204,1.058
2024-10-15 13:50:21.662,74173.114,-0.242,0.199,-0.95,-0.195,-0.149,-0.039,0.122,-0.078,-0.403,-0.249,-0.201,1.055
2024-10-15 13:50:21.672,74173.124,-0.243,0.197,-0.95,-0.209,-0.102,-0.007,0.077,0.003,-0.376,-0.25,-0.199,1.051
2024-10-15 13:50:21.682,74173.134,-0.243,0.196,-0.95,-0.219,0.002,0.044,0.077,0.095,-0.3,-0.25,-0.197,1.048
2024-10-15 13:50:21.691,74173.144,-0.243,0.195,-0.95,-0.22,0.075,0.07,-0.094,0.049,-0.164,-0.25,-0.196,1.045
2024-10-15 13:50:21.702,74173.154,-0.243,0.197,-0.95,-0.187,0.058,0.123,-0.293,-0.041,-0.054,-0.25,-0.198,1.044
2024-10-15 13:50:21.711,74173.164,-0.244,0.2,-0.949,-0.129,0.01,0.164,-0.469,-0.092,0.061,-0.251,-0.202,1.043
2024-10-15 13:50:21.721,74173.174,-0.244,0.205,-0.948,-0.089,-0.004,0.161,-0.534,-0.056,0.112,-0.252,-0.207,1.043
2024-10-15 13:50:21.731,74173.184,-0.244,0.211,-0.947,-0.09,0.026,0.111,-0.631,0.081,0.181,-0.252,-0.213,1.043
2024-10-15 13:50:21.741,74173.194,-0.242,0.219,-0.945,-0.11,0.113,0.067,-0.83,0.121,0.316,-0.251,-0.22,1.043
2024-10-15 13:50:21.751,74173.204,-0.24,0.228,-0.943,-0.101,0.127,0.061,-1.013,0.091,0.435,-0.249,-0.23,1.045
2024-10-15 13:50:21.762,74173.214,-0.239,0.24,-0.941,-0.031,0.069,0.092,-1.129,0.02,0.527,-0.248,-0.242,1.047
2024-10-15 13:50:21.771,74173.224,-0.238,0.251,-0.938,0.056,0.036,0.129,-1.021,-0.094,0.535,-0.248,-0.254,1.049
2024-10-15 13:50:21.782,74173.234,-0.237,0.26,-0.936,0.131,0.052,0.145,-0.651,-0.073,0.442,-0.248,-0.263,1.052
2024-10-15 13:50:21.791,74173.244,-0.237,0.266,-0.935,0.205,0.137,0.146,-0.303,-0.031,0.338,-0.248,-0.269,1.055
2024-10-15 13:50:21.801,74173.254,-0.236,0.268,-0.934,0.246,0.204,0.102,-0.007,0.034,0.185,-0.248,-0.271,1.057
2024-10-15 13:50:21.811,74173.264,-0.235,0.267,-0.935,0.267,0.177,0.033,0.229,0.179,0.051,-0.246,-0.27,1.058
2024-10-15 13:50:21.821,74173.274,-0.233,0.264,-0.936,0.25,0.11,-0.084,0.236,0.233,-0.009,-0.244,-0.268,1.059
2024-10-15 13:50:21.831,74173.284,-0.231,0.263,-0.937,0.212,-0.027,-0.186,0.007,0.091,-0.002,-0.242,-0.266,1.059
2024-10-15 13:50:21.841,74173.294,-0.231,0.264,-0.936,0.217,-0.234,-0.194,-0.193,-0.035,-0.014,-0.242,-0.267,1.059
2024-10-15 13:50:21.852,74173.304,-0.232,0.266,-0.936,0.247,-0.325,-0.123,-0.257,-0.073,-0.022,-0.243,-0.269,1.058
2024-10-15 13:50:21.861,74173.314,-0.233,0.269,-0.935,0.205,-0.237,-0.06,-0.239,-0.151,0.034,-0.244,-0.272,1.058
2024-10-15 13:50:21.871,74173.324,-0.234,0.27,-0.934,0.128,-0.114,-0.027,-0.127,-0.223,0.079,-0.246,-0.274,1.058
2024-10-15 13:50:21.881,74173.334,-0.236,0.271,-0.933,0.082,-0.005,0.02,0.036,-0.221,0.093,-0.248,-0.275,1.059
2024-10-15 13:50:21.891,74173.344,-0.238,0.27,-0.933,0.077,0.132,0.056,0.207,-0.191,0.053,-0.25,-0.274,1.06
2024-10-15 13:50:21.901,74173.354,-0.239,0.268,-0.933,0.059,0.243,-0.02,0.344,-0.149,0.063,-0.251,-0.271,1.061
2024-10-15 13:50:21.912,74173.364,-0.24,0.264,-0.934,-0.021,0.231,-0.084,0.425,-0.101,-0.025,-0.252,-0.267,1.062
2024-10-15 13:50:21.921,74173.374,-0.241,0.26,-0.935,-0.084,0.152,-0.098,0.426,-0.076,-0.105,-0.253,-0.263,1.063
2024-10-15 13:50:21.931,74173.384,-0.242,0.256,-0.936,-0.113,0.057,-0.106,0.323,-0.121,-0.12,-0.254,-0.259,1.063
2024-10-15 13:50:21.941,74173.394,-0.244,0.253,-0.936,-0.141,-0.116,-0.112,0.318,-0.106,-0.197,-0.255,-0.256,1.062
2024-10-15 13:50:21.951,74173.404,-0.245,0.249,-0.937,-0.169,-0.217,-0.091,0.396,-0.049,-0.283,-0.256,-0.252,1.06
2024-10-15 13:50:21.961,74173.414,-0.247,0.244,-0.938,-0.168,-0.227,-0.041,0.459,-0.108,-0.385,-0.257,-0.247,1.058
2024-10-15 13:50:21.971,74173.424,-0.249,0.238,-0.939,-0.13,-0.226,-0.008,0.537,-0.07,-0.549,-0.259,-0.241,1.055
2024-10-15 13:50:21.981,74173.434,-0.251,0.232,-0.94,-0.104,-0.19,-0.002,0.574,-0.026,-0.62,-0.261,-0.234,1.05
2024-10-15 13:50:21.991,74173.444,-0.252,0.225,-0.941,-0.148,-0.132,-0.015,0.509,0.01,-0.614,-0.262,-0.227,1.046
2024-10-15 13:50:22.001,74173.454,-0.253,0.219,-0.942,-0.21,-0.089,0.002,0.332,0.015,-0.507,-0.263,-0.221,1.041
2024-10-15 13:50:22.011,74173.464,-0.254,0.217,-0.943,-0.235,-0.054,0.022,0.028,-0.065,-0.326,-0.264,-0.218,1.038
2024-10-15 13:50:22.021,74173.474,-0.256,0.217,-0.942,-0.211,-0.048,0.09,-0.167,-0.057,-0.204,-0.265,-0.219,1.035
2024-10-15 13:50:22.031,74173.484,-0.256,0.218,-0.942,-0.157,0.005,0.159,-0.188,0.015,-0.073,-0.265,-0.22,1.033
2024-10-15 13:50:22.041,74173.494,-0.256,0.22,-0.941,-0.137,0.134,0.167,-0.2,-0.038,0.065,-0.266,-0.222,1.032
2024-10-15 13:50:22.050,74173.504,-0.256,0.222,-0.941,-0.103,0.181,0.175,-0.114,0.022,0.151,-0.266,-0.224,1.033
2024-10-15 13:50:22.061,74173.514,-0.255,0.223,-0.941,-0.029,0.223,0.165,-0.129,0.026,0.24,-0.265,-0.225,1.035
2024-10-15 13:50:22.071,74173.524,-0.254,0.226,-0.94,0.004,0.258,0.105,-0.163,0.043,0.302,-0.264,-0.227,1.037
2024-10-15 13:50:22.081,74173.534,-0.253,0.228,-0.94,0.035,0.219,0.02,-0.241,0.071,0.39,-0.263,-0.23,1.04
2024-10-15 13:50:22.091,74173.544,-0.251,0.232,-0.94,0.067,0.166,-0.039,-0.351,0.052,0.49,-0.261,-0.234,1.043
2024-10-15 13:50:22.101,74173.554,-0.25,0.237,-0.939,0.11,0.106,-0.063,-0.382,-0.03,0.545,-0.26,-0.239,1.048
2024-10-15 13:50:22.111,74173.564,-0.25,0.241,-0.938,0.157,0.08,-0.04,-0.24,-0.14,0.558,-0.26,-0.244,1.052
2024-10-15 13:50:22.121,74173.574,-0.249,0.244,-0.937,0.195,0.103,0.001,0.005,-0.091,0.5,-0.26,-0.246,1.057
2024-10-15 13:50:22.131,74173.584,-0.249,0.244,-0.937,0.215,0.183,0.028,0.162,-0.051,0.524,-0.259,-0.247,1.062
2024-10-15 13:50:22.141,74173.594,-0.248,0.244,-0.937,0.177,0.218,0.003,0.139,-0.153,0.613,-0.259,-0.247,1.069
2024-10-15 13:50:22.151,74173.604,-0.248,0.244,-0.937,0.163,0.106,-0.02,0.152,-0.141,0.587,-0.259,-0.247,1.075
2024-10-15 13:50:22.161,74173.614,-0.248,0.244,-0.938,0.195,0.046,0.033,0.273,-0.105,0.534,-0.259,-0.246,1.081
2024-10-15 13:50:22.171,74173.624,-0.248,0.242,-0.938,0.188,0.077,0.072,0.391,-0.13,0.402,-0.259,-0.244,1.087
2024-10-15 13:50:22.181,74173.634,-0.248,0.238,-0.939,0.187,0.01,0.067,0.533,-0.107,0.198,-0.259,-0.241,1.091
2024-10-15 13:50:22.191,74173.644,-0.249,0.233,-0.94,0.173,-0.074,-0.005,0.562,-0.078,0.025,-0.259,-0.235,1.093
2024-10-15 13:50:22.201,74173.654,-0.25,0.228,-0.941,0.067,-0.174,-0.143,0.433,-0.083,-0.032,-0.26,-0.231,1.095
2024-10-15 13:50:22.211,74173.663,-0.251,0.225,-0.941,-0.065,-0.326,-0.242,0.3,-0.205,-0.047,-0.261,-0.227,1.095
2024-10-15 13:50:22.221,74173.673,-0.253,0.222,-0.942,-0.11,-0.412,-0.184,0.378,-0.16,-0.185,-0.263,-0.223,1.095
2024-10-15 13:50:22.231,74173.683,-0.255,0.217,-0.942,-0.079,-0.308,-0.084,0.445,-0.143,-0.29,-0.265,-0.219,1.094
2024-10-15 13:50:22.241,74173.693,-0.257,0.212,-0.943,-0.088,-0.134,-0.033,0.549,-0.139,-0.358,-0.267,-0.213,1.092
2024-10-15 13:50:22.251,74173.703,-0.259,0.205,-0.944,-0.099,-0.068,0.004,0.635,-0.098,-0.434,-0.268,-0.206,1.09
2024-10-15 13:50:22.261,74173.713,-0.261,0.198,-0.945,-0.099,0.012,0.018,0.661,-0.051,-0.408,-0.269,-0.199,1.087
2024-10-15 13:50:22.270,74173.723,-0.262,0.19,-0.946,-0.109,0.044,-0.011,0.658,-0.052,-0.44,-0.27,-0.192,1.085
2024-10-15 13:50:22.280,74173.733,-0.263,0.183,-0.947,-0.114,0.008,-0.02,0.69,-0.005,-0.56,-0.271,-0.184,1.082
2024-10-15 13:50:22.291,74173.743,-0.264,0.175,-0.948,-0.127,0.002,-0.027,0.608,0.019,-0.473,-0.272,-0.176,1.078
2024-10-15 13:50:22.301,74173.753,-0.265,0.169,-0.949,-0.153,-0.032,-0.038,0.361,0.065,-0.371,-0.272,-0.17,1.076
2024-10-15 13:50:22.310,74173.763,-0.265,0.166,-0.95,-0.178,-0.071,0.009,0.135,0.092,-0.312,-0.272,-0.167,1.073
2024-10-15 13:50:22.321,74173.773,-0.264,0.165,-0.95,-0.187,-0.048,0.086,-0.09,0.136,-0.262,-0.271,-0.166,1.07
2024-10-15 13:50:22.331,74173.783,-0.263,0.167,-0.95,-0.16,-0.035,0.139,-0.461,0.036,-0.104,-0.27,-0.168,1.068
2024-10-15 13:50:22.341,74173.793,-0.264,0.173,-0.949,-0.119,-0.06,0.176,-0.641,-0.152,0.122,-0.271,-0.173,1.066
2024-10-15 13:50:22.350,74173.803,-0.265,0.178,-0.948,-0.045,-0.11,0.223,-0.453,-0.173,0.062,-0.273,-0.179,1.066
2024-10-15 13:50:22.361,74173.813,-0.266,0.181,-0.947,-0.022,0.018,0.185,-0.197,-0.036,-0.011,-0.274,-0.182,1.065
2024-10-15 13:50:22.370,74173.823,-0.266,0.183,-0.946,-0.095,0.219,0.071,-0.169,0.008,0.044,-0.274,-0.184,1.065
2024-10-15 13:50:22.380,74173.833,-0.266,0.185,-0.946,-0.148,0.176,-0.044,-0.229,0.076,0.108,-0.274,-0.186,1.065
2024-10-15 13:50:22.390,74173.843,-0.265,0.188,-0.946,-0.145,0.075,-0.118,-0.294,0.118,0.226,-0.273,-0.189,1.066
2024-10-15 13:50:22.400,74173.853,-0.263,0.192,-0.946,-0.124,0.033,-0.128,-0.42,0.131,0.305,-0.271,-0.193,1.067
2024-10-15 13:50:22.410,74173.863,-0.261,0.198,-0.945,-0.062,0.001,-0.061,-0.599,0.084,0.396,-0.27,-0.199,1.069
2024-10-15 13:50:22.420,74173.873,-0.26,0.205,-0.944,0.025,-0.015,0.043,-0.795,0.067,0.483,-0.268,-0.207,1.072
2024-10-15 13:50:22.430,74173.883,-0.258,0.215,-0.942,0.102,-0.035,0.131,-0.893,-0.018,0.54,-0.268,-0.216,1.075
2024-10-15 13:50:22.440,74173.893,-0.258,0.224,-0.94,0.163,-0.034,0.166,-0.825,-0.097,0.529,-0.268,-0.226,1.078
2024-10-15 13:50:22.450,74173.903,-0.258,0.232,-0.938,0.214,-0.003,0.15,-0.48,-0.14,0.419,-0.268,-0.234,1.081
2024-10-15 13:50:22.461,74173.913,-0.258,0.235,-0.937,0.222,0.086,0.082,0.021,-0.023,0.217,-0.268,-0.237,1.083
2024-10-15 13:50:22.471,74173.923,-0.257,0.233,-0.938,0.208,0.17,-0.02,0.377,0.205,0.015,-0.267,-0.235,1.085
2024-10-15 13:50:22.480,74173.933,-0.255,0.23,-0.939,0.179,0.192,-0.108,0.274,0.152,-0.012,-0.265,-0.232,1.086
2024-10-15 13:50:22.491,74173.943,-0.254,0.228,-0.94,0.164,0.038,-0.156,0.039,-0.013,0.045,-0.264,-0.23,1.086
2024-10-15 13:50:22.501,74173.953,-0.254,0.229,-0.94,0.221,-0.198,-0.092,-0.038,-0.052,0.018,-0.264,-0.231,1.086
2024-10-15 13:50:22.510,74173.963,-0.255,0.229,-0.939,0.233,-0.185,-0.006,-0.059,-0.124,0.015,-0.265,-0.231,1.086
2024-10-15 13:50:22.520,74173.973,-0.256,0.23,-0.939,0.141,-0.067,0.025,-0.038,-0.151,0.082,-0.267,-0.232,1.087
2024-10-15 13:50:22.530,74173.983,-0.258,0.23,-0.939,0.088,-0.029,0.099,0.133,-0.159,0.089,-0.268,-0.232,1.088
2024-10-15 13:50:22.540,74173.993,-0.259,0.227,-0.939,0.14,0.044,0.206,0.328,-0.183,-0.037,-0.269,-0.229,1.089
2024-10-15 13:50:22.551,74174.003,-0.261,0.224,-0.939,0.215,0.189,0.154,0.388,-0.268,-0.056,-0.271,-0.226,1.089
2024-10-15 13:50:22.560,74174.013,-0.264,0.22,-0.939,0.096,0.16,0.056,0.323,-0.194,-0.104,-0.274,-0.222,1.089
2024-10-15 13:50:22.570,74174.023,-0.265,0.217,-0.939,-0.093,0.052,-0.072,0.267,-0.146,-0.151,-0.275,-0.219,1.089
2024-10-15 13:50:22.580,74174.033,-0.267,0.214,-0.94,-0.207,0.008,-0.235,0.353,-0.156,-0.194,-0.277,-0.216,1.088
2024-10-15 13:50:22.590,74174.043,-0.268,0.209,-0.94,-0.298,-0.17,-0.234,0.579,0.075,-0.445,-0.278,-0.21,1.086
2024-10-15 13:50:22.600,74174.053,-0.269,0.203,-0.942,-0.319,-0.173,-0.107,0.336,-0.008,-0.488,-0.278,-0.204,1.083
2024-10-15 13:50:22.610,74174.063,-0.271,0.2,-0.941,-0.257,-0.223,-0.028,-0.042,-0.27,-0.489,-0.281,-0.202,1.079
2024-10-15 13:50:22.620,74174.073,-0.274,0.199,-0.941,-0.188,-0.442,0.063,0.016,-0.141,-0.603,-0.284,-0.2,1.073
2024-10-15 13:50:22.630,74174.083,-0.276,0.197,-0.941,-0.24,-0.357,0.098,0.129,0.03,-0.6,-0.285,-0.198,1.068
2024-10-15 13:50:22.640,74174.093,-0.277,0.194,-0.941,-0.347,-0.1,0.046,0.017,0.044,-0.545,-0.286,-0.196,1.062
2024-10-15 13:50:22.650,74174.103,-0.277,0.193,-0.941,-0.375,-0.057,0.019,-0.11,0.066,-0.509,-0.286,-0.195,1.057
2024-10-15 13:50:22.660,74174.113,-0.277,0.193,-0.941,-0.318,-0.047,0.028,-0.123,0.114,-0.472,-0.287,-0.194,1.052
2024-10-15 13:50:22.670,74174.123,-0.277,0.193,-0.941,-0.288,0.032,0.029,-0.08,0.234,-0.379,-0.286,-0.194,1.047
2024-10-15 13:50:22.680,74174.133,-0.275,0.193,-0.942,-0.276,0.103,0.009,-0.207,0.194,-0.227,-0.284,-0.195,1.044
2024-10-15 13:50:22.690,74174.143,-0.274,0.195,-0.942,-0.22,0.078,0.024,-0.22,0.177,-0.151,-0.283,-0.196,1.041
2024-10-15 13:50:22.700,74174.153,-0.272,0.197,-0.942,-0.118,0.04,0.064,-0.252,0.229,-0.049,-0.281,-0.198,1.04
2024-10-15 13:50:22.710,74174.163,-0.27,0.2,-0.942,-0.051,0.114,0.1,-0.474,0.176,0.144,-0.279,-0.202,1.039
2024-10-15 13:50:22.720,74174.173,-0.269,0.207,-0.941,0.04,0.112,0.167,-0.737,0.023,0.257,-0.278,-0.208,1.04
2024-10-15 13:50:22.730,74174.183,-0.268,0.215,-0.939,0.2,0.078,0.223,-0.76,-0.003,0.327,-0.278,-0.216,1.04
2024-10-15 13:50:22.740,74174.193,-0.268,0.222,-0.938,0.299,0.169,0.166,-0.672,-0.042,0.388,-0.278,-0.224,1.042
2024-10-15 13:50:22.750,74174.203,-0.267,0.229,-0.936,0.29,0.279,0.041,-0.432,-0.054,0.427,-0.278,-0.231,1.044
2024-10-15 13:50:22.760,74174.213,-0.267,0.232,-0.935,0.25,0.311,-0.094,-0.1,-0.039,0.45,-0.278,-0.234,1.048
2024-10-15 13:50:22.770,74174.223,-0.266,0.233,-0.936,0.232,0.326,-0.17,0.215,0.037,0.393,-0.277,-0.235,1.052
2024-10-15 13:50:22.780,74174.233,-0.264,0.231,-0.937,0.244,0.328,-0.154,0.428,0.145,0.306,-0.275,-0.233,1.057
2024-10-15 13:50:22.790,74174.243,-0.262,0.227,-0.938,0.277,0.279,-0.09,0.433,0.13,0.278,-0.272,-0.229,1.061
2024-10-15 13:50:22.800,74174.252,-0.261,0.224,-0.939,0.302,0.124,-0.035,0.405,0.029,0.209,-0.271,-0.226,1.064
2024-10-15 13:50:22.810,74174.262,-0.26,0.221,-0.94,0.32,-0.081,0.004,0.371,-0.023,0.161,-0.27,-0.223,1.067
2024-10-15 13:50:22.820,74174.272,-0.26,0.219,-0.94,0.279,-0.168,0.005,0.144,-0.107,0.212,-0.27,-0.22,1.07
2024-10-15 13:50:22.830,74174.282,-0.261,0.219,-0.94,0.178,-0.228,-0.008,-0.109,-0.229,0.297,-0.271,-0.221,1.072
2024-10-15 13:50:22.840,74174.292,-0.263,0.221,-0.939,0.113,-0.283,0.048,-0.149,-0.282,0.323,-0.273,-0.223,1.075
2024-10-15 13:50:22.849,74174.302,-0.265,0.223,-0.938,0.111,-0.201,0.11,-0.082,-0.237,0.274,-0.275,-0.225,1.077
2024-10-15 13:50:22.860,74174.312,-0.267,0.225,-0.937,0.095,-0.019,0.102,-0.071,-0.229,0.313,-0.277,-0.227,1.08
2024-10-15 13:50:22.870,74174.322,-0.268,0.226,-0.937,0.013,0.036,0.07,-0.063,-0.195,0.329,-0.278,-0.228,1.083
2024-10-15 13:50:22.880,74174.332,-0.269,0.227,-0.936,-0.038,0.034,0.056,0.073,-0.187,0.228,-0.28,-0.229,1.086
2024-10-15 13:50:22.890,74174.342,-0.27,0.227,-0.936,-0.048,0.054,0.059,0.048,-0.182,0.053,-0.281,-0.229,1.088
2024-10-15 13:50:22.900,74174.352,-0.272,0.227,-0.935,-0.049,0.008,0.02,-0.091,-0.159,-0.109,-0.283,-0.229,1.087
2024-10-15 13:50:22.909,74174.362,-0.273,0.228,-0.935,-0.128,-0.106,-0.104,-0.152,-0.064,-0.093,-0.285,-0.23,1.086
2024-10-15 13:50:22.919,74174.372,-0.273,0.228,-0.934,-0.307,-0.266,-0.221,-0.062,0.085,-0.14,-0.285,-0.231,1.084
2024-10-15 13:50:22.929,74174.382,-0.273,0.228,-0.935,-0.41,-0.282,-0.159,-0.001,0.177,-0.295,-0.284,-0.23,1.082
2024-10-15 13:50:22.940,74174.392,-0.272,0.228,-0.935,-0.303,-0.209,-0.021,-0.227,0.082,-0.361,-0.283,-0.23,1.078
2024-10-15 13:50:22.949,74174.402,-0.273,0.23,-0.934,-0.135,-0.227,0.029,-0.333,-0.031,-0.315,-0.284,-0.232,1.074
2024-10-15 13:50:22.960,74174.412,-0.273,0.231,-0.934,-0.127,-0.251,0.067,-0.076,0.079,-0.399,-0.285,-0.233,1.07
2024-10-15 13:50:22.969,74174.422,-0.273,0.23,-0.934,-0.19,-0.07,0.092,0.095,0.224,-0.404,-0.284,-0.232,1.066
2024-10-15 13:50:22.980,74174.432,-0.272,0.229,-0.935,-0.21,0.138,0.053,-0.106,0.113,-0.194,-0.283,-0.231,1.063
2024-10-15 13:50:22.990,74174.442,-0.272,0.23,-0.934,-0.191,0.074,0.017,-0.252,0.048,-0.153,-0.283,-0.232,1.061
2024-10-15 13:50:23.000,74174.452,-0.271,0.232,-0.934,-0.138,-0.004,0.024,-0.218,0.136,-0.149,-0.283,-0.234,1.059
2024-10-15 13:50:23.010,74174.462,-0.27,0.234,-0.934,-0.091,0.086,0.012,-0.24,0.108,-0.102,-0.282,-0.236,1.057
2024-10-15 13:50:23.019,74174.472,-0.27,0.236,-0.934,-0.059,0.074,-0.006,-0.221,0.095,-0.14,-0.281,-0.238,1.055
2024-10-15 13:50:23.029,74174.482,-0.269,0.237,-0.933,0.003,0.012,-0.011,-0.229,0.078,-0.17,-0.281,-0.239,1.053
2024-10-15 13:50:23.039,74174.492,-0.269,0.239,-0.933,0.041,0.012,-0.015,-0.289,0.074,-0.15,-0.281,-0.241,1.051
2024-10-15 13:50:23.049,74174.502,-0.269,0.242,-0.932,0.027,0.005,-0.016,-0.331,0.071,-0.126,-0.281,-0.244,1.048
2024-10-15 13:50:23.060,74174.512,-0.268,0.245,-0.932,-0.006,-0.021,-0.015,-0.341,0.098,-0.126,-0.28,-0.247,1.046
2024-10-15 13:50:23.069,74174.522,-0.267,0.247,-0.931,-0.026,-0.043,-0.01,-0.357,0.13,-0.125,-0.28,-0.25,1.044
2024-10-15 13:50:23.079,74174.532,-0.266,0.251,-0.931,-0.04,-0.073,-0.001,-0.48,0.154,-0.116,-0.279,-0.254,1.042
2024-10-15 13:50:23.089,74174.542,-0.265,0.257,-0.93,-0.063,-0.115,0.009,-0.855,0.256,-0.003,-0.277,-0.26,1.039
2024-10-15 13:50:23.099,74174.552,-0.262,0.268,-0.927,-0.083,-0.166,0.035,-1.428,0.241,0.175,-0.276,-0.271,1.037
2024-10-15 13:50:23.109,74174.562,-0.259,0.283,-0.923,-0.092,-0.227,0.025,-1.69,0.259,0.281,-0.274,-0.287,1.035
2024-10-15 13:50:23.119,74174.572,-0.256,0.299,-0.919,-0.103,-0.176,-0.063,-1.612,0.371,0.337,-0.271,-0.304,1.033
2024-10-15 13:50:23.129,74174.582,-0.251,0.313,-0.916,-0.135,0.004,-0.129,-1.335,0.474,0.328,-0.267,-0.319,1.032
2024-10-15 13:50:23.139,74174.592,-0.245,0.325,-0.914,-0.166,0.164,-0.148,-0.948,0.532,0.279,-0.262,-0.331,1.032
2024-10-15 13:50:23.149,74174.602,-0.239,0.332,-0.912,-0.149,0.252,-0.134,-0.544,0.525,0.193,-0.257,-0.338,1.033
2024-10-15 13:50:23.159,74174.612,-0.234,0.336,-0.912,-0.083,0.293,-0.101,-0.24,0.479,0.13,-0.251,-0.343,1.033
2024-10-15 13:50:23.169,74174.622,-0.23,0.337,-0.913,-0.013,0.292,-0.058,-0.012,0.394,0.096,-0.247,-0.344,1.034
2024-10-15 13:50:23.179,74174.632,-0.226,0.337,-0.914,0.036,0.251,0.014,0.07,0.265,0.09,-0.243,-0.344,1.035
2024-10-15 13:50:23.189,74174.642,-0.225,0.336,-0.915,0.081,0.187,0.085,0.087,0.082,0.092,-0.241,-0.343,1.036
2024-10-15 13:50:23.199,74174.652,-0.224,0.336,-0.915,0.113,0.135,0.132,0.099,-0.095,0.112,-0.24,-0.343,1.038
2024-10-15 13:50:23.209,74174.662,-0.225,0.335,-0.915,0.125,0.09,0.153,0.168,-0.225,0.126,-0.242,-0.342,1.039
2024-10-15 13:50:23.219,74174.672,-0.227,0.333,-0.915,0.122,0.086,0.158,0.299,-0.313,0.14,-0.244,-0.34,1.041
2024-10-15 13:50:23.229,74174.682,-0.23,0.33,-0.915,0.109,0.098,0.165,0.402,-0.351,0.128,-0.246,-0.337,1.043
2024-10-15 13:50:23.239,74174.692,-0.233,0.327,-0.916,0.093,0.097,0.17,0.452,-0.372,0.087,-0.249,-0.333,1.046
2024-10-15 13:50:23.249,74174.702,-0.236,0.323,-0.917,0.068,0.082,0.155,0.473,-0.371,0.067,-0.252,-0.328,1.048
2024-10-15 13:50:23.259,74174.712,-0.239,0.318,-0.917,0.05,0.043,0.124,0.492,-0.358,0.053,-0.255,-0.324,1.05
2024-10-15 13:50:23.269,74174.722,-0.242,0.314,-0.918,0.04,0.01,0.083,0.483,-0.321,0.04,-0.258,-0.319,1.051
2024-10-15 13:50:23.279,74174.732,-0.245,0.31,-0.919,0.028,-0.015,0.046,0.423,-0.283,0.041,-0.261,-0.315,1.053
2024-10-15 13:50:23.289,74174.742,-0.247,0.306,-0.919,0.014,-0.048,0.024,0.321,-0.256,0.068,-0.263,-0.311,1.055
2024-10-15 13:50:23.299,74174.752,-0.249,0.304,-0.919,0.003,-0.084,0.02,0.196,-0.205,0.081,-0.265,-0.309,1.056
2024-10-15 13:50:23.309,74174.762,-0.251,0.303,-0.919,-0.002,-0.106,0.031,0.077,-0.182,0.074,-0.266,-0.308,1.057
2024-10-15 13:50:23.320,74174.772,-0.252,0.303,-0.919,-0.009,-0.116,0.033,-0.026,-0.167,0.063,-0.268,-0.308,1.058
2024-10-15 13:50:23.329,74174.782,-0.253,0.304,-0.918,-0.011,-0.13,0.018,-0.06,-0.125,0.059,-0.269,-0.309,1.058
2024-10-15 13:50:23.339,74174.792,-0.254,0.305,-0.918,-0.008,-0.12,-0.003,-0.096,-0.085,0.045,-0.27,-0.31,1.059
2024-10-15 13:50:23.349,74174.802,-0.255,0.306,-0.917,-0.006,-0.114,-0.009,-0.211,-0.057,0.015,-0.271,-0.311,1.059
2024-10-15 13:50:23.359,74174.812,-0.255,0.309,-0.916,0.008,-0.133,0.007,-0.375,-0.058,0.018,-0.272,-0.314,1.058
2024-10-15 13:50:23.369,74174.822,-0.256,0.313,-0.915,0.026,-0.176,0.032,-0.584,-0.129,0.027,-0.273,-0.319,1.057
2024-10-15 13:50:23.379,74174.832,-0.257,0.319,-0.912,0.039,-0.223,0.05,-0.72,-0.163,0.035,-0.275,-0.325,1.055
2024-10-15 13:50:23.396,74174.841,-0.259,0.326,-0.909,0.038,-0.215,0.049,-0.718,-0.232,0.046,-0.277,-0.332,1.053
2024-10-15 13:50:23.400,74174.851,-0.261,0.332,-0.906,0.023,-0.168,0.046,-0.591,-0.29,0.005,-0.28,-0.338,1.051
2024-10-15 13:50:23.409,74174.861,-0.264,0.336,-0.904,0.024,-0.091,0.06,-0.266,-0.351,-0.088,-0.284,-0.343,1.05
2024-10-15 13:50:23.419,74174.871,-0.268,0.336,-0.903,0.029,0.032,0.07,0.165,-0.303,-0.186,-0.288,-0.343,1.048
2024-10-15 13:50:23.429,74174.881,-0.271,0.332,-0.904,0.021,0.153,0.053,0.545,-0.231,-0.29,-0.291,-0.339,1.047
2024-10-15 13:50:23.439,74174.891,-0.274,0.325,-0.905,0.014,0.247,0.038,0.75,-0.226,-0.349,-0.294,-0.331,1.046
2024-10-15 13:50:23.449,74174.901,-0.277,0.318,-0.907,0.013,0.253,0.035,0.714,-0.266,-0.307,-0.297,-0.323,1.044
2024-10-15 13:50:23.459,74174.911,-0.281,0.312,-0.908,0.05,0.163,0.059,0.397,-0.328,-0.194,-0.3,-0.317,1.044
2024-10-15 13:50:23.469,74174.921,-0.283,0.311,-0.907,0.093,0.054,0.102,-0.49,0.019,0.052,-0.302,-0.316,1.043
2024-10-15 13:50:23.478,74174.931,-0.282,0.321,-0.904,0.1,-0.08,0.157,-1.226,-0.057,0.385,-0.302,-0.327,1.042
2024-10-15 13:50:23.489,74174.941,-0.282,0.329,-0.901,-0.032,-0.254,-0.019,-0.198,-0.132,0.354,-0.303,-0.335,1.044
2024-10-15 13:50:23.499,74174.951,-0.28,0.327,-0.903,-0.187,-0.018,-0.506,0.594,0.44,-0.047,-0.301,-0.333,1.046
2024-10-15 13:50:23.509,74174.961,-0.276,0.321,-0.906,-0.117,0.422,-0.332,0.676,0.398,-0.005,-0.295,-0.327,1.047
2024-10-15 13:50:23.519,74174.971,-0.273,0.315,-0.909,-0.112,0.279,-0.173,0.561,0.196,0.112,-0.292,-0.321,1.05
2024-10-15 13:50:23.529,74174.981,-0.271,0.312,-0.911,0.016,0.086,-0.107,0.374,0.145,0.1,-0.289,-0.317,1.052
2024-10-15 13:50:23.539,74174.991,-0.27,0.309,-0.912,0.14,0.068,0.061,0.324,0.059,0.105,-0.288,-0.314,1.054
2024-10-15 13:50:23.549,74175.001,-0.269,0.307,-0.913,0.159,0.069,0.095,0.179,0.048,0.233,-0.287,-0.312,1.057
2024-10-15 13:50:23.559,74175.011,-0.268,0.309,-0.913,0.168,0.008,0.08,-0.427,-0.014,0.59,-0.285,-0.314,1.061
2024-10-15 13:50:23.568,74175.021,-0.267,0.318,-0.91,0.191,-0.119,0.182,-1.106,-0.413,0.883,-0.285,-0.324,1.066
2024-10-15 13:50:23.579,74175.031,-0.27,0.33,-0.905,0.298,-0.203,0.313,-0.812,-0.747,0.677,-0.29,-0.336,1.071
2024-10-15 13:50:23.588,74175.041,-0.274,0.333,-0.902,0.395,-0.053,0.301,0.374,-0.332,0.006,-0.295,-0.339,1.074
2024-10-15 13:50:23.598,74175.051,-0.274,0.325,-0.905,0.25,0.35,0.015,1.122,0.341,-0.221,-0.294,-0.331,1.075
2024-10-15 13:50:23.608,74175.061,-0.272,0.315,-0.909,-0.128,0.497,-0.395,0.905,0.154,0.188,-0.29,-0.321,1.078
2024-10-15 13:50:23.618,74175.071,-0.271,0.31,-0.911,-0.341,0.006,-0.51,0.478,-0.035,0.177,-0.289,-0.315,1.082
2024-10-15 13:50:23.628,74175.081,-0.271,0.306,-0.913,-0.175,-0.361,-0.275,0.354,0.003,0.034,-0.288,-0.311,1.084
2024-10-15 13:50:23.638,74175.091,-0.271,0.304,-0.913,0.005,-0.266,-0.015,0.084,-0.221,-0.011,-0.289,-0.309,1.085
2024-10-15 13:50:23.648,74175.101,-0.275,0.304,-0.912,0.115,-0.315,0.098,-0.08,-0.389,-0.17,-0.292,-0.309,1.084
2024-10-15 13:50:23.658,74175.111,-0.279,0.304,-0.911,0.141,-0.377,0.065,-0.087,-0.399,-0.174,-0.297,-0.309,1.082
2024-10-15 13:50:23.668,74175.121,-0.282,0.304,-0.91,-0.016,-0.343,-0.033,0.21,-0.243,-0.204,-0.301,-0.308,1.08
2024-10-15 13:50:23.678,74175.131,-0.284,0.299,-0.911,-0.176,-0.2,-0.05,0.545,-0.022,-0.355,-0.302,-0.304,1.079
2024-10-15 13:50:23.688,74175.141,-0.286,0.293,-0.912,-0.16,0.005,-0.019,0.397,-0.103,-0.391,-0.304,-0.298,1.076
2024-10-15 13:50:23.698,74175.151,-0.289,0.29,-0.912,-0.071,0.03,-0.071,0.052,-0.303,-0.34,-0.306,-0.295,1.073
2024-10-15 13:50:23.708,74175.161,-0.293,0.289,-0.911,-0.042,-0.091,-0.119,0.033,-0.276,-0.379,-0.311,-0.293,1.07
2024-10-15 13:50:23.718,74175.171,-0.295,0.286,-0.911,-0.101,-0.023,-0.106,0.324,-0.074,-0.409,-0.313,-0.291,1.067
2024-10-15 13:50:23.728,74175.181,-0.297,0.281,-0.913,-0.195,0.156,-0.078,0.489,0.057,-0.462,-0.314,-0.285,1.064
2024-10-15 13:50:23.738,74175.191,-0.297,0.275,-0.914,-0.225,0.198,-0.009,0.454,0.117,-0.483,-0.314,-0.279,1.06
2024-10-15 13:50:23.748,74175.201,-0.297,0.271,-0.916,-0.215,0.13,0.078,0.256,0.073,-0.412,-0.314,-0.274,1.057
2024-10-15 13:50:23.758,74175.211,-0.298,0.268,-0.916,-0.213,0.023,0.16,0.083,0.042,-0.322,-0.314,-0.272,1.054
2024-10-15 13:50:23.768,74175.221,-0.298,0.267,-0.916,-0.204,-0.052,0.23,-0.023,0.078,-0.277,-0.315,-0.27,1.051
2024-10-15 13:50:23.778,74175.231,-0.298,0.267,-0.916,-0.185,-0.018,0.263,-0.124,0.066,-0.139,-0.314,-0.27,1.049
2024-10-15 13:50:23.788,74175.241,-0.298,0.268,-0.916,-0.175,0.006,0.26,-0.11,0.046,-0.103,-0.314,-0.271,1.047
2024-10-15 13:50:23.798,74175.251,-0.298,0.268,-0.916,-0.144,0.015,0.233,-0.042,0.056,-0.091,-0.314,-0.272,1.046
2024-10-15 13:50:23.808,74175.261,-0.297,0.268,-0.917,-0.129,0.1,0.119,0.068,0.16,-0.059,-0.313,-0.271,1.045
2024-10-15 13:50:23.818,74175.271,-0.295,0.267,-0.918,-0.145,0.152,-0.027,0.175,0.287,-0.002,-0.311,-0.27,1.046
2024-10-15 13:50:23.828,74175.281,-0.292,0.265,-0.919,-0.136,0.19,-0.128,0.192,0.291,0.106,-0.308,-0.268,1.047
2024-10-15 13:50:23.838,74175.291,-0.289,0.264,-0.92,-0.078,0.179,-0.149,0.155,0.258,0.21,-0.304,-0.267,1.049
2024-10-15 13:50:23.847,74175.301,-0.286,0.264,-0.921,0.026,0.132,-0.073,0.09,0.242,0.294,-0.301,-0.267,1.052
2024-10-15 13:50:23.858,74175.311,-0.283,0.264,-0.922,0.131,0.13,0.033,-0.024,0.174,0.376,-0.298,-0.267,1.055
2024-10-15 13:50:23.868,74175.321,-0.281,0.266,-0.922,0.228,0.099,0.109,-0.153,0.094,0.426,-0.296,-0.269,1.059
2024-10-15 13:50:23.878,74175.331,-0.279,0.269,-0.922,0.31,0.033,0.131,-0.263,0.059,0.48,-0.294,-0.273,1.063
2024-10-15 13:50:23.888,74175.341,-0.278,0.274,-0.921,0.33,0.004,0.099,-0.328,-0.028,0.521,-0.293,-0.277,1.067
2024-10-15 13:50:23.898,74175.351,-0.277,0.278,-0.92,0.306,-0.015,0.048,-0.392,-0.133,0.56,-0.292,-0.282,1.071
2024-10-15 13:50:23.908,74175.361,-0.277,0.283,-0.918,0.284,-0.02,0.017,-0.32,-0.176,0.59,-0.293,-0.287,1.076
2024-10-15 13:50:23.918,74175.371,-0.277,0.287,-0.917,0.254,0.02,0.02,-0.127,-0.178,0.493,-0.293,-0.291,1.08
2024-10-15 13:50:23.928,74175.381,-0.277,0.288,-0.917,0.239,0.079,0.044,0.207,-0.127,0.32,-0.294,-0.292,1.085
2024-10-15 13:50:23.938,74175.391,-0.278,0.285,-0.917,0.208,0.124,0.01,0.497,-0.114,0.137,-0.294,-0.289,1.088
2024-10-15 13:50:23.948,74175.401,-0.278,0.281,-0.919,0.152,0.054,-0.081,0.49,-0.042,0.054,-0.294,-0.284,1.09
2024-10-15 13:50:23.960,74175.411,-0.279,0.277,-0.919,0.061,-0.076,-0.17,0.226,-0.141,0.144,-0.294,-0.281,1.092
2024-10-15 13:50:23.967,74175.421,-0.28,0.277,-0.919,-0.021,-0.265,-0.156,0.078,-0.199,0.081,-0.296,-0.28,1.094
2024-10-15 13:50:23.977,74175.43,-0.282,0.276,-0.919,-0.005,-0.349,-0.021,-0.011,-0.24,-0.197,-0.298,-0.28,1.094
2024-10-15 13:50:23.987,74175.44,-0.285,0.275,-0.918,0.027,-0.22,0.021,0.054,-0.253,-0.26,-0.301,-0.279,1.091
2024-10-15 13:50:23.997,74175.45,-0.288,0.273,-0.918,-0.099,-0.162,-0.108,0.237,-0.125,-0.276,-0.304,-0.277,1.089
2024-10-15 13:50:24.007,74175.46,-0.289,0.269,-0.919,-0.293,-0.15,-0.119,0.417,0.052,-0.435,-0.304,-0.273,1.087
2024-10-15 13:50:24.018,74175.47,-0.29,0.264,-0.92,-0.322,0.001,-0.061,0.337,-0.048,-0.405,-0.305,-0.268,1.084
2024-10-15 13:50:24.028,74175.48,-0.292,0.26,-0.92,-0.244,-0.015,-0.06,0.328,-0.051,-0.469,-0.307,-0.263,1.081
2024-10-15 13:50:24.038,74175.49,-0.293,0.255,-0.922,-0.22,-0.078,-0.029,0.489,0.093,-0.527,-0.307,-0.258,1.077
2024-10-15 13:50:24.048,74175.5,-0.293,0.249,-0.923,-0.278,0.04,-0.029,0.538,0.098,-0.458,-0.307,-0.251,1.074
2024-10-15 13:50:24.058,74175.51,-0.293,0.242,-0.925,-0.295,0.045,-0.021,0.608,0.188,-0.527,-0.307,-0.245,1.071
2024-10-15 13:50:24.068,74175.52,-0.292,0.235,-0.927,-0.256,0.035,0.045,0.601,0.247,-0.526,-0.305,-0.237,1.067
2024-10-15 13:50:24.078,74175.53,-0.291,0.228,-0.929,-0.237,0.063,0.072,0.523,0.193,-0.481,-0.304,-0.23,1.064
2024-10-15 13:50:24.088,74175.54,-0.29,0.222,-0.931,-0.193,-0.016,0.103,0.449,0.238,-0.472,-0.302,-0.224,1.061
2024-10-15 13:50:24.098,74175.55,-0.289,0.217,-0.932,-0.146,-0.028,0.118,0.329,0.199,-0.353,-0.301,-0.219,1.058
2024-10-15 13:50:24.107,74175.56,-0.288,0.215,-0.933,-0.14,-0.04,0.123,0.066,0.149,-0.23,-0.3,-0.216,1.056
2024-10-15 13:50:24.117,74175.57,-0.287,0.215,-0.933,-0.086,-0.072,0.126,-0.164,0.113,-0.091,-0.299,-0.216,1.054
2024-10-15 13:50:24.127,74175.58,-0.286,0.217,-0.933,-0.052,-0.043,0.116,-0.316,0.094,0.044,-0.298,-0.219,1.053
2024-10-15 13:50:24.137,74175.59,-0.285,0.22,-0.933,-0.014,-0.028,0.099,-0.256,0.103,0.112,-0.297,-0.222,1.053
2024-10-15 13:50:24.147,74175.6,-0.284,0.222,-0.933,0.048,0.051,0.084,-0.202,0.112,0.179,-0.296,-0.224,1.054
2024-10-15 13:50:24.158,74175.61,-0.282,0.225,-0.933,0.119,0.165,0.064,-0.213,0.109,0.261,-0.294,-0.227,1.055
2024-10-15 13:50:24.167,74175.62,-0.281,0.228,-0.932,0.177,0.25,0.046,-0.24,0.102,0.359,-0.293,-0.23,1.058
2024-10-15 13:50:24.177,74175.63,-0.279,0.231,-0.932,0.217,0.278,0.009,-0.235,0.118,0.476,-0.291,-0.234,1.061
2024-10-15 13:50:24.187,74175.64,-0.277,0.235,-0.932,0.246,0.274,-0.033,-0.272,0.074,0.565,-0.289,-0.237,1.065
2024-10-15 13:50:24.197,74175.65,-0.275,0.24,-0.931,0.262,0.238,-0.06,-0.289,-0.016,0.647,-0.287,-0.242,1.07
2024-10-15 13:50:24.207,74175.66,-0.274,0.244,-0.93,0.275,0.178,-0.04,-0.175,-0.156,0.644,-0.287,-0.246,1.076
2024-10-15 13:50:24.218,74175.67,-0.274,0.246,-0.93,0.283,0.109,0.002,0.084,-0.111,0.498,-0.287,-0.248,1.082
2024-10-15 13:50:24.227,74175.68,-0.274,0.245,-0.93,0.291,0.108,0.034,0.316,-0.035,0.334,-0.286,-0.247,1.086
2024-10-15 13:50:24.237,74175.69,-0.273,0.242,-0.931,0.249,0.099,-0.002,0.358,-0.022,0.241,-0.286,-0.245,1.09
2024-10-15 13:50:24.247,74175.7,-0.273,0.24,-0.931,0.178,-0.059,-0.091,0.214,-0.116,0.208,-0.286,-0.242,1.093
2024-10-15 13:50:24.257,74175.71,-0.274,0.24,-0.931,0.118,-0.243,-0.138,0.02,-0.195,0.217,-0.286,-0.242,1.096
2024-10-15 13:50:24.267,74175.72,-0.276,0.241,-0.93,0.076,-0.346,-0.097,-0.115,-0.31,0.178,-0.289,-0.243,1.098
2024-10-15 13:50:24.277,74175.73,-0.279,0.242,-0.929,0.065,-0.339,0.001,-0.056,-0.343,0.007,-0.292,-0.244,1.098
2024-10-15 13:50:24.287,74175.74,-0.282,0.241,-0.928,0.067,-0.246,0.026,0.09,-0.275,-0.142,-0.295,-0.244,1.098
2024-10-15 13:50:24.297,74175.75,-0.285,0.24,-0.928,-0.02,-0.131,-0.061,0.228,-0.204,-0.16,-0.298,-0.242,1.096
2024-10-15 13:50:24.307,74175.76,-0.287,0.236,-0.928,-0.154,-0.09,-0.105,0.397,-0.107,-0.25,-0.299,-0.238,1.095
2024-10-15 13:50:24.317,74175.77,-0.288,0.231,-0.929,-0.185,-0.051,-0.082,0.438,-0.098,-0.333,-0.301,-0.233,1.094
2024-10-15 13:50:24.327,74175.78,-0.29,0.226,-0.93,-0.163,-0.015,-0.058,0.413,-0.112,-0.408,-0.302,-0.228,1.092
2024-10-15 13:50:24.337,74175.79,-0.292,0.221,-0.931,-0.196,-0.053,-0.023,0.473,-0.015,-0.444,-0.304,-0.223,1.089
2024-10-15 13:50:24.347,74175.8,-0.293,0.215,-0.932,-0.261,-0.022,-0.001,0.458,0.001,-0.38,-0.304,-0.217,1.086
2024-10-15 13:50:24.357,74175.81,-0.293,0.21,-0.933,-0.304,0.015,0.014,0.403,0.022,-0.341,-0.305,-0.212,1.084
2024-10-15 13:50:24.367,74175.82,-0.293,0.206,-0.934,-0.302,0.03,0.064,0.338,0.069,-0.274,-0.305,-0.208,1.082
2024-10-15 13:50:24.377,74175.83,-0.293,0.202,-0.934,-0.287,0.061,0.106,0.27,0.078,-0.227,-0.304,-0.204,1.081
2024-10-15 13:50:24.387,74175.84,-0.293,0.2,-0.935,-0.253,0.064,0.151,0.203,0.139,-0.214,-0.303,-0.201,1.079
2024-10-15 13:50:24.397,74175.85,-0.292,0.198,-0.936,-0.212,0.071,0.183,0.064,0.131,-0.08,-0.302,-0.199,1.078
2024-10-15 13:50:24.407,74175.86,-0.291,0.198,-0.936,-0.177,0.061,0.176,-0.028,0.055,-0.063,-0.301,-0.199,1.078
2024-10-15 13:50:24.417,74175.87,-0.29,0.197,-0.937,-0.128,0.002,0.15,0.107,0.216,-0.116,-0.3,-0.198,1.077
2024-10-15 13:50:24.427,74175.88,-0.288,0.196,-0.937,-0.106,0.059,0.06,0.009,0.2,0.019,-0.298,-0.197,1.076
2024-10-15 13:50:24.437,74175.89,-0.286,0.197,-0.938,-0.132,0.03,-0.026,-0.136,0.149,0.078,-0.296,-0.198,1.077
2024-10-15 13:50:24.447,74175.9,-0.285,0.199,-0.938,-0.1,-0.086,-0.04,-0.276,0.114,0.14,-0.295,-0.201,1.077
2024-10-15 13:50:24.457,74175.91,-0.283,0.203,-0.937,-0.052,-0.07,-0.025,-0.357,0.101,0.264,-0.294,-0.204,1.078
2024-10-15 13:50:24.467,74175.92,-0.282,0.208,-0.937,-0.024,-0.024,-0.004,-0.464,0.088,0.381,-0.292,-0.209,1.08
2024-10-15 13:50:24.477,74175.93,-0.28,0.214,-0.936,0.03,0.022,0.031,-0.669,0.054,0.454,-0.291,-0.216,1.082
2024-10-15 13:50:24.487,74175.94,-0.279,0.222,-0.934,0.125,0.077,0.079,-0.744,0.021,0.545,-0.29,-0.224,1.085
2024-10-15 13:50:24.497,74175.95,-0.277,0.23,-0.933,0.211,0.115,0.103,-0.672,-0.011,0.606,-0.289,-0.233,1.089
2024-10-15 13:50:24.507,74175.96,-0.276,0.237,-0.931,0.273,0.156,0.075,-0.444,-0.051,0.559,-0.288,-0.24,1.093
2024-10-15 13:50:24.517,74175.97,-0.276,0.242,-0.93,0.322,0.187,0.038,-0.187,-0.056,0.467,-0.288,-0.244,1.097
2024-10-15 13:50:24.527,74175.98,-0.275,0.243,-0.93,0.352,0.19,-0.008,0.109,-0.045,0.288,-0.288,-0.246,1.101
2024-10-15 13:50:24.537,74175.99,-0.275,0.241,-0.931,0.339,0.134,-0.056,0.438,0.046,0.067,-0.287,-0.243,1.103
2024-10-15 13:50:24.547,74176.0,-0.274,0.237,-0.932,0.285,0.058,-0.137,0.468,0.121,-0.047,-0.286,-0.239,1.105
2024-10-15 13:50:24.557,74176.01,-0.273,0.234,-0.933,0.196,-0.073,-0.23,0.1,-0.046,0.015,-0.285,-0.236,1.105
2024-10-15 13:50:24.567,74176.019,-0.275,0.235,-0.932,0.118,-0.326,-0.202,-0.224,-0.265,-0.012,-0.287,-0.237,1.105
2024-10-15 13:50:24.577,74176.029,-0.278,0.237,-0.931,0.11,-0.507,-0.065,-0.278,-0.376,-0.019,-0.29,-0.239,1.104
2024-10-15 13:50:24.587,74176.039,-0.282,0.239,-0.929,0.081,-0.437,0.044,-0.199,-0.416,-0.087,-0.294,-0.241,1.103
2024-10-15 13:50:24.597,74176.049,-0.286,0.24,-0.928,0.064,-0.266,0.112,-0.022,-0.35,-0.272,-0.299,-0.242,1.101
2024-10-15 13:50:24.607,74176.059,-0.29,0.238,-0.927,0.039,-0.03,0.024,0.135,-0.376,-0.252,-0.303,-0.241,1.098
2024-10-15 13:50:24.616,74176.069,-0.293,0.234,-0.927,-0.104,0.05,-0.086,0.527,-0.177,-0.426,-0.307,-0.237,1.096
2024-10-15 13:50:24.626,74176.079,-0.295,0.226,-0.928,-0.227,0.09,-0.103,0.798,0.143,-0.618,-0.307,-0.228,1.093
2024-10-15 13:50:24.636,74176.089,-0.295,0.218,-0.93,-0.254,0.205,-0.13,0.615,0.06,-0.533,-0.307,-0.22,1.09
2024-10-15 13:50:24.646,74176.099,-0.296,0.212,-0.931,-0.243,0.033,-0.138,0.43,-0.033,-0.538,-0.308,-0.213,1.086
2024-10-15 13:50:24.656,74176.109,-0.297,0.206,-0.932,-0.213,-0.168,-0.049,0.528,0.097,-0.583,-0.308,-0.207,1.082
2024-10-15 13:50:24.667,74176.119,-0.297,0.199,-0.934,-0.219,-0.079,0.034,0.538,0.196,-0.553,-0.308,-0.2,1.078
2024-10-15 13:50:24.676,74176.129,-0.296,0.193,-0.936,-0.259,-0.006,0.076,0.334,0.221,-0.475,-0.306,-0.194,1.075
2024-10-15 13:50:24.686,74176.139,-0.295,0.191,-0.936,-0.255,-0.034,0.126,-0.067,0.096,-0.343,-0.305,-0.192,1.071
2024-10-15 13:50:24.696,74176.149,-0.295,0.192,-0.936,-0.199,-0.087,0.199,-0.302,0.063,-0.235,-0.305,-0.193,1.068
2024-10-15 13:50:24.706,74176.159,-0.295,0.195,-0.936,-0.147,-0.061,0.248,-0.416,0.019,-0.051,-0.305,-0.196,1.065
2024-10-15 13:50:24.716,74176.169,-0.295,0.199,-0.935,-0.139,0.044,0.236,-0.407,-0.049,0.028,-0.306,-0.2,1.064
2024-10-15 13:50:24.727,74176.179,-0.295,0.201,-0.934,-0.108,0.142,0.196,-0.158,0.021,0.032,-0.306,-0.203,1.063
2024-10-15 13:50:24.737,74176.189,-0.294,0.202,-0.934,-0.08,0.273,0.107,0.086,0.1,0.085,-0.305,-0.203,1.064
2024-10-15 13:50:24.746,74176.199,-0.293,0.201,-0.935,-0.091,0.319,-0.025,0.19,0.117,0.165,-0.304,-0.202,1.065
2024-10-15 13:50:24.756,74176.209,-0.292,0.2,-0.935,-0.079,0.254,-0.104,0.166,0.1,0.221,-0.302,-0.201,1.068
2024-10-15 13:50:24.766,74176.219,-0.29,0.199,-0.936,-0.014,0.174,-0.124,0.119,0.049,0.277,-0.301,-0.2,1.071
2024-10-15 13:50:24.776,74176.229,-0.29,0.199,-0.936,0.055,0.118,-0.092,0.086,0.001,0.334,-0.3,-0.2,1.074
2024-10-15 13:50:24.786,74176.239,-0.289,0.199,-0.936,0.116,0.096,-0.037,0.079,-0.05,0.386,-0.299,-0.201,1.078
2024-10-15 13:50:24.796,74176.249,-0.289,0.2,-0.936,0.166,0.105,-0.004,0.092,-0.09,0.422,-0.299,-0.201,1.082
2024-10-15 13:50:24.806,74176.259,-0.289,0.2,-0.936,0.207,0.106,0.014,0.103,-0.133,0.459,-0.3,-0.201,1.086
2024-10-15 13:50:24.816,74176.269,-0.289,0.2,-0.936,0.235,0.097,0.011,0.121,-0.118,0.477,-0.3,-0.202,1.091
2024-10-15 13:50:24.826,74176.279,-0.29,0.201,-0.936,0.254,0.089,0.013,0.014,-0.138,0.52,-0.3,-0.202,1.096
2024-10-15 13:50:24.836,74176.289,-0.29,0.203,-0.935,0.267,0.071,0.022,-0.118,-0.21,0.564,-0.301,-0.205,1.102
2024-10-15 13:50:24.846,74176.299,-0.291,0.206,-0.934,0.28,0.012,0.05,-0.062,-0.223,0.522,-0.302,-0.207,1.107
2024-10-15 13:50:24.856,74176.309,-0.292,0.206,-0.934,0.282,0.004,0.068,0.262,-0.12,0.325,-0.303,-0.207,1.111
2024-10-15 13:50:24.866,74176.319,-0.292,0.203,-0.935,0.239,0.044,0.019,0.481,-0.066,0.131,-0.303,-0.205,1.114
2024-10-15 13:50:24.876,74176.329,-0.292,0.199,-0.935,0.148,0.003,-0.087,0.47,-0.029,0.024,-0.303,-0.2,1.117
2024-10-15 13:50:24.886,74176.339,-0.293,0.196,-0.936,0.045,-0.165,-0.171,0.2,-0.101,0.095,-0.303,-0.197,1.118
2024-10-15 13:50:24.896,74176.349,-0.294,0.195,-0.936,-0.035,-0.343,-0.132,0.036,-0.191,0.09,-0.305,-0.196,1.12
2024-10-15 13:50:24.906,74176.359,-0.296,0.195,-0.935,-0.014,-0.436,0.049,0.024,-0.185,-0.174,-0.306,-0.196,1.119
2024-10-15 13:50:24.916,74176.369,-0.298,0.194,-0.935,0.08,-0.326,0.153,-0.145,-0.204,-0.308,-0.309,-0.195,1.117
2024-10-15 13:50:24.926,74176.379,-0.301,0.196,-0.933,0.046,-0.24,0.021,-0.356,-0.378,-0.172,-0.312,-0.197,1.113
2024-10-15 13:50:24.936,74176.389,-0.305,0.197,-0.932,-0.171,-0.343,-0.089,0.096,-0.148,-0.377,-0.316,-0.198,1.11
2024-10-15 13:50:24.946,74176.399,-0.305,0.192,-0.933,-0.331,-0.182,-0.076,0.585,0.169,-0.556,-0.316,-0.193,1.107
2024-10-15 13:50:24.956,74176.409,-0.305,0.185,-0.934,-0.333,0.144,-0.074,0.537,0.104,-0.522,-0.315,-0.186,1.104
2024-10-15 13:50:24.966,74176.419,-0.305,0.179,-0.935,-0.255,0.085,-0.052,0.381,0.025,-0.552,-0.316,-0.18,1.1
2024-10-15 13:50:24.976,74176.429,-0.306,0.174,-0.936,-0.205,-0.068,0.019,0.381,0.133,-0.571,-0.316,-0.175,1.096
2024-10-15 13:50:24.986,74176.439,-0.305,0.169,-0.937,-0.223,-0.007,0.053,0.255,0.166,-0.455,-0.315,-0.17,1.092
2024-10-15 13:50:24.996,74176.449,-0.304,0.167,-0.938,-0.261,0.027,0.066,0.013,0.137,-0.374,-0.314,-0.167,1.088
2024-10-15 13:50:25.006,74176.459,-0.304,0.167,-0.938,-0.244,-0.015,0.104,-0.224,0.133,-0.266,-0.313,-0.167,1.085
2024-10-15 13:50:25.015,74176.469,-0.303,0.169,-0.938,-0.199,-0.009,0.132,-0.366,0.102,-0.164,-0.312,-0.17,1.082
2024-10-15 13:50:25.026,74176.479,-0.302,0.172,-0.938,-0.17,0.005,0.149,-0.355,0.118,-0.137,-0.312,-0.173,1.079
2024-10-15 13:50:25.036,74176.489,-0.301,0.175,-0.938,-0.135,0.055,0.155,-0.318,0.194,-0.063,-0.311,-0.176,1.077
2024-10-15 13:50:25.046,74176.499,-0.299,0.178,-0.938,-0.116,0.121,0.128,-0.306,0.229,0.042,-0.309,-0.178,1.076
2024-10-15 13:50:25.056,74176.509,-0.297,0.181,-0.938,-0.09,0.142,0.096,-0.326,0.249,0.109,-0.306,-0.182,1.076
2024-10-15 13:50:25.066,74176.519,-0.294,0.184,-0.938,-0.011,0.14,0.078,-0.335,0.235,0.125,-0.304,-0.185,1.076
2024-10-15 13:50:25.076,74176.529,-0.292,0.187,-0.938,0.093,0.137,0.066,-0.291,0.209,0.126,-0.302,-0.189,1.076
2024-10-15 13:50:25.086,74176.539,-0.29,0.19,-0.938,0.185,0.128,0.049,-0.233,0.186,0.097,-0.3,-0.191,1.076
2024-10-15 13:50:25.096,74176.549,-0.288,0.192,-0.938,0.254,0.122,0.023,-0.179,0.114,0.104,-0.298,-0.194,1.077
2024-10-15 13:50:25.106,74176.559,-0.287,0.194,-0.938,0.282,0.107,-0.025,-0.116,0.072,0.119,-0.297,-0.195,1.077
2024-10-15 13:50:25.116,74176.569,-0.286,0.195,-0.938,0.271,0.078,-0.1,-0.038,0.064,0.144,-0.296,-0.197,1.079
2024-10-15 13:50:25.126,74176.579,-0.285,0.196,-0.938,0.214,0.064,-0.182,-0.006,0.078,0.186,-0.295,-0.197,1.08
2024-10-15 13:50:25.136,74176.589,-0.284,0.197,-0.938,0.156,0.038,-0.227,-0.091,0.022,0.237,-0.294,-0.198,1.082
2024-10-15 13:50:25.146,74176.599,-0.284,0.199,-0.938,0.121,-0.003,-0.211,-0.225,-0.069,0.305,-0.294,-0.2,1.084
2024-10-15 13:50:25.156,74176.608,-0.284,0.203,-0.937,0.129,-0.057,-0.122,-0.388,-0.102,0.336,-0.295,-0.204,1.086
2024-10-15 13:50:25.166,74176.618,-0.285,0.208,-0.936,0.147,-0.066,0.003,-0.576,-0.206,0.403,-0.296,-0.21,1.089
2024-10-15 13:50:25.175,74176.628,-0.287,0.216,-0.933,0.154,-0.065,0.105,-0.704,-0.357,0.449,-0.298,-0.218,1.091
2024-10-15 13:50:25.185,74176.638,-0.289,0.223,-0.931,0.176,-0.097,0.165,-0.541,-0.385,0.332,-0.301,-0.225,1.093
2024-10-15 13:50:25.196,74176.648,-0.292,0.227,-0.929,0.154,-0.036,0.144,-0.222,-0.285,0.2,-0.304,-0.229,1.094
2024-10-15 13:50:25.206,74176.658,-0.293,0.229,-0.928,0.054,0.07,0.028,-0.008,-0.147,0.096,-0.306,-0.231,1.095
2024-10-15 13:50:25.216,74176.668,-0.294,0.229,-0.928,-0.071,0.067,-0.091,-0.004,-0.088,0.057,-0.307,-0.231,1.096
2024-10-15 13:50:25.226,74176.678,-0.295,0.229,-0.928,-0.141,-0.036,-0.125,-0.051,-0.116,0.029,-0.308,-0.231,1.096
2024-10-15 13:50:25.236,74176.688,-0.296,0.23,-0.927,-0.127,-0.148,-0.076,-0.014,-0.077,-0.062,-0.309,-0.232,1.096
2024-10-15 13:50:25.245,74176.698,-0.297,0.228,-0.927,-0.073,-0.142,0.013,0.179,0.015,-0.207,-0.31,-0.231,1.095
2024-10-15 13:50:25.255,74176.708,-0.296,0.225,-0.928,-0.071,-0.067,0.035,0.303,0.207,-0.343,-0.309,-0.227,1.093
2024-10-15 13:50:25.265,74176.718,-0.295,0.222,-0.929,-0.116,-0.048,-0.012,0.112,0.351,-0.314,-0.307,-0.224,1.091
2024-10-15 13:50:25.275,74176.728,-0.292,0.222,-0.93,-0.204,-0.121,-0.095,-0.273,0.342,-0.144,-0.304,-0.224,1.088
2024-10-15 13:50:25.286,74176.738,-0.289,0.225,-0.931,-0.287,-0.243,-0.126,-0.431,0.454,-0.12,-0.301,-0.227,1.086
2024-10-15 13:50:25.295,74176.748,-0.284,0.229,-0.931,-0.3,-0.221,-0.102,-0.428,0.686,-0.13,-0.296,-0.231,1.083
2024-10-15 13:50:25.306,74176.758,-0.277,0.233,-0.932,-0.318,-0.07,-0.098,-0.446,0.843,-0.092,-0.288,-0.235,1.081
2024-10-15 13:50:25.315,74176.768,-0.269,0.237,-0.934,-0.335,-0.017,-0.099,-0.555,0.918,-0.042,-0.28,-0.239,1.079
2024-10-15 13:50:25.325,74176.778,-0.26,0.243,-0.935,-0.305,-0.048,-0.081,-0.684,0.968,-0.006,-0.271,-0.245,1.077
2024-10-15 13:50:25.335,74176.788,-0.251,0.25,-0.935,-0.259,-0.052,-0.043,-0.816,0.975,0.04,-0.262,-0.253,1.075
2024-10-15 13:50:25.346,74176.798,-0.242,0.258,-0.935,-0.228,-0.034,-0.015,-0.881,0.913,0.059,-0.253,-0.261,1.073
2024-10-15 13:50:25.355,74176.808,-0.233,0.266,-0.935,-0.19,-0.011,0.004,-0.801,0.835,0.067,-0.245,-0.269,1.072
2024-10-15 13:50:25.366,74176.818,-0.226,0.273,-0.935,-0.123,0.012,0.029,-0.65,0.755,0.018,-0.237,-0.277,1.07
2024-10-15 13:50:25.376,74176.828,-0.219,0.278,-0.935,-0.062,0.049,0.061,-0.504,0.674,-0.059,-0.23,-0.282,1.069
2024-10-15 13:50:25.385,74176.838,-0.214,0.282,-0.935,-0.025,0.094,0.089,-0.377,0.574,-0.093,-0.225,-0.286,1.067
2024-10-15 13:50:25.395,74176.848,-0.209,0.285,-0.935,0.005,0.111,0.105,-0.255,0.449,-0.096,-0.22,-0.289,1.065
2024-10-15 13:50:25.405,74176.858,-0.206,0.287,-0.936,0.031,0.102,0.122,-0.141,0.323,-0.106,-0.217,-0.291,1.064
2024-10-15 13:50:25.415,74176.868,-0.204,0.287,-0.936,0.053,0.096,0.133,-0.005,0.224,-0.125,-0.214,-0.291,1.062
2024-10-15 13:50:25.425,74176.878,-0.202,0.286,-0.936,0.063,0.107,0.135,0.099,0.125,-0.136,-0.213,-0.29,1.061
2024-10-15 13:50:25.435,74176.888,-0.202,0.285,-0.937,0.067,0.115,0.129,0.189,0.027,-0.122,-0.212,-0.289,1.06
2024-10-15 13:50:25.445,74176.898,-0.203,0.282,-0.938,0.072,0.116,0.123,0.248,-0.059,-0.096,-0.213,-0.286,1.06
2024-10-15 13:50:25.455,74176.908,-0.204,0.28,-0.938,0.076,0.106,0.121,0.229,-0.171,-0.062,-0.214,-0.284,1.059
2024-10-15 13:50:25.465,74176.918,-0.206,0.278,-0.938,0.078,0.089,0.114,0.205,-0.252,-0.023,-0.216,-0.282,1.059
2024-10-15 13:50:25.475,74176.928,-0.209,0.276,-0.938,0.08,0.069,0.111,0.199,-0.317,0.0,-0.219,-0.28,1.06
2024-10-15 13:50:25.485,74176.938,-0.212,0.274,-0.938,0.073,0.06,0.106,0.216,-0.374,-0.001,-0.222,-0.278,1.06
2024-10-15 13:50:25.496,74176.948,-0.216,0.272,-0.938,0.061,0.066,0.094,0.228,-0.405,-0.007,-0.226,-0.276,1.061
2024-10-15 13:50:25.505,74176.958,-0.22,0.27,-0.938,0.05,0.063,0.073,0.249,-0.434,-0.011,-0.23,-0.273,1.061
2024-10-15 13:50:25.515,74176.968,-0.224,0.267,-0.937,0.029,0.06,0.053,0.282,-0.456,-0.004,-0.234,-0.271,1.062
2024-10-15 13:50:25.525,74176.978,-0.228,0.265,-0.937,0.013,0.043,0.051,0.292,-0.443,0.014,-0.239,-0.268,1.062
2024-10-15 13:50:25.535,74176.988,-0.232,0.262,-0.937,0.009,0.023,0.065,0.307,-0.378,0.062,-0.242,-0.265,1.063
2024-10-15 13:50:25.545,74176.998,-0.235,0.259,-0.937,0.005,0.002,0.093,0.28,-0.329,0.143,-0.245,-0.262,1.065
2024-10-15 13:50:25.555,74177.008,-0.237,0.258,-0.937,0.01,-0.059,0.106,0.026,-0.325,0.159,-0.248,-0.261,1.067
2024-10-15 13:50:25.565,74177.018,-0.24,0.26,-0.935,0.022,-0.127,0.106,-0.255,-0.4,0.182,-0.251,-0.263,1.068
2024-10-15 13:50:25.575,74177.028,-0.244,0.263,-0.933,0.037,-0.192,0.114,-0.381,-0.433,0.206,-0.255,-0.266,1.07
2024-10-15 13:50:25.585,74177.038,-0.247,0.267,-0.931,0.056,-0.198,0.084,-0.349,-0.395,0.145,-0.259,-0.27,1.07
2024-10-15 13:50:25.595,74177.048,-0.25,0.27,-0.93,0.036,-0.089,0.037,-0.202,-0.351,0.057,-0.263,-0.273,1.071
2024-10-15 13:50:25.605,74177.058,-0.253,0.271,-0.929,-0.012,0.009,0.006,-0.035,-0.29,-0.026,-0.266,-0.275,1.07
2024-10-15 13:50:25.615,74177.068,-0.256,0.27,-0.928,-0.017,0.056,0.001,0.212,-0.214,-0.126,-0.269,-0.274,1.07
2024-10-15 13:50:25.625,74177.078,-0.258,0.267,-0.929,-0.01,0.094,0.018,0.361,-0.179,-0.161,-0.271,-0.27,1.069
2024-10-15 13:50:25.635,74177.088,-0.26,0.263,-0.929,0.005,0.113,0.016,0.352,-0.195,-0.125,-0.273,-0.266,1.069
2024-10-15 13:50:25.645,74177.098,-0.262,0.26,-0.929,0.041,0.06,0.015,0.265,-0.185,-0.089,-0.275,-0.263,1.069
2024-10-15 13:50:25.655,74177.108,-0.264,0.258,-0.929,0.061,0.01,0.016,0.1,-0.218,-0.04,-0.277,-0.261,1.068
2024-10-15 13:50:25.665,74177.118,-0.266,0.258,-0.929,0.056,-0.018,0.003,-0.048,-0.224,0.026,-0.279,-0.261,1.068
2024-10-15 13:50:25.675,74177.128,-0.268,0.259,-0.928,0.052,-0.052,-0.017,-0.068,-0.222,0.034,-0.281,-0.262,1.069
2024-10-15 13:50:25.685,74177.138,-0.27,0.259,-0.927,0.039,-0.031,-0.045,0.013,-0.197,0.015,-0.283,-0.262,1.069
2024-10-15 13:50:25.695,74177.148,-0.272,0.258,-0.927,0.019,0.03,-0.065,0.217,-0.17,-0.024,-0.285,-0.261,1.069
2024-10-15 13:50:25.705,74177.158,-0.273,0.255,-0.928,0.014,0.089,-0.079,0.449,-0.152,-0.089,-0.287,-0.258,1.069
2024-10-15 13:50:25.715,74177.168,-0.275,0.249,-0.929,0.022,0.115,-0.07,0.642,-0.13,-0.143,-0.288,-0.252,1.07
2024-10-15 13:50:25.725,74177.178,-0.277,0.243,-0.93,0.04,0.111,-0.029,0.632,-0.091,-0.157,-0.289,-0.245,1.07
2024-10-15 13:50:25.735,74177.188,-0.275,0.24,-0.931,0.058,0.068,0.014,-0.266,0.271,0.031,-0.288,-0.242,1.07
2024-10-15 13:50:25.745,74177.197,-0.275,0.245,-0.93,0.05,-0.069,0.062,-0.441,-0.206,0.484,-0.287,-0.247,1.072
2024-10-15 13:50:25.755,74177.207,-0.274,0.247,-0.929,-0.034,-0.293,-0.136,0.274,0.148,0.127,-0.287,-0.249,1.075
2024-10-15 13:50:25.765,74177.217,-0.272,0.243,-0.931,-0.012,0.022,-0.298,0.356,0.286,-0.011,-0.284,-0.246,1.076
2024-10-15 13:50:25.775,74177.227,-0.27,0.241,-0.932,-0.05,0.34,-0.121,0.17,0.036,0.243,-0.282,-0.244,1.078
2024-10-15 13:50:25.785,74177.237,-0.269,0.24,-0.933,0.003,0.033,-0.068,0.21,0.051,0.231,-0.281,-0.243,1.081
2024-10-15 13:50:25.795,74177.247,-0.268,0.238,-0.934,0.089,0.017,-0.03,0.438,0.109,0.21,-0.28,-0.24,1.084
2024-10-15 13:50:25.805,74177.257,-0.267,0.233,-0.935,0.048,0.174,0.009,0.635,0.112,0.181,-0.278,-0.235,1.087
2024-10-15 13:50:25.814,74177.267,-0.265,0.228,-0.937,0.074,0.161,0.023,0.618,0.029,0.15,-0.276,-0.23,1.091
2024-10-15 13:50:25.824,74177.277,-0.265,0.223,-0.938,0.115,0.06,0.046,0.518,-0.117,0.23,-0.276,-0.225,1.094
2024-10-15 13:50:25.834,74177.287,-0.266,0.219,-0.939,0.14,-0.064,0.059,0.378,-0.142,0.256,-0.276,-0.221,1.098
2024-10-15 13:50:25.844,74177.297,-0.267,0.217,-0.939,0.123,-0.121,0.039,0.357,-0.135,0.207,-0.277,-0.218,1.101
2024-10-15 13:50:25.855,74177.307,-0.268,0.214,-0.939,0.061,-0.085,0.033,0.329,-0.108,0.18,-0.278,-0.216,1.104
2024-10-15 13:50:25.864,74177.317,-0.269,0.212,-0.94,0.061,-0.091,0.036,0.099,-0.209,0.181,-0.279,-0.214,1.106
2024-10-15 13:50:25.874,74177.327,-0.271,0.213,-0.939,0.092,-0.167,0.054,-0.083,-0.325,0.186,-0.281,-0.215,1.108
2024-10-15 13:50:25.885,74177.337,-0.274,0.214,-0.938,0.118,-0.256,0.062,-0.048,-0.3,0.148,-0.284,-0.216,1.11
2024-10-15 13:50:25.894,74177.347,-0.276,0.215,-0.937,0.12,-0.199,0.028,-0.06,-0.253,0.145,-0.286,-0.216,1.111
2024-10-15 13:50:25.904,74177.357,-0.278,0.216,-0.936,0.057,-0.109,-0.019,-0.193,-0.271,0.166,-0.289,-0.218,1.112
2024-10-15 13:50:25.914,74177.367,-0.28,0.219,-0.935,0.006,-0.099,-0.029,-0.266,-0.285,0.149,-0.291,-0.221,1.113
2024-10-15 13:50:25.924,74177.377,-0.282,0.222,-0.933,-0.021,-0.083,-0.053,-0.183,-0.237,0.111,-0.294,-0.223,1.114
2024-10-15 13:50:25.934,74177.387,-0.284,0.222,-0.933,-0.067,-0.01,-0.085,0.065,-0.177,0.047,-0.296,-0.224,1.114
2024-10-15 13:50:25.944,74177.397,-0.285,0.221,-0.933,-0.122,0.093,-0.109,0.264,-0.067,-0.039,-0.297,-0.223,1.115
2024-10-15 13:50:25.954,74177.407,-0.286,0.218,-0.933,-0.132,0.182,-0.118,0.325,-0.027,-0.069,-0.297,-0.22,1.115
2024-10-15 13:50:25.964,74177.417,-0.286,0.215,-0.934,-0.133,0.159,-0.109,0.34,-0.054,-0.121,-0.298,-0.216,1.115
2024-10-15 13:50:25.974,74177.427,-0.287,0.21,-0.935,-0.131,0.015,-0.068,0.439,0.014,-0.233,-0.298,-0.212,1.115
2024-10-15 13:50:25.984,74177.437,-0.287,0.205,-0.936,-0.13,-0.07,-0.027,0.481,0.107,-0.313,-0.298,-0.207,1.113
2024-10-15 13:50:25.994,74177.447,-0.287,0.2,-0.937,-0.131,-0.106,0.007,0.41,0.069,-0.356,-0.297,-0.201,1.111
2024-10-15 13:50:26.004,74177.457,-0.287,0.196,-0.938,-0.12,-0.179,0.047,0.196,0.042,-0.396,-0.297,-0.197,1.109
2024-10-15 13:50:26.015,74177.467,-0.288,0.195,-0.938,-0.094,-0.227,0.053,-0.242,-0.054,-0.267,-0.298,-0.196,1.105
2024-10-15 13:50:26.024,74177.477,-0.289,0.199,-0.936,-0.103,-0.216,0.013,-0.662,-0.189,-0.019,-0.299,-0.2,1.103
2024-10-15 13:50:26.034,74177.487,-0.291,0.205,-0.934,-0.132,-0.192,0.018,-0.575,-0.201,-0.013,-0.302,-0.207,1.101
2024-10-15 13:50:26.044,74177.497,-0.292,0.208,-0.933,-0.141,-0.016,0.058,-0.141,-0.022,-0.087,-0.303,-0.21,1.099
2024-10-15 13:50:26.054,74177.507,-0.292,0.208,-0.934,-0.144,0.222,0.047,0.214,0.131,-0.108,-0.303,-0.209,1.098
2024-10-15 13:50:26.064,74177.517,-0.291,0.205,-0.935,-0.132,0.322,0.052,0.2,0.152,-0.042,-0.301,-0.207,1.098
2024-10-15 13:50:26.074,74177.527,-0.29,0.204,-0.935,-0.113,0.235,0.068,0.003,-0.024,0.061,-0.301,-0.206,1.098
2024-10-15 13:50:26.084,74177.537,-0.29,0.205,-0.935,-0.059,0.065,0.098,-0.04,-0.03,0.083,-0.301,-0.206,1.099
2024-10-15 13:50:26.094,74177.547,-0.289,0.205,-0.935,0.001,0.013,0.11,-0.032,0.016,0.161,-0.3,-0.207,1.1
2024-10-15 13:50:26.104,74177.557,-0.289,0.207,-0.935,-0.018,0.068,0.064,-0.174,-0.003,0.279,-0.3,-0.208,1.102
2024-10-15 13:50:26.114,74177.567,-0.288,0.211,-0.934,-0.049,0.033,-0.006,-0.391,-0.032,0.391,-0.3,-0.212,1.105
2024-10-15 13:50:26.124,74177.577,-0.288,0.216,-0.933,-0.047,-0.003,-0.043,-0.61,-0.075,0.522,-0.299,-0.218,1.107
2024-10-15 13:50:26.135,74177.587,-0.288,0.225,-0.931,-0.032,-0.004,-0.048,-0.76,-0.145,0.598,-0.3,-0.226,1.111
2024-10-15 13:50:26.144,74177.597,-0.288,0.233,-0.929,-0.002,0.013,0.006,-0.664,-0.153,0.616,-0.3,-0.235,1.115
2024-10-15 13:50:26.154,74177.607,-0.288,0.24,-0.927,0.052,0.073,0.08,-0.463,-0.15,0.546,-0.301,-0.242,1.119
2024-10-15 13:50:26.164,74177.617,-0.288,0.244,-0.926,0.136,0.155,0.115,-0.212,-0.102,0.433,-0.301,-0.247,1.122
2024-10-15 13:50:26.174,74177.627,-0.288,0.246,-0.926,0.211,0.188,0.126,0.071,-0.052,0.332,-0.301,-0.249,1.126
2024-10-15 13:50:26.184,74177.637,-0.287,0.245,-0.926,0.241,0.148,0.086,0.303,0.03,0.199,-0.301,-0.248,1.129
2024-10-15 13:50:26.194,74177.647,-0.287,0.242,-0.927,0.24,0.079,0.029,0.428,0.039,0.059,-0.3,-0.245,1.132
2024-10-15 13:50:26.204,74177.657,-0.286,0.239,-0.928,0.211,-0.014,-0.055,0.32,0.035,0.053,-0.299,-0.241,1.133
2024-10-15 13:50:26.214,74177.667,-0.286,0.238,-0.928,0.162,-0.173,-0.151,-0.073,-0.04,0.106,-0.299,-0.24,1.134
2024-10-15 13:50:26.224,74177.677,-0.286,0.24,-0.928,0.112,-0.351,-0.137,-0.43,-0.169,0.225,-0.299,-0.243,1.135
2024-10-15 13:50:26.234,74177.687,-0.288,0.246,-0.925,0.101,-0.453,-0.003,-0.558,-0.368,0.247,-0.302,-0.249,1.136
2024-10-15 13:50:26.244,74177.697,-0.291,0.25,-0.923,0.202,-0.405,0.169,-0.3,-0.352,-0.043,-0.306,-0.253,1.136
2024-10-15 13:50:26.254,74177.707,-0.294,0.252,-0.922,0.29,-0.118,0.169,-0.134,-0.256,-0.142,-0.309,-0.255,1.134
2024-10-15 13:50:26.264,74177.717,-0.297,0.253,-0.921,0.141,0.115,-0.048,-0.058,-0.301,0.008,-0.312,-0.255,1.133
2024-10-15 13:50:26.274,74177.727,-0.299,0.251,-0.921,-0.151,0.057,-0.201,0.366,-0.059,-0.185,-0.314,-0.254,1.133
2024-10-15 13:50:26.284,74177.737,-0.299,0.245,-0.922,-0.277,0.128,-0.208,0.649,0.179,-0.317,-0.314,-0.248,1.132
2024-10-15 13:50:26.294,74177.747,-0.299,0.239,-0.924,-0.239,0.28,-0.203,0.482,0.09,-0.336,-0.312,-0.241,1.131
2024-10-15 13:50:26.303,74177.757,-0.299,0.234,-0.925,-0.187,0.086,-0.13,0.292,0.049,-0.438,-0.313,-0.237,1.128
2024-10-15 13:50:26.314,74177.767,-0.299,0.231,-0.926,-0.187,-0.14,-0.024,0.221,0.056,-0.457,-0.313,-0.233,1.124
2024-10-15 13:50:26.324,74177.777,-0.3,0.228,-0.926,-0.221,-0.192,0.035,0.16,0.011,-0.494,-0.313,-0.23,1.12
2024-10-15 13:50:26.334,74177.786,-0.301,0.224,-0.927,-0.26,-0.243,0.09,0.224,0.127,-0.626,-0.314,-0.226,1.116
2024-10-15 13:50:26.344,74177.796,-0.301,0.22,-0.928,-0.287,-0.201,0.139,0.158,0.195,-0.642,-0.313,-0.222,1.11
2024-10-15 13:50:26.354,74177.806,-0.301,0.218,-0.929,-0.322,-0.115,0.11,0.043,0.14,-0.577,-0.313,-0.219,1.104
2024-10-15 13:50:26.364,74177.816,-0.3,0.216,-0.929,-0.327,-0.115,0.101,0.022,0.181,-0.545,-0.313,-0.218,1.099
2024-10-15 13:50:26.373,74177.826,-0.3,0.214,-0.93,-0.289,-0.034,0.103,0.107,0.196,-0.439,-0.312,-0.215,1.094
2024-10-15 13:50:26.384,74177.836,-0.299,0.211,-0.931,-0.263,0.1,0.093,0.141,0.237,-0.365,-0.31,-0.213,1.091
2024-10-15 13:50:26.394,74177.846,-0.297,0.209,-0.932,-0.217,0.166,0.099,0.1,0.217,-0.31,-0.309,-0.211,1.088
2024-10-15 13:50:26.404,74177.856,-0.296,0.208,-0.932,-0.163,0.186,0.104,0.036,0.199,-0.204,-0.307,-0.209,1.086
2024-10-15 13:50:26.413,74177.866,-0.294,0.207,-0.933,-0.095,0.125,0.085,-0.042,0.199,-0.115,-0.305,-0.209,1.084
2024-10-15 13:50:26.424,74177.876,-0.293,0.208,-0.933,-0.029,0.095,0.059,-0.159,0.184,-0.035,-0.304,-0.21,1.083
2024-10-15 13:50:26.433,74177.886,-0.291,0.21,-0.933,0.048,0.086,0.05,-0.302,0.144,0.077,-0.302,-0.212,1.082
2024-10-15 13:50:26.444,74177.896,-0.289,0.214,-0.933,0.134,0.083,0.048,-0.321,0.101,0.198,-0.301,-0.215,1.083
2024-10-15 13:50:26.454,74177.906,-0.288,0.217,-0.933,0.218,0.127,0.043,-0.242,0.083,0.287,-0.3,-0.219,1.084
2024-10-15 13:50:26.463,74177.916,-0.287,0.22,-0.933,0.278,0.223,0.019,-0.08,0.095,0.34,-0.298,-0.221,1.087
2024-10-15 13:50:26.473,74177.926,-0.285,0.221,-0.933,0.305,0.32,-0.002,0.022,0.079,0.402,-0.297,-0.223,1.09
2024-10-15 13:50:26.484,74177.936,-0.283,0.222,-0.933,0.313,0.335,-0.05,0.047,0.053,0.477,-0.295,-0.224,1.095
2024-10-15 13:50:26.493,74177.946,-0.282,0.223,-0.933,0.306,0.274,-0.083,-0.017,0.007,0.59,-0.293,-0.225,1.1
2024-10-15 13:50:26.503,74177.956,-0.281,0.226,-0.933,0.296,0.174,-0.081,-0.191,-0.079,0.729,-0.292,-0.228,1.106
2024-10-15 13:50:26.513,74177.966,-0.28,0.23,-0.932,0.296,0.068,-0.025,-0.302,-0.201,0.76,-0.292,-0.232,1.113
2024-10-15 13:50:26.524,74177.976,-0.281,0.235,-0.931,0.312,-0.012,0.065,-0.203,-0.207,0.716,-0.293,-0.237,1.119
2024-10-15 13:50:26.534,74177.986,-0.281,0.238,-0.93,0.313,0.011,0.097,0.02,-0.212,0.606,-0.294,-0.24,1.126
2024-10-15 13:50:26.543,74177.996,-0.281,0.237,-0.93,0.252,0.04,0.039,0.362,-0.097,0.37,-0.294,-0.24,1.131
2024-10-15 13:50:26.553,74178.006,-0.281,0.234,-0.931,0.149,0.019,-0.077,0.501,0.012,0.161,-0.293,-0.236,1.135
2024-10-15 13:50:26.563,74178.016,-0.281,0.23,-0.932,-0.008,-0.072,-0.21,0.291,-0.045,0.08,-0.293,-0.232,1.137
2024-10-15 13:50:26.573,74178.026,-0.282,0.229,-0.932,-0.138,-0.35,-0.207,-0.027,-0.148,-0.039,-0.294,-0.231,1.138
2024-10-15 13:50:26.583,74178.036,-0.284,0.23,-0.931,-0.161,-0.602,-0.088,-0.188,-0.186,-0.168,-0.296,-0.232,1.137
2024-10-15 13:50:26.593,74178.046,-0.286,0.231,-0.93,-0.149,-0.629,0.002,-0.247,-0.175,-0.294,-0.298,-0.233,1.134
2024-10-15 13:50:26.603,74178.056,-0.288,0.233,-0.929,-0.172,-0.507,0.048,-0.233,-0.218,-0.349,-0.301,-0.235,1.13
2024-10-15 13:50:26.613,74178.066,-0.291,0.233,-0.928,-0.212,-0.368,0.04,-0.1,-0.177,-0.411,-0.304,-0.235,1.125
2024-10-15 13:50:26.623,74178.076,-0.293,0.231,-0.928,-0.244,-0.204,0.02,0.249,-0.058,-0.55,-0.306,-0.233,1.121
2024-10-15 13:50:26.633,74178.086,-0.295,0.225,-0.929,-0.285,0.029,-0.006,0.582,0.148,-0.718,-0.307,-0.227,1.116
2024-10-15 13:50:26.643,74178.096,-0.294,0.217,-0.931,-0.317,0.205,-0.042,0.683,0.297,-0.736,-0.306,-0.219,1.111
2024-10-15 13:50:26.653,74178.106,-0.293,0.21,-0.933,-0.326,0.236,-0.067,0.515,0.27,-0.666,-0.304,-0.211,1.106
2024-10-15 13:50:26.663,74178.116,-0.292,0.204,-0.935,-0.287,0.103,-0.035,0.35,0.235,-0.598,-0.302,-0.205,1.101
2024-10-15 13:50:26.673,74178.126,-0.291,0.2,-0.936,-0.213,0.018,0.042,0.143,0.222,-0.492,-0.301,-0.201,1.097
2024-10-15 13:50:26.683,74178.136,-0.289,0.198,-0.936,-0.165,0.013,0.139,-0.1,0.195,-0.324,-0.3,-0.2,1.093
2024-10-15 13:50:26.693,74178.146,-0.289,0.2,-0.936,-0.128,0.032,0.202,-0.397,0.061,-0.151,-0.299,-0.201,1.09
2024-10-15 13:50:26.703,74178.156,-0.289,0.204,-0.935,-0.081,0.056,0.242,-0.378,-0.022,-0.051,-0.299,-0.205,1.087
2024-10-15 13:50:26.713,74178.166,-0.289,0.206,-0.935,-0.037,0.13,0.234,-0.097,0.095,-0.016,-0.299,-0.207,1.086
2024-10-15 13:50:26.723,74178.176,-0.287,0.205,-0.936,-0.043,0.299,0.158,0.166,0.193,0.058,-0.298,-0.207,1.087
2024-10-15 13:50:26.733,74178.186,-0.285,0.204,-0.937,-0.084,0.378,0.066,0.221,0.229,0.12,-0.296,-0.205,1.088
2024-10-15 13:50:26.743,74178.196,-0.283,0.202,-0.938,-0.055,0.263,0.013,0.136,0.18,0.167,-0.293,-0.204,1.09
2024-10-15 13:50:26.753,74178.206,-0.281,0.202,-0.938,0.023,0.11,0.002,-0.029,0.1,0.242,-0.291,-0.204,1.092
2024-10-15 13:50:26.763,74178.216,-0.28,0.204,-0.938,0.108,-0.017,-0.013,-0.187,0.051,0.272,-0.29,-0.206,1.094
2024-10-15 13:50:26.773,74178.226,-0.279,0.207,-0.938,0.157,-0.057,-0.033,-0.243,0.058,0.323,-0.289,-0.209,1.097
2024-10-15 13:50:26.783,74178.236,-0.278,0.211,-0.937,0.168,-0.051,-0.055,-0.267,0.043,0.359,-0.288,-0.212,1.099
2024-10-15 13:50:26.793,74178.246,-0.277,0.214,-0.937,0.189,-0.014,-0.085,-0.19,0.03,0.376,-0.287,-0.215,1.102
2024-10-15 13:50:26.803,74178.256,-0.275,0.216,-0.937,0.203,0.05,-0.099,-0.028,0.015,0.383,-0.286,-0.218,1.106
2024-10-15 13:50:26.813,74178.266,-0.275,0.216,-0.937,0.217,0.115,-0.097,0.163,0.01,0.364,-0.285,-0.218,1.109
2024-10-15 13:50:26.823,74178.276,-0.273,0.215,-0.938,0.23,0.182,-0.083,0.272,0.063,0.377,-0.284,-0.217,1.114
2024-10-15 13:50:26.833,74178.286,-0.272,0.214,-0.938,0.234,0.206,-0.067,0.22,0.06,0.444,-0.282,-0.216,1.118
2024-10-15 13:50:26.843,74178.296,-0.27,0.214,-0.939,0.222,0.155,-0.044,-0.019,0.034,0.53,-0.281,-0.216,1.123
2024-10-15 13:50:26.853,74178.306,-0.269,0.217,-0.938,0.234,0.025,0.014,-0.306,-0.071,0.569,-0.28,-0.219,1.128
2024-10-15 13:50:26.863,74178.316,-0.269,0.222,-0.937,0.262,-0.108,0.093,-0.37,-0.183,0.496,-0.28,-0.224,1.133
2024-10-15 13:50:26.873,74178.326,-0.27,0.225,-0.936,0.268,-0.197,0.13,-0.096,-0.204,0.275,-0.281,-0.227,1.136
2024-10-15 13:50:26.883,74178.336,-0.271,0.225,-0.936,0.224,-0.177,0.053,0.22,-0.056,0.05,-0.282,-0.227,1.138
2024-10-15 13:50:26.893,74178.346,-0.272,0.223,-0.936,0.087,-0.124,-0.1,0.274,-0.069,0.054,-0.283,-0.225,1.139
2024-10-15 13:50:26.904,74178.356,-0.273,0.22,-0.937,-0.077,-0.183,-0.173,0.311,-0.137,-0.039,-0.284,-0.222,1.14
2024-10-15 13:50:26.913,74178.366,-0.274,0.216,-0.937,-0.096,-0.248,-0.108,0.479,0.007,-0.279,-0.284,-0.218,1.139
2024-10-15 13:50:26.923,74178.376,-0.274,0.211,-0.938,-0.047,-0.103,-0.049,0.398,0.048,-0.309,-0.284,-0.213,1.138
2024-10-15 13:50:26.933,74178.385,-0.275,0.207,-0.939,-0.123,-0.086,-0.064,0.168,0.008,-0.389,-0.285,-0.209,1.135
2024-10-15 13:50:26.943,74178.395,-0.275,0.205,-0.939,-0.228,-0.23,-0.04,0.067,0.029,-0.388,-0.285,-0.207,1.132
2024-10-15 13:50:26.953,74178.405,-0.276,0.204,-0.939,-0.266,-0.276,-0.031,-0.091,-0.043,-0.322,-0.286,-0.206,1.128
2024-10-15 13:50:26.963,74178.415,-0.277,0.204,-0.939,-0.3,-0.26,0.009,-0.093,0.027,-0.412,-0.287,-0.206,1.124
2024-10-15 13:50:26.973,74178.425,-0.277,0.204,-0.939,-0.347,-0.144,0.067,-0.091,0.085,-0.396,-0.287,-0.205,1.12
2024-10-15 13:50:26.983,74178.435,-0.277,0.204,-0.939,-0.379,-0.046,0.056,-0.112,0.117,-0.406,-0.287,-0.205,1.116
2024-10-15 13:50:26.992,74178.445,-0.277,0.204,-0.939,-0.369,-0.016,0.069,-0.08,0.18,-0.424,-0.287,-0.205,1.111
2024-10-15 13:50:27.003,74178.455,-0.276,0.203,-0.94,-0.351,0.049,0.09,-0.095,0.239,-0.352,-0.285,-0.205,1.107
2024-10-15 13:50:27.012,74178.465,-0.274,0.204,-0.94,-0.334,0.09,0.102,-0.185,0.214,-0.325,-0.284,-0.205,1.104
2024-10-15 13:50:27.023,74178.475,-0.273,0.205,-0.94,-0.289,0.065,0.137,-0.288,0.222,-0.255,-0.282,-0.207,1.1
2024-10-15 13:50:27.033,74178.485,-0.271,0.208,-0.94,-0.224,0.025,0.156,-0.456,0.139,-0.143,-0.281,-0.21,1.097
2024-10-15 13:50:27.043,74178.495,-0.27,0.212,-0.939,-0.168,-0.011,0.152,-0.556,0.13,-0.101,-0.28,-0.214,1.095
2024-10-15 13:50:27.053,74178.505,-0.269,0.218,-0.938,-0.127,-0.016,0.124,-0.591,0.143,-0.028,-0.28,-0.219,1.092
2024-10-15 13:50:27.063,74178.515,-0.268,0.224,-0.937,-0.111,0.006,0.076,-0.67,0.166,0.095,-0.278,-0.226,1.091
2024-10-15 13:50:27.072,74178.525,-0.266,0.231,-0.936,-0.081,0.016,0.028,-0.732,0.175,0.173,-0.277,-0.233,1.09
2024-10-15 13:50:27.082,74178.535,-0.264,0.238,-0.935,-0.014,0.067,0.012,-0.719,0.126,0.248,-0.275,-0.24,1.09
2024-10-15 13:50:27.092,74178.545,-0.262,0.245,-0.933,0.096,0.135,0.024,-0.553,0.064,0.26,-0.274,-0.247,1.091
2024-10-15 13:50:27.102,74178.555,-0.261,0.25,-0.932,0.226,0.236,0.046,-0.367,0.035,0.27,-0.273,-0.252,1.092
2024-10-15 13:50:27.112,74178.565,-0.26,0.253,-0.932,0.316,0.335,0.046,-0.175,-0.002,0.319,-0.273,-0.256,1.094
2024-10-15 13:50:27.122,74178.575,-0.26,0.254,-0.932,0.342,0.36,-0.007,0.016,0.004,0.379,-0.272,-0.257,1.098
2024-10-15 13:50:27.132,74178.585,-0.258,0.254,-0.932,0.333,0.319,-0.068,0.195,0.037,0.38,-0.271,-0.257,1.102
2024-10-15 13:50:27.142,74178.595,-0.257,0.253,-0.933,0.315,0.26,-0.101,0.332,0.078,0.347,-0.269,-0.256,1.106
2024-10-15 13:50:27.152,74178.605,-0.255,0.25,-0.934,0.311,0.178,-0.099,0.437,0.094,0.264,-0.267,-0.253,1.11
2024-10-15 13:50:27.162,74178.615,-0.254,0.246,-0.935,0.319,0.073,-0.085,0.522,0.119,0.183,-0.265,-0.249,1.114
2024-10-15 13:50:27.172,74178.625,-0.253,0.242,-0.937,0.308,-0.022,-0.082,0.392,0.083,0.146,-0.263,-0.245,1.117
2024-10-15 13:50:27.182,74178.635,-0.252,0.241,-0.937,0.26,-0.136,-0.084,-0.056,-0.039,0.23,-0.262,-0.243,1.119
2024-10-15 13:50:27.192,74178.645,-0.253,0.244,-0.936,0.204,-0.312,-0.044,-0.434,-0.316,0.304,-0.264,-0.247,1.121
2024-10-15 13:50:27.202,74178.655,-0.256,0.249,-0.934,0.181,-0.452,0.07,-0.423,-0.443,0.12,-0.267,-0.252,1.122
2024-10-15 13:50:27.212,74178.665,-0.26,0.251,-0.932,0.191,-0.352,0.154,-0.106,-0.374,-0.135,-0.272,-0.254,1.121
2024-10-15 13:50:27.222,74178.675,-0.263,0.251,-0.932,0.081,-0.084,0.019,0.071,-0.268,-0.043,-0.275,-0.254,1.12
2024-10-15 13:50:27.232,74178.685,-0.265,0.249,-0.931,-0.192,-0.003,-0.158,0.363,-0.153,-0.011,-0.277,-0.252,1.12
2024-10-15 13:50:27.242,74178.695,-0.266,0.244,-0.933,-0.364,0.006,-0.117,0.732,0.069,-0.207,-0.277,-0.246,1.121
2024-10-15 13:50:27.252,74178.705,-0.265,0.236,-0.935,-0.266,0.154,-0.022,0.612,0.085,-0.291,-0.277,-0.239,1.12
2024-10-15 13:50:27.262,74178.715,-0.266,0.233,-0.935,-0.123,0.139,-0.021,0.06,-0.104,-0.197,-0.277,-0.235,1.119
2024-10-15 13:50:27.272,74178.725,-0.268,0.233,-0.935,-0.128,-0.125,-0.057,-0.19,-0.239,-0.138,-0.279,-0.235,1.117
2024-10-15 13:50:27.282,74178.735,-0.27,0.234,-0.934,-0.24,-0.248,-0.049,-0.002,-0.004,-0.247,-0.281,-0.236,1.115
2024-10-15 13:50:27.293,74178.745,-0.27,0.233,-0.934,-0.344,-0.073,-0.002,0.073,0.119,-0.191,-0.281,-0.235,1.113
2024-10-15 13:50:27.302,74178.755,-0.269,0.232,-0.935,-0.395,0.029,0.026,-0.093,0.062,-0.145,-0.28,-0.234,1.111
2024-10-15 13:50:27.312,74178.765,-0.269,0.233,-0.935,-0.336,-0.06,0.08,-0.14,0.099,-0.143,-0.28,-0.235,1.109
2024-10-15 13:50:27.322,74178.775,-0.268,0.234,-0.935,-0.235,-0.043,0.144,-0.157,0.168,-0.113,-0.279,-0.236,1.108
2024-10-15 13:50:27.332,74178.785,-0.267,0.235,-0.935,-0.193,0.039,0.159,-0.042,0.2,-0.209,-0.278,-0.237,1.106
2024-10-15 13:50:27.342,74178.795,-0.264,0.234,-0.936,-0.172,0.065,0.123,-0.076,0.409,-0.182,-0.275,-0.236,1.104
2024-10-15 13:50:27.352,74178.805,-0.261,0.237,-0.936,-0.176,0.063,0.048,-0.505,0.161,0.029,-0.272,-0.239,1.102
2024-10-15 13:50:27.362,74178.815,-0.26,0.242,-0.935,-0.167,-0.125,0.048,-0.622,0.201,0.059,-0.271,-0.245,1.101
2024-10-15 13:50:27.372,74178.825,-0.257,0.249,-0.934,-0.021,-0.17,0.078,-0.665,0.225,0.14,-0.269,-0.251,1.1
2024-10-15 13:50:27.382,74178.835,-0.255,0.256,-0.933,0.058,-0.007,0.066,-0.708,0.182,0.205,-0.267,-0.258,1.1
2024-10-15 13:50:27.392,74178.845,-0.253,0.262,-0.931,0.142,0.04,0.063,-0.63,0.116,0.247,-0.265,-0.266,1.101
2024-10-15 13:50:27.402,74178.855,-0.251,0.268,-0.93,0.237,0.1,0.061,-0.369,0.118,0.227,-0.264,-0.271,1.102
2024-10-15 13:50:27.412,74178.865,-0.25,0.27,-0.93,0.287,0.195,0.034,-0.008,0.14,0.191,-0.262,-0.273,1.103
2024-10-15 13:50:27.422,74178.875,-0.248,0.269,-0.931,0.314,0.266,-0.019,0.264,0.199,0.099,-0.26,-0.272,1.105
2024-10-15 13:50:27.432,74178.885,-0.246,0.266,-0.932,0.347,0.281,-0.066,0.321,0.187,0.114,-0.258,-0.27,1.107
2024-10-15 13:50:27.442,74178.895,-0.244,0.264,-0.933,0.362,0.211,-0.102,0.17,0.056,0.185,-0.256,-0.268,1.109
2024-10-15 13:50:27.452,74178.905,-0.243,0.264,-0.933,0.356,0.044,-0.11,0.075,0.004,0.191,-0.255,-0.267,1.111
2024-10-15 13:50:27.462,74178.915,-0.243,0.264,-0.933,0.31,-0.064,-0.089,-0.005,-0.048,0.214,-0.255,-0.267,1.113
2024-10-15 13:50:27.472,74178.925,-0.243,0.265,-0.933,0.197,-0.094,-0.1,-0.072,-0.164,0.214,-0.255,-0.268,1.115
2024-10-15 13:50:27.482,74178.935,-0.244,0.267,-0.932,0.084,-0.163,-0.097,-0.171,-0.22,0.337,-0.256,-0.27,1.118
2024-10-15 13:50:27.492,74178.945,-0.246,0.27,-0.931,0.011,-0.184,-0.019,-0.189,-0.398,0.381,-0.258,-0.273,1.121
2024-10-15 13:50:27.502,74178.955,-0.249,0.271,-0.93,0.077,-0.146,0.155,0.084,-0.388,0.002,-0.262,-0.274,1.123
2024-10-15 13:50:27.512,74178.965,-0.252,0.269,-0.93,0.192,0.064,0.134,0.186,-0.248,-0.114,-0.265,-0.272,1.122
2024-10-15 13:50:27.522,74178.974,-0.255,0.267,-0.929,-0.018,0.125,-0.109,0.166,-0.259,-0.065,-0.268,-0.27,1.122
2024-10-15 13:50:27.532,74178.984,-0.257,0.265,-0.929,-0.346,-0.174,-0.227,0.259,-0.109,-0.224,-0.27,-0.268,1.121
2024-10-15 13:50:27.543,74178.994,-0.259,0.262,-0.93,-0.349,-0.28,-0.166,0.096,-0.152,-0.309,-0.272,-0.265,1.119
2024-10-15 13:50:27.552,74179.004,-0.262,0.262,-0.929,-0.217,-0.186,-0.071,-0.125,-0.248,-0.354,-0.275,-0.265,1.116
2024-10-15 13:50:27.561,74179.014,-0.265,0.262,-0.928,-0.195,-0.226,0.012,-0.147,-0.232,-0.322,-0.278,-0.265,1.112
2024-10-15 13:50:27.571,74179.024,-0.268,0.262,-0.927,-0.244,-0.147,0.031,0.004,-0.192,-0.286,-0.281,-0.265,1.109
2024-10-15 13:50:27.581,74179.034,-0.27,0.26,-0.927,-0.287,0.016,0.038,0.291,-0.03,-0.392,-0.283,-0.263,1.106
2024-10-15 13:50:27.591,74179.044,-0.27,0.254,-0.929,-0.325,0.18,0.061,0.589,0.114,-0.463,-0.283,-0.257,1.103
2024-10-15 13:50:27.601,74179.054,-0.27,0.248,-0.93,-0.329,0.25,0.069,0.555,0.189,-0.466,-0.282,-0.25,1.1
2024-10-15 13:50:27.612,74179.064,-0.27,0.243,-0.932,-0.283,0.158,0.074,0.243,0.052,-0.382,-0.282,-0.245,1.097
2024-10-15 13:50:27.621,74179.074,-0.27,0.24,-0.932,-0.212,-0.028,0.108,0.067,0.023,-0.308,-0.282,-0.243,1.094
2024-10-15 13:50:27.631,74179.084,-0.271,0.24,-0.932,-0.13,-0.111,0.144,-0.053,0.048,-0.215,-0.283,-0.242,1.091
2024-10-15 13:50:27.641,74179.094,-0.271,0.24,-0.932,-0.104,-0.059,0.141,-0.138,0.074,-0.13,-0.282,-0.242,1.089
2024-10-15 13:50:27.652,74179.104,-0.27,0.241,-0.932,-0.1,0.014,0.135,-0.19,0.05,-0.048,-0.282,-0.244,1.088
2024-10-15 13:50:27.662,74179.114,-0.269,0.243,-0.932,-0.056,0.036,0.115,-0.218,0.113,0.04,-0.282,-0.246,1.087
2024-10-15 13:50:27.672,74179.124,-0.268,0.246,-0.931,0.003,0.079,0.086,-0.265,0.113,0.14,-0.28,-0.248,1.088
2024-10-15 13:50:27.682,74179.134,-0.267,0.249,-0.931,0.063,0.131,0.06,-0.321,0.113,0.205,-0.279,-0.252,1.088
2024-10-15 13:50:27.692,74179.144,-0.265,0.253,-0.93,0.163,0.133,0.046,-0.391,0.118,0.275,-0.278,-0.256,1.09
2024-10-15 13:50:27.702,74179.154,-0.263,0.258,-0.93,0.246,0.154,0.029,-0.476,0.096,0.359,-0.276,-0.261,1.092
2024-10-15 13:50:27.711,74179.164,-0.261,0.263,-0.929,0.28,0.141,-0.003,-0.513,0.09,0.392,-0.274,-0.267,1.094
2024-10-15 13:50:27.722,74179.174,-0.26,0.268,-0.927,0.304,0.111,-0.022,-0.348,-0.054,0.37,-0.274,-0.272,1.097
2024-10-15 13:50:27.731,74179.184,-0.26,0.271,-0.927,0.311,0.086,-0.031,-0.078,-0.015,0.227,-0.273,-0.275,1.099
2024-10-15 13:50:27.741,74179.194,-0.259,0.271,-0.927,0.312,0.077,-0.042,0.213,0.079,0.072,-0.273,-0.274,1.101
2024-10-15 13:50:27.751,74179.204,-0.258,0.269,-0.928,0.241,0.101,-0.091,0.237,0.101,0.024,-0.271,-0.272,1.102
2024-10-15 13:50:27.761,74179.214,-0.258,0.268,-0.928,0.148,-0.046,-0.155,0.02,-0.03,0.019,-0.271,-0.271,1.103
2024-10-15 13:50:27.771,74179.224,-0.259,0.269,-0.928,0.112,-0.264,-0.123,-0.228,-0.183,0.012,-0.272,-0.272,1.102
2024-10-15 13:50:27.781,74179.234,-0.261,0.272,-0.926,0.087,-0.384,-0.027,-0.428,-0.219,0.057,-0.274,-0.275,1.102
2024-10-15 13:50:27.791,74179.244,-0.263,0.276,-0.924,0.043,-0.363,0.077,-0.467,-0.372,0.055,-0.277,-0.28,1.101
2024-10-15 13:50:27.802,74179.254,-0.267,0.279,-0.922,0.041,-0.266,0.195,-0.269,-0.346,-0.216,-0.281,-0.283,1.099
2024-10-15 13:50:27.811,74179.264,-0.271,0.281,-0.921,0.09,-0.036,0.114,-0.172,-0.363,-0.236,-0.286,-0.285,1.096
2024-10-15 13:50:27.821,74179.274,-0.274,0.281,-0.92,-0.058,0.08,-0.072,0.133,-0.263,-0.216,-0.29,-0.284,1.094
2024-10-15 13:50:27.831,74179.284,-0.276,0.276,-0.921,-0.255,0.06,-0.173,0.649,-0.032,-0.333,-0.292,-0.28,1.093
2024-10-15 13:50:27.841,74179.294,-0.277,0.268,-0.923,-0.298,0.219,-0.142,0.833,0.138,-0.42,-0.291,-0.271,1.091
2024-10-15 13:50:27.851,74179.304,-0.277,0.26,-0.925,-0.239,0.273,-0.057,0.613,0.04,-0.279,-0.291,-0.263,1.09
2024-10-15 13:50:27.861,74179.314,-0.278,0.256,-0.926,-0.149,0.11,-0.009,0.211,-0.215,-0.065,-0.292,-0.259,1.089
2024-10-15 13:50:27.871,74179.324,-0.281,0.255,-0.925,-0.101,-0.098,0.041,0.084,-0.347,-0.061,-0.295,-0.258,1.089
2024-10-15 13:50:27.881,74179.334,-0.284,0.253,-0.925,-0.097,-0.066,0.097,0.262,-0.232,-0.101,-0.298,-0.256,1.088
2024-10-15 13:50:27.891,74179.344,-0.286,0.249,-0.925,-0.155,0.091,0.087,0.451,-0.088,-0.087,-0.299,-0.252,1.088
2024-10-15 13:50:27.901,74179.354,-0.287,0.245,-0.926,-0.214,0.164,0.023,0.368,-0.139,-0.064,-0.3,-0.248,1.089
2024-10-15 13:50:27.911,74179.364,-0.288,0.242,-0.927,-0.204,0.063,-0.031,0.32,-0.121,-0.097,-0.302,-0.244,1.089
2024-10-15 13:50:27.921,74179.374,-0.289,0.239,-0.927,-0.109,-0.014,-0.024,0.335,-0.075,-0.112,-0.303,-0.241,1.089
2024-10-15 13:50:27.931,74179.384,-0.29,0.235,-0.928,-0.059,-0.023,-0.024,0.375,0.048,-0.23,-0.303,-0.237,1.089
2024-10-15 13:50:27.941,74179.394,-0.29,0.232,-0.928,-0.061,-0.034,-0.066,0.071,-0.018,-0.112,-0.303,-0.234,1.088
2024-10-15 13:50:27.951,74179.404,-0.291,0.232,-0.928,-0.097,-0.129,-0.045,-0.123,-0.098,-0.106,-0.304,-0.234,1.086
2024-10-15 13:50:27.961,74179.414,-0.292,0.233,-0.927,-0.084,-0.292,-0.031,-0.247,-0.065,-0.128,-0.305,-0.236,1.085
2024-10-15 13:50:27.971,74179.424,-0.293,0.236,-0.927,-0.049,-0.225,0.03,-0.291,-0.073,-0.122,-0.307,-0.238,1.083
2024-10-15 13:50:27.981,74179.434,-0.294,0.238,-0.926,-0.08,-0.155,0.046,-0.328,-0.054,-0.144,-0.308,-0.24,1.08
2024-10-15 13:50:27.991,74179.444,-0.295,0.241,-0.925,-0.068,-0.122,0.068,-0.434,0.019,-0.145,-0.309,-0.243,1.078
2024-10-15 13:50:28.001,74179.454,-0.294,0.246,-0.924,-0.064,-0.083,0.083,-0.666,0.126,-0.074,-0.309,-0.248,1.075
2024-10-15 13:50:28.011,74179.464,-0.293,0.253,-0.922,-0.073,-0.076,0.072,-0.89,0.223,0.021,-0.308,-0.256,1.072
2024-10-15 13:50:28.021,74179.474,-0.29,0.262,-0.921,-0.091,-0.082,0.006,-0.973,0.389,0.093,-0.305,-0.265,1.07
2024-10-15 13:50:28.031,74179.484,-0.285,0.271,-0.919,-0.112,-0.032,-0.083,-1.013,0.571,0.139,-0.301,-0.275,1.068
2024-10-15 13:50:28.041,74179.494,-0.279,0.281,-0.918,-0.117,0.038,-0.107,-1.031,0.713,0.157,-0.295,-0.285,1.066
2024-10-15 13:50:28.051,74179.504,-0.272,0.29,-0.918,-0.088,0.065,-0.081,-0.911,0.769,0.153,-0.288,-0.295,1.065
2024-10-15 13:50:28.061,74179.514,-0.264,0.298,-0.917,-0.039,0.084,-0.061,-0.659,0.865,0.122,-0.28,-0.303,1.064
2024-10-15 13:50:28.071,74179.524,-0.255,0.303,-0.918,0.001,0.139,-0.066,-0.39,0.927,0.089,-0.271,-0.308,1.064
2024-10-15 13:50:28.081,74179.534,-0.247,0.306,-0.919,0.029,0.206,-0.061,-0.265,0.842,0.087,-0.262,-0.311,1.064
2024-10-15 13:50:28.091,74179.544,-0.239,0.308,-0.921,0.059,0.184,-0.059,-0.189,0.708,0.107,-0.254,-0.314,1.064
2024-10-15 13:50:28.101,74179.554,-0.233,0.31,-0.922,0.112,0.119,-0.013,-0.1,0.614,0.127,-0.248,-0.315,1.065
2024-10-15 13:50:28.111,74179.563,-0.227,0.311,-0.923,0.139,0.104,0.07,-0.006,0.526,0.143,-0.241,-0.316,1.066
2024-10-15 13:50:28.121,74179.573,-0.222,0.311,-0.924,0.139,0.108,0.13,0.042,0.402,0.153,-0.236,-0.316,1.067
2024-10-15 13:50:28.131,74179.583,-0.219,0.311,-0.925,0.142,0.091,0.155,0.103,0.279,0.156,-0.232,-0.316,1.069
2024-10-15 13:50:28.141,74179.593,-0.216,0.31,-0.926,0.146,0.069,0.165,0.162,0.152,0.16,-0.23,-0.315,1.071
2024-10-15 13:50:28.151,74179.603,-0.215,0.308,-0.927,0.147,0.056,0.17,0.19,0.049,0.151,-0.228,-0.314,1.073
2024-10-15 13:50:28.161,74179.613,-0.215,0.307,-0.927,0.145,0.049,0.177,0.173,-0.058,0.14,-0.227,-0.312,1.075
2024-10-15 13:50:28.171,74179.623,-0.215,0.306,-0.927,0.129,0.031,0.175,0.157,-0.137,0.125,-0.228,-0.311,1.077
2024-10-15 13:50:28.180,74179.633,-0.216,0.305,-0.928,0.096,0.014,0.142,0.151,-0.192,0.114,-0.229,-0.31,1.078
2024-10-15 13:50:28.191,74179.643,-0.218,0.304,-0.928,0.056,-0.001,0.104,0.13,-0.251,0.106,-0.231,-0.308,1.08
2024-10-15 13:50:28.200,74179.653,-0.22,0.303,-0.927,0.028,-0.017,0.08,0.114,-0.274,0.07,-0.233,-0.307,1.081
2024-10-15 13:50:28.210,74179.663,-0.223,0.302,-0.927,0.007,-0.023,0.068,0.122,-0.269,0.049,-0.236,-0.306,1.082
2024-10-15 13:50:28.220,74179.673,-0.225,0.301,-0.927,-0.014,-0.018,0.063,0.151,-0.258,0.064,-0.238,-0.305,1.083
2024-10-15 13:50:28.230,74179.683,-0.227,0.3,-0.927,-0.027,-0.028,0.053,-0.011,-0.227,0.054,-0.24,-0.305,1.083
2024-10-15 13:50:28.240,74179.693,-0.229,0.301,-0.926,-0.024,-0.043,0.056,-0.139,-0.248,0.073,-0.242,-0.305,1.084
2024-10-15 13:50:28.251,74179.703,-0.231,0.303,-0.925,-0.01,-0.094,0.088,-0.173,-0.17,0.102,-0.244,-0.307,1.084
2024-10-15 13:50:28.260,74179.713,-0.231,0.304,-0.924,0.002,-0.13,0.063,-0.113,-0.05,-0.008,-0.245,-0.309,1.084
2024-10-15 13:50:28.270,74179.723,-0.232,0.305,-0.924,-0.045,-0.002,0.026,-0.074,0.005,-0.076,-0.246,-0.31,1.084
2024-10-15 13:50:28.281,74179.733,-0.232,0.305,-0.924,-0.102,0.036,-0.028,-0.01,0.045,-0.075,-0.246,-0.31,1.083
2024-10-15 13:50:28.290,74179.743,-0.232,0.305,-0.924,-0.084,-0.002,-0.07,0.014,0.065,-0.084,-0.246,-0.31,1.082
2024-10-15 13:50:28.300,74179.753,-0.231,0.304,-0.924,-0.07,-0.025,-0.085,0.097,0.067,-0.082,-0.245,-0.309,1.081
2024-10-15 13:50:28.311,74179.763,-0.231,0.302,-0.925,-0.058,-0.001,-0.061,0.199,0.076,-0.056,-0.245,-0.307,1.081
2024-10-15 13:50:28.320,74179.773,-0.23,0.3,-0.926,-0.026,0.025,-0.025,0.21,0.068,-0.044,-0.244,-0.305,1.081
2024-10-15 13:50:28.329,74179.783,-0.23,0.299,-0.926,-0.003,0.042,0.005,0.113,-0.014,-0.008,-0.244,-0.303,1.081
2024-10-15 13:50:28.340,74179.793,-0.231,0.298,-0.926,0.008,0.018,0.015,0.024,-0.101,0.061,-0.244,-0.303,1.082
2024-10-15 13:50:28.350,74179.803,-0.232,0.298,-0.926,0.026,-0.014,0.008,0.021,-0.113,0.113,-0.245,-0.303,1.082
2024-10-15 13:50:28.360,74179.813,-0.232,0.298,-0.926,0.027,-0.007,0.025,0.001,-0.098,0.131,-0.246,-0.303,1.084
2024-10-15 13:50:28.370,74179.823,-0.233,0.299,-0.925,0.016,0.011,0.055,-0.012,-0.093,0.137,-0.247,-0.303,1.085
2024-10-15 13:50:28.380,74179.833,-0.234,0.299,-0.925,0.013,0.013,0.067,-0.031,-0.11,0.129,-0.247,-0.304,1.086
2024-10-15 13:50:28.390,74179.843,-0.235,0.3,-0.925,0.022,0.012,0.043,-0.086,-0.16,0.138,-0.249,-0.305,1.087
2024-10-15 13:50:28.400,74179.853,-0.236,0.301,-0.924,0.031,0.012,-0.002,-0.085,-0.285,0.193,-0.25,-0.306,1.089
2024-10-15 13:50:28.410,74179.863,-0.239,0.302,-0.923,0.043,0.011,-0.033,0.049,-0.331,0.181,-0.253,-0.307,1.091
2024-10-15 13:50:28.420,74179.873,-0.241,0.301,-0.923,0.06,0.043,0.012,0.251,-0.346,0.247,-0.256,-0.306,1.093
2024-10-15 13:50:28.430,74179.883,-0.242,0.298,-0.923,0.08,0.05,0.085,0.395,0.014,0.141,-0.257,-0.303,1.096
2024-10-15 13:50:28.440,74179.893,-0.24,0.296,-0.925,0.079,0.072,0.127,0.292,0.339,0.248,-0.254,-0.301,1.099
2024-10-15 13:50:28.450,74179.903,-0.237,0.294,-0.926,-0.053,0.061,-0.077,0.359,0.186,0.393,-0.25,-0.298,1.103
2024-10-15 13:50:28.460,74179.913,-0.234,0.292,-0.927,-0.178,0.021,-0.409,0.192,0.108,0.168,-0.248,-0.296,1.107
2024-10-15 13:50:28.470,74179.923,-0.233,0.29,-0.928,0.005,0.001,-0.139,0.221,0.129,0.086,-0.246,-0.294,1.108
2024-10-15 13:50:28.480,74179.933,-0.232,0.289,-0.929,0.13,-0.046,0.002,-0.002,0.085,0.242,-0.244,-0.294,1.11
2024-10-15 13:50:28.490,74179.943,-0.23,0.292,-0.928,0.115,-0.039,-0.038,-0.333,-0.013,0.401,-0.243,-0.296,1.113
2024-10-15 13:50:28.500,74179.953,-0.229,0.297,-0.927,0.1,-0.135,0.073,-0.632,-0.044,0.55,-0.242,-0.302,1.117
2024-10-15 13:50:28.510,74179.963,-0.229,0.306,-0.924,0.162,-0.158,0.157,-0.871,-0.26,0.631,-0.243,-0.311,1.121
2024-10-15 13:50:28.520,74179.973,-0.23,0.314,-0.921,0.223,-0.101,0.206,-0.62,-0.387,0.53,-0.245,-0.32,1.125
2024-10-15 13:50:28.530,74179.983,-0.232,0.318,-0.919,0.261,-0.014,0.198,-0.061,-0.227,0.234,-0.247,-0.324,1.128
2024-10-15 13:50:28.540,74179.993,-0.232,0.317,-0.92,0.209,0.164,0.044,0.264,0.08,0.063,-0.247,-0.323,1.129
2024-10-15 13:50:28.550,74180.003,-0.231,0.315,-0.92,0.035,0.218,-0.192,0.218,-0.026,0.195,-0.246,-0.321,1.131
2024-10-15 13:50:28.560,74180.013,-0.231,0.314,-0.921,-0.105,-0.01,-0.294,0.228,-0.169,0.166,-0.246,-0.319,1.134
2024-10-15 13:50:28.570,74180.023,-0.232,0.311,-0.922,-0.045,-0.179,-0.194,0.426,-0.081,-0.105,-0.247,-0.316,1.135
2024-10-15 13:50:28.580,74180.033,-0.234,0.307,-0.923,0.057,-0.013,-0.117,0.39,-0.075,-0.165,-0.248,-0.312,1.134
2024-10-15 13:50:28.590,74180.043,-0.235,0.304,-0.923,0.004,0.034,-0.147,0.183,-0.188,-0.038,-0.249,-0.309,1.134
2024-10-15 13:50:28.600,74180.053,-0.237,0.302,-0.923,-0.123,-0.141,-0.147,0.279,-0.15,-0.034,-0.251,-0.307,1.134
2024-10-15 13:50:28.610,74180.063,-0.238,0.298,-0.924,-0.174,-0.142,-0.126,0.457,-0.069,-0.091,-0.252,-0.303,1.134
2024-10-15 13:50:28.620,74180.073,-0.239,0.293,-0.926,-0.158,-0.03,-0.092,0.599,-0.029,-0.193,-0.253,-0.297,1.134
2024-10-15 13:50:28.630,74180.083,-0.24,0.286,-0.928,-0.126,-0.007,-0.01,0.683,0.027,-0.324,-0.253,-0.291,1.133
2024-10-15 13:50:28.640,74180.093,-0.241,0.28,-0.929,-0.095,-0.034,0.027,0.557,-0.052,-0.327,-0.253,-0.284,1.131
2024-10-15 13:50:28.650,74180.103,-0.242,0.275,-0.93,-0.072,-0.125,0.015,0.257,-0.109,-0.312,-0.255,-0.279,1.129
2024-10-15 13:50:28.660,74180.113,-0.244,0.273,-0.93,-0.07,-0.211,-0.007,0.039,-0.153,-0.311,-0.257,-0.277,1.126
2024-10-15 13:50:28.670,74180.123,-0.246,0.272,-0.93,-0.113,-0.195,-0.016,-0.042,-0.11,-0.367,-0.259,-0.276,1.123
2024-10-15 13:50:28.680,74180.133,-0.248,0.272,-0.93,-0.155,-0.113,-0.016,-0.058,-0.088,-0.375,-0.261,-0.275,1.119
2024-10-15 13:50:28.690,74180.143,-0.25,0.272,-0.929,-0.186,-0.04,-0.017,-0.089,-0.089,-0.298,-0.263,-0.275,1.115
2024-10-15 13:50:28.700,74180.152,-0.251,0.272,-0.929,-0.195,-0.03,0.011,0.013,-0.031,-0.305,-0.264,-0.275,1.112
2024-10-15 13:50:28.710,74180.162,-0.252,0.27,-0.929,-0.185,0.06,0.084,0.088,0.019,-0.278,-0.265,-0.274,1.109
2024-10-15 13:50:28.720,74180.172,-0.253,0.269,-0.929,-0.181,0.134,0.12,0.079,0.004,-0.231,-0.266,-0.272,1.107
2024-10-15 13:50:28.730,74180.182,-0.253,0.268,-0.93,-0.161,0.119,0.154,0.072,-0.011,-0.205,-0.266,-0.271,1.105
2024-10-15 13:50:28.740,74180.192,-0.254,0.266,-0.93,-0.132,0.08,0.172,0.041,-0.015,-0.19,-0.267,-0.27,1.103
2024-10-15 13:50:28.750,74180.202,-0.255,0.266,-0.93,-0.107,0.074,0.149,-0.07,-0.055,-0.105,-0.268,-0.269,1.101
2024-10-15 13:50:28.760,74180.212,-0.256,0.267,-0.929,-0.1,0.054,0.082,-0.12,-0.039,-0.057,-0.268,-0.27,1.099
2024-10-15 13:50:28.770,74180.222,-0.256,0.268,-0.929,-0.094,0.054,0.004,-0.132,0.028,0.039,-0.269,-0.271,1.099
2024-10-15 13:50:28.780,74180.232,-0.255,0.27,-0.929,-0.092,0.085,-0.044,-0.208,0.062,0.141,-0.268,-0.273,1.099
2024-10-15 13:50:28.790,74180.242,-0.254,0.273,-0.928,-0.06,0.102,-0.024,-0.377,0.058,0.26,-0.267,-0.276,1.1
2024-10-15 13:50:28.799,74180.252,-0.253,0.278,-0.927,0.013,0.097,0.041,-0.592,0.019,0.391,-0.266,-0.282,1.102
2024-10-15 13:50:28.809,74180.262,-0.251,0.285,-0.925,0.108,0.066,0.11,-0.719,-0.023,0.484,-0.266,-0.289,1.105
2024-10-15 13:50:28.819,74180.272,-0.25,0.293,-0.923,0.187,0.049,0.15,-0.69,-0.073,0.506,-0.265,-0.298,1.108
2024-10-15 13:50:28.830,74180.282,-0.25,0.3,-0.921,0.247,0.071,0.176,-0.422,-0.177,0.428,-0.265,-0.304,1.111
2024-10-15 13:50:28.839,74180.292,-0.251,0.302,-0.92,0.292,0.104,0.155,0.092,-0.156,0.235,-0.266,-0.307,1.114
2024-10-15 13:50:28.849,74180.302,-0.251,0.3,-0.921,0.317,0.161,0.06,0.533,0.065,0.042,-0.266,-0.304,1.116
2024-10-15 13:50:28.859,74180.312,-0.25,0.294,-0.922,0.272,0.195,-0.103,0.529,0.121,0.074,-0.264,-0.299,1.118
2024-10-15 13:50:28.869,74180.322,-0.249,0.291,-0.924,0.186,0.059,-0.253,0.185,-0.103,0.171,-0.264,-0.296,1.12
2024-10-15 13:50:28.879,74180.332,-0.25,0.291,-0.923,0.173,-0.236,-0.238,0.055,-0.16,0.069,-0.265,-0.295,1.122
2024-10-15 13:50:28.889,74180.342,-0.252,0.291,-0.923,0.184,-0.318,-0.146,-0.074,-0.201,0.081,-0.266,-0.295,1.122
2024-10-15 13:50:28.899,74180.352,-0.254,0.292,-0.922,0.111,-0.248,-0.098,-0.118,-0.336,0.106,-0.269,-0.297,1.123
2024-10-15 13:50:28.909,74180.362,-0.257,0.293,-0.921,0.078,-0.259,0.005,0.054,-0.285,-0.01,-0.272,-0.297,1.123
2024-10-15 13:50:28.919,74180.372,-0.259,0.291,-0.921,0.122,-0.125,0.086,0.213,-0.252,-0.099,-0.275,-0.296,1.123
2024-10-15 13:50:28.929,74180.382,-0.262,0.289,-0.921,0.115,0.011,0.061,0.334,-0.222,-0.145,-0.277,-0.293,1.123
2024-10-15 13:50:28.939,74180.392,-0.264,0.285,-0.922,0.042,0.003,0.022,0.384,-0.112,-0.295,-0.279,-0.289,1.121
2024-10-15 13:50:28.950,74180.402,-0.266,0.281,-0.922,-0.045,-0.024,-0.042,0.176,-0.05,-0.367,-0.281,-0.285,1.119
2024-10-15 13:50:28.959,74180.412,-0.268,0.28,-0.922,-0.129,-0.088,-0.161,-0.135,-0.265,-0.324,-0.283,-0.284,1.115
2024-10-15 13:50:28.968,74180.422,-0.271,0.28,-0.921,-0.231,-0.28,-0.187,0.012,-0.097,-0.506,-0.286,-0.283,1.111
2024-10-15 13:50:28.979,74180.432,-0.272,0.276,-0.922,-0.318,-0.248,-0.1,0.351,0.16,-0.568,-0.287,-0.28,1.106
2024-10-15 13:50:28.989,74180.442,-0.272,0.271,-0.923,-0.375,-0.018,-0.052,0.383,0.172,-0.541,-0.287,-0.275,1.102
2024-10-15 13:50:28.999,74180.452,-0.272,0.267,-0.925,-0.351,-0.003,0.05,0.255,0.209,-0.563,-0.286,-0.27,1.097
2024-10-15 13:50:29.009,74180.462,-0.272,0.265,-0.925,-0.26,-0.007,0.163,-0.215,-0.014,-0.351,-0.286,-0.268,1.092
2024-10-15 13:50:29.019,74180.472,-0.273,0.268,-0.924,-0.214,-0.055,0.204,-0.484,-0.061,-0.206,-0.288,-0.271,1.088
2024-10-15 13:50:29.029,74180.482,-0.274,0.272,-0.922,-0.194,-0.035,0.23,-0.453,-0.073,-0.044,-0.289,-0.276,1.086
2024-10-15 13:50:29.039,74180.492,-0.275,0.274,-0.922,-0.222,0.119,0.202,-0.032,0.043,-0.043,-0.29,-0.278,1.085
2024-10-15 13:50:29.049,74180.502,-0.274,0.273,-0.922,-0.213,0.246,0.125,0.295,0.234,-0.088,-0.289,-0.276,1.084
2024-10-15 13:50:29.059,74180.512,-0.271,0.27,-0.924,-0.176,0.345,0.023,0.254,0.287,0.019,-0.286,-0.273,1.085
2024-10-15 13:50:29.069,74180.522,-0.269,0.269,-0.925,-0.137,0.288,-0.017,0.053,0.185,0.153,-0.283,-0.272,1.086
2024-10-15 13:50:29.080,74180.532,-0.267,0.27,-0.925,-0.026,0.115,0.012,-0.119,0.143,0.199,-0.281,-0.273,1.088
2024-10-15 13:50:29.089,74180.542,-0.265,0.272,-0.925,0.107,0.06,0.072,-0.231,0.087,0.278,-0.279,-0.275,1.089
2024-10-15 13:50:29.099,74180.552,-0.264,0.275,-0.925,0.179,0.079,0.108,-0.295,0.053,0.346,-0.278,-0.279,1.091
2024-10-15 13:50:29.109,74180.562,-0.262,0.279,-0.924,0.233,0.079,0.109,-0.318,0.012,0.415,-0.277,-0.283,1.094
2024-10-15 13:50:29.119,74180.572,-0.261,0.283,-0.923,0.269,0.096,0.073,-0.29,-0.052,0.452,-0.276,-0.287,1.098
2024-10-15 13:50:29.129,74180.582,-0.261,0.287,-0.922,0.288,0.116,0.02,-0.204,-0.113,0.472,-0.276,-0.291,1.102
2024-10-15 13:50:29.139,74180.592,-0.261,0.289,-0.921,0.276,0.138,-0.037,-0.014,-0.123,0.462,-0.276,-0.293,1.106
2024-10-15 13:50:29.148,74180.602,-0.26,0.289,-0.921,0.239,0.166,-0.076,0.188,-0.086,0.436,-0.275,-0.293,1.11
2024-10-15 13:50:29.158,74180.612,-0.26,0.288,-0.922,0.196,0.191,-0.107,0.245,-0.08,0.45,-0.275,-0.292,1.115
2024-10-15 13:50:29.169,74180.622,-0.259,0.287,-0.922,0.171,0.138,-0.103,0.229,-0.083,0.441,-0.274,-0.291,1.12
2024-10-15 13:50:29.178,74180.632,-0.259,0.286,-0.923,0.165,0.038,-0.06,0.185,-0.147,0.389,-0.274,-0.29,1.125
2024-10-15 13:50:29.189,74180.642,-0.26,0.286,-0.922,0.165,-0.075,-0.012,0.148,-0.223,0.281,-0.274,-0.29,1.129
2024-10-15 13:50:29.199,74180.652,-0.261,0.285,-0.922,0.157,-0.186,0.012,0.149,-0.262,0.167,-0.276,-0.289,1.132
2024-10-15 13:50:29.209,74180.662,-0.264,0.284,-0.922,0.097,-0.237,-0.024,0.17,-0.303,0.031,-0.278,-0.288,1.133
2024-10-15 13:50:29.219,74180.672,-0.266,0.282,-0.922,-0.024,-0.261,-0.097,0.17,-0.3,-0.07,-0.281,-0.286,1.133
2024-10-15 13:50:29.229,74180.682,-0.269,0.28,-0.921,-0.157,-0.273,-0.154,0.211,-0.302,-0.115,-0.284,-0.284,1.133
2024-10-15 13:50:29.239,74180.692,-0.272,0.277,-0.922,-0.245,-0.24,-0.156,0.346,-0.134,-0.255,-0.287,-0.281,1.132
2024-10-15 13:50:29.249,74180.702,-0.274,0.273,-0.922,-0.261,-0.158,-0.091,0.349,-0.06,-0.345,-0.288,-0.276,1.13
2024-10-15 13:50:29.259,74180.712,-0.275,0.269,-0.923,-0.245,-0.103,-0.014,0.255,-0.051,-0.478,-0.29,-0.272,1.127
2024-10-15 13:50:29.269,74180.722,-0.277,0.266,-0.923,-0.206,-0.188,0.056,0.204,-0.06,-0.607,-0.292,-0.269,1.122
2024-10-15 13:50:29.279,74180.732,-0.279,0.261,-0.924,-0.181,-0.229,0.073,0.349,0.014,-0.7,-0.293,-0.264,1.116
2024-10-15 13:50:29.289,74180.741,-0.28,0.255,-0.925,-0.21,-0.179,0.053,0.622,0.192,-0.881,-0.294,-0.257,1.11
2024-10-15 13:50:29.299,74180.751,-0.28,0.246,-0.928,-0.267,-0.056,0.006,0.671,0.47,-0.947,-0.293,-0.248,1.103
2024-10-15 13:50:29.309,74180.761,-0.278,0.239,-0.93,-0.333,0.059,-0.071,0.222,0.275,-0.589,-0.29,-0.242,1.097
2024-10-15 13:50:29.319,74180.771,-0.277,0.237,-0.931,-0.348,-0.048,-0.065,0.046,0.201,-0.606,-0.29,-0.239,1.091
2024-10-15 13:50:29.329,74180.781,-0.276,0.235,-0.932,-0.225,-0.132,0.076,0.054,0.444,-0.504,-0.287,-0.237,1.086
2024-10-15 13:50:29.339,74180.791,-0.273,0.234,-0.933,-0.158,0.134,0.157,-0.271,0.233,-0.219,-0.285,-0.237,1.082
2024-10-15 13:50:29.349,74180.801,-0.272,0.238,-0.932,-0.141,0.081,0.241,-0.588,0.134,-0.122,-0.284,-0.24,1.079
2024-10-15 13:50:29.359,74180.811,-0.271,0.244,-0.931,-0.007,-0.011,0.335,-0.716,0.041,0.023,-0.283,-0.247,1.077
2024-10-15 13:50:29.369,74180.821,-0.27,0.251,-0.93,0.051,0.123,0.311,-0.634,0.114,0.109,-0.283,-0.253,1.075
2024-10-15 13:50:29.379,74180.831,-0.269,0.256,-0.929,0.052,0.225,0.179,-0.517,0.213,0.177,-0.282,-0.259,1.075
2024-10-15 13:50:29.389,74180.841,-0.266,0.261,-0.928,0.066,0.316,0.035,-0.475,0.203,0.275,-0.279,-0.265,1.076
2024-10-15 13:50:29.399,74180.851,-0.264,0.266,-0.927,0.124,0.301,-0.058,-0.43,0.162,0.341,-0.277,-0.27,1.077
2024-10-15 13:50:29.408,74180.861,-0.261,0.271,-0.926,0.208,0.235,-0.078,-0.356,0.126,0.412,-0.275,-0.275,1.08
2024-10-15 13:50:29.418,74180.871,-0.259,0.275,-0.926,0.264,0.213,-0.069,-0.272,0.035,0.445,-0.273,-0.279,1.083
2024-10-15 13:50:29.428,74180.881,-0.258,0.278,-0.925,0.283,0.164,-0.049,-0.085,-0.016,0.43,-0.272,-0.282,1.087
2024-10-15 13:50:29.438,74180.891,-0.257,0.279,-0.925,0.292,0.133,-0.03,0.122,-0.039,0.379,-0.271,-0.283,1.091
2024-10-15 13:50:29.448,74180.901,-0.256,0.278,-0.926,0.278,0.136,-0.047,0.299,0.009,0.302,-0.27,-0.281,1.095
2024-10-15 13:50:29.458,74180.911,-0.256,0.275,-0.927,0.234,0.112,-0.087,0.333,-0.021,0.286,-0.269,-0.279,1.099
2024-10-15 13:50:29.469,74180.921,-0.255,0.274,-0.927,0.183,0.05,-0.138,0.209,-0.06,0.317,-0.268,-0.277,1.103
2024-10-15 13:50:29.478,74180.931,-0.255,0.274,-0.927,0.149,-0.069,-0.126,0.008,-0.132,0.398,-0.268,-0.277,1.106
2024-10-15 13:50:29.489,74180.941,-0.255,0.275,-0.927,0.131,-0.144,-0.061,-0.176,-0.239,0.462,-0.269,-0.279,1.11
2024-10-15 13:50:29.498,74180.951,-0.257,0.278,-0.926,0.141,-0.191,0.025,-0.095,-0.262,0.374,-0.271,-0.282,1.114
2024-10-15 13:50:29.508,74180.961,-0.258,0.279,-0.925,0.18,-0.144,0.078,0.078,-0.218,0.253,-0.272,-0.283,1.117
2024-10-15 13:50:29.518,74180.971,-0.259,0.278,-0.925,0.129,-0.046,0.022,0.123,-0.21,0.201,-0.274,-0.282,1.12
2024-10-15 13:50:29.529,74180.981,-0.261,0.278,-0.924,0.02,-0.084,-0.022,0.157,-0.305,0.112,-0.276,-0.281,1.121
2024-10-15 13:50:29.538,74180.991,-0.264,0.276,-0.924,-0.037,-0.146,-0.0,0.204,-0.248,-0.075,-0.278,-0.279,1.122
2024-10-15 13:50:29.548,74181.001,-0.266,0.274,-0.924,-0.081,-0.106,-0.023,0.139,-0.131,-0.148,-0.28,-0.278,1.121
2024-10-15 13:50:29.558,74181.011,-0.267,0.273,-0.924,-0.209,-0.09,-0.116,0.071,-0.054,-0.114,-0.281,-0.276,1.12
2024-10-15 13:50:29.568,74181.021,-0.268,0.272,-0.924,-0.345,-0.224,-0.113,0.09,0.033,-0.254,-0.282,-0.275,1.119
2024-10-15 13:50:29.578,74181.031,-0.268,0.27,-0.925,-0.306,-0.271,0.011,-0.06,0.033,-0.339,-0.282,-0.274,1.116
2024-10-15 13:50:29.588,74181.041,-0.269,0.272,-0.924,-0.19,-0.254,0.062,-0.39,-0.127,-0.28,-0.284,-0.275,1.112
2024-10-15 13:50:29.598,74181.051,-0.271,0.275,-0.922,-0.182,-0.282,0.072,-0.42,-0.084,-0.29,-0.286,-0.278,1.108
2024-10-15 13:50:29.607,74181.061,-0.272,0.277,-0.921,-0.257,-0.158,0.107,-0.301,0.065,-0.303,-0.287,-0.281,1.104
2024-10-15 13:50:29.617,74181.071,-0.272,0.279,-0.921,-0.316,0.073,0.103,-0.28,0.084,-0.26,-0.288,-0.283,1.1
2024-10-15 13:50:29.628,74181.081,-0.272,0.281,-0.92,-0.32,0.164,0.104,-0.227,0.14,-0.23,-0.287,-0.285,1.097
2024-10-15 13:50:29.638,74181.091,-0.271,0.281,-0.921,-0.272,0.184,0.111,-0.0,0.248,-0.277,-0.286,-0.285,1.094
2024-10-15 13:50:29.648,74181.101,-0.269,0.279,-0.922,-0.235,0.263,0.087,0.222,0.422,-0.353,-0.284,-0.283,1.091
2024-10-15 13:50:29.658,74181.111,-0.266,0.277,-0.923,-0.216,0.293,0.026,0.152,0.394,-0.238,-0.28,-0.28,1.089
2024-10-15 13:50:29.668,74181.121,-0.263,0.275,-0.925,-0.196,0.17,-0.019,0.053,0.332,-0.243,-0.277,-0.279,1.087
2024-10-15 13:50:29.678,74181.131,-0.261,0.274,-0.926,-0.136,0.003,-0.004,-0.017,0.323,-0.199,-0.275,-0.278,1.084
2024-10-15 13:50:29.688,74181.141,-0.258,0.275,-0.926,-0.093,-0.017,0.013,-0.186,0.256,-0.096,-0.272,-0.278,1.083
2024-10-15 13:50:29.698,74181.151,-0.257,0.277,-0.926,-0.065,-0.043,0.059,-0.392,0.169,-0.021,-0.27,-0.281,1.081
2024-10-15 13:50:29.708,74181.161,-0.256,0.282,-0.925,0.004,-0.073,0.102,-0.524,0.081,0.086,-0.27,-0.286,1.08
2024-10-15 13:50:29.719,74181.171,-0.254,0.287,-0.924,0.071,-0.038,0.103,-0.483,0.06,0.192,-0.269,-0.291,1.08
2024-10-15 13:50:29.728,74181.181,-0.253,0.291,-0.923,0.122,0.033,0.085,-0.279,0.05,0.203,-0.268,-0.295,1.081
2024-10-15 13:50:29.738,74181.191,-0.252,0.293,-0.922,0.219,0.173,0.04,-0.048,0.013,0.24,-0.267,-0.297,1.083
2024-10-15 13:50:29.748,74181.201,-0.252,0.293,-0.922,0.322,0.275,-0.012,0.178,0.009,0.259,-0.266,-0.297,1.086
2024-10-15 13:50:29.758,74181.211,-0.251,0.291,-0.923,0.382,0.304,-0.061,0.383,-0.008,0.263,-0.265,-0.295,1.089
2024-10-15 13:50:29.768,74181.221,-0.25,0.288,-0.925,0.404,0.305,-0.096,0.518,0.013,0.259,-0.264,-0.292,1.093
2024-10-15 13:50:29.778,74181.231,-0.249,0.283,-0.926,0.399,0.23,-0.122,0.63,0.016,0.213,-0.263,-0.287,1.097
2024-10-15 13:50:29.788,74181.241,-0.249,0.277,-0.928,0.365,0.1,-0.138,0.618,0.001,0.148,-0.262,-0.281,1.101
2024-10-15 13:50:29.798,74181.251,-0.249,0.273,-0.929,0.326,-0.058,-0.152,0.433,-0.167,0.138,-0.262,-0.276,1.103
2024-10-15 13:50:29.808,74181.261,-0.251,0.27,-0.93,0.279,-0.231,-0.149,0.223,-0.261,0.157,-0.263,-0.274,1.106
2024-10-15 13:50:29.818,74181.271,-0.253,0.269,-0.929,0.214,-0.32,-0.118,0.186,-0.428,0.214,-0.266,-0.272,1.108
2024-10-15 13:50:29.828,74181.281,-0.257,0.267,-0.929,0.14,-0.266,-0.057,0.31,-0.519,0.22,-0.27,-0.271,1.111
2024-10-15 13:50:29.838,74181.291,-0.261,0.264,-0.929,0.173,-0.142,0.071,0.522,-0.421,0.027,-0.274,-0.267,1.113
2024-10-15 13:50:29.848,74181.301,-0.265,0.259,-0.929,0.245,0.116,0.087,0.582,-0.417,0.032,-0.278,-0.262,1.115
2024-10-15 13:50:29.858,74181.311,-0.269,0.253,-0.929,0.104,0.224,-0.042,0.649,-0.341,0.064,-0.281,-0.256,1.117
2024-10-15 13:50:29.868,74181.321,-0.271,0.246,-0.931,-0.109,0.115,-0.116,0.94,-0.047,-0.017,-0.283,-0.248,1.119
2024-10-15 13:50:29.878,74181.33,-0.27,0.238,-0.933,-0.224,0.131,-0.077,0.63,0.015,-0.038,-0.282,-0.24,1.121
2024-10-15 13:50:29.888,74181.34,-0.272,0.235,-0.933,-0.204,0.041,0.057,0.111,-0.42,0.041,-0.284,-0.237,1.123
2024-10-15 13:50:29.897,74181.35,-0.276,0.234,-0.932,-0.16,-0.321,0.109,0.095,-0.217,-0.182,-0.287,-0.236,1.122
2024-10-15 13:50:29.908,74181.36,-0.278,0.232,-0.932,-0.19,-0.349,0.106,0.032,-0.146,-0.148,-0.29,-0.235,1.12
2024-10-15 13:50:29.918,74181.37,-0.279,0.232,-0.932,-0.384,-0.214,0.033,-0.12,-0.111,-0.175,-0.291,-0.235,1.119
2024-10-15 13:50:29.927,74181.38,-0.281,0.233,-0.931,-0.439,-0.291,-0.006,-0.182,-0.089,-0.22,-0.293,-0.236,1.116
2024-10-15 13:50:29.938,74181.39,-0.281,0.234,-0.931,-0.46,-0.211,0.02,-0.069,0.113,-0.259,-0.293,-0.236,1.113
2024-10-15 13:50:29.948,74181.4,-0.28,0.234,-0.931,-0.456,-0.09,0.122,-0.148,0.138,-0.244,-0.292,-0.236,1.11
2024-10-15 13:50:29.958,74181.41,-0.28,0.236,-0.931,-0.378,0.005,0.139,-0.382,0.095,-0.149,-0.292,-0.238,1.108
2024-10-15 13:50:29.967,74181.42,-0.279,0.24,-0.93,-0.278,-0.02,0.111,-0.468,0.028,-0.169,-0.292,-0.242,1.105
2024-10-15 13:50:29.978,74181.43,-0.279,0.242,-0.929,-0.231,-0.041,0.187,-0.256,0.227,-0.304,-0.292,-0.245,1.101
2024-10-15 13:50:29.988,74181.44,-0.277,0.244,-0.929,-0.202,0.103,0.129,-0.396,0.255,-0.174,-0.29,-0.247,1.098
2024-10-15 13:50:29.997,74181.45,-0.276,0.249,-0.928,-0.181,0.108,0.027,-0.614,0.151,-0.109,-0.289,-0.252,1.095
2024-10-15 13:50:30.008,74181.46,-0.274,0.254,-0.928,-0.105,-0.079,-0.011,-0.519,0.234,-0.19,-0.288,-0.257,1.092
2024-10-15 13:50:30.017,74181.47,-0.272,0.257,-0.927,-0.026,-0.079,-0.032,-0.231,0.381,-0.364,-0.285,-0.26,1.088
2024-10-15 13:50:30.027,74181.48,-0.269,0.257,-0.928,0.011,-0.002,-0.04,-0.171,0.558,-0.449,-0.282,-0.26,1.084
2024-10-15 13:50:30.037,74181.49,-0.265,0.26,-0.928,0.038,-0.015,-0.093,-0.739,0.332,-0.247,-0.278,-0.263,1.079
2024-10-15 13:50:30.048,74181.5,-0.263,0.268,-0.927,0.081,-0.218,-0.045,-1.136,0.279,-0.213,-0.277,-0.272,1.074
2024-10-15 13:50:30.057,74181.51,-0.261,0.279,-0.924,0.176,-0.364,0.071,-1.319,0.398,-0.166,-0.275,-0.283,1.069
2024-10-15 13:50:30.067,74181.52,-0.257,0.292,-0.921,0.166,-0.174,0.041,-1.436,0.491,-0.052,-0.272,-0.296,1.063
2024-10-15 13:50:30.077,74181.53,-0.252,0.305,-0.918,0.095,-0.053,-0.043,-1.453,0.523,-0.015,-0.268,-0.31,1.059
2024-10-15 13:50:30.087,74181.54,-0.248,0.317,-0.915,0.085,0.004,-0.097,-1.169,0.516,-0.057,-0.264,-0.323,1.055
2024-10-15 13:50:30.098,74181.55,-0.243,0.325,-0.914,0.096,0.118,-0.147,-0.672,0.615,-0.123,-0.26,-0.331,1.052
2024-10-15 13:50:30.108,74181.56,-0.237,0.329,-0.914,0.09,0.278,-0.181,-0.19,0.754,-0.145,-0.254,-0.335,1.049
2024-10-15 13:50:30.117,74181.57,-0.23,0.329,-0.916,0.046,0.387,-0.197,-0.025,0.775,-0.066,-0.246,-0.336,1.048
2024-10-15 13:50:30.127,74181.58,-0.224,0.33,-0.917,0.016,0.325,-0.157,-0.1,0.722,0.005,-0.239,-0.336,1.048
2024-10-15 13:50:30.137,74181.59,-0.217,0.331,-0.918,0.05,0.2,-0.045,-0.221,0.625,0.086,-0.232,-0.338,1.048
2024-10-15 13:50:30.147,74181.6,-0.211,0.334,-0.919,0.099,0.118,0.031,-0.307,0.557,0.148,-0.226,-0.341,1.049
2024-10-15 13:50:30.157,74181.61,-0.206,0.337,-0.919,0.111,0.075,0.043,-0.322,0.491,0.167,-0.221,-0.344,1.05
2024-10-15 13:50:30.167,74181.62,-0.201,0.341,-0.918,0.095,0.064,0.051,-0.292,0.4,0.146,-0.216,-0.348,1.051
2024-10-15 13:50:30.177,74181.63,-0.198,0.343,-0.918,0.08,0.051,0.066,-0.191,0.284,0.125,-0.212,-0.35,1.052
2024-10-15 13:50:30.187,74181.64,-0.195,0.344,-0.918,0.079,0.037,0.079,-0.048,0.207,0.073,-0.21,-0.352,1.052
2024-10-15 13:50:30.197,74181.65,-0.194,0.344,-0.919,0.076,0.047,0.095,0.118,0.139,0.011,-0.208,-0.351,1.053
2024-10-15 13:50:30.207,74181.66,-0.193,0.342,-0.92,0.054,0.052,0.104,0.261,0.048,-0.025,-0.207,-0.35,1.053
2024-10-15 13:50:30.217,74181.67,-0.193,0.34,-0.92,0.043,0.029,0.102,0.257,-0.064,-0.123,-0.207,-0.347,1.053
2024-10-15 13:50:30.227,74181.68,-0.195,0.337,-0.921,0.041,0.014,0.109,0.362,-0.182,-0.071,-0.208,-0.343,1.053
2024-10-15 13:50:30.237,74181.69,-0.196,0.334,-0.922,0.055,-0.049,0.15,0.344,-0.211,-0.019,-0.21,-0.34,1.054
2024-10-15 13:50:30.247,74181.7,-0.199,0.33,-0.923,0.081,-0.101,0.126,0.333,-0.216,-0.056,-0.212,-0.337,1.054
2024-10-15 13:50:30.256,74181.71,-0.201,0.328,-0.923,0.03,-0.006,0.105,0.21,-0.296,-0.009,-0.214,-0.334,1.055
2024-10-15 13:50:30.267,74181.72,-0.204,0.326,-0.923,0.001,-0.037,0.084,0.187,-0.345,-0.017,-0.218,-0.332,1.055
2024-10-15 13:50:30.277,74181.73,-0.207,0.324,-0.923,0.03,-0.045,0.075,0.277,-0.323,-0.016,-0.221,-0.33,1.055
2024-10-15 13:50:30.287,74181.74,-0.21,0.321,-0.924,0.018,-0.02,0.055,0.343,-0.29,-0.036,-0.224,-0.327,1.056
2024-10-15 13:50:30.297,74181.75,-0.213,0.317,-0.924,-0.006,0.014,0.047,0.379,-0.287,-0.057,-0.226,-0.323,1.057
2024-10-15 13:50:30.307,74181.76,-0.216,0.314,-0.925,-0.012,0.018,0.045,0.383,-0.267,-0.106,-0.229,-0.319,1.057
2024-10-15 13:50:30.316,74181.77,-0.218,0.31,-0.925,-0.008,0.011,0.033,0.368,-0.257,-0.099,-0.232,-0.315,1.057
2024-10-15 13:50:30.327,74181.78,-0.221,0.306,-0.926,-0.017,-0.015,0.004,0.345,-0.221,-0.121,-0.234,-0.311,1.056
2024-10-15 13:50:30.337,74181.79,-0.223,0.303,-0.927,-0.03,-0.029,-0.013,0.398,-0.162,-0.119,-0.236,-0.308,1.056
2024-10-15 13:50:30.347,74181.8,-0.225,0.299,-0.927,-0.04,-0.023,-0.007,0.399,-0.091,-0.134,-0.238,-0.303,1.056
2024-10-15 13:50:30.357,74181.81,-0.226,0.295,-0.928,-0.039,-0.021,-0.002,0.351,-0.076,-0.14,-0.239,-0.299,1.055
2024-10-15 13:50:30.367,74181.82,-0.227,0.292,-0.929,-0.04,-0.025,-0.003,0.28,-0.069,-0.116,-0.24,-0.296,1.055
2024-10-15 13:50:30.377,74181.83,-0.228,0.289,-0.93,-0.03,-0.036,-0.009,0.208,-0.077,-0.061,-0.24,-0.293,1.054
2024-10-15 13:50:30.387,74181.84,-0.229,0.288,-0.93,-0.01,-0.047,0.01,0.15,-0.095,-0.03,-0.241,-0.292,1.055
2024-10-15 13:50:30.397,74181.85,-0.23,0.286,-0.93,0.008,-0.047,0.044,0.088,-0.096,-0.042,-0.242,-0.29,1.055
2024-10-15 13:50:30.407,74181.86,-0.231,0.286,-0.93,0.02,-0.02,0.058,0.007,-0.117,-0.013,-0.243,-0.29,1.054
2024-10-15 13:50:30.417,74181.87,-0.232,0.286,-0.93,0.018,-0.009,0.042,-0.031,-0.141,0.024,-0.245,-0.29,1.055
2024-10-15 13:50:30.427,74181.88,-0.233,0.286,-0.929,0.004,-0.008,0.018,0.003,-0.113,0.033,-0.246,-0.29,1.055
2024-10-15 13:50:30.437,74181.89,-0.234,0.286,-0.929,-0.013,0.025,0.001,0.028,-0.058,0.06,-0.246,-0.29,1.055
2024-10-15 13:50:30.447,74181.9,-0.234,0.286,-0.929,-0.029,0.061,-0.011,-0.01,-0.036,0.112,-0.247,-0.29,1.056
2024-10-15 13:50:30.457,74181.91,-0.234,0.287,-0.929,-0.045,0.055,-0.012,-0.062,-0.035,0.16,-0.247,-0.291,1.058
2024-10-15 13:50:30.467,74181.919,-0.234,0.288,-0.929,-0.037,0.035,-0.006,-0.094,-0.044,0.183,-0.247,-0.292,1.059
2024-10-15 13:50:30.477,74181.929,-0.234,0.289,-0.928,-0.013,0.028,-0.005,-0.076,-0.069,0.181,-0.247,-0.293,1.061
2024-10-15 13:50:30.487,74181.939,-0.234,0.29,-0.928,0.008,0.038,0.004,0.007,-0.05,0.161,-0.247,-0.294,1.063
2024-10-15 13:50:30.497,74181.949,-0.234,0.29,-0.928,0.019,0.051,0.002,0.09,-0.033,0.148,-0.247,-0.294,1.065
2024-10-15 13:50:30.507,74181.959,-0.234,0.289,-0.928,0.021,0.06,-0.008,0.162,-0.063,0.115,-0.247,-0.293,1.066
2024-10-15 13:50:30.517,74181.969,-0.234,0.287,-0.929,0.023,0.049,-0.006,0.261,-0.084,0.061,-0.247,-0.291,1.068
2024-10-15 13:50:30.527,74181.979,-0.235,0.284,-0.929,0.032,0.045,-0.009,0.397,-0.08,0.037,-0.248,-0.288,1.069
2024-10-15 13:50:30.537,74181.989,-0.236,0.281,-0.93,0.031,0.057,-0.015,0.476,-0.088,0.034,-0.248,-0.284,1.071
2024-10-15 13:50:30.547,74181.999,-0.237,0.276,-0.931,0.029,0.042,0.005,0.431,-0.108,0.044,-0.249,-0.28,1.072
2024-10-15 13:50:30.557,74182.009,-0.238,0.273,-0.932,0.041,-0.002,0.034,0.327,-0.16,0.079,-0.25,-0.277,1.074
2024-10-15 13:50:30.566,74182.019,-0.24,0.271,-0.932,0.049,-0.05,0.051,0.204,-0.226,0.094,-0.251,-0.274,1.075
2024-10-15 13:50:30.577,74182.029,-0.242,0.27,-0.932,0.042,-0.075,0.046,0.124,-0.302,0.063,-0.254,-0.273,1.077
2024-10-15 13:50:30.586,74182.039,-0.244,0.269,-0.932,0.015,-0.066,0.016,0.191,-0.327,0.025,-0.257,-0.272,1.078
2024-10-15 13:50:30.596,74182.049,-0.247,0.266,-0.932,-0.027,-0.029,-0.023,0.404,-0.313,-0.048,-0.26,-0.269,1.078
2024-10-15 13:50:30.606,74182.059,-0.25,0.261,-0.932,-0.066,0.03,-0.039,0.549,-0.184,-0.119,-0.262,-0.264,1.079
2024-10-15 13:50:30.616,74182.069,-0.25,0.256,-0.934,-0.092,0.072,-0.029,0.272,0.147,-0.05,-0.262,-0.259,1.079
2024-10-15 13:50:30.626,74182.079,-0.249,0.256,-0.934,-0.132,0.032,-0.009,0.056,0.024,0.211,-0.261,-0.258,1.08
2024-10-15 13:50:30.636,74182.089,-0.249,0.255,-0.934,-0.193,-0.106,-0.106,0.246,0.001,0.236,-0.26,-0.258,1.083
2024-10-15 13:50:30.646,74182.099,-0.248,0.252,-0.935,-0.14,-0.059,-0.152,0.387,0.133,-0.003,-0.259,-0.255,1.085
2024-10-15 13:50:30.656,74182.109,-0.247,0.249,-0.937,-0.08,0.109,0.002,0.34,0.003,-0.025,-0.258,-0.251,1.086
2024-10-15 13:50:30.666,74182.119,-0.248,0.246,-0.937,-0.074,0.041,0.059,0.283,-0.091,0.041,-0.258,-0.248,1.087
2024-10-15 13:50:30.676,74182.129,-0.248,0.243,-0.938,-0.014,-0.048,0.074,0.302,-0.06,0.038,-0.259,-0.246,1.088
2024-10-15 13:50:30.686,74182.139,-0.249,0.24,-0.938,-0.028,-0.032,0.09,0.318,-0.039,-0.001,-0.259,-0.243,1.089
2024-10-15 13:50:30.696,74182.149,-0.249,0.237,-0.939,-0.074,0.003,0.053,0.282,-0.035,-0.005,-0.259,-0.24,1.09
2024-10-15 13:50:30.706,74182.159,-0.249,0.235,-0.939,-0.065,0.01,0.028,0.171,-0.071,-0.001,-0.26,-0.237,1.09
2024-10-15 13:50:30.716,74182.169,-0.25,0.235,-0.939,-0.041,-0.037,0.034,-0.106,-0.08,0.027,-0.26,-0.237,1.091
2024-10-15 13:50:30.726,74182.179,-0.251,0.238,-0.938,-0.024,-0.081,0.021,-0.421,-0.149,0.169,-0.261,-0.24,1.091
2024-10-15 13:50:30.736,74182.189,-0.252,0.243,-0.937,-0.026,-0.13,0.009,-0.555,-0.14,0.266,-0.263,-0.245,1.092
2024-10-15 13:50:30.747,74182.199,-0.253,0.248,-0.935,-0.036,-0.151,0.03,-0.4,-0.133,0.198,-0.264,-0.251,1.093
2024-10-15 13:50:30.756,74182.209,-0.253,0.251,-0.934,-0.047,-0.029,0.031,-0.1,-0.136,0.111,-0.265,-0.253,1.094
2024-10-15 13:50:30.766,74182.219,-0.254,0.251,-0.934,-0.042,0.066,0.028,0.169,-0.03,0.027,-0.266,-0.253,1.094
2024-10-15 13:50:30.776,74182.229,-0.254,0.248,-0.935,-0.038,0.107,0.027,0.31,0.04,-0.047,-0.265,-0.251,1.095
2024-10-15 13:50:30.786,74182.239,-0.254,0.245,-0.936,-0.052,0.12,0.027,0.299,0.027,-0.041,-0.265,-0.248,1.095
2024-10-15 13:50:30.796,74182.249,-0.254,0.243,-0.936,-0.029,0.048,0.023,0.205,0.02,0.003,-0.265,-0.245,1.096
2024-10-15 13:50:30.806,74182.259,-0.254,0.242,-0.937,0.005,-0.021,0.028,0.023,-0.014,0.005,-0.265,-0.244,1.096
2024-10-15 13:50:30.816,74182.269,-0.254,0.242,-0.936,0.004,-0.039,0.028,-0.144,0.001,0.072,-0.265,-0.245,1.096
2024-10-15 13:50:30.826,74182.279,-0.253,0.245,-0.936,-0.001,-0.059,0.025,-0.279,-0.007,0.164,-0.264,-0.247,1.097
2024-10-15 13:50:30.836,74182.289,-0.253,0.248,-0.935,-0.011,-0.071,0.018,-0.329,0.024,0.187,-0.264,-0.251,1.098
2024-10-15 13:50:30.846,74182.299,-0.252,0.252,-0.934,-0.023,-0.027,0.048,-0.325,0.04,0.22,-0.264,-0.254,1.099
2024-10-15 13:50:30.856,74182.309,-0.251,0.255,-0.934,-0.013,0.02,0.078,-0.281,0.012,0.217,-0.263,-0.258,1.1
2024-10-15 13:50:30.866,74182.319,-0.251,0.257,-0.933,0.004,0.055,0.102,-0.091,-0.072,0.13,-0.263,-0.26,1.102
2024-10-15 13:50:30.876,74182.329,-0.251,0.257,-0.933,0.027,0.095,0.111,0.263,0.001,-0.023,-0.263,-0.26,1.102
2024-10-15 13:50:30.886,74182.339,-0.251,0.252,-0.935,0.03,0.153,0.088,0.594,0.158,-0.187,-0.262,-0.255,1.103
2024-10-15 13:50:30.896,74182.349,-0.25,0.246,-0.936,-0.019,0.187,0.019,0.504,0.128,-0.137,-0.261,-0.249,1.102
2024-10-15 13:50:30.906,74182.359,-0.25,0.243,-0.937,-0.061,0.088,-0.078,0.224,0.0,0.006,-0.26,-0.245,1.103
2024-10-15 13:50:30.916,74182.369,-0.249,0.243,-0.938,-0.04,-0.115,-0.099,-0.192,0.081,0.094,-0.26,-0.245,1.103
2024-10-15 13:50:30.926,74182.379,-0.249,0.248,-0.936,-0.035,-0.162,-0.107,-0.778,-0.119,0.336,-0.26,-0.25,1.104
2024-10-15 13:50:30.936,74182.389,-0.249,0.258,-0.933,-0.09,-0.162,-0.08,-1.104,-0.212,0.495,-0.261,-0.261,1.106
2024-10-15 13:50:30.946,74182.399,-0.251,0.269,-0.93,-0.074,-0.206,0.037,-0.946,-0.334,0.45,-0.263,-0.272,1.108
2024-10-15 13:50:30.956,74182.409,-0.253,0.276,-0.927,-0.088,-0.042,0.063,-0.362,-0.29,0.191,-0.266,-0.28,1.109
2024-10-15 13:50:30.966,74182.419,-0.254,0.276,-0.927,-0.1,0.131,0.086,0.395,0.039,-0.097,-0.267,-0.28,1.11
2024-10-15 13:50:30.976,74182.429,-0.253,0.27,-0.929,-0.12,0.278,-0.003,0.637,0.123,-0.144,-0.266,-0.274,1.11
2024-10-15 13:50:30.986,74182.439,-0.253,0.265,-0.931,-0.155,0.185,-0.117,0.543,-0.042,-0.14,-0.266,-0.268,1.11
2024-10-15 13:50:30.996,74182.449,-0.254,0.259,-0.932,-0.083,-0.091,-0.132,0.461,-0.08,-0.224,-0.267,-0.262,1.11
2024-10-15 13:50:31.005,74182.459,-0.255,0.255,-0.933,0.018,-0.196,-0.126,0.455,0.016,-0.262,-0.267,-0.257,1.109
2024-10-15 13:50:31.016,74182.469,-0.256,0.25,-0.934,0.037,-0.161,-0.122,0.493,0.033,-0.272,-0.267,-0.252,1.107
2024-10-15 13:50:31.026,74182.479,-0.256,0.244,-0.936,0.041,-0.153,-0.122,0.586,0.192,-0.358,-0.267,-0.246,1.105
2024-10-15 13:50:31.036,74182.489,-0.254,0.237,-0.938,0.106,-0.086,-0.079,0.627,0.265,-0.393,-0.265,-0.239,1.103
2024-10-15 13:50:31.046,74182.499,-0.253,0.231,-0.94,0.155,0.001,-0.04,0.526,0.278,-0.357,-0.263,-0.233,1.101
