Date,TimeStamp,GravityX,GravityY,GravityZ,UserAccelerationX,UserAccelerationY,UserAccelerationZ,RotationRateX,RotationRateY,RotationRateZ,AttitudeRoll,AttitudePitch,AttitudeYaw
2024-10-15 13:54:22.847,74414.301,-0.007,0.359,-0.933,0.077,0.015,0.051,0.223,-0.548,0.088,-0.007,-0.367,0.894
2024-10-15 13:54:22.858,74414.311,-0.012,0.356,-0.934,0.044,0.008,0.038,0.357,-0.535,-0.011,-0.013,-0.364,0.895
2024-10-15 13:54:22.867,74414.321,-0.017,0.352,-0.936,0.017,0.018,0.018,0.518,-0.411,-0.128,-0.018,-0.36,0.894
2024-10-15 13:54:22.877,74414.331,-0.018,0.349,-0.937,-0.014,0.021,-0.007,0.191,0.027,-0.034,-0.02,-0.356,0.893
2024-10-15 13:54:22.887,74414.341,-0.019,0.347,-0.938,-0.083,-0.056,-0.003,0.237,-0.092,-0.16,-0.02,-0.355,0.892
2024-10-15 13:54:22.898,74414.351,-0.02,0.344,-0.939,-0.192,-0.15,-0.3,0.457,0.146,-0.259,-0.021,-0.351,0.89
2024-10-15 13:54:22.908,74414.361,-0.018,0.34,-0.94,-0.171,-0.023,-0.488,0.396,0.287,-0.21,-0.019,-0.346,0.888
2024-10-15 13:54:22.916,74414.371,-0.017,0.336,-0.942,-0.186,0.077,-0.182,0.409,0.07,-0.25,-0.018,-0.343,0.885
2024-10-15 13:54:22.926,74414.381,-0.017,0.331,-0.943,-0.133,-0.063,0.01,0.575,0.166,-0.423,-0.018,-0.338,0.882
2024-10-15 13:54:22.937,74414.391,-0.016,0.326,-0.945,0.024,0.014,0.042,0.41,0.295,-0.328,-0.017,-0.332,0.878
2024-10-15 13:54:22.947,74414.401,-0.015,0.325,-0.946,-0.071,0.053,0.059,-0.091,0.069,-0.058,-0.016,-0.331,0.876
2024-10-15 13:54:22.957,74414.411,-0.015,0.328,-0.945,-0.143,-0.143,0.095,-0.492,-0.173,0.038,-0.016,-0.334,0.876
2024-10-15 13:54:22.968,74414.421,-0.017,0.333,-0.943,0.031,-0.156,0.133,-0.529,-0.16,0.066,-0.018,-0.339,0.876
2024-10-15 13:54:22.977,74414.43,-0.018,0.337,-0.941,0.127,0.03,0.133,-0.354,-0.102,0.175,-0.019,-0.344,0.877
2024-10-15 13:54:22.987,74414.44,-0.018,0.34,-0.94,0.087,0.114,0.074,-0.253,-0.031,0.231,-0.019,-0.347,0.88
2024-10-15 13:54:22.997,74414.45,-0.017,0.342,-0.94,0.097,0.133,-0.014,-0.21,-0.023,0.224,-0.018,-0.349,0.882
2024-10-15 13:54:23.008,74414.46,-0.016,0.344,-0.939,0.132,0.159,-0.087,-0.227,0.036,0.239,-0.018,-0.351,0.884
2024-10-15 13:54:23.017,74414.47,-0.015,0.346,-0.938,0.134,0.126,-0.118,-0.281,0.006,0.266,-0.016,-0.354,0.887
2024-10-15 13:54:23.028,74414.48,-0.014,0.35,-0.937,0.12,0.049,-0.098,-0.357,-0.017,0.288,-0.015,-0.357,0.89
2024-10-15 13:54:23.037,74414.49,-0.014,0.353,-0.936,0.131,0.004,-0.028,-0.36,-0.045,0.301,-0.015,-0.361,0.893
2024-10-15 13:54:23.047,74414.5,-0.013,0.356,-0.934,0.145,-0.022,0.053,-0.277,-0.131,0.308,-0.014,-0.364,0.896
2024-10-15 13:54:23.057,74414.51,-0.014,0.358,-0.934,0.145,-0.044,0.09,-0.053,-0.234,0.283,-0.015,-0.366,0.899
2024-10-15 13:54:23.067,74414.52,-0.015,0.357,-0.934,0.151,-0.023,0.13,0.323,-0.166,0.165,-0.016,-0.365,0.902
2024-10-15 13:54:23.077,74414.53,-0.016,0.352,-0.936,0.162,0.069,0.172,0.67,-0.034,0.019,-0.017,-0.359,0.903
2024-10-15 13:54:23.087,74414.54,-0.016,0.345,-0.939,0.108,0.114,0.118,0.789,-0.041,-0.041,-0.017,-0.352,0.903
2024-10-15 13:54:23.097,74414.55,-0.017,0.338,-0.941,0.016,0.011,0.006,0.7,-0.07,-0.065,-0.018,-0.345,0.902
2024-10-15 13:54:23.107,74414.56,-0.018,0.332,-0.943,-0.016,-0.108,-0.076,0.609,-0.013,-0.144,-0.019,-0.338,0.901
2024-10-15 13:54:23.117,74414.57,-0.018,0.326,-0.945,-0.033,-0.134,-0.109,0.608,0.088,-0.205,-0.019,-0.332,0.9
2024-10-15 13:54:23.127,74414.58,-0.017,0.32,-0.947,-0.092,-0.094,-0.107,0.637,0.166,-0.254,-0.018,-0.326,0.897
2024-10-15 13:54:23.138,74414.59,-0.017,0.314,-0.949,-0.136,-0.083,-0.084,0.599,0.196,-0.347,-0.017,-0.319,0.894
2024-10-15 13:54:23.147,74414.6,-0.016,0.308,-0.951,-0.114,-0.076,-0.044,0.542,0.154,-0.429,-0.017,-0.314,0.89
2024-10-15 13:54:23.158,74414.61,-0.016,0.303,-0.953,-0.095,-0.083,-0.006,0.556,0.121,-0.492,-0.017,-0.308,0.886
2024-10-15 13:54:23.167,74414.62,-0.017,0.298,-0.954,-0.101,-0.074,0.015,0.571,0.16,-0.524,-0.017,-0.302,0.88
2024-10-15 13:54:23.177,74414.63,-0.017,0.293,-0.956,-0.118,-0.001,0.03,0.477,0.14,-0.475,-0.017,-0.297,0.875
2024-10-15 13:54:23.187,74414.64,-0.017,0.289,-0.957,-0.153,0.04,0.042,0.315,0.063,-0.359,-0.018,-0.293,0.871
2024-10-15 13:54:23.197,74414.65,-0.017,0.287,-0.958,-0.161,0.043,0.025,0.122,0.048,-0.212,-0.018,-0.291,0.868
2024-10-15 13:54:23.207,74414.66,-0.017,0.286,-0.958,-0.151,0.075,0.005,0.028,0.061,-0.049,-0.018,-0.29,0.867
2024-10-15 13:54:23.217,74414.67,-0.016,0.285,-0.958,-0.15,0.154,0.018,0.105,0.122,0.051,-0.017,-0.289,0.867
2024-10-15 13:54:23.227,74414.68,-0.014,0.284,-0.959,-0.128,0.237,0.016,0.145,0.173,0.11,-0.015,-0.288,0.868
2024-10-15 13:54:23.237,74414.69,-0.013,0.283,-0.959,-0.085,0.26,0.007,0.086,0.121,0.197,-0.013,-0.287,0.869
2024-10-15 13:54:23.247,74414.7,-0.011,0.283,-0.959,-0.054,0.158,-0.004,-0.023,0.085,0.248,-0.011,-0.287,0.871
2024-10-15 13:54:23.257,74414.71,-0.01,0.284,-0.959,-0.009,0.056,-0.004,-0.145,0.043,0.246,-0.01,-0.288,0.874
2024-10-15 13:54:23.266,74414.72,-0.009,0.285,-0.958,0.021,0.015,0.002,-0.23,0.038,0.254,-0.009,-0.29,0.877
2024-10-15 13:54:23.276,74414.73,-0.007,0.288,-0.957,0.028,-0.032,0.013,-0.394,0.039,0.295,-0.008,-0.293,0.879
2024-10-15 13:54:23.287,74414.74,-0.006,0.293,-0.956,0.054,-0.095,0.016,-0.6,-0.008,0.316,-0.007,-0.298,0.883
2024-10-15 13:54:23.297,74414.75,-0.006,0.3,-0.954,0.088,-0.125,0.032,-0.761,-0.093,0.336,-0.006,-0.304,0.886
2024-10-15 13:54:23.307,74414.76,-0.006,0.307,-0.952,0.126,-0.14,0.05,-0.713,-0.183,0.31,-0.007,-0.312,0.889
2024-10-15 13:54:23.317,74414.77,-0.007,0.313,-0.95,0.154,-0.099,0.058,-0.428,-0.182,0.258,-0.008,-0.318,0.892
2024-10-15 13:54:23.327,74414.78,-0.008,0.315,-0.949,0.156,-0.004,0.065,-0.072,-0.101,0.22,-0.008,-0.32,0.895
2024-10-15 13:54:23.337,74414.79,-0.008,0.314,-0.949,0.125,0.078,0.046,0.218,0.048,0.115,-0.008,-0.319,0.897
2024-10-15 13:54:23.347,74414.8,-0.007,0.312,-0.95,0.081,0.093,0.008,0.224,0.101,0.054,-0.007,-0.317,0.897
2024-10-15 13:54:23.356,74414.81,-0.006,0.311,-0.951,0.044,-0.009,-0.054,0.019,0.014,0.036,-0.006,-0.316,0.898
2024-10-15 13:54:23.366,74414.82,-0.006,0.311,-0.95,0.036,-0.169,-0.06,-0.135,-0.064,-0.015,-0.006,-0.317,0.898
2024-10-15 13:54:23.376,74414.83,-0.007,0.313,-0.95,0.056,-0.225,0.008,-0.109,-0.065,-0.064,-0.007,-0.318,0.898
2024-10-15 13:54:23.387,74414.84,-0.008,0.313,-0.95,0.049,-0.171,0.066,0.085,-0.04,-0.149,-0.008,-0.318,0.896
2024-10-15 13:54:23.396,74414.85,-0.009,0.311,-0.95,0.01,-0.097,0.059,0.293,-0.021,-0.238,-0.009,-0.316,0.894
2024-10-15 13:54:23.406,74414.86,-0.009,0.307,-0.952,-0.042,-0.048,-0.012,0.398,0.025,-0.303,-0.01,-0.313,0.892
2024-10-15 13:54:23.417,74414.87,-0.01,0.304,-0.953,-0.097,-0.032,-0.096,0.433,0.067,-0.339,-0.01,-0.308,0.888
2024-10-15 13:54:23.426,74414.88,-0.01,0.299,-0.954,-0.148,-0.013,-0.109,0.48,0.124,-0.361,-0.011,-0.304,0.885
2024-10-15 13:54:23.436,74414.89,-0.01,0.294,-0.956,-0.179,0.007,-0.095,0.547,0.189,-0.411,-0.01,-0.299,0.881
2024-10-15 13:54:23.446,74414.9,-0.009,0.289,-0.957,-0.156,0.056,-0.079,0.561,0.211,-0.435,-0.009,-0.293,0.876
2024-10-15 13:54:23.456,74414.91,-0.008,0.284,-0.959,-0.142,0.048,-0.054,0.526,0.194,-0.45,-0.009,-0.287,0.872
2024-10-15 13:54:23.466,74414.92,-0.008,0.279,-0.96,-0.126,0.024,-0.024,0.449,0.181,-0.448,-0.008,-0.283,0.867
2024-10-15 13:54:23.476,74414.93,-0.007,0.275,-0.961,-0.105,0.003,0.013,0.362,0.155,-0.423,-0.008,-0.278,0.863
2024-10-15 13:54:23.486,74414.94,-0.007,0.272,-0.962,-0.1,-0.005,0.032,0.27,0.134,-0.388,-0.007,-0.275,0.858
2024-10-15 13:54:23.496,74414.95,-0.007,0.27,-0.963,-0.102,0.029,0.033,0.098,0.148,-0.274,-0.007,-0.273,0.855
2024-10-15 13:54:23.506,74414.96,-0.006,0.27,-0.963,-0.099,0.056,0.032,-0.077,0.068,-0.079,-0.006,-0.273,0.853
2024-10-15 13:54:23.516,74414.97,-0.006,0.271,-0.962,-0.081,0.027,0.043,-0.206,0.017,0.06,-0.006,-0.275,0.853
2024-10-15 13:54:23.526,74414.98,-0.006,0.274,-0.962,-0.01,0.073,0.073,-0.259,-0.047,0.168,-0.006,-0.277,0.854
2024-10-15 13:54:23.538,74414.99,-0.006,0.276,-0.961,0.057,0.161,0.083,-0.256,-0.068,0.279,-0.006,-0.28,0.857
2024-10-15 13:54:23.547,74415.0,-0.005,0.278,-0.96,0.088,0.154,0.045,-0.202,-0.046,0.338,-0.006,-0.282,0.86
2024-10-15 13:54:23.556,74415.01,-0.005,0.28,-0.96,0.11,0.15,0.003,-0.238,0.009,0.369,-0.005,-0.284,0.863
2024-10-15 13:54:23.566,74415.02,-0.004,0.283,-0.959,0.111,0.157,-0.029,-0.401,-0.033,0.4,-0.004,-0.287,0.867
2024-10-15 13:54:23.576,74415.029,-0.003,0.288,-0.958,0.11,0.091,-0.04,-0.608,-0.103,0.459,-0.003,-0.292,0.872
2024-10-15 13:54:23.586,74415.039,-0.003,0.295,-0.956,0.118,-0.025,-0.009,-0.765,-0.169,0.495,-0.003,-0.299,0.877
2024-10-15 13:54:23.596,74415.049,-0.003,0.302,-0.953,0.129,-0.065,0.052,-0.764,-0.232,0.522,-0.004,-0.307,0.882
2024-10-15 13:54:23.606,74415.059,-0.004,0.309,-0.951,0.132,-0.06,0.114,-0.558,-0.202,0.484,-0.004,-0.314,0.888
2024-10-15 13:54:23.616,74415.069,-0.004,0.313,-0.95,0.141,-0.026,0.144,-0.339,-0.115,0.412,-0.004,-0.318,0.892
2024-10-15 13:54:23.626,74415.079,-0.004,0.315,-0.949,0.119,-0.015,0.115,-0.116,-0.145,0.308,-0.004,-0.321,0.896
2024-10-15 13:54:23.636,74415.089,-0.005,0.315,-0.949,0.075,-0.07,0.045,0.081,-0.133,0.152,-0.005,-0.321,0.898
2024-10-15 13:54:23.646,74415.099,-0.006,0.314,-0.949,0.061,-0.112,-0.016,0.173,-0.07,0.019,-0.006,-0.319,0.899
2024-10-15 13:54:23.657,74415.109,-0.006,0.312,-0.95,0.016,-0.122,-0.064,0.18,-0.04,-0.057,-0.006,-0.318,0.899
2024-10-15 13:54:23.667,74415.119,-0.007,0.31,-0.951,-0.056,-0.152,-0.086,0.285,-0.063,-0.135,-0.007,-0.316,0.898
2024-10-15 13:54:23.676,74415.129,-0.008,0.306,-0.952,-0.076,-0.145,-0.073,0.545,-0.003,-0.26,-0.008,-0.311,0.896
2024-10-15 13:54:23.686,74415.139,-0.008,0.301,-0.954,-0.065,-0.071,-0.083,0.662,0.139,-0.342,-0.008,-0.305,0.893
2024-10-15 13:54:23.696,74415.149,-0.008,0.295,-0.956,-0.095,0.001,-0.113,0.568,0.144,-0.329,-0.008,-0.299,0.889
2024-10-15 13:54:23.706,74415.159,-0.007,0.29,-0.957,-0.164,-0.031,-0.1,0.504,0.108,-0.347,-0.008,-0.294,0.886
2024-10-15 13:54:23.716,74415.169,-0.007,0.285,-0.959,-0.163,-0.071,-0.048,0.48,0.175,-0.427,-0.008,-0.289,0.882
2024-10-15 13:54:23.726,74415.179,-0.007,0.281,-0.96,-0.126,-0.005,-0.021,0.363,0.184,-0.401,-0.007,-0.284,0.878
2024-10-15 13:54:23.736,74415.189,-0.006,0.278,-0.961,-0.159,0.006,-0.006,0.224,0.082,-0.381,-0.007,-0.282,0.874
2024-10-15 13:54:23.746,74415.199,-0.007,0.276,-0.961,-0.155,-0.038,0.031,0.153,0.055,-0.391,-0.007,-0.28,0.87
2024-10-15 13:54:23.756,74415.209,-0.007,0.275,-0.962,-0.105,-0.009,0.067,0.141,0.065,-0.361,-0.008,-0.278,0.866
2024-10-15 13:54:23.766,74415.219,-0.008,0.273,-0.962,-0.104,0.064,0.08,0.148,0.031,-0.274,-0.008,-0.277,0.862
2024-10-15 13:54:23.776,74415.229,-0.008,0.272,-0.962,-0.113,0.113,0.085,0.158,0.018,-0.214,-0.008,-0.275,0.86
2024-10-15 13:54:23.786,74415.239,-0.008,0.27,-0.963,-0.083,0.139,0.064,0.143,0.065,-0.114,-0.008,-0.274,0.858
2024-10-15 13:54:23.796,74415.249,-0.008,0.269,-0.963,-0.058,0.142,0.034,0.007,0.061,0.031,-0.008,-0.273,0.858
2024-10-15 13:54:23.806,74415.259,-0.007,0.27,-0.963,-0.056,0.102,0.013,-0.183,0.009,0.14,-0.007,-0.274,0.859
2024-10-15 13:54:23.816,74415.269,-0.007,0.273,-0.962,-0.008,0.095,0.005,-0.268,-0.033,0.187,-0.007,-0.276,0.86
2024-10-15 13:54:23.826,74415.279,-0.006,0.275,-0.961,0.067,0.108,-0.009,-0.32,-0.008,0.279,-0.007,-0.279,0.863
2024-10-15 13:54:23.836,74415.289,-0.006,0.279,-0.96,0.099,0.086,-0.03,-0.452,-0.042,0.345,-0.006,-0.283,0.866
2024-10-15 13:54:23.846,74415.299,-0.005,0.284,-0.959,0.095,0.048,-0.019,-0.588,-0.135,0.392,-0.006,-0.288,0.87
2024-10-15 13:54:23.856,74415.309,-0.006,0.29,-0.957,0.114,0.058,0.029,-0.562,-0.205,0.41,-0.006,-0.294,0.874
2024-10-15 13:54:23.866,74415.319,-0.007,0.294,-0.956,0.136,0.08,0.094,-0.406,-0.17,0.406,-0.007,-0.299,0.878
2024-10-15 13:54:23.876,74415.329,-0.007,0.298,-0.955,0.143,0.077,0.128,-0.342,-0.14,0.427,-0.007,-0.302,0.883
2024-10-15 13:54:23.886,74415.339,-0.007,0.301,-0.954,0.12,0.039,0.126,-0.372,-0.179,0.434,-0.007,-0.306,0.887
2024-10-15 13:54:23.896,74415.349,-0.008,0.304,-0.952,0.106,-0.027,0.127,-0.313,-0.209,0.371,-0.008,-0.309,0.891
2024-10-15 13:54:23.906,74415.359,-0.008,0.307,-0.952,0.118,-0.085,0.097,-0.174,-0.119,0.26,-0.009,-0.312,0.895
2024-10-15 13:54:23.916,74415.369,-0.008,0.308,-0.951,0.085,-0.113,0.017,-0.072,0.012,0.137,-0.009,-0.313,0.897
2024-10-15 13:54:23.926,74415.379,-0.008,0.309,-0.951,0.002,-0.116,-0.08,-0.054,0.047,0.041,-0.008,-0.314,0.898
2024-10-15 13:54:23.936,74415.389,-0.007,0.309,-0.951,-0.057,-0.181,-0.129,-0.053,0.05,-0.053,-0.007,-0.314,0.898
2024-10-15 13:54:23.946,74415.399,-0.007,0.309,-0.951,-0.049,-0.221,-0.1,0.011,0.064,-0.154,-0.007,-0.315,0.896
2024-10-15 13:54:23.956,74415.409,-0.007,0.308,-0.951,-0.037,-0.176,-0.038,0.188,0.074,-0.231,-0.007,-0.314,0.894
2024-10-15 13:54:23.966,74415.419,-0.007,0.306,-0.952,-0.044,-0.109,0.004,0.375,0.099,-0.298,-0.007,-0.311,0.892
2024-10-15 13:54:23.975,74415.429,-0.007,0.302,-0.953,-0.059,-0.054,0.011,0.478,0.119,-0.342,-0.007,-0.306,0.888
2024-10-15 13:54:23.986,74415.439,-0.007,0.297,-0.955,-0.081,-0.017,-0.016,0.45,0.108,-0.374,-0.007,-0.302,0.885
2024-10-15 13:54:23.995,74415.449,-0.007,0.293,-0.956,-0.111,-0.024,-0.02,0.377,0.117,-0.411,-0.007,-0.297,0.88
2024-10-15 13:54:24.005,74415.459,-0.007,0.29,-0.957,-0.127,-0.034,-0.024,0.299,0.117,-0.429,-0.007,-0.294,0.876
2024-10-15 13:54:24.016,74415.469,-0.007,0.287,-0.958,-0.128,-0.024,-0.042,0.27,0.116,-0.437,-0.007,-0.291,0.872
2024-10-15 13:54:24.026,74415.479,-0.007,0.285,-0.959,-0.128,0.001,-0.029,0.261,0.154,-0.434,-0.007,-0.289,0.867
2024-10-15 13:54:24.036,74415.489,-0.007,0.282,-0.959,-0.116,0.046,-0.02,0.195,0.157,-0.369,-0.007,-0.286,0.863
2024-10-15 13:54:24.046,74415.499,-0.006,0.281,-0.96,-0.107,0.071,-0.011,0.082,0.145,-0.285,-0.006,-0.285,0.859
2024-10-15 13:54:24.056,74415.509,-0.006,0.281,-0.96,-0.077,0.081,0.003,-0.036,0.101,-0.18,-0.006,-0.284,0.857
2024-10-15 13:54:24.066,74415.519,-0.005,0.281,-0.96,-0.044,0.096,0.011,-0.055,0.095,-0.07,-0.005,-0.285,0.856
2024-10-15 13:54:24.075,74415.529,-0.004,0.282,-0.959,-0.029,0.11,0.006,-0.091,0.099,0.013,-0.004,-0.286,0.855
2024-10-15 13:54:24.086,74415.539,-0.003,0.283,-0.959,-0.003,0.139,-0.006,-0.2,0.055,0.112,-0.003,-0.287,0.856
2024-10-15 13:54:24.096,74415.549,-0.003,0.285,-0.958,0.007,0.098,-0.021,-0.268,-0.0,0.153,-0.003,-0.289,0.858
2024-10-15 13:54:24.106,74415.559,-0.002,0.288,-0.958,0.026,0.052,-0.031,-0.33,0.024,0.201,-0.002,-0.292,0.859
2024-10-15 13:54:24.116,74415.569,-0.001,0.292,-0.956,0.039,0.039,-0.018,-0.432,-0.034,0.251,-0.001,-0.296,0.862
2024-10-15 13:54:24.125,74415.579,-0.001,0.296,-0.955,0.04,0.008,0.025,-0.468,-0.096,0.262,-0.001,-0.301,0.864
2024-10-15 13:54:24.135,74415.589,-0.002,0.301,-0.954,0.082,-0.002,0.075,-0.46,-0.117,0.26,-0.002,-0.305,0.867
2024-10-15 13:54:24.145,74415.599,-0.002,0.305,-0.952,0.127,-0.029,0.101,-0.492,-0.061,0.25,-0.002,-0.31,0.87
2024-10-15 13:54:24.155,74415.609,-0.001,0.31,-0.951,0.144,-0.08,0.078,-0.632,-0.017,0.242,-0.001,-0.316,0.872
2024-10-15 13:54:24.166,74415.619,-0.001,0.318,-0.948,0.126,-0.144,0.046,-0.974,-0.045,0.27,-0.001,-0.323,0.875
2024-10-15 13:54:24.175,74415.628,-0.001,0.329,-0.944,0.12,-0.223,0.036,-1.501,-0.188,0.403,-0.001,-0.336,0.878
2024-10-15 13:54:24.186,74415.638,-0.002,0.345,-0.939,0.133,-0.316,0.055,-1.646,-0.376,0.46,-0.002,-0.352,0.883
2024-10-15 13:54:24.195,74415.648,-0.005,0.358,-0.934,0.155,-0.289,0.088,-1.147,-0.516,0.407,-0.005,-0.366,0.888
2024-10-15 13:54:24.205,74415.658,-0.008,0.364,-0.931,0.153,-0.088,0.062,-0.104,-0.336,0.109,-0.008,-0.373,0.891
2024-10-15 13:54:24.215,74415.668,-0.008,0.361,-0.933,0.093,0.301,-0.002,0.725,0.216,-0.114,-0.009,-0.369,0.89
2024-10-15 13:54:24.225,74415.678,-0.006,0.354,-0.935,-0.047,0.496,-0.12,0.712,0.2,-0.031,-0.007,-0.361,0.89
2024-10-15 13:54:24.235,74415.688,-0.006,0.348,-0.937,-0.236,0.172,-0.222,0.535,-0.048,-0.041,-0.006,-0.355,0.889
2024-10-15 13:54:24.245,74415.698,-0.007,0.342,-0.94,-0.169,-0.126,-0.145,0.667,0.013,-0.288,-0.007,-0.35,0.888
2024-10-15 13:54:24.255,74415.708,-0.007,0.336,-0.942,0.042,-0.08,-0.027,0.731,0.165,-0.346,-0.008,-0.342,0.884
2024-10-15 13:54:24.265,74415.718,-0.007,0.33,-0.944,-0.012,-0.035,-0.018,0.55,0.136,-0.336,-0.007,-0.336,0.881
2024-10-15 13:54:24.275,74415.728,-0.007,0.325,-0.946,-0.146,-0.157,-0.021,0.361,0.053,-0.436,-0.007,-0.331,0.877
2024-10-15 13:54:24.285,74415.738,-0.008,0.322,-0.947,-0.101,-0.225,0.004,0.322,0.064,-0.51,-0.008,-0.328,0.872
2024-10-15 13:54:24.295,74415.748,-0.009,0.319,-0.948,-0.071,-0.174,0.014,0.393,0.14,-0.524,-0.009,-0.325,0.866
2024-10-15 13:54:24.306,74415.758,-0.009,0.315,-0.949,-0.129,-0.064,0.008,0.476,0.19,-0.526,-0.009,-0.32,0.861
2024-10-15 13:54:24.315,74415.768,-0.009,0.31,-0.951,-0.16,0.024,0.009,0.448,0.161,-0.514,-0.009,-0.315,0.855
2024-10-15 13:54:24.325,74415.778,-0.009,0.306,-0.952,-0.139,0.068,0.01,0.49,0.121,-0.492,-0.009,-0.311,0.85
2024-10-15 13:54:24.335,74415.788,-0.009,0.301,-0.954,-0.108,0.107,0.027,0.512,0.226,-0.449,-0.009,-0.306,0.845
2024-10-15 13:54:24.345,74415.798,-0.008,0.297,-0.955,-0.091,0.186,0.028,0.237,0.185,-0.278,-0.008,-0.302,0.841
2024-10-15 13:54:24.355,74415.808,-0.008,0.296,-0.955,-0.104,0.195,0.025,0.06,-0.029,-0.092,-0.008,-0.3,0.84
2024-10-15 13:54:24.365,74415.818,-0.008,0.296,-0.955,-0.056,0.125,0.047,0.053,-0.029,0.022,-0.008,-0.3,0.839
2024-10-15 13:54:24.375,74415.828,-0.008,0.295,-0.956,0.044,0.169,0.048,0.109,0.013,0.17,-0.008,-0.299,0.84
2024-10-15 13:54:24.385,74415.838,-0.007,0.294,-0.956,0.023,0.243,0.047,0.094,0.036,0.247,-0.007,-0.298,0.842
2024-10-15 13:54:24.395,74415.848,-0.006,0.293,-0.956,0.003,0.247,0.043,-0.029,-0.007,0.331,-0.006,-0.298,0.845
2024-10-15 13:54:24.405,74415.858,-0.005,0.295,-0.956,0.03,0.124,0.014,-0.258,-0.044,0.39,-0.005,-0.299,0.849
2024-10-15 13:54:24.415,74415.868,-0.005,0.298,-0.954,0.053,-0.011,0.001,-0.536,-0.106,0.423,-0.005,-0.303,0.853
2024-10-15 13:54:24.425,74415.878,-0.004,0.305,-0.952,0.082,-0.043,0.01,-0.8,-0.126,0.461,-0.005,-0.31,0.858
2024-10-15 13:54:24.435,74415.888,-0.005,0.313,-0.95,0.095,-0.067,0.051,-0.865,-0.202,0.478,-0.005,-0.318,0.863
2024-10-15 13:54:24.445,74415.898,-0.005,0.32,-0.947,0.104,-0.065,0.069,-0.626,-0.194,0.43,-0.005,-0.326,0.868
2024-10-15 13:54:24.455,74415.908,-0.005,0.324,-0.946,0.114,-0.009,0.085,-0.304,-0.13,0.338,-0.006,-0.33,0.872
2024-10-15 13:54:24.465,74415.918,-0.005,0.326,-0.945,0.105,0.023,0.053,-0.078,-0.028,0.259,-0.005,-0.332,0.875
2024-10-15 13:54:24.475,74415.928,-0.004,0.326,-0.945,0.093,-0.016,0.026,0.002,0.022,0.176,-0.005,-0.332,0.877
2024-10-15 13:54:24.485,74415.938,-0.004,0.327,-0.945,0.072,-0.104,-0.02,-0.079,0.031,0.115,-0.004,-0.333,0.879
2024-10-15 13:54:24.495,74415.948,-0.003,0.328,-0.945,0.048,-0.2,-0.074,-0.287,0.047,0.061,-0.003,-0.335,0.88
2024-10-15 13:54:24.505,74415.958,-0.002,0.332,-0.943,0.031,-0.26,-0.071,-0.505,0.018,0.032,-0.003,-0.339,0.88
2024-10-15 13:54:24.514,74415.968,-0.003,0.337,-0.941,0.01,-0.309,-0.04,-0.523,-0.089,-0.01,-0.003,-0.344,0.88
2024-10-15 13:54:24.524,74415.978,-0.004,0.341,-0.94,0.014,-0.28,0.011,-0.197,-0.075,-0.135,-0.004,-0.348,0.879
2024-10-15 13:54:24.535,74415.988,-0.004,0.341,-0.94,0.036,-0.114,0.045,0.152,0.106,-0.236,-0.005,-0.348,0.877
2024-10-15 13:54:24.545,74415.998,-0.004,0.338,-0.941,0.005,0.076,0.046,0.378,0.141,-0.24,-0.004,-0.345,0.875
2024-10-15 13:54:24.554,74416.008,-0.004,0.334,-0.942,-0.085,0.101,0.021,0.448,0.084,-0.283,-0.004,-0.341,0.872
2024-10-15 13:54:24.565,74416.018,-0.004,0.33,-0.944,-0.093,0.036,-0.04,0.382,0.061,-0.322,-0.004,-0.337,0.869
2024-10-15 13:54:24.575,74416.028,-0.005,0.327,-0.945,-0.076,0.018,-0.071,0.354,0.075,-0.325,-0.005,-0.333,0.866
2024-10-15 13:54:24.584,74416.038,-0.005,0.323,-0.946,-0.131,0.004,-0.05,0.349,0.108,-0.332,-0.005,-0.329,0.862
2024-10-15 13:54:24.595,74416.048,-0.005,0.32,-0.947,-0.173,0.014,-0.043,0.298,0.105,-0.325,-0.005,-0.326,0.859
2024-10-15 13:54:24.605,74416.058,-0.005,0.318,-0.948,-0.169,0.047,-0.019,0.205,0.048,-0.287,-0.006,-0.323,0.855
2024-10-15 13:54:24.615,74416.068,-0.006,0.316,-0.949,-0.146,0.051,0.029,0.114,-0.007,-0.221,-0.006,-0.322,0.853
2024-10-15 13:54:24.625,74416.078,-0.007,0.315,-0.949,-0.117,0.081,0.058,0.089,-0.069,-0.128,-0.007,-0.321,0.851
2024-10-15 13:54:24.635,74416.088,-0.008,0.314,-0.949,-0.104,0.139,0.087,0.101,-0.064,-0.051,-0.008,-0.32,0.85
2024-10-15 13:54:24.645,74416.098,-0.008,0.313,-0.95,-0.08,0.205,0.065,0.131,-0.012,0.047,-0.009,-0.319,0.85
2024-10-15 13:54:24.655,74416.108,-0.008,0.312,-0.95,-0.062,0.263,0.003,0.138,0.05,0.16,-0.008,-0.317,0.851
2024-10-15 13:54:24.665,74416.118,-0.006,0.311,-0.951,-0.056,0.243,-0.069,0.154,0.116,0.219,-0.007,-0.316,0.853
2024-10-15 13:54:24.675,74416.128,-0.004,0.309,-0.951,-0.028,0.173,-0.115,0.078,0.12,0.258,-0.005,-0.315,0.855
2024-10-15 13:54:24.685,74416.138,-0.003,0.31,-0.951,0.003,0.087,-0.114,-0.153,0.07,0.298,-0.003,-0.315,0.858
2024-10-15 13:54:24.695,74416.148,-0.002,0.312,-0.95,0.035,-0.017,-0.06,-0.391,-0.073,0.319,-0.002,-0.318,0.862
2024-10-15 13:54:24.704,74416.158,-0.001,0.317,-0.948,0.088,-0.116,0.03,-0.544,-0.111,0.339,-0.002,-0.323,0.865
2024-10-15 13:54:24.714,74416.168,-0.002,0.322,-0.947,0.132,-0.135,0.124,-0.544,-0.134,0.328,-0.002,-0.328,0.869
2024-10-15 13:54:24.724,74416.178,-0.002,0.327,-0.945,0.139,-0.125,0.152,-0.374,-0.109,0.299,-0.002,-0.333,0.872
2024-10-15 13:54:24.735,74416.188,-0.002,0.329,-0.944,0.13,-0.153,0.114,-0.134,-0.048,0.211,-0.002,-0.336,0.875
2024-10-15 13:54:24.745,74416.198,-0.001,0.33,-0.944,0.135,-0.139,0.071,0.044,0.01,0.077,-0.001,-0.336,0.876
2024-10-15 13:54:24.755,74416.208,-0.001,0.329,-0.944,0.115,-0.124,0.002,0.075,0.027,-0.06,-0.001,-0.335,0.876
2024-10-15 13:54:24.765,74416.217,-0.001,0.329,-0.944,0.084,-0.137,-0.052,-0.022,-0.047,-0.15,-0.002,-0.335,0.875
2024-10-15 13:54:24.775,74416.227,-0.003,0.329,-0.944,0.052,-0.177,-0.069,-0.08,-0.075,-0.191,-0.003,-0.335,0.873
2024-10-15 13:54:24.785,74416.237,-0.004,0.33,-0.944,0.038,-0.17,-0.047,-0.039,-0.045,-0.209,-0.004,-0.336,0.871
2024-10-15 13:54:24.794,74416.247,-0.005,0.33,-0.944,-0.005,-0.079,-0.016,0.12,0.03,-0.175,-0.005,-0.336,0.869
2024-10-15 13:54:24.804,74416.257,-0.005,0.327,-0.945,-0.048,0.039,0.035,0.416,0.079,-0.189,-0.005,-0.333,0.867
2024-10-15 13:54:24.814,74416.267,-0.004,0.321,-0.947,-0.026,0.124,0.08,0.797,0.137,-0.293,-0.005,-0.327,0.865
2024-10-15 13:54:24.824,74416.277,-0.004,0.313,-0.95,0.018,0.175,0.042,0.875,0.199,-0.302,-0.004,-0.318,0.862
2024-10-15 13:54:24.834,74416.287,-0.003,0.306,-0.952,-0.017,0.13,-0.008,0.59,0.121,-0.291,-0.003,-0.311,0.859
2024-10-15 13:54:24.844,74416.297,-0.004,0.302,-0.953,-0.079,0.029,0.004,0.25,-0.038,-0.289,-0.004,-0.307,0.856
2024-10-15 13:54:24.854,74416.307,-0.005,0.3,-0.954,-0.086,-0.049,0.036,0.137,-0.062,-0.285,-0.005,-0.305,0.853
2024-10-15 13:54:24.864,74416.317,-0.006,0.299,-0.954,-0.089,-0.025,0.044,0.11,0.038,-0.224,-0.006,-0.304,0.85
2024-10-15 13:54:24.874,74416.327,-0.006,0.298,-0.954,-0.144,0.074,0.022,-0.043,0.064,-0.08,-0.006,-0.303,0.848
2024-10-15 13:54:24.884,74416.337,-0.006,0.3,-0.954,-0.195,0.104,-0.013,-0.25,-0.016,0.063,-0.006,-0.305,0.848
2024-10-15 13:54:24.894,74416.347,-0.005,0.303,-0.953,-0.163,0.049,-0.017,-0.256,0.005,0.107,-0.006,-0.307,0.849
2024-10-15 13:54:24.904,74416.357,-0.005,0.304,-0.953,-0.088,0.078,-0.016,-0.057,0.127,0.063,-0.005,-0.309,0.85
2024-10-15 13:54:24.913,74416.367,-0.003,0.304,-0.953,-0.071,0.122,-0.049,0.018,0.229,0.022,-0.003,-0.309,0.85
2024-10-15 13:54:24.924,74416.377,-0.0,0.305,-0.952,-0.105,0.047,-0.08,-0.198,0.203,0.009,-0.001,-0.31,0.851
2024-10-15 13:54:24.933,74416.387,0.001,0.308,-0.951,-0.116,-0.097,-0.059,-0.588,0.098,-0.024,0.001,-0.314,0.851
2024-10-15 13:54:24.943,74416.397,0.001,0.316,-0.949,-0.076,-0.248,-0.019,-0.926,0.047,-0.05,0.001,-0.321,0.85
2024-10-15 13:54:24.954,74416.407,0.002,0.326,-0.945,-0.041,-0.295,0.045,-1.175,0.084,-0.014,0.002,-0.332,0.85
2024-10-15 13:54:24.963,74416.417,0.003,0.338,-0.941,-0.07,-0.277,0.087,-1.372,0.189,0.046,0.003,-0.344,0.85
2024-10-15 13:54:24.973,74416.427,0.006,0.351,-0.936,-0.1,-0.22,0.093,-1.513,0.257,0.107,0.006,-0.359,0.851
2024-10-15 13:54:24.983,74416.437,0.009,0.366,-0.931,-0.108,-0.156,0.037,-1.56,0.305,0.151,0.009,-0.374,0.852
2024-10-15 13:54:24.993,74416.447,0.012,0.38,-0.925,-0.096,-0.06,-0.029,-1.401,0.3,0.166,0.013,-0.389,0.854
2024-10-15 13:54:25.004,74416.457,0.015,0.391,-0.92,-0.075,0.041,-0.066,-1.008,0.285,0.182,0.017,-0.401,0.856
2024-10-15 13:54:25.013,74416.467,0.019,0.398,-0.917,-0.031,0.131,-0.077,-0.515,0.281,0.189,0.021,-0.409,0.859
2024-10-15 13:54:25.023,74416.477,0.022,0.4,-0.916,0.021,0.218,-0.06,-0.125,0.223,0.2,0.024,-0.412,0.861
2024-10-15 13:54:25.034,74416.487,0.024,0.401,-0.916,0.067,0.25,-0.025,0.024,0.107,0.241,0.027,-0.412,0.863
2024-10-15 13:54:25.044,74416.497,0.026,0.4,-0.916,0.112,0.203,0.015,0.016,-0.041,0.241,0.028,-0.412,0.866
2024-10-15 13:54:25.053,74416.507,0.026,0.4,-0.916,0.144,0.166,0.073,-0.034,-0.175,0.227,0.028,-0.412,0.868
2024-10-15 13:54:25.064,74416.517,0.024,0.401,-0.916,0.154,0.124,0.11,-0.102,-0.281,0.265,0.027,-0.413,0.871
2024-10-15 13:54:25.074,74416.527,0.023,0.402,-0.915,0.155,0.039,0.131,-0.151,-0.388,0.289,0.025,-0.414,0.874
2024-10-15 13:54:25.084,74416.537,0.02,0.403,-0.915,0.152,-0.016,0.148,-0.1,-0.47,0.259,0.022,-0.415,0.877
2024-10-15 13:54:25.094,74416.547,0.016,0.403,-0.915,0.151,-0.008,0.157,0.056,-0.531,0.203,0.018,-0.415,0.88
2024-10-15 13:54:25.104,74416.557,0.012,0.402,-0.916,0.153,0.009,0.139,0.296,-0.563,0.12,0.013,-0.414,0.881
2024-10-15 13:54:25.114,74416.567,0.007,0.398,-0.917,0.133,0.014,0.112,0.59,-0.557,0.021,0.008,-0.409,0.882
2024-10-15 13:54:25.124,74416.577,0.002,0.391,-0.921,0.091,0.044,0.081,0.975,-0.554,-0.114,0.002,-0.401,0.882
2024-10-15 13:54:25.134,74416.587,-0.004,0.38,-0.925,0.024,0.061,0.032,1.177,-0.434,-0.207,-0.004,-0.39,0.88
2024-10-15 13:54:25.143,74416.597,-0.006,0.372,-0.928,-0.033,0.052,-0.032,0.609,0.036,-0.073,-0.006,-0.381,0.878
2024-10-15 13:54:25.153,74416.607,-0.006,0.368,-0.93,-0.099,-0.043,-0.021,0.316,-0.18,-0.077,-0.007,-0.377,0.878
2024-10-15 13:54:25.163,74416.617,-0.009,0.364,-0.931,-0.199,-0.238,-0.225,0.566,-0.075,-0.217,-0.009,-0.372,0.876
2024-10-15 13:54:25.173,74416.627,-0.008,0.358,-0.934,-0.156,-0.098,-0.506,0.644,0.347,-0.202,-0.008,-0.366,0.874
2024-10-15 13:54:25.184,74416.637,-0.006,0.352,-0.936,-0.141,0.181,-0.236,0.659,0.105,-0.174,-0.006,-0.36,0.872
2024-10-15 13:54:25.193,74416.647,-0.006,0.345,-0.939,-0.196,-0.01,-0.039,0.911,0.122,-0.378,-0.007,-0.352,0.869
2024-10-15 13:54:25.204,74416.657,-0.005,0.336,-0.942,0.005,-0.008,0.013,0.971,0.362,-0.453,-0.006,-0.342,0.864
2024-10-15 13:54:25.214,74416.667,-0.003,0.328,-0.945,0.003,0.076,0.044,0.541,0.242,-0.225,-0.003,-0.334,0.861
2024-10-15 13:54:25.223,74416.677,-0.003,0.326,-0.945,-0.149,-0.117,0.052,-0.028,-0.018,-0.05,-0.003,-0.332,0.859
2024-10-15 13:54:25.233,74416.687,-0.004,0.328,-0.945,-0.049,-0.198,0.105,-0.364,-0.192,0.047,-0.004,-0.334,0.859
2024-10-15 13:54:25.243,74416.697,-0.005,0.332,-0.943,0.081,-0.127,0.158,-0.408,-0.168,0.175,-0.006,-0.338,0.861
2024-10-15 13:54:25.254,74416.707,-0.006,0.335,-0.942,0.073,-0.011,0.118,-0.323,-0.073,0.251,-0.006,-0.342,0.863
2024-10-15 13:54:25.263,74416.717,-0.005,0.338,-0.941,0.032,0.12,0.058,-0.331,-0.068,0.349,-0.006,-0.345,0.866
2024-10-15 13:54:25.274,74416.727,-0.005,0.341,-0.94,0.021,0.122,-0.008,-0.366,-0.135,0.368,-0.005,-0.348,0.87
2024-10-15 13:54:25.284,74416.737,-0.005,0.345,-0.939,0.061,0.144,0.004,-0.336,-0.211,0.358,-0.006,-0.352,0.874
2024-10-15 13:54:25.293,74416.747,-0.006,0.347,-0.938,0.092,0.139,0.04,-0.154,-0.184,0.369,-0.006,-0.354,0.878
2024-10-15 13:54:25.303,74416.757,-0.006,0.348,-0.938,0.107,0.101,0.073,0.04,-0.061,0.337,-0.006,-0.355,0.881
2024-10-15 13:54:25.314,74416.767,-0.005,0.347,-0.938,0.099,0.102,0.093,0.105,0.015,0.326,-0.005,-0.354,0.885
2024-10-15 13:54:25.323,74416.777,-0.004,0.346,-0.938,0.078,0.047,0.083,0.013,-0.04,0.331,-0.004,-0.354,0.888
2024-10-15 13:54:25.334,74416.787,-0.004,0.346,-0.938,0.096,-0.076,0.088,-0.029,-0.161,0.287,-0.004,-0.354,0.892
2024-10-15 13:54:25.343,74416.797,-0.004,0.346,-0.938,0.138,-0.155,0.105,0.112,-0.114,0.153,-0.005,-0.353,0.894
2024-10-15 13:54:25.353,74416.807,-0.004,0.344,-0.939,0.159,-0.112,0.109,0.329,0.027,-0.001,-0.005,-0.351,0.895
2024-10-15 13:54:25.363,74416.816,-0.004,0.34,-0.94,0.099,-0.055,0.079,0.401,0.093,-0.089,-0.004,-0.347,0.894
2024-10-15 13:54:25.373,74416.826,-0.004,0.337,-0.942,0.003,-0.116,0.01,0.36,0.064,-0.149,-0.004,-0.344,0.893
2024-10-15 13:54:25.384,74416.836,-0.004,0.333,-0.943,-0.034,-0.193,-0.056,0.38,0.067,-0.253,-0.004,-0.34,0.891
2024-10-15 13:54:25.393,74416.846,-0.004,0.329,-0.944,-0.04,-0.188,-0.105,0.492,0.114,-0.355,-0.004,-0.336,0.888
2024-10-15 13:54:25.403,74416.856,-0.004,0.324,-0.946,-0.072,-0.119,-0.136,0.617,0.161,-0.428,-0.004,-0.33,0.884
2024-10-15 13:54:25.413,74416.866,-0.004,0.318,-0.948,-0.114,-0.051,-0.145,0.654,0.208,-0.484,-0.004,-0.324,0.879
2024-10-15 13:54:25.423,74416.876,-0.003,0.312,-0.95,-0.135,0.003,-0.141,0.672,0.176,-0.515,-0.004,-0.317,0.874
2024-10-15 13:54:25.433,74416.886,-0.003,0.305,-0.952,-0.142,0.03,-0.109,0.778,0.185,-0.555,-0.004,-0.31,0.868
2024-10-15 13:54:25.443,74416.896,-0.003,0.297,-0.955,-0.129,0.067,-0.076,0.839,0.23,-0.538,-0.003,-0.302,0.862
2024-10-15 13:54:25.453,74416.906,-0.003,0.29,-0.957,-0.119,0.101,-0.043,0.733,0.157,-0.438,-0.003,-0.294,0.857
2024-10-15 13:54:25.463,74416.916,-0.003,0.284,-0.959,-0.119,0.077,0.004,0.431,0.034,-0.325,-0.003,-0.288,0.853
2024-10-15 13:54:25.473,74416.926,-0.004,0.281,-0.96,-0.088,0.043,0.023,0.047,-0.058,-0.176,-0.004,-0.285,0.851
2024-10-15 13:54:25.483,74416.936,-0.005,0.282,-0.959,-0.065,0.038,0.029,-0.224,-0.121,-0.003,-0.005,-0.286,0.85
2024-10-15 13:54:25.493,74416.946,-0.006,0.285,-0.959,-0.063,0.056,0.04,-0.249,-0.098,0.078,-0.006,-0.289,0.85
2024-10-15 13:54:25.503,74416.956,-0.006,0.287,-0.958,-0.059,0.14,0.012,-0.15,-0.012,0.147,-0.006,-0.291,0.851
2024-10-15 13:54:25.513,74416.966,-0.005,0.288,-0.958,-0.063,0.215,-0.046,-0.127,0.006,0.268,-0.005,-0.292,0.853
2024-10-15 13:54:25.523,74416.976,-0.004,0.29,-0.957,-0.06,0.165,-0.068,-0.218,-0.042,0.352,-0.005,-0.294,0.857
2024-10-15 13:54:25.533,74416.986,-0.004,0.293,-0.956,0.001,0.086,-0.038,-0.372,-0.137,0.4,-0.004,-0.297,0.861
2024-10-15 13:54:25.543,74416.996,-0.005,0.297,-0.955,0.076,0.033,0.004,-0.467,-0.231,0.406,-0.005,-0.301,0.865
2024-10-15 13:54:25.553,74417.006,-0.006,0.301,-0.954,0.118,0.032,0.046,-0.438,-0.249,0.393,-0.006,-0.306,0.869
2024-10-15 13:54:25.563,74417.016,-0.007,0.305,-0.952,0.135,0.045,0.081,-0.392,-0.233,0.417,-0.007,-0.31,0.873
2024-10-15 13:54:25.573,74417.026,-0.008,0.308,-0.951,0.119,0.001,0.077,-0.252,-0.208,0.387,-0.008,-0.313,0.877
2024-10-15 13:54:25.583,74417.036,-0.008,0.31,-0.951,0.097,-0.034,0.072,-0.11,-0.131,0.303,-0.009,-0.315,0.881
2024-10-15 13:54:25.593,74417.046,-0.009,0.31,-0.951,0.09,-0.042,0.058,0.012,-0.113,0.245,-0.009,-0.315,0.884
2024-10-15 13:54:25.603,74417.056,-0.009,0.31,-0.951,0.075,-0.081,0.043,0.103,-0.084,0.156,-0.01,-0.315,0.886
2024-10-15 13:54:25.613,74417.066,-0.009,0.308,-0.951,0.075,-0.12,0.033,0.154,-0.024,0.044,-0.01,-0.314,0.887
2024-10-15 13:54:25.623,74417.076,-0.01,0.307,-0.952,0.07,-0.123,0.028,0.082,-0.026,0.001,-0.01,-0.312,0.887
2024-10-15 13:54:25.633,74417.086,-0.01,0.307,-0.952,0.041,-0.16,0.025,-0.022,-0.084,-0.006,-0.011,-0.312,0.887
2024-10-15 13:54:25.643,74417.096,-0.011,0.307,-0.952,0.035,-0.206,0.066,0.072,-0.057,-0.073,-0.011,-0.312,0.887
2024-10-15 13:54:25.653,74417.106,-0.011,0.305,-0.952,0.059,-0.15,0.103,0.333,0.036,-0.171,-0.012,-0.31,0.886
2024-10-15 13:54:25.663,74417.116,-0.011,0.301,-0.954,0.034,-0.046,0.069,0.6,0.12,-0.248,-0.012,-0.305,0.883
2024-10-15 13:54:25.673,74417.126,-0.011,0.294,-0.956,-0.026,0.007,-0.001,0.707,0.17,-0.34,-0.011,-0.299,0.88
2024-10-15 13:54:25.683,74417.136,-0.01,0.287,-0.958,-0.07,0.002,-0.062,0.686,0.158,-0.407,-0.011,-0.292,0.877
2024-10-15 13:54:25.693,74417.146,-0.01,0.282,-0.959,-0.101,-0.034,-0.089,0.545,0.149,-0.454,-0.01,-0.285,0.872
2024-10-15 13:54:25.703,74417.156,-0.01,0.277,-0.961,-0.129,-0.058,-0.102,0.402,0.13,-0.454,-0.01,-0.281,0.868
2024-10-15 13:54:25.713,74417.166,-0.01,0.273,-0.962,-0.16,-0.037,-0.119,0.391,0.154,-0.434,-0.01,-0.277,0.863
2024-10-15 13:54:25.723,74417.176,-0.009,0.269,-0.963,-0.185,0.021,-0.09,0.549,0.186,-0.431,-0.01,-0.272,0.859
2024-10-15 13:54:25.733,74417.186,-0.008,0.263,-0.965,-0.18,0.097,-0.026,0.612,0.25,-0.407,-0.009,-0.266,0.854
2024-10-15 13:54:25.743,74417.196,-0.007,0.258,-0.966,-0.154,0.134,-0.008,0.432,0.185,-0.289,-0.007,-0.261,0.851
2024-10-15 13:54:25.753,74417.206,-0.006,0.255,-0.967,-0.142,0.083,0.024,0.089,0.064,-0.17,-0.007,-0.258,0.848
2024-10-15 13:54:25.763,74417.216,-0.007,0.256,-0.967,-0.107,0.028,0.065,-0.203,-0.05,-0.055,-0.007,-0.259,0.847
2024-10-15 13:54:25.773,74417.226,-0.008,0.258,-0.966,-0.047,0.04,0.104,-0.257,-0.117,0.055,-0.008,-0.261,0.847
2024-10-15 13:54:25.783,74417.236,-0.008,0.261,-0.965,-0.015,0.069,0.085,-0.228,-0.087,0.177,-0.009,-0.264,0.848
2024-10-15 13:54:25.793,74417.246,-0.008,0.263,-0.965,0.001,0.119,0.035,-0.228,-0.052,0.255,-0.009,-0.266,0.85
2024-10-15 13:54:25.803,74417.256,-0.008,0.265,-0.964,0.013,0.157,-0.01,-0.271,-0.036,0.313,-0.008,-0.268,0.853
2024-10-15 13:54:25.813,74417.266,-0.008,0.268,-0.963,0.048,0.12,-0.049,-0.418,-0.075,0.364,-0.008,-0.272,0.857
2024-10-15 13:54:25.823,74417.276,-0.008,0.273,-0.962,0.091,0.054,-0.065,-0.609,-0.14,0.428,-0.008,-0.277,0.861
2024-10-15 13:54:25.833,74417.286,-0.008,0.28,-0.96,0.125,0.038,-0.023,-0.823,-0.2,0.469,-0.008,-0.284,0.866
2024-10-15 13:54:25.843,74417.296,-0.009,0.289,-0.957,0.14,-0.003,0.04,-1.053,-0.258,0.543,-0.009,-0.294,0.871
2024-10-15 13:54:25.852,74417.306,-0.01,0.3,-0.954,0.15,-0.053,0.094,-1.145,-0.327,0.627,-0.01,-0.305,0.877
2024-10-15 13:54:25.863,74417.316,-0.011,0.31,-0.951,0.143,-0.088,0.142,-0.964,-0.339,0.597,-0.012,-0.315,0.883
2024-10-15 13:54:25.873,74417.326,-0.013,0.318,-0.948,0.15,-0.059,0.165,-0.576,-0.361,0.543,-0.013,-0.323,0.889
2024-10-15 13:54:25.883,74417.336,-0.014,0.32,-0.947,0.14,0.009,0.144,0.051,-0.228,0.353,-0.015,-0.326,0.894
2024-10-15 13:54:25.892,74417.346,-0.014,0.318,-0.948,0.114,0.104,0.115,0.495,0.063,0.147,-0.015,-0.323,0.896
2024-10-15 13:54:25.902,74417.356,-0.013,0.313,-0.95,0.056,0.123,0.033,0.518,0.159,0.068,-0.013,-0.318,0.898
2024-10-15 13:54:25.912,74417.366,-0.011,0.309,-0.951,-0.051,-0.044,-0.053,0.323,0.071,-0.003,-0.012,-0.314,0.898
2024-10-15 13:54:25.922,74417.376,-0.011,0.305,-0.952,-0.066,-0.236,-0.064,0.383,-0.006,-0.144,-0.012,-0.31,0.897
2024-10-15 13:54:25.932,74417.386,-0.012,0.301,-0.954,-0.005,-0.256,-0.051,0.58,0.142,-0.312,-0.012,-0.306,0.895
2024-10-15 13:54:25.942,74417.396,-0.011,0.295,-0.956,-0.023,-0.141,-0.074,0.648,0.298,-0.4,-0.011,-0.299,0.891
2024-10-15 13:54:25.952,74417.405,-0.009,0.289,-0.957,-0.128,-0.083,-0.101,0.484,0.289,-0.42,-0.009,-0.293,0.887
2024-10-15 13:54:25.962,74417.415,-0.008,0.285,-0.958,-0.187,-0.156,-0.077,0.371,0.205,-0.508,-0.008,-0.289,0.882
2024-10-15 13:54:25.973,74417.425,-0.007,0.281,-0.96,-0.142,-0.182,-0.038,0.422,0.224,-0.597,-0.008,-0.285,0.876
2024-10-15 13:54:25.982,74417.435,-0.007,0.277,-0.961,-0.109,-0.117,-0.023,0.529,0.266,-0.644,-0.007,-0.28,0.87
2024-10-15 13:54:25.992,74417.445,-0.006,0.272,-0.962,-0.144,-0.045,-0.012,0.528,0.296,-0.645,-0.006,-0.275,0.863
2024-10-15 13:54:26.002,74417.455,-0.005,0.267,-0.964,-0.166,-0.007,0.003,0.314,0.224,-0.559,-0.005,-0.271,0.857
2024-10-15 13:54:26.012,74417.465,-0.005,0.266,-0.964,-0.151,-0.021,0.009,0.019,0.106,-0.431,-0.005,-0.269,0.852
2024-10-15 13:54:26.022,74417.475,-0.005,0.267,-0.964,-0.134,-0.001,-0.002,-0.194,0.049,-0.281,-0.005,-0.27,0.848
2024-10-15 13:54:26.032,74417.485,-0.005,0.269,-0.963,-0.119,0.105,-0.004,-0.248,-0.015,-0.124,-0.005,-0.272,0.846
2024-10-15 13:54:26.042,74417.495,-0.006,0.271,-0.963,-0.104,0.202,-0.013,-0.129,-0.003,0.017,-0.006,-0.274,0.846
2024-10-15 13:54:26.052,74417.505,-0.005,0.271,-0.962,-0.074,0.271,-0.049,-0.018,0.043,0.125,-0.005,-0.275,0.846
2024-10-15 13:54:26.062,74417.515,-0.004,0.271,-0.962,-0.042,0.3,-0.06,-0.033,0.038,0.237,-0.004,-0.275,0.848
2024-10-15 13:54:26.072,74417.525,-0.003,0.272,-0.962,-0.026,0.246,-0.065,-0.151,-0.024,0.295,-0.004,-0.276,0.851
2024-10-15 13:54:26.082,74417.535,-0.003,0.275,-0.961,0.006,0.137,-0.048,-0.409,-0.089,0.375,-0.003,-0.279,0.854
2024-10-15 13:54:26.092,74417.545,-0.003,0.28,-0.96,0.043,0.037,0.006,-0.665,-0.178,0.412,-0.003,-0.284,0.859
2024-10-15 13:54:26.102,74417.555,-0.004,0.287,-0.958,0.07,0.002,0.085,-0.82,-0.257,0.478,-0.004,-0.292,0.863
2024-10-15 13:54:26.112,74417.565,-0.005,0.295,-0.955,0.096,-0.039,0.132,-0.714,-0.319,0.502,-0.006,-0.3,0.868
2024-10-15 13:54:26.122,74417.575,-0.007,0.3,-0.954,0.113,-0.041,0.143,-0.261,-0.299,0.386,-0.007,-0.305,0.873
2024-10-15 13:54:26.132,74417.585,-0.008,0.3,-0.954,0.13,0.034,0.102,0.206,-0.041,0.234,-0.008,-0.305,0.876
2024-10-15 13:54:26.142,74417.595,-0.007,0.297,-0.955,0.139,0.116,0.049,0.387,0.111,0.176,-0.007,-0.302,0.878
2024-10-15 13:54:26.152,74417.605,-0.005,0.294,-0.956,0.086,0.038,-0.031,0.223,0.106,0.117,-0.006,-0.298,0.88
2024-10-15 13:54:26.162,74417.615,-0.005,0.293,-0.956,0.074,-0.132,-0.091,-0.035,-0.002,0.057,-0.005,-0.297,0.881
2024-10-15 13:54:26.172,74417.625,-0.005,0.294,-0.956,0.11,-0.247,-0.083,-0.214,-0.016,0.011,-0.005,-0.299,0.881
2024-10-15 13:54:26.182,74417.635,-0.004,0.297,-0.955,0.109,-0.285,-0.024,-0.357,0.031,0.013,-0.005,-0.302,0.881
2024-10-15 13:54:26.192,74417.645,-0.004,0.301,-0.954,0.062,-0.24,0.038,-0.506,0.037,0.025,-0.004,-0.306,0.881
2024-10-15 13:54:26.202,74417.655,-0.004,0.305,-0.952,0.023,-0.221,0.089,-0.298,-0.084,-0.061,-0.005,-0.31,0.881
2024-10-15 13:54:26.212,74417.665,-0.005,0.306,-0.952,0.045,-0.171,0.122,0.117,0.01,-0.228,-0.006,-0.311,0.88
2024-10-15 13:54:26.222,74417.675,-0.005,0.303,-0.953,0.063,-0.025,0.08,0.431,0.187,-0.301,-0.005,-0.308,0.877
2024-10-15 13:54:26.232,74417.685,-0.004,0.299,-0.954,-0.025,0.101,0.007,0.463,0.175,-0.316,-0.005,-0.303,0.874
2024-10-15 13:54:26.241,74417.695,-0.004,0.295,-0.955,-0.137,0.049,-0.07,0.297,0.119,-0.345,-0.004,-0.3,0.87
2024-10-15 13:54:26.251,74417.705,-0.004,0.293,-0.956,-0.134,-0.01,-0.076,0.167,0.105,-0.358,-0.004,-0.297,0.867
2024-10-15 13:54:26.262,74417.715,-0.004,0.291,-0.957,-0.124,-0.006,-0.055,0.156,0.14,-0.341,-0.004,-0.296,0.863
2024-10-15 13:54:26.272,74417.725,-0.003,0.29,-0.957,-0.155,0.041,-0.03,0.227,0.18,-0.319,-0.003,-0.294,0.859
2024-10-15 13:54:26.282,74417.735,-0.002,0.287,-0.958,-0.171,0.1,-0.005,0.278,0.183,-0.295,-0.003,-0.291,0.856
2024-10-15 13:54:26.292,74417.745,-0.002,0.285,-0.959,-0.15,0.116,0.02,0.179,0.115,-0.216,-0.002,-0.289,0.854
2024-10-15 13:54:26.302,74417.755,-0.002,0.284,-0.959,-0.119,0.082,0.04,0.047,-0.007,-0.111,-0.002,-0.288,0.852
2024-10-15 13:54:26.312,74417.765,-0.002,0.284,-0.959,-0.09,0.06,0.052,-0.033,-0.04,-0.01,-0.002,-0.288,0.851
2024-10-15 13:54:26.322,74417.775,-0.002,0.284,-0.959,-0.052,0.11,0.058,-0.049,-0.039,0.093,-0.003,-0.288,0.852
2024-10-15 13:54:26.332,74417.785,-0.002,0.284,-0.959,-0.047,0.162,0.025,0.019,-0.015,0.158,-0.002,-0.288,0.853
2024-10-15 13:54:26.342,74417.795,-0.002,0.284,-0.959,-0.027,0.186,-0.022,0.041,0.012,0.215,-0.002,-0.288,0.855
2024-10-15 13:54:26.352,74417.805,-0.001,0.284,-0.959,0.006,0.171,-0.071,-0.064,0.026,0.3,-0.001,-0.288,0.858
2024-10-15 13:54:26.362,74417.815,-0.0,0.286,-0.958,0.014,0.108,-0.1,-0.315,-0.059,0.358,-0.0,-0.29,0.861
2024-10-15 13:54:26.372,74417.825,-0.0,0.29,-0.957,0.042,0.04,-0.093,-0.62,-0.172,0.479,-0.0,-0.294,0.865
2024-10-15 13:54:26.382,74417.835,-0.001,0.297,-0.955,0.077,-0.028,-0.04,-0.691,-0.361,0.547,-0.001,-0.301,0.871
2024-10-15 13:54:26.392,74417.845,-0.003,0.302,-0.953,0.127,0.004,0.088,-0.45,-0.497,0.573,-0.004,-0.307,0.877
2024-10-15 13:54:26.401,74417.855,-0.006,0.303,-0.953,0.173,0.062,0.172,0.246,-0.375,0.473,-0.007,-0.308,0.882
2024-10-15 13:54:26.412,74417.865,-0.007,0.298,-0.955,0.205,0.189,0.218,0.856,0.007,0.299,-0.007,-0.303,0.886
2024-10-15 13:54:26.422,74417.875,-0.005,0.289,-0.957,0.146,0.23,0.136,0.874,0.176,0.23,-0.005,-0.294,0.889
2024-10-15 13:54:26.432,74417.885,-0.003,0.284,-0.959,0.036,0.02,-0.04,0.314,0.027,0.191,-0.003,-0.287,0.891
2024-10-15 13:54:26.441,74417.895,-0.004,0.283,-0.959,0.023,-0.303,-0.127,-0.177,-0.227,0.141,-0.004,-0.287,0.893
2024-10-15 13:54:26.451,74417.905,-0.006,0.285,-0.958,0.078,-0.496,-0.071,-0.233,-0.164,0.02,-0.006,-0.289,0.894
2024-10-15 13:54:26.461,74417.915,-0.007,0.287,-0.958,0.084,-0.404,0.003,-0.058,0.001,-0.06,-0.007,-0.291,0.894
2024-10-15 13:54:26.471,74417.925,-0.006,0.286,-0.958,-0.008,-0.189,0.025,0.104,0.074,-0.135,-0.007,-0.291,0.893
2024-10-15 13:54:26.482,74417.935,-0.006,0.285,-0.959,-0.069,-0.126,0.022,0.223,0.073,-0.229,-0.007,-0.289,0.891
2024-10-15 13:54:26.491,74417.945,-0.006,0.282,-0.959,-0.049,-0.111,0.017,0.317,0.1,-0.325,-0.006,-0.286,0.888
2024-10-15 13:54:26.501,74417.955,-0.006,0.279,-0.96,-0.047,-0.076,-0.006,0.349,0.154,-0.423,-0.006,-0.283,0.884
2024-10-15 13:54:26.511,74417.965,-0.006,0.276,-0.961,-0.084,-0.034,-0.055,0.258,0.161,-0.445,-0.006,-0.28,0.879
2024-10-15 13:54:26.520,74417.975,-0.006,0.274,-0.962,-0.133,-0.05,-0.065,0.185,0.123,-0.463,-0.006,-0.277,0.875
2024-10-15 13:54:26.531,74417.985,-0.006,0.272,-0.962,-0.149,-0.078,-0.059,0.242,0.138,-0.524,-0.006,-0.275,0.87
2024-10-15 13:54:26.541,74417.995,-0.006,0.269,-0.963,-0.131,-0.024,-0.04,0.345,0.161,-0.537,-0.006,-0.272,0.864
2024-10-15 13:54:26.551,74418.004,-0.006,0.265,-0.964,-0.144,0.029,-0.004,0.346,0.174,-0.513,-0.006,-0.269,0.859
2024-10-15 13:54:26.561,74418.014,-0.005,0.262,-0.965,-0.148,0.048,0.023,0.25,0.147,-0.461,-0.006,-0.266,0.854
2024-10-15 13:54:26.571,74418.024,-0.005,0.261,-0.965,-0.133,0.07,0.019,0.103,0.112,-0.352,-0.006,-0.264,0.849
2024-10-15 13:54:26.581,74418.034,-0.005,0.26,-0.966,-0.127,0.09,0.003,-0.015,0.103,-0.227,-0.005,-0.263,0.847
2024-10-15 13:54:26.591,74418.044,-0.005,0.261,-0.965,-0.108,0.151,0.009,-0.083,0.115,-0.086,-0.005,-0.264,0.845
2024-10-15 13:54:26.601,74418.054,-0.004,0.262,-0.965,-0.077,0.211,0.008,-0.123,0.074,0.033,-0.004,-0.265,0.845
2024-10-15 13:54:26.611,74418.064,-0.003,0.263,-0.965,-0.036,0.219,-0.003,-0.077,0.057,0.11,-0.003,-0.266,0.845
2024-10-15 13:54:26.621,74418.074,-0.002,0.263,-0.965,0.018,0.22,-0.028,-0.069,0.086,0.189,-0.002,-0.267,0.847
2024-10-15 13:54:26.631,74418.084,-0.0,0.264,-0.964,0.05,0.216,-0.034,-0.127,0.094,0.253,-0.0,-0.268,0.849
2024-10-15 13:54:26.641,74418.094,0.001,0.266,-0.964,0.052,0.166,-0.043,-0.283,0.034,0.308,0.001,-0.27,0.852
2024-10-15 13:54:26.651,74418.104,0.002,0.27,-0.963,0.066,0.063,-0.03,-0.56,-0.043,0.404,0.002,-0.274,0.856
2024-10-15 13:54:26.661,74418.114,0.002,0.277,-0.961,0.088,-0.042,0.016,-0.83,-0.147,0.443,0.002,-0.281,0.86
2024-10-15 13:54:26.671,74418.124,0.002,0.285,-0.958,0.115,-0.094,0.094,-0.898,-0.27,0.493,0.002,-0.289,0.865
2024-10-15 13:54:26.681,74418.134,0.0,0.293,-0.956,0.122,-0.122,0.132,-0.653,-0.293,0.457,0.0,-0.297,0.87
2024-10-15 13:54:26.691,74418.144,-0.001,0.297,-0.955,0.131,-0.066,0.155,-0.087,-0.174,0.302,-0.001,-0.301,0.874
2024-10-15 13:54:26.701,74418.154,-0.001,0.295,-0.955,0.114,0.044,0.111,0.313,0.042,0.176,-0.001,-0.3,0.877
2024-10-15 13:54:26.711,74418.164,0.0,0.292,-0.956,0.045,0.054,0.007,0.353,0.097,0.084,0.0,-0.296,0.878
2024-10-15 13:54:26.721,74418.174,0.001,0.29,-0.957,-0.011,-0.077,-0.085,0.108,0.03,-0.016,0.001,-0.294,0.878
2024-10-15 13:54:26.731,74418.184,0.001,0.29,-0.957,-0.012,-0.26,-0.127,-0.14,-0.044,-0.074,0.001,-0.294,0.878
2024-10-15 13:54:26.741,74418.194,0.0,0.292,-0.956,-0.01,-0.351,-0.091,-0.281,-0.03,-0.104,0.0,-0.296,0.877
2024-10-15 13:54:26.751,74418.204,-0.0,0.295,-0.956,-0.025,-0.309,0.0,-0.263,0.011,-0.138,-0.0,-0.299,0.876
2024-10-15 13:54:26.761,74418.214,-0.001,0.296,-0.955,-0.036,-0.199,0.081,0.051,0.032,-0.236,-0.001,-0.3,0.874
2024-10-15 13:54:26.771,74418.224,-0.001,0.293,-0.956,-0.028,-0.106,0.101,0.44,0.171,-0.381,-0.001,-0.298,0.87
2024-10-15 13:54:26.782,74418.234,-0.0,0.288,-0.958,-0.027,0.006,0.046,0.701,0.249,-0.483,-0.0,-0.292,0.866
2024-10-15 13:54:26.791,74418.244,0.001,0.282,-0.96,-0.076,0.069,-0.058,0.558,0.241,-0.5,0.001,-0.285,0.861
2024-10-15 13:54:26.801,74418.254,0.001,0.278,-0.961,-0.133,0.025,-0.112,0.247,0.082,-0.443,0.001,-0.281,0.856
2024-10-15 13:54:26.811,74418.264,0.0,0.276,-0.961,-0.128,-0.049,-0.055,0.216,-0.011,-0.409,0.0,-0.279,0.851
2024-10-15 13:54:26.821,74418.274,-0.0,0.273,-0.962,-0.083,-0.007,0.004,0.382,0.094,-0.388,-0.0,-0.276,0.847
2024-10-15 13:54:26.831,74418.284,-0.0,0.269,-0.963,-0.074,0.169,0.018,0.417,0.139,-0.298,-0.0,-0.272,0.844
2024-10-15 13:54:26.841,74418.294,0.0,0.265,-0.964,-0.112,0.245,0.025,0.308,0.081,-0.191,0.0,-0.269,0.841
2024-10-15 13:54:26.851,74418.304,0.0,0.263,-0.965,-0.089,0.202,0.049,0.171,0.036,-0.106,0.0,-0.266,0.84
2024-10-15 13:54:26.861,74418.314,0.001,0.262,-0.965,-0.031,0.169,0.053,0.021,0.037,0.046,0.001,-0.265,0.839
2024-10-15 13:54:26.871,74418.324,0.001,0.263,-0.965,-0.026,0.167,0.036,-0.09,-0.003,0.171,0.001,-0.266,0.84
2024-10-15 13:54:26.881,74418.334,0.002,0.264,-0.965,-0.038,0.142,0.007,-0.147,0.006,0.236,0.002,-0.267,0.843
2024-10-15 13:54:26.891,74418.344,0.002,0.266,-0.964,0.0,0.134,-0.025,-0.301,-0.015,0.303,0.003,-0.269,0.845
2024-10-15 13:54:26.901,74418.354,0.003,0.27,-0.963,0.023,0.101,-0.06,-0.539,-0.025,0.398,0.003,-0.273,0.849
2024-10-15 13:54:26.911,74418.364,0.004,0.276,-0.961,0.03,0.028,-0.042,-0.838,-0.142,0.469,0.004,-0.28,0.853
2024-10-15 13:54:26.921,74418.374,0.003,0.285,-0.958,0.064,-0.044,0.04,-0.978,-0.282,0.515,0.003,-0.289,0.859
2024-10-15 13:54:26.931,74418.384,0.002,0.293,-0.956,0.12,-0.049,0.122,-0.768,-0.267,0.491,0.002,-0.298,0.864
2024-10-15 13:54:26.941,74418.394,0.001,0.299,-0.954,0.154,0.001,0.205,-0.366,-0.202,0.403,0.001,-0.304,0.869
2024-10-15 13:54:26.951,74418.404,0.0,0.301,-0.954,0.15,0.031,0.183,-0.019,-0.073,0.29,0.0,-0.305,0.872
2024-10-15 13:54:26.960,74418.414,0.001,0.3,-0.954,0.119,-0.007,0.108,0.029,0.007,0.189,0.001,-0.305,0.875
2024-10-15 13:54:26.970,74418.424,0.001,0.301,-0.954,0.085,-0.134,0.02,-0.186,-0.052,0.1,0.001,-0.306,0.876
2024-10-15 13:54:26.980,74418.434,0.001,0.304,-0.953,0.056,-0.296,-0.051,-0.383,-0.072,0.002,0.001,-0.309,0.877
2024-10-15 13:54:26.990,74418.444,0.0,0.308,-0.951,0.06,-0.367,-0.058,-0.497,-0.023,-0.066,0.0,-0.313,0.876
2024-10-15 13:54:27.001,74418.454,-0.0,0.313,-0.95,0.06,-0.309,-0.015,-0.532,0.006,-0.08,-0.0,-0.318,0.876
2024-10-15 13:54:27.010,74418.464,-0.0,0.318,-0.948,0.027,-0.226,0.013,-0.404,0.034,-0.098,-0.0,-0.323,0.875
2024-10-15 13:54:27.020,74418.474,-0.0,0.32,-0.947,0.022,-0.106,0.012,-0.094,0.073,-0.15,-0.0,-0.326,0.873
2024-10-15 13:54:27.031,74418.484,0.0,0.32,-0.948,0.017,0.032,-0.007,0.122,0.111,-0.199,0.0,-0.325,0.872
2024-10-15 13:54:27.040,74418.494,0.0,0.318,-0.948,-0.003,0.113,-0.041,0.119,0.066,-0.224,0.0,-0.324,0.869
2024-10-15 13:54:27.050,74418.504,-0.0,0.318,-0.948,-0.047,0.093,-0.055,0.024,-0.014,-0.23,-0.0,-0.323,0.867
2024-10-15 13:54:27.060,74418.514,-0.001,0.318,-0.948,-0.082,0.022,-0.053,0.014,-0.015,-0.25,-0.001,-0.323,0.864
2024-10-15 13:54:27.070,74418.524,-0.002,0.317,-0.948,-0.119,-0.001,-0.078,0.14,0.049,-0.275,-0.002,-0.323,0.862
2024-10-15 13:54:27.080,74418.534,-0.002,0.315,-0.949,-0.175,0.047,-0.089,0.303,0.112,-0.31,-0.002,-0.32,0.859
2024-10-15 13:54:27.090,74418.544,-0.002,0.311,-0.95,-0.199,0.086,-0.064,0.453,0.166,-0.364,-0.002,-0.317,0.855
2024-10-15 13:54:27.100,74418.554,-0.001,0.307,-0.952,-0.18,0.098,-0.039,0.49,0.224,-0.399,-0.001,-0.312,0.851
2024-10-15 13:54:27.110,74418.564,-0.0,0.303,-0.953,-0.158,0.061,-0.027,0.302,0.179,-0.351,-0.0,-0.308,0.847
2024-10-15 13:54:27.120,74418.574,-0.0,0.301,-0.953,-0.15,0.0,-0.009,-0.009,0.053,-0.258,-0.0,-0.306,0.844
2024-10-15 13:54:27.130,74418.584,-0.001,0.303,-0.953,-0.119,-0.034,0.006,-0.189,-0.025,-0.178,-0.001,-0.307,0.842
2024-10-15 13:54:27.139,74418.593,-0.001,0.304,-0.953,-0.067,0.002,0.014,-0.146,0.002,-0.114,-0.001,-0.309,0.84
2024-10-15 13:54:27.150,74418.603,-0.001,0.305,-0.952,-0.051,0.095,-0.007,-0.068,0.106,-0.041,-0.001,-0.31,0.839
2024-10-15 13:54:27.160,74418.613,0.0,0.306,-0.952,-0.058,0.182,-0.052,-0.111,0.152,0.054,0.0,-0.311,0.839
2024-10-15 13:54:27.170,74418.623,0.002,0.307,-0.952,-0.061,0.17,-0.084,-0.178,0.141,0.112,0.002,-0.313,0.84
2024-10-15 13:54:27.180,74418.633,0.003,0.309,-0.951,-0.023,0.118,-0.064,-0.128,0.096,0.102,0.004,-0.314,0.841
2024-10-15 13:54:27.190,74418.643,0.005,0.31,-0.951,0.015,0.094,0.017,-0.026,0.092,0.105,0.005,-0.315,0.842
2024-10-15 13:54:27.200,74418.653,0.006,0.31,-0.951,0.014,0.093,0.111,-0.022,0.029,0.135,0.006,-0.315,0.844
2024-10-15 13:54:27.210,74418.663,0.006,0.31,-0.951,-0.003,0.038,0.17,-0.093,-0.028,0.19,0.006,-0.315,0.845
2024-10-15 13:54:27.220,74418.673,0.006,0.312,-0.95,-0.002,-0.041,0.185,-0.191,-0.086,0.21,0.007,-0.317,0.847
2024-10-15 13:54:27.230,74418.683,0.006,0.314,-0.949,0.0,-0.083,0.148,-0.289,-0.12,0.239,0.006,-0.319,0.85
2024-10-15 13:54:27.240,74418.693,0.006,0.317,-0.948,-0.005,-0.092,0.079,-0.41,-0.086,0.277,0.006,-0.323,0.853
2024-10-15 13:54:27.251,74418.703,0.006,0.321,-0.947,-0.021,-0.071,0.037,-0.522,-0.061,0.332,0.006,-0.327,0.856
2024-10-15 13:54:27.260,74418.713,0.007,0.327,-0.945,-0.036,-0.036,0.019,-0.545,0.002,0.349,0.007,-0.333,0.859
2024-10-15 13:54:27.270,74418.723,0.008,0.331,-0.943,-0.033,0.024,0.014,-0.475,0.068,0.338,0.009,-0.338,0.863
2024-10-15 13:54:27.280,74418.733,0.01,0.335,-0.942,-0.023,0.085,-0.018,-0.281,0.078,0.315,0.011,-0.342,0.867
2024-10-15 13:54:27.290,74418.743,0.012,0.337,-0.942,-0.025,0.098,-0.077,-0.101,0.165,0.263,0.013,-0.343,0.87
2024-10-15 13:54:27.300,74418.753,0.015,0.337,-0.941,-0.017,0.127,-0.12,0.093,0.204,0.222,0.015,-0.343,0.872
2024-10-15 13:54:27.310,74418.763,0.017,0.336,-0.942,-0.009,0.134,-0.11,0.137,0.204,0.187,0.018,-0.342,0.874
2024-10-15 13:54:27.320,74418.773,0.019,0.334,-0.942,0.008,0.027,-0.056,0.085,0.098,0.147,0.02,-0.341,0.876
2024-10-15 13:54:27.330,74418.783,0.02,0.334,-0.942,0.059,-0.081,0.026,0.012,-0.03,0.09,0.021,-0.34,0.877
2024-10-15 13:54:27.340,74418.793,0.019,0.334,-0.942,0.099,-0.152,0.089,0.013,-0.13,0.035,0.021,-0.34,0.878
2024-10-15 13:54:27.350,74418.803,0.018,0.333,-0.943,0.106,-0.165,0.124,0.075,-0.221,-0.023,0.019,-0.34,0.878
2024-10-15 13:54:27.360,74418.813,0.015,0.332,-0.943,0.084,-0.158,0.126,0.184,-0.293,-0.091,0.016,-0.339,0.877
2024-10-15 13:54:27.370,74418.823,0.012,0.33,-0.944,0.064,-0.117,0.116,0.322,-0.353,-0.151,0.012,-0.336,0.876
2024-10-15 13:54:27.380,74418.833,0.008,0.326,-0.945,0.037,-0.086,0.093,0.371,-0.395,-0.178,0.008,-0.333,0.874
2024-10-15 13:54:27.390,74418.843,0.003,0.324,-0.946,0.014,-0.084,0.084,0.109,-0.238,-0.171,0.003,-0.33,0.872
2024-10-15 13:54:27.400,74418.853,0.001,0.326,-0.945,-0.006,-0.104,0.105,-0.474,-0.252,0.008,0.001,-0.332,0.872
2024-10-15 13:54:27.410,74418.863,-0.003,0.33,-0.944,-0.033,-0.186,0.14,-0.266,-0.362,-0.148,-0.003,-0.336,0.871
2024-10-15 13:54:27.420,74418.873,-0.004,0.33,-0.944,-0.077,-0.186,-0.272,0.273,0.176,-0.264,-0.005,-0.336,0.869
2024-10-15 13:54:27.430,74418.883,-0.002,0.327,-0.945,-0.107,0.224,-0.446,0.354,0.257,-0.142,-0.003,-0.333,0.867
2024-10-15 13:54:27.440,74418.893,-0.002,0.324,-0.946,-0.277,0.244,-0.249,0.284,0.073,-0.184,-0.002,-0.33,0.865
2024-10-15 13:54:27.450,74418.903,-0.002,0.32,-0.947,-0.13,0.037,-0.137,0.473,0.068,-0.3,-0.002,-0.326,0.862
2024-10-15 13:54:27.460,74418.913,-0.001,0.315,-0.949,0.038,0.12,-0.048,0.631,0.229,-0.284,-0.001,-0.321,0.859
2024-10-15 13:54:27.470,74418.923,0.0,0.309,-0.951,-0.055,0.141,0.022,0.559,0.217,-0.222,0.0,-0.314,0.857
2024-10-15 13:54:27.480,74418.933,0.001,0.305,-0.952,-0.088,0.051,0.079,0.217,0.089,-0.142,0.001,-0.31,0.855
2024-10-15 13:54:27.489,74418.943,0.001,0.305,-0.952,-0.021,-0.101,0.105,-0.117,-0.068,-0.064,0.001,-0.31,0.854
2024-10-15 13:54:27.500,74418.953,-0.0,0.307,-0.952,0.054,-0.132,0.121,-0.286,-0.162,0.004,-0.0,-0.312,0.853
2024-10-15 13:54:27.510,74418.963,-0.002,0.31,-0.951,0.077,-0.062,0.092,-0.254,-0.11,0.06,-0.002,-0.315,0.854
2024-10-15 13:54:27.519,74418.973,-0.002,0.312,-0.95,0.071,0.049,0.013,-0.134,-0.028,0.15,-0.002,-0.317,0.855
2024-10-15 13:54:27.530,74418.983,-0.001,0.312,-0.95,0.05,0.118,-0.035,-0.038,0.023,0.206,-0.001,-0.318,0.857
2024-10-15 13:54:27.539,74418.993,-0.0,0.313,-0.95,0.069,0.177,-0.062,-0.019,0.062,0.249,-0.0,-0.318,0.859
2024-10-15 13:54:27.550,74419.003,0.001,0.313,-0.95,0.112,0.211,-0.034,-0.019,-0.02,0.283,0.001,-0.318,0.862
2024-10-15 13:54:27.560,74419.013,0.001,0.313,-0.95,0.143,0.127,-0.002,-0.034,-0.044,0.307,0.002,-0.319,0.865
2024-10-15 13:54:27.570,74419.023,0.002,0.313,-0.95,0.175,0.04,0.035,-0.033,-0.019,0.315,0.002,-0.319,0.868
2024-10-15 13:54:27.580,74419.033,0.003,0.314,-0.949,0.149,-0.013,0.07,-0.072,-0.034,0.303,0.003,-0.319,0.871
2024-10-15 13:54:27.589,74419.043,0.003,0.315,-0.949,0.113,-0.105,0.064,-0.137,-0.099,0.251,0.003,-0.32,0.874
2024-10-15 13:54:27.599,74419.053,0.002,0.316,-0.949,0.124,-0.175,0.084,-0.102,-0.222,0.164,0.002,-0.322,0.877
2024-10-15 13:54:27.609,74419.063,0.0,0.316,-0.949,0.135,-0.209,0.099,0.117,-0.192,0.023,0.0,-0.322,0.878
2024-10-15 13:54:27.619,74419.073,-0.001,0.314,-0.949,0.128,-0.15,0.083,0.339,-0.031,-0.102,-0.001,-0.319,0.877
2024-10-15 13:54:27.630,74419.083,-0.001,0.311,-0.951,0.061,-0.067,0.034,0.307,0.017,-0.113,-0.001,-0.316,0.876
2024-10-15 13:54:27.640,74419.093,-0.002,0.308,-0.951,-0.034,-0.105,-0.024,0.278,-0.058,-0.131,-0.002,-0.313,0.875
2024-10-15 13:54:27.649,74419.103,-0.003,0.305,-0.952,-0.041,-0.168,-0.032,0.481,0.016,-0.28,-0.003,-0.309,0.873
2024-10-15 13:54:27.659,74419.113,-0.003,0.299,-0.954,0.0,-0.092,-0.072,0.609,0.205,-0.358,-0.003,-0.304,0.869
2024-10-15 13:54:27.669,74419.123,-0.002,0.294,-0.956,-0.053,0.01,-0.124,0.478,0.209,-0.367,-0.002,-0.298,0.865
2024-10-15 13:54:27.679,74419.133,-0.001,0.29,-0.957,-0.129,-0.043,-0.112,0.295,0.079,-0.433,-0.001,-0.294,0.861
2024-10-15 13:54:27.689,74419.143,-0.002,0.288,-0.958,-0.095,-0.121,-0.049,0.239,0.059,-0.487,-0.002,-0.292,0.856
2024-10-15 13:54:27.700,74419.153,-0.003,0.286,-0.958,-0.064,-0.09,-0.008,0.219,0.114,-0.459,-0.003,-0.29,0.851
2024-10-15 13:54:27.709,74419.163,-0.003,0.284,-0.959,-0.117,-0.007,0.015,0.165,0.079,-0.379,-0.003,-0.288,0.847
2024-10-15 13:54:27.719,74419.173,-0.003,0.283,-0.959,-0.149,0.026,0.038,0.013,0.014,-0.29,-0.003,-0.287,0.844
2024-10-15 13:54:27.729,74419.183,-0.004,0.283,-0.959,-0.123,0.044,0.034,-0.121,-0.066,-0.134,-0.004,-0.287,0.841
2024-10-15 13:54:27.739,74419.192,-0.005,0.285,-0.959,-0.113,0.099,0.038,-0.182,-0.106,0.025,-0.005,-0.289,0.841
2024-10-15 13:54:27.749,74419.202,-0.006,0.286,-0.958,-0.106,0.185,0.051,-0.122,-0.131,0.165,-0.006,-0.29,0.842
2024-10-15 13:54:27.759,74419.212,-0.007,0.287,-0.958,-0.073,0.27,0.053,0.008,-0.109,0.237,-0.007,-0.291,0.844
2024-10-15 13:54:27.769,74419.222,-0.007,0.286,-0.958,-0.032,0.309,0.013,0.154,-0.031,0.3,-0.007,-0.29,0.847
2024-10-15 13:54:27.778,74419.232,-0.006,0.285,-0.959,-0.023,0.312,-0.045,0.152,0.044,0.351,-0.006,-0.289,0.85
2024-10-15 13:54:27.788,74419.242,-0.004,0.284,-0.959,-0.033,0.233,-0.087,0.006,-0.003,0.387,-0.005,-0.288,0.854
2024-10-15 13:54:27.799,74419.252,-0.004,0.285,-0.959,-0.017,0.102,-0.092,-0.172,-0.093,0.402,-0.004,-0.289,0.858
2024-10-15 13:54:27.809,74419.262,-0.004,0.287,-0.958,0.036,-0.015,-0.034,-0.318,-0.14,0.403,-0.004,-0.291,0.862
2024-10-15 13:54:27.819,74419.272,-0.004,0.29,-0.957,0.089,-0.085,0.051,-0.397,-0.209,0.428,-0.004,-0.295,0.867
2024-10-15 13:54:27.829,74419.282,-0.005,0.294,-0.956,0.11,-0.112,0.118,-0.38,-0.254,0.403,-0.005,-0.299,0.871
2024-10-15 13:54:27.839,74419.292,-0.007,0.297,-0.955,0.118,-0.111,0.141,-0.192,-0.228,0.299,-0.007,-0.302,0.875
2024-10-15 13:54:27.849,74419.302,-0.008,0.298,-0.955,0.134,-0.089,0.123,0.067,-0.123,0.183,-0.008,-0.302,0.877
2024-10-15 13:54:27.859,74419.312,-0.008,0.296,-0.955,0.119,-0.09,0.063,0.237,-0.016,0.035,-0.008,-0.301,0.878
2024-10-15 13:54:27.869,74419.322,-0.008,0.294,-0.956,0.073,-0.116,-0.019,0.195,0.01,-0.092,-0.008,-0.298,0.878
2024-10-15 13:54:27.879,74419.332,-0.008,0.293,-0.956,0.032,-0.18,-0.084,-0.01,-0.036,-0.135,-0.009,-0.297,0.877
2024-10-15 13:54:27.890,74419.342,-0.009,0.294,-0.956,0.009,-0.26,-0.073,-0.164,-0.098,-0.14,-0.01,-0.298,0.875
2024-10-15 13:54:27.899,74419.352,-0.011,0.295,-0.955,0.016,-0.237,0.014,-0.059,-0.114,-0.147,-0.011,-0.3,0.874
2024-10-15 13:54:27.909,74419.362,-0.012,0.294,-0.956,0.023,-0.105,0.102,0.274,0.02,-0.246,-0.013,-0.299,0.872
2024-10-15 13:54:27.919,74419.372,-0.012,0.29,-0.957,0.033,0.081,0.122,0.521,0.135,-0.251,-0.012,-0.294,0.869
2024-10-15 13:54:27.930,74419.382,-0.011,0.285,-0.958,-0.022,0.125,0.066,0.552,0.147,-0.26,-0.012,-0.289,0.867
2024-10-15 13:54:27.939,74419.392,-0.011,0.28,-0.96,-0.074,0.032,-0.011,0.497,0.14,-0.34,-0.011,-0.284,0.864
2024-10-15 13:54:27.949,74419.402,-0.01,0.276,-0.961,-0.062,-0.015,-0.042,0.41,0.129,-0.401,-0.011,-0.279,0.86
2024-10-15 13:54:27.959,74419.412,-0.01,0.272,-0.962,-0.076,-0.041,-0.056,0.255,0.118,-0.405,-0.011,-0.276,0.855
2024-10-15 13:54:27.969,74419.422,-0.01,0.271,-0.963,-0.12,-0.06,-0.078,0.115,0.06,-0.345,-0.011,-0.274,0.852
2024-10-15 13:54:27.979,74419.432,-0.011,0.269,-0.963,-0.173,-0.052,-0.05,0.146,0.055,-0.322,-0.011,-0.273,0.848
2024-10-15 13:54:27.989,74419.442,-0.011,0.268,-0.963,-0.173,0.014,0.001,0.197,0.096,-0.292,-0.011,-0.271,0.845
2024-10-15 13:54:27.999,74419.452,-0.011,0.266,-0.964,-0.142,0.114,0.012,0.09,0.034,-0.148,-0.011,-0.269,0.843
2024-10-15 13:54:28.009,74419.462,-0.011,0.266,-0.964,-0.144,0.091,0.015,-0.001,-0.056,-0.07,-0.012,-0.269,0.842
2024-10-15 13:54:28.019,74419.472,-0.012,0.266,-0.964,-0.103,0.071,0.034,0.08,-0.042,-0.06,-0.013,-0.269,0.841
2024-10-15 13:54:28.029,74419.482,-0.012,0.264,-0.964,-0.053,0.128,0.026,0.228,0.042,-0.011,-0.013,-0.267,0.841
2024-10-15 13:54:28.039,74419.492,-0.011,0.262,-0.965,-0.062,0.188,-0.016,0.231,0.091,0.065,-0.012,-0.265,0.841
2024-10-15 13:54:28.049,74419.502,-0.011,0.26,-0.966,-0.073,0.164,-0.046,0.164,0.039,0.108,-0.011,-0.263,0.842
2024-10-15 13:54:28.059,74419.512,-0.01,0.259,-0.966,-0.03,0.1,-0.06,0.039,0.008,0.153,-0.01,-0.262,0.843
2024-10-15 13:54:28.069,74419.522,-0.01,0.259,-0.966,0.019,0.059,-0.075,-0.072,-0.012,0.19,-0.01,-0.262,0.845
2024-10-15 13:54:28.079,74419.532,-0.009,0.26,-0.966,0.037,0.029,-0.077,-0.187,-0.026,0.23,-0.01,-0.263,0.847
2024-10-15 13:54:28.089,74419.542,-0.009,0.263,-0.965,0.045,-0.01,-0.064,-0.319,-0.044,0.281,-0.009,-0.266,0.85
2024-10-15 13:54:28.099,74419.552,-0.009,0.266,-0.964,0.065,-0.045,-0.01,-0.438,-0.105,0.325,-0.009,-0.27,0.853
2024-10-15 13:54:28.109,74419.562,-0.009,0.271,-0.963,0.097,-0.046,0.066,-0.412,-0.213,0.318,-0.01,-0.274,0.856
2024-10-15 13:54:28.119,74419.572,-0.011,0.274,-0.962,0.136,-0.017,0.147,-0.186,-0.217,0.289,-0.011,-0.277,0.859
2024-10-15 13:54:28.129,74419.582,-0.011,0.274,-0.962,0.161,0.035,0.181,0.105,-0.064,0.251,-0.012,-0.278,0.862
2024-10-15 13:54:28.138,74419.592,-0.011,0.273,-0.962,0.142,0.087,0.167,0.189,-0.014,0.239,-0.012,-0.276,0.865
2024-10-15 13:54:28.149,74419.602,-0.011,0.271,-0.962,0.089,0.02,0.093,0.039,-0.107,0.196,-0.012,-0.275,0.867
2024-10-15 13:54:28.158,74419.612,-0.012,0.272,-0.962,0.092,-0.112,0.049,-0.129,-0.19,0.163,-0.013,-0.275,0.869
2024-10-15 13:54:28.168,74419.622,-0.013,0.273,-0.962,0.113,-0.188,0.036,-0.115,-0.173,0.125,-0.014,-0.277,0.87
2024-10-15 13:54:28.178,74419.632,-0.014,0.274,-0.962,0.079,-0.177,0.052,0.004,-0.082,0.059,-0.015,-0.277,0.871
2024-10-15 13:54:28.188,74419.642,-0.015,0.273,-0.962,0.035,-0.098,0.056,0.112,-0.036,-0.005,-0.015,-0.277,0.871
2024-10-15 13:54:28.198,74419.652,-0.015,0.272,-0.962,-0.001,-0.065,0.017,0.211,-0.008,-0.102,-0.016,-0.275,0.871
2024-10-15 13:54:28.209,74419.662,-0.016,0.269,-0.963,-0.022,-0.066,-0.038,0.222,0.022,-0.179,-0.016,-0.273,0.87
2024-10-15 13:54:28.219,74419.672,-0.016,0.267,-0.963,-0.066,-0.074,-0.099,0.199,0.035,-0.236,-0.016,-0.271,0.867
2024-10-15 13:54:28.229,74419.682,-0.016,0.265,-0.964,-0.131,-0.083,-0.125,0.241,0.09,-0.312,-0.016,-0.269,0.865
2024-10-15 13:54:28.239,74419.692,-0.015,0.263,-0.965,-0.166,-0.056,-0.119,0.329,0.191,-0.388,-0.016,-0.266,0.861
2024-10-15 13:54:28.249,74419.702,-0.014,0.259,-0.966,-0.182,-0.016,-0.113,0.396,0.278,-0.447,-0.015,-0.262,0.857
2024-10-15 13:54:28.258,74419.712,-0.013,0.255,-0.967,-0.199,-0.028,-0.1,0.373,0.297,-0.514,-0.013,-0.258,0.852
2024-10-15 13:54:28.269,74419.722,-0.011,0.252,-0.968,-0.189,-0.062,-0.066,0.209,0.265,-0.548,-0.012,-0.255,0.846
2024-10-15 13:54:28.278,74419.732,-0.011,0.251,-0.968,-0.155,-0.114,-0.018,0.014,0.159,-0.526,-0.011,-0.254,0.841
2024-10-15 13:54:28.288,74419.742,-0.01,0.252,-0.968,-0.13,-0.161,0.037,-0.124,0.123,-0.489,-0.011,-0.254,0.836
2024-10-15 13:54:28.297,74419.752,-0.011,0.253,-0.967,-0.108,-0.105,0.071,-0.258,0.075,-0.395,-0.011,-0.256,0.831
2024-10-15 13:54:28.308,74419.762,-0.011,0.256,-0.967,-0.112,-0.008,0.063,-0.318,0.016,-0.252,-0.011,-0.259,0.828
2024-10-15 13:54:28.318,74419.772,-0.011,0.259,-0.966,-0.099,0.063,0.047,-0.267,-0.003,-0.11,-0.012,-0.262,0.826
2024-10-15 13:54:28.328,74419.782,-0.012,0.261,-0.965,-0.046,0.159,0.029,-0.173,0.004,0.024,-0.012,-0.264,0.825
2024-10-15 13:54:28.338,74419.791,-0.011,0.263,-0.965,-0.005,0.254,-0.009,-0.095,0.059,0.156,-0.011,-0.266,0.826
2024-10-15 13:54:28.348,74419.801,-0.01,0.263,-0.965,0.021,0.32,-0.035,-0.037,0.047,0.262,-0.01,-0.266,0.828
2024-10-15 13:54:28.358,74419.811,-0.009,0.264,-0.965,0.063,0.297,-0.047,-0.057,0.04,0.314,-0.009,-0.267,0.831
2024-10-15 13:54:28.368,74419.821,-0.008,0.265,-0.964,0.108,0.244,-0.041,-0.173,-0.004,0.349,-0.008,-0.268,0.835
2024-10-15 13:54:28.378,74419.831,-0.007,0.267,-0.964,0.124,0.165,-0.036,-0.245,-0.085,0.388,-0.007,-0.27,0.839
2024-10-15 13:54:28.389,74419.841,-0.007,0.269,-0.963,0.132,0.065,0.02,-0.284,-0.152,0.417,-0.007,-0.273,0.843
2024-10-15 13:54:28.398,74419.851,-0.008,0.273,-0.962,0.14,0.015,0.095,-0.337,-0.19,0.461,-0.008,-0.276,0.847
2024-10-15 13:54:28.409,74419.861,-0.008,0.276,-0.961,0.134,-0.013,0.149,-0.341,-0.24,0.5,-0.009,-0.28,0.852
2024-10-15 13:54:28.418,74419.871,-0.009,0.279,-0.96,0.13,-0.045,0.18,-0.259,-0.247,0.482,-0.01,-0.283,0.857
2024-10-15 13:54:28.428,74419.881,-0.01,0.281,-0.96,0.143,-0.037,0.194,-0.082,-0.249,0.414,-0.011,-0.284,0.862
2024-10-15 13:54:28.438,74419.891,-0.011,0.281,-0.96,0.145,-0.033,0.145,0.091,-0.157,0.289,-0.012,-0.284,0.866
2024-10-15 13:54:28.448,74419.901,-0.012,0.279,-0.96,0.106,-0.063,0.045,0.124,-0.051,0.171,-0.012,-0.283,0.868
2024-10-15 13:54:28.458,74419.911,-0.012,0.279,-0.96,0.033,-0.13,-0.059,-0.008,-0.076,0.109,-0.012,-0.283,0.869
2024-10-15 13:54:28.468,74419.921,-0.013,0.279,-0.96,-0.033,-0.255,-0.121,-0.097,-0.097,0.042,-0.013,-0.283,0.87
2024-10-15 13:54:28.478,74419.931,-0.013,0.28,-0.96,-0.031,-0.269,-0.088,0.055,-0.06,-0.066,-0.014,-0.284,0.87
2024-10-15 13:54:28.488,74419.941,-0.014,0.278,-0.96,-0.017,-0.164,-0.042,0.263,0.07,-0.173,-0.014,-0.282,0.869
2024-10-15 13:54:28.498,74419.951,-0.013,0.275,-0.961,-0.052,-0.069,-0.054,0.303,0.12,-0.225,-0.014,-0.279,0.867
2024-10-15 13:54:28.508,74419.961,-0.013,0.273,-0.962,-0.105,-0.054,-0.075,0.221,0.09,-0.286,-0.014,-0.276,0.864
2024-10-15 13:54:28.518,74419.971,-0.013,0.271,-0.963,-0.125,-0.106,-0.065,0.218,0.112,-0.394,-0.014,-0.274,0.861
2024-10-15 13:54:28.528,74419.981,-0.013,0.268,-0.963,-0.108,-0.094,-0.04,0.288,0.202,-0.469,-0.013,-0.272,0.856
2024-10-15 13:54:28.538,74419.991,-0.012,0.265,-0.964,-0.131,-0.046,-0.05,0.289,0.254,-0.493,-0.012,-0.269,0.851
2024-10-15 13:54:28.547,74420.001,-0.01,0.263,-0.965,-0.168,-0.031,-0.06,0.216,0.242,-0.506,-0.011,-0.266,0.846
2024-10-15 13:54:28.558,74420.011,-0.009,0.261,-0.965,-0.163,-0.043,-0.026,0.107,0.241,-0.492,-0.01,-0.264,0.841
2024-10-15 13:54:28.568,74420.021,-0.009,0.261,-0.965,-0.129,-0.036,0.018,-0.035,0.166,-0.418,-0.009,-0.264,0.836
2024-10-15 13:54:28.578,74420.031,-0.009,0.262,-0.965,-0.11,-0.002,0.052,-0.165,0.059,-0.319,-0.009,-0.265,0.832
2024-10-15 13:54:28.588,74420.041,-0.009,0.264,-0.965,-0.091,0.038,0.071,-0.213,0.014,-0.191,-0.009,-0.267,0.83
2024-10-15 13:54:28.598,74420.051,-0.009,0.266,-0.964,-0.056,0.114,0.084,-0.188,-0.018,-0.047,-0.01,-0.269,0.828
2024-10-15 13:54:28.608,74420.061,-0.009,0.267,-0.964,-0.048,0.186,0.076,-0.108,-0.002,0.08,-0.01,-0.27,0.829
2024-10-15 13:54:28.618,74420.071,-0.009,0.268,-0.963,-0.027,0.257,0.049,-0.075,0.005,0.19,-0.009,-0.271,0.83
2024-10-15 13:54:28.628,74420.081,-0.008,0.268,-0.963,0.001,0.282,0.005,-0.041,0.027,0.282,-0.008,-0.272,0.833
2024-10-15 13:54:28.638,74420.091,-0.007,0.269,-0.963,0.019,0.225,-0.053,-0.101,0.043,0.34,-0.007,-0.272,0.836
2024-10-15 13:54:28.648,74420.101,-0.006,0.271,-0.963,0.052,0.143,-0.069,-0.273,0.04,0.384,-0.006,-0.274,0.839
2024-10-15 13:54:28.658,74420.111,-0.004,0.274,-0.962,0.075,0.085,-0.074,-0.508,-0.034,0.416,-0.005,-0.278,0.844
2024-10-15 13:54:28.668,74420.121,-0.004,0.28,-0.96,0.104,0.017,-0.02,-0.716,-0.178,0.51,-0.004,-0.284,0.848
2024-10-15 13:54:28.678,74420.131,-0.005,0.287,-0.958,0.132,-0.074,0.061,-0.701,-0.307,0.536,-0.005,-0.292,0.854
2024-10-15 13:54:28.688,74420.141,-0.007,0.293,-0.956,0.163,-0.042,0.148,-0.367,-0.318,0.508,-0.007,-0.297,0.859
2024-10-15 13:54:28.698,74420.151,-0.008,0.294,-0.956,0.157,0.056,0.181,0.098,-0.142,0.401,-0.008,-0.299,0.864
2024-10-15 13:54:28.708,74420.161,-0.007,0.292,-0.956,0.122,0.12,0.169,0.363,0.043,0.318,-0.007,-0.296,0.868
2024-10-15 13:54:28.717,74420.171,-0.006,0.289,-0.957,0.055,0.07,0.068,0.208,0.014,0.243,-0.006,-0.293,0.871
2024-10-15 13:54:28.728,74420.181,-0.006,0.288,-0.958,0.014,-0.133,-0.027,-0.061,-0.171,0.145,-0.006,-0.292,0.873
2024-10-15 13:54:28.738,74420.191,-0.007,0.289,-0.957,0.045,-0.297,-0.047,-0.075,-0.189,0.047,-0.008,-0.293,0.874
2024-10-15 13:54:28.748,74420.201,-0.009,0.289,-0.957,0.068,-0.304,-0.014,0.116,-0.047,-0.075,-0.009,-0.293,0.874
2024-10-15 13:54:28.758,74420.211,-0.009,0.287,-0.958,0.022,-0.168,0.014,0.23,0.04,-0.136,-0.009,-0.291,0.872
2024-10-15 13:54:28.768,74420.221,-0.009,0.285,-0.959,-0.05,-0.103,-0.003,0.293,0.034,-0.226,-0.009,-0.289,0.871
2024-10-15 13:54:28.778,74420.231,-0.009,0.282,-0.959,-0.052,-0.115,-0.029,0.319,0.094,-0.33,-0.01,-0.286,0.868
2024-10-15 13:54:28.788,74420.241,-0.009,0.279,-0.96,-0.04,-0.093,-0.064,0.256,0.164,-0.384,-0.009,-0.283,0.864
2024-10-15 13:54:28.798,74420.251,-0.009,0.277,-0.961,-0.082,-0.044,-0.092,0.139,0.139,-0.368,-0.009,-0.281,0.86
2024-10-15 13:54:28.807,74420.261,-0.008,0.276,-0.961,-0.13,-0.041,-0.085,0.155,0.117,-0.398,-0.009,-0.279,0.856
2024-10-15 13:54:28.817,74420.271,-0.008,0.274,-0.962,-0.123,-0.004,-0.076,0.208,0.204,-0.389,-0.008,-0.277,0.852
2024-10-15 13:54:28.828,74420.281,-0.007,0.272,-0.962,-0.131,0.074,-0.07,0.168,0.221,-0.318,-0.007,-0.275,0.848
2024-10-15 13:54:28.837,74420.291,-0.006,0.271,-0.963,-0.167,0.105,-0.034,0.101,0.166,-0.26,-0.006,-0.274,0.845
2024-10-15 13:54:28.847,74420.301,-0.005,0.27,-0.963,-0.147,0.08,-0.0,0.046,0.152,-0.199,-0.005,-0.273,0.843
2024-10-15 13:54:28.857,74420.311,-0.004,0.27,-0.963,-0.102,0.078,0.023,-0.039,0.079,-0.113,-0.004,-0.273,0.841
2024-10-15 13:54:28.868,74420.321,-0.004,0.27,-0.963,-0.102,0.063,0.042,-0.108,0.03,-0.056,-0.004,-0.274,0.841
2024-10-15 13:54:28.877,74420.331,-0.004,0.272,-0.962,-0.087,0.059,0.037,-0.157,-0.001,0.006,-0.004,-0.275,0.84
2024-10-15 13:54:28.887,74420.341,-0.004,0.274,-0.962,-0.073,0.051,0.018,-0.24,-0.027,0.082,-0.004,-0.277,0.841
2024-10-15 13:54:28.897,74420.351,-0.004,0.276,-0.961,-0.07,0.034,-0.007,-0.313,-0.033,0.15,-0.004,-0.28,0.842
2024-10-15 13:54:28.907,74420.361,-0.004,0.28,-0.96,-0.048,0.049,-0.025,-0.357,-0.06,0.207,-0.004,-0.283,0.844
2024-10-15 13:54:28.918,74420.371,-0.004,0.283,-0.959,-0.015,0.053,-0.011,-0.309,-0.114,0.223,-0.004,-0.287,0.846
2024-10-15 13:54:28.927,74420.38,-0.004,0.285,-0.959,0.043,0.053,0.008,-0.134,-0.129,0.206,-0.005,-0.289,0.848
2024-10-15 13:54:28.937,74420.39,-0.005,0.286,-0.958,0.1,0.086,0.033,-0.044,-0.05,0.197,-0.005,-0.29,0.85
2024-10-15 13:54:28.947,74420.4,-0.005,0.286,-0.958,0.122,0.113,0.083,-0.081,-0.079,0.228,-0.005,-0.29,0.853
2024-10-15 13:54:28.957,74420.41,-0.005,0.288,-0.958,0.125,0.042,0.099,-0.196,-0.135,0.263,-0.005,-0.292,0.855
2024-10-15 13:54:28.967,74420.42,-0.006,0.29,-0.957,0.13,-0.067,0.092,-0.335,-0.168,0.275,-0.006,-0.294,0.858
2024-10-15 13:54:28.977,74420.43,-0.007,0.294,-0.956,0.124,-0.112,0.074,-0.497,-0.204,0.309,-0.007,-0.299,0.861
2024-10-15 13:54:28.987,74420.44,-0.008,0.299,-0.954,0.095,-0.159,0.06,-0.5,-0.274,0.255,-0.008,-0.304,0.864
2024-10-15 13:54:28.997,74420.45,-0.01,0.303,-0.953,0.082,-0.159,0.061,-0.201,-0.271,0.105,-0.011,-0.307,0.866
2024-10-15 13:54:29.007,74420.46,-0.012,0.303,-0.953,0.077,-0.07,0.051,0.194,-0.098,-0.05,-0.012,-0.307,0.866
2024-10-15 13:54:29.017,74420.47,-0.012,0.3,-0.954,0.054,0.046,0.023,0.381,0.028,-0.123,-0.013,-0.304,0.865
2024-10-15 13:54:29.027,74420.48,-0.013,0.296,-0.955,-0.029,0.03,-0.036,0.308,0.02,-0.132,-0.013,-0.301,0.864
2024-10-15 13:54:29.037,74420.49,-0.013,0.294,-0.956,-0.058,-0.066,-0.087,0.255,-0.019,-0.169,-0.014,-0.298,0.862
2024-10-15 13:54:29.048,74420.5,-0.013,0.291,-0.957,-0.032,-0.133,-0.089,0.328,0.08,-0.25,-0.014,-0.295,0.86
2024-10-15 13:54:29.057,74420.51,-0.013,0.287,-0.958,-0.023,-0.087,-0.07,0.412,0.178,-0.295,-0.014,-0.291,0.857
2024-10-15 13:54:29.067,74420.52,-0.012,0.283,-0.959,-0.058,-0.044,-0.054,0.415,0.213,-0.352,-0.013,-0.287,0.854
2024-10-15 13:54:29.077,74420.53,-0.011,0.28,-0.96,-0.073,-0.064,-0.048,0.309,0.218,-0.419,-0.012,-0.283,0.85
2024-10-15 13:54:29.087,74420.54,-0.011,0.278,-0.961,-0.051,-0.09,-0.037,0.129,0.157,-0.44,-0.011,-0.281,0.846
2024-10-15 13:54:29.097,74420.55,-0.01,0.277,-0.961,-0.048,-0.102,-0.031,0.036,0.118,-0.412,-0.011,-0.28,0.841
2024-10-15 13:54:29.107,74420.56,-0.01,0.276,-0.961,-0.075,-0.071,-0.026,0.119,0.161,-0.411,-0.011,-0.28,0.837
2024-10-15 13:54:29.117,74420.57,-0.01,0.275,-0.961,-0.089,0.046,-0.013,0.163,0.211,-0.326,-0.01,-0.278,0.833
2024-10-15 13:54:29.127,74420.58,-0.008,0.273,-0.962,-0.117,0.152,-0.002,0.098,0.166,-0.197,-0.009,-0.277,0.83
2024-10-15 13:54:29.137,74420.59,-0.008,0.273,-0.962,-0.128,0.157,-0.002,0.017,0.102,-0.091,-0.008,-0.276,0.829
2024-10-15 13:54:29.147,74420.6,-0.007,0.273,-0.962,-0.094,0.159,0.013,-0.043,0.069,0.036,-0.007,-0.276,0.829
2024-10-15 13:54:29.157,74420.61,-0.006,0.273,-0.962,-0.07,0.152,0.04,-0.059,-0.01,0.133,-0.006,-0.277,0.83
2024-10-15 13:54:29.167,74420.62,-0.006,0.274,-0.962,-0.048,0.122,0.043,-0.113,-0.031,0.205,-0.006,-0.278,0.831
2024-10-15 13:54:29.177,74420.63,-0.006,0.276,-0.961,-0.02,0.124,0.059,-0.29,-0.12,0.282,-0.006,-0.28,0.834
2024-10-15 13:54:29.187,74420.64,-0.007,0.28,-0.96,0.008,0.063,0.083,-0.531,-0.223,0.367,-0.007,-0.284,0.837
2024-10-15 13:54:29.197,74420.65,-0.008,0.286,-0.958,0.053,-0.022,0.095,-0.677,-0.289,0.38,-0.008,-0.29,0.841
2024-10-15 13:54:29.207,74420.66,-0.01,0.292,-0.956,0.097,-0.02,0.097,-0.663,-0.298,0.41,-0.01,-0.297,0.845
2024-10-15 13:54:29.217,74420.67,-0.011,0.298,-0.954,0.095,-0.009,0.068,-0.496,-0.251,0.432,-0.012,-0.303,0.849
2024-10-15 13:54:29.227,74420.68,-0.012,0.302,-0.953,0.074,-0.019,0.042,-0.282,-0.142,0.388,-0.012,-0.307,0.854
2024-10-15 13:54:29.237,74420.69,-0.012,0.304,-0.953,0.059,-0.019,-0.004,-0.237,-0.065,0.347,-0.012,-0.309,0.858
2024-10-15 13:54:29.247,74420.7,-0.011,0.307,-0.952,0.037,-0.044,-0.05,-0.394,-0.055,0.324,-0.012,-0.312,0.861
2024-10-15 13:54:29.257,74420.71,-0.011,0.312,-0.95,0.026,-0.112,-0.055,-0.52,-0.169,0.288,-0.012,-0.317,0.864
2024-10-15 13:54:29.267,74420.72,-0.012,0.316,-0.949,0.047,-0.138,0.004,-0.456,-0.201,0.194,-0.013,-0.322,0.867
2024-10-15 13:54:29.277,74420.73,-0.014,0.319,-0.948,0.07,-0.075,0.071,-0.149,-0.157,0.085,-0.014,-0.325,0.868
2024-10-15 13:54:29.286,74420.74,-0.014,0.319,-0.947,0.073,0.025,0.092,0.109,-0.022,0.009,-0.015,-0.325,0.869
2024-10-15 13:54:29.297,74420.75,-0.014,0.318,-0.948,0.037,0.082,0.075,0.14,0.017,0.009,-0.015,-0.324,0.869
2024-10-15 13:54:29.307,74420.76,-0.014,0.317,-0.948,-0.002,0.026,0.017,0.019,-0.036,0.003,-0.015,-0.323,0.869
2024-10-15 13:54:29.317,74420.77,-0.015,0.318,-0.948,-0.016,-0.103,-0.063,-0.119,-0.033,-0.051,-0.016,-0.323,0.868
2024-10-15 13:54:29.327,74420.78,-0.015,0.32,-0.947,-0.022,-0.121,-0.104,-0.266,0.012,-0.063,-0.016,-0.325,0.868
2024-10-15 13:54:29.336,74420.79,-0.015,0.323,-0.946,-0.073,-0.096,-0.122,-0.346,0.065,-0.051,-0.016,-0.328,0.867
2024-10-15 13:54:29.347,74420.8,-0.014,0.326,-0.945,-0.127,-0.108,-0.134,-0.32,0.144,-0.042,-0.015,-0.332,0.867
2024-10-15 13:54:29.356,74420.81,-0.012,0.329,-0.944,-0.153,-0.116,-0.109,-0.281,0.321,-0.13,-0.013,-0.335,0.866
2024-10-15 13:54:29.366,74420.82,-0.009,0.332,-0.943,-0.148,-0.048,-0.085,-0.496,0.397,-0.137,-0.01,-0.338,0.864
2024-10-15 13:54:29.376,74420.83,-0.006,0.338,-0.941,-0.151,-0.031,-0.082,-0.879,0.382,-0.025,-0.006,-0.345,0.863
2024-10-15 13:54:29.387,74420.84,-0.002,0.348,-0.937,-0.176,-0.121,-0.05,-1.147,0.371,0.019,-0.003,-0.356,0.863
2024-10-15 13:54:29.397,74420.85,0.001,0.359,-0.933,-0.14,-0.116,-0.01,-1.146,0.364,0.037,0.001,-0.367,0.863
2024-10-15 13:54:29.406,74420.86,0.005,0.369,-0.93,-0.118,-0.026,-0.025,-0.94,0.374,0.044,0.005,-0.378,0.864
2024-10-15 13:54:29.417,74420.87,0.008,0.376,-0.927,-0.12,0.059,-0.051,-0.671,0.387,0.016,0.009,-0.386,0.864
2024-10-15 13:54:29.427,74420.88,0.012,0.381,-0.924,-0.098,0.116,-0.048,-0.493,0.34,0.026,0.013,-0.391,0.865
2024-10-15 13:54:29.436,74420.89,0.015,0.386,-0.923,-0.071,0.101,-0.006,-0.439,0.232,0.059,0.016,-0.396,0.865
2024-10-15 13:54:29.446,74420.9,0.016,0.39,-0.921,-0.032,0.055,0.049,-0.458,0.067,0.07,0.018,-0.4,0.866
2024-10-15 13:54:29.456,74420.91,0.017,0.394,-0.919,0.014,0.031,0.092,-0.496,-0.087,0.12,0.018,-0.405,0.867
2024-10-15 13:54:29.466,74420.92,0.016,0.399,-0.917,0.047,0.011,0.131,-0.508,-0.232,0.19,0.017,-0.41,0.869
2024-10-15 13:54:29.476,74420.93,0.014,0.403,-0.915,0.07,0.012,0.175,-0.468,-0.356,0.22,0.015,-0.415,0.871
2024-10-15 13:54:29.486,74420.94,0.011,0.407,-0.914,0.083,0.031,0.196,-0.234,-0.477,0.174,0.012,-0.419,0.873
2024-10-15 13:54:29.496,74420.95,0.007,0.407,-0.913,0.094,0.077,0.181,0.117,-0.485,0.099,0.008,-0.419,0.875
2024-10-15 13:54:29.506,74420.96,0.003,0.404,-0.915,0.105,0.123,0.146,0.465,-0.385,0.02,0.004,-0.416,0.876
2024-10-15 13:54:29.516,74420.97,-0.0,0.399,-0.917,0.1,0.16,0.118,0.719,-0.339,-0.05,-0.0,-0.41,0.875
2024-10-15 13:54:29.526,74420.979,-0.004,0.392,-0.92,0.08,0.121,0.096,0.804,-0.393,-0.097,-0.004,-0.403,0.875
2024-10-15 13:54:29.536,74420.989,-0.008,0.385,-0.923,0.085,0.017,0.066,0.794,-0.409,-0.133,-0.009,-0.395,0.873
2024-10-15 13:54:29.546,74420.999,-0.012,0.377,-0.926,0.101,-0.045,0.049,0.797,-0.344,-0.176,-0.013,-0.387,0.872
2024-10-15 13:54:29.556,74421.009,-0.015,0.371,-0.929,0.064,-0.08,0.024,0.496,-0.137,-0.17,-0.016,-0.38,0.87
2024-10-15 13:54:29.566,74421.019,-0.015,0.371,-0.929,0.007,-0.117,-0.003,-0.32,0.018,0.044,-0.017,-0.38,0.869
2024-10-15 13:54:29.576,74421.029,-0.016,0.374,-0.927,-0.036,-0.203,0.008,-0.273,-0.22,-0.063,-0.018,-0.383,0.869
2024-10-15 13:54:29.586,74421.039,-0.017,0.374,-0.927,-0.084,-0.233,-0.285,0.218,0.204,-0.174,-0.019,-0.383,0.868
2024-10-15 13:54:29.596,74421.049,-0.015,0.371,-0.929,-0.058,0.123,-0.417,0.41,0.407,-0.114,-0.016,-0.38,0.866
2024-10-15 13:54:29.606,74421.059,-0.012,0.366,-0.93,-0.165,0.276,-0.171,0.563,0.197,-0.082,-0.013,-0.375,0.866
2024-10-15 13:54:29.616,74421.069,-0.011,0.36,-0.933,-0.116,0.096,-0.046,0.778,0.213,-0.256,-0.012,-0.368,0.864
2024-10-15 13:54:29.626,74421.079,-0.009,0.353,-0.936,0.081,0.155,-0.019,0.624,0.342,-0.208,-0.01,-0.361,0.861
2024-10-15 13:54:29.636,74421.089,-0.007,0.35,-0.937,0.001,0.136,-0.011,0.096,0.135,0.041,-0.008,-0.357,0.86
2024-10-15 13:54:29.646,74421.099,-0.007,0.351,-0.936,-0.099,-0.091,0.02,-0.302,-0.112,0.161,-0.007,-0.358,0.862
2024-10-15 13:54:29.656,74421.109,-0.008,0.354,-0.935,0.021,-0.189,0.103,-0.394,-0.242,0.19,-0.009,-0.362,0.863
2024-10-15 13:54:29.666,74421.119,-0.01,0.358,-0.934,0.111,-0.079,0.144,-0.368,-0.23,0.265,-0.01,-0.366,0.866
2024-10-15 13:54:29.676,74421.129,-0.011,0.361,-0.933,0.072,0.044,0.121,-0.318,-0.253,0.373,-0.011,-0.369,0.869
2024-10-15 13:54:29.686,74421.139,-0.012,0.363,-0.932,0.026,0.059,0.103,-0.202,-0.295,0.404,-0.013,-0.372,0.873
2024-10-15 13:54:29.696,74421.149,-0.013,0.364,-0.931,0.066,0.077,0.059,0.086,-0.228,0.317,-0.014,-0.373,0.877
2024-10-15 13:54:29.706,74421.159,-0.013,0.362,-0.932,0.101,0.159,0.032,0.367,-0.08,0.257,-0.014,-0.37,0.88
2024-10-15 13:54:29.716,74421.169,-0.013,0.358,-0.934,0.067,0.17,-0.017,0.482,0.023,0.223,-0.014,-0.366,0.883
2024-10-15 13:54:29.726,74421.179,-0.012,0.353,-0.935,0.036,0.09,-0.077,0.483,0.028,0.168,-0.012,-0.361,0.885
2024-10-15 13:54:29.736,74421.189,-0.011,0.349,-0.937,0.031,-0.01,-0.088,0.405,0.025,0.135,-0.012,-0.357,0.887
2024-10-15 13:54:29.746,74421.199,-0.01,0.346,-0.938,0.048,-0.079,-0.039,0.336,0.006,0.118,-0.011,-0.353,0.888
2024-10-15 13:54:29.756,74421.209,-0.01,0.343,-0.939,0.064,-0.108,0.046,0.29,0.003,0.101,-0.01,-0.35,0.889
2024-10-15 13:54:29.766,74421.219,-0.01,0.34,-0.94,0.063,-0.119,0.113,0.354,-0.003,0.045,-0.01,-0.347,0.89
2024-10-15 13:54:29.776,74421.229,-0.009,0.336,-0.942,0.068,-0.107,0.152,0.491,0.029,-0.034,-0.01,-0.343,0.89
2024-10-15 13:54:29.786,74421.239,-0.009,0.331,-0.944,0.071,-0.1,0.151,0.56,0.056,-0.118,-0.01,-0.338,0.89
2024-10-15 13:54:29.796,74421.249,-0.009,0.326,-0.945,0.048,-0.091,0.096,0.505,0.036,-0.197,-0.01,-0.332,0.888
2024-10-15 13:54:29.806,74421.259,-0.01,0.322,-0.947,-0.0,-0.096,0.012,0.285,-0.016,-0.242,-0.011,-0.328,0.886
2024-10-15 13:54:29.816,74421.269,-0.011,0.321,-0.947,-0.057,-0.123,-0.058,0.084,-0.083,-0.218,-0.012,-0.326,0.883
2024-10-15 13:54:29.826,74421.279,-0.013,0.32,-0.947,-0.116,-0.109,-0.06,0.142,-0.064,-0.184,-0.014,-0.325,0.881
2024-10-15 13:54:29.836,74421.289,-0.014,0.317,-0.948,-0.145,-0.007,-0.024,0.336,0.052,-0.199,-0.014,-0.323,0.879
2024-10-15 13:54:29.846,74421.299,-0.013,0.314,-0.949,-0.143,0.147,-0.033,0.402,0.109,-0.135,-0.014,-0.319,0.877
2024-10-15 13:54:29.855,74421.309,-0.013,0.31,-0.951,-0.157,0.191,-0.05,0.362,0.04,-0.07,-0.014,-0.315,0.876
2024-10-15 13:54:29.866,74421.319,-0.013,0.307,-0.952,-0.139,0.155,-0.044,0.32,0.036,-0.013,-0.013,-0.312,0.876
2024-10-15 13:54:29.876,74421.329,-0.012,0.304,-0.953,-0.093,0.147,-0.029,0.265,0.069,0.069,-0.013,-0.309,0.876
2024-10-15 13:54:29.886,74421.339,-0.011,0.302,-0.953,-0.078,0.148,-0.012,0.2,0.046,0.13,-0.012,-0.307,0.877
2024-10-15 13:54:29.895,74421.349,-0.01,0.3,-0.954,-0.072,0.103,-0.012,0.156,0.049,0.151,-0.011,-0.305,0.879
2024-10-15 13:54:29.905,74421.359,-0.009,0.299,-0.954,-0.043,0.053,-0.038,-0.015,0.052,0.199,-0.01,-0.304,0.881
2024-10-15 13:54:29.916,74421.369,-0.009,0.301,-0.954,-0.031,-0.007,-0.062,-0.227,-0.024,0.244,-0.009,-0.305,0.883
2024-10-15 13:54:29.926,74421.379,-0.008,0.304,-0.953,-0.029,-0.083,-0.069,-0.389,-0.085,0.238,-0.009,-0.308,0.886
2024-10-15 13:54:29.936,74421.389,-0.009,0.308,-0.951,0.018,-0.101,-0.049,-0.425,-0.122,0.256,-0.009,-0.313,0.888
2024-10-15 13:54:29.946,74421.399,-0.009,0.311,-0.95,0.04,-0.092,-0.005,-0.271,-0.174,0.208,-0.01,-0.316,0.891
2024-10-15 13:54:29.955,74421.409,-0.01,0.312,-0.95,0.051,-0.033,0.065,-0.002,-0.135,0.127,-0.011,-0.318,0.892
2024-10-15 13:54:29.966,74421.419,-0.01,0.311,-0.95,0.074,0.045,0.093,0.239,0.045,0.074,-0.011,-0.316,0.893
2024-10-15 13:54:29.976,74421.429,-0.009,0.309,-0.951,0.052,0.042,0.069,0.263,0.133,0.012,-0.01,-0.314,0.894
2024-10-15 13:54:29.986,74421.439,-0.008,0.307,-0.952,0.016,-0.038,0.017,0.105,0.061,-0.041,-0.009,-0.312,0.894
2024-10-15 13:54:29.995,74421.449,-0.009,0.306,-0.952,0.03,-0.159,-0.028,0.007,-0.038,-0.109,-0.009,-0.311,0.893
2024-10-15 13:54:30.006,74421.459,-0.009,0.306,-0.952,0.063,-0.236,0.008,0.006,-0.015,-0.187,-0.01,-0.311,0.891
2024-10-15 13:54:30.015,74421.469,-0.01,0.306,-0.952,0.054,-0.178,0.064,-0.0,-0.022,-0.19,-0.011,-0.311,0.889
2024-10-15 13:54:30.025,74421.479,-0.011,0.306,-0.952,0.01,-0.123,0.118,0.061,-0.072,-0.192,-0.012,-0.311,0.887
2024-10-15 13:54:30.035,74421.489,-0.012,0.304,-0.952,0.01,-0.097,0.154,0.302,-0.032,-0.3,-0.013,-0.309,0.885
2024-10-15 13:54:30.045,74421.499,-0.013,0.3,-0.954,0.043,-0.007,0.108,0.57,0.142,-0.404,-0.014,-0.305,0.881
2024-10-15 13:54:30.056,74421.509,-0.012,0.295,-0.956,0.002,0.09,-0.022,0.52,0.238,-0.384,-0.013,-0.299,0.877
2024-10-15 13:54:30.066,74421.519,-0.011,0.291,-0.957,-0.092,0.077,-0.1,0.326,0.186,-0.358,-0.012,-0.295,0.873
2024-10-15 13:54:30.075,74421.529,-0.011,0.288,-0.958,-0.118,0.024,-0.079,0.254,0.153,-0.37,-0.011,-0.292,0.869
2024-10-15 13:54:30.085,74421.539,-0.01,0.285,-0.958,-0.069,0.021,-0.053,0.273,0.191,-0.375,-0.011,-0.289,0.866
2024-10-15 13:54:30.095,74421.549,-0.009,0.283,-0.959,-0.061,0.069,-0.041,0.253,0.207,-0.319,-0.01,-0.287,0.862
2024-10-15 13:54:30.105,74421.559,-0.008,0.281,-0.96,-0.097,0.089,-0.006,0.15,0.148,-0.253,-0.009,-0.285,0.859
2024-10-15 13:54:30.115,74421.568,-0.008,0.28,-0.96,-0.081,0.074,0.047,0.008,0.077,-0.147,-0.008,-0.284,0.857
2024-10-15 13:54:30.126,74421.578,-0.008,0.281,-0.96,-0.04,0.069,0.076,-0.147,-0.009,0.004,-0.008,-0.284,0.856
2024-10-15 13:54:30.135,74421.588,-0.008,0.282,-0.959,-0.026,0.076,0.08,-0.203,-0.076,0.132,-0.008,-0.286,0.857
2024-10-15 13:54:30.145,74421.598,-0.008,0.284,-0.959,-0.017,0.104,0.063,-0.13,-0.062,0.187,-0.009,-0.288,0.859
2024-10-15 13:54:30.155,74421.608,-0.008,0.285,-0.959,0.001,0.163,0.013,-0.018,-0.001,0.23,-0.008,-0.289,0.861
2024-10-15 13:54:30.165,74421.618,-0.007,0.285,-0.959,-0.008,0.172,-0.081,-0.037,0.086,0.289,-0.007,-0.289,0.863
2024-10-15 13:54:30.175,74421.628,-0.005,0.286,-0.958,-0.038,0.097,-0.152,-0.133,0.032,0.255,-0.006,-0.29,0.866
2024-10-15 13:54:30.185,74421.638,-0.005,0.288,-0.958,-0.028,0.03,-0.157,-0.268,-0.022,0.254,-0.005,-0.292,0.869
2024-10-15 13:54:30.195,74421.648,-0.004,0.291,-0.957,0.001,-0.034,-0.104,-0.368,-0.096,0.232,-0.005,-0.295,0.871
2024-10-15 13:54:30.205,74421.658,-0.005,0.295,-0.956,0.024,-0.069,0.013,-0.379,-0.124,0.259,-0.005,-0.299,0.874
2024-10-15 13:54:30.215,74421.668,-0.005,0.298,-0.955,0.021,-0.094,0.094,-0.302,-0.109,0.246,-0.005,-0.302,0.877
2024-10-15 13:54:30.225,74421.678,-0.005,0.3,-0.954,0.013,-0.071,0.146,-0.209,-0.084,0.256,-0.006,-0.305,0.879
2024-10-15 13:54:30.234,74421.688,-0.005,0.302,-0.953,0.042,-0.046,0.175,-0.084,-0.104,0.229,-0.006,-0.307,0.882
2024-10-15 13:54:30.245,74421.698,-0.006,0.302,-0.953,0.105,-0.03,0.174,0.006,-0.15,0.177,-0.006,-0.307,0.884
2024-10-15 13:54:30.255,74421.708,-0.007,0.302,-0.953,0.144,-0.045,0.113,0.01,-0.152,0.099,-0.007,-0.307,0.885
2024-10-15 13:54:30.265,74421.718,-0.008,0.302,-0.953,0.142,-0.07,0.037,-0.001,-0.134,0.005,-0.009,-0.307,0.886
2024-10-15 13:54:30.275,74421.728,-0.009,0.302,-0.953,0.079,-0.123,-0.057,-0.032,-0.052,-0.11,-0.01,-0.307,0.885
2024-10-15 13:54:30.285,74421.738,-0.01,0.303,-0.953,0.007,-0.15,-0.114,-0.177,-0.011,-0.148,-0.011,-0.308,0.884
2024-10-15 13:54:30.295,74421.748,-0.011,0.305,-0.952,-0.051,-0.187,-0.107,-0.35,-0.081,-0.138,-0.012,-0.31,0.882
2024-10-15 13:54:30.305,74421.758,-0.012,0.309,-0.951,-0.065,-0.218,-0.049,-0.266,-0.119,-0.189,-0.013,-0.314,0.881
2024-10-15 13:54:30.315,74421.768,-0.014,0.31,-0.951,-0.026,-0.15,0.025,-0.025,-0.023,-0.294,-0.015,-0.315,0.878
2024-10-15 13:54:30.325,74421.778,-0.014,0.309,-0.951,-0.014,-0.026,0.033,0.126,0.118,-0.332,-0.015,-0.314,0.875
2024-10-15 13:54:30.335,74421.788,-0.014,0.308,-0.951,-0.074,0.055,0.017,0.125,0.138,-0.368,-0.015,-0.313,0.871
2024-10-15 13:54:30.345,74421.798,-0.014,0.307,-0.952,-0.118,0.008,0.011,0.112,0.122,-0.451,-0.015,-0.312,0.867
2024-10-15 13:54:30.355,74421.808,-0.014,0.306,-0.952,-0.076,-0.05,-0.014,0.151,0.205,-0.528,-0.015,-0.31,0.862
2024-10-15 13:54:30.365,74421.818,-0.014,0.304,-0.953,-0.074,-0.035,-0.065,0.158,0.287,-0.517,-0.014,-0.309,0.856
2024-10-15 13:54:30.375,74421.828,-0.012,0.303,-0.953,-0.133,-0.002,-0.098,0.136,0.277,-0.46,-0.013,-0.307,0.851
2024-10-15 13:54:30.385,74421.838,-0.011,0.301,-0.953,-0.142,0.022,-0.08,0.092,0.266,-0.401,-0.012,-0.306,0.847
2024-10-15 13:54:30.395,74421.848,-0.01,0.301,-0.954,-0.094,0.069,-0.028,0.048,0.215,-0.277,-0.01,-0.305,0.843
2024-10-15 13:54:30.405,74421.858,-0.009,0.301,-0.954,-0.055,0.14,0.038,-0.054,0.157,-0.103,-0.009,-0.305,0.841
2024-10-15 13:54:30.415,74421.868,-0.007,0.302,-0.953,-0.037,0.175,0.079,-0.142,0.076,0.081,-0.008,-0.306,0.841
2024-10-15 13:54:30.425,74421.878,-0.007,0.303,-0.953,-0.015,0.216,0.09,-0.179,0.026,0.214,-0.007,-0.308,0.842
2024-10-15 13:54:30.435,74421.888,-0.006,0.304,-0.953,0.005,0.237,0.059,-0.073,0.014,0.296,-0.006,-0.309,0.845
2024-10-15 13:54:30.445,74421.898,-0.004,0.305,-0.952,0.034,0.234,0.032,0.043,0.072,0.33,-0.005,-0.309,0.848
2024-10-15 13:54:30.455,74421.908,-0.003,0.304,-0.953,0.037,0.193,-0.008,0.061,0.046,0.337,-0.003,-0.309,0.852
2024-10-15 13:54:30.464,74421.918,-0.001,0.304,-0.953,0.015,0.12,-0.032,-0.036,0.003,0.336,-0.001,-0.309,0.856
2024-10-15 13:54:30.474,74421.928,-0.001,0.305,-0.952,0.026,0.016,-0.021,-0.144,-0.061,0.318,-0.001,-0.31,0.859
2024-10-15 13:54:30.484,74421.938,-0.0,0.307,-0.952,0.059,-0.086,0.013,-0.24,-0.082,0.3,-0.0,-0.312,0.862
2024-10-15 13:54:30.495,74421.948,-0.0,0.309,-0.951,0.076,-0.151,0.041,-0.349,-0.089,0.284,-0.0,-0.314,0.865
2024-10-15 13:54:30.505,74421.958,-0.001,0.313,-0.95,0.086,-0.161,0.068,-0.482,-0.174,0.276,-0.001,-0.319,0.868
2024-10-15 13:54:30.515,74421.968,-0.002,0.318,-0.948,0.11,-0.188,0.075,-0.481,-0.265,0.266,-0.002,-0.324,0.871
2024-10-15 13:54:30.525,74421.978,-0.004,0.322,-0.947,0.137,-0.187,0.063,-0.265,-0.241,0.204,-0.004,-0.327,0.874
2024-10-15 13:54:30.534,74421.988,-0.005,0.323,-0.947,0.133,-0.109,0.037,0.061,-0.134,0.091,-0.005,-0.328,0.875
2024-10-15 13:54:30.544,74421.998,-0.005,0.321,-0.947,0.081,-0.029,-0.018,0.209,0.025,-0.009,-0.006,-0.327,0.875
2024-10-15 13:54:30.554,74422.008,-0.005,0.319,-0.948,0.007,-0.01,-0.092,0.139,0.037,-0.043,-0.005,-0.325,0.875
2024-10-15 13:54:30.564,74422.018,-0.005,0.319,-0.948,-0.046,-0.096,-0.127,-0.054,-0.025,-0.053,-0.005,-0.325,0.875
2024-10-15 13:54:30.574,74422.028,-0.006,0.32,-0.947,-0.031,-0.187,-0.07,-0.079,-0.062,-0.088,-0.006,-0.326,0.874
2024-10-15 13:54:30.585,74422.038,-0.006,0.319,-0.948,0.014,-0.146,0.027,0.2,0.034,-0.205,-0.007,-0.325,0.872
2024-10-15 13:54:30.594,74422.048,-0.006,0.316,-0.949,0.029,-0.016,0.039,0.37,0.168,-0.267,-0.006,-0.322,0.87
2024-10-15 13:54:30.604,74422.058,-0.006,0.313,-0.95,-0.019,0.05,-0.003,0.296,0.119,-0.267,-0.006,-0.319,0.867
2024-10-15 13:54:30.614,74422.068,-0.006,0.311,-0.95,-0.077,-0.031,-0.025,0.201,0.037,-0.32,-0.006,-0.316,0.864
2024-10-15 13:54:30.624,74422.078,-0.007,0.309,-0.951,-0.065,-0.082,-0.018,0.246,0.048,-0.374,-0.007,-0.314,0.86
2024-10-15 13:54:30.634,74422.088,-0.007,0.306,-0.952,-0.072,-0.014,-0.018,0.286,0.101,-0.361,-0.007,-0.311,0.857
2024-10-15 13:54:30.644,74422.098,-0.007,0.304,-0.953,-0.133,0.057,-0.031,0.298,0.097,-0.308,-0.007,-0.308,0.853
2024-10-15 13:54:30.654,74422.108,-0.007,0.301,-0.954,-0.174,0.092,-0.027,0.317,0.059,-0.289,-0.007,-0.305,0.85
2024-10-15 13:54:30.664,74422.118,-0.007,0.297,-0.955,-0.148,0.112,0.005,0.372,0.07,-0.267,-0.008,-0.302,0.847
2024-10-15 13:54:30.674,74422.128,-0.007,0.294,-0.956,-0.109,0.138,0.04,0.363,0.061,-0.194,-0.008,-0.298,0.845
2024-10-15 13:54:30.684,74422.138,-0.007,0.291,-0.957,-0.11,0.142,0.047,0.284,0.025,-0.128,-0.008,-0.295,0.843
2024-10-15 13:54:30.694,74422.148,-0.008,0.288,-0.957,-0.106,0.128,0.021,0.189,0.008,-0.049,-0.008,-0.293,0.842
2024-10-15 13:54:30.705,74422.158,-0.007,0.287,-0.958,-0.092,0.114,0.004,0.086,0.046,0.054,-0.008,-0.291,0.842
2024-10-15 13:54:30.714,74422.167,-0.006,0.287,-0.958,-0.08,0.1,-0.014,-0.021,0.049,0.149,-0.007,-0.291,0.843
2024-10-15 13:54:30.724,74422.177,-0.006,0.287,-0.958,-0.064,0.075,-0.028,-0.133,-0.007,0.222,-0.006,-0.292,0.845
2024-10-15 13:54:30.734,74422.187,-0.005,0.289,-0.957,-0.04,0.005,-0.039,-0.263,-0.051,0.268,-0.006,-0.293,0.848
2024-10-15 13:54:30.744,74422.197,-0.005,0.293,-0.956,0.018,-0.007,-0.027,-0.417,-0.091,0.308,-0.005,-0.297,0.851
2024-10-15 13:54:30.754,74422.207,-0.005,0.297,-0.955,0.059,-0.04,-0.01,-0.541,-0.142,0.379,-0.006,-0.302,0.854
2024-10-15 13:54:30.764,74422.217,-0.006,0.303,-0.953,0.087,-0.069,0.024,-0.582,-0.161,0.347,-0.006,-0.307,0.858
2024-10-15 13:54:30.775,74422.227,-0.006,0.308,-0.951,0.139,-0.01,0.074,-0.472,-0.227,0.32,-0.007,-0.313,0.862
2024-10-15 13:54:30.784,74422.237,-0.008,0.311,-0.95,0.175,0.015,0.073,-0.22,-0.231,0.284,-0.008,-0.316,0.865
2024-10-15 13:54:30.794,74422.247,-0.009,0.312,-0.95,0.172,0.007,0.061,0.142,-0.143,0.19,-0.009,-0.317,0.867
2024-10-15 13:54:30.804,74422.257,-0.009,0.309,-0.951,0.16,0.054,0.057,0.407,-0.007,0.101,-0.009,-0.314,0.869
2024-10-15 13:54:30.814,74422.267,-0.009,0.305,-0.952,0.12,0.051,0.02,0.452,0.051,0.029,-0.009,-0.31,0.87
2024-10-15 13:54:30.824,74422.277,-0.008,0.301,-0.954,0.077,-0.061,-0.042,0.319,0.005,-0.027,-0.009,-0.306,0.87
2024-10-15 13:54:30.835,74422.287,-0.009,0.299,-0.954,0.056,-0.187,-0.059,0.133,-0.047,-0.077,-0.009,-0.303,0.869
2024-10-15 13:54:30.844,74422.297,-0.009,0.298,-0.955,0.05,-0.25,-0.018,0.018,-0.054,-0.081,-0.01,-0.303,0.868
2024-10-15 13:54:30.854,74422.307,-0.01,0.298,-0.955,0.033,-0.211,0.049,0.046,-0.059,-0.089,-0.011,-0.302,0.867
2024-10-15 13:54:30.864,74422.317,-0.011,0.297,-0.955,0.023,-0.14,0.093,0.233,0.029,-0.159,-0.011,-0.301,0.866
2024-10-15 13:54:30.874,74422.327,-0.011,0.294,-0.956,0.036,-0.029,0.072,0.389,0.087,-0.194,-0.011,-0.298,0.864
2024-10-15 13:54:30.884,74422.337,-0.01,0.29,-0.957,-0.009,0.032,0.018,0.382,0.093,-0.227,-0.011,-0.294,0.862
2024-10-15 13:54:30.894,74422.347,-0.01,0.287,-0.958,-0.066,0.015,-0.038,0.267,0.089,-0.285,-0.01,-0.291,0.859
2024-10-15 13:54:30.904,74422.357,-0.01,0.285,-0.959,-0.084,0.0,-0.065,0.133,0.103,-0.315,-0.01,-0.289,0.856
2024-10-15 13:54:30.914,74422.367,-0.01,0.283,-0.959,-0.12,-0.007,-0.077,0.129,0.093,-0.297,-0.01,-0.287,0.853
2024-10-15 13:54:30.924,74422.377,-0.009,0.282,-0.959,-0.162,0.01,-0.038,0.113,0.125,-0.262,-0.01,-0.286,0.85
2024-10-15 13:54:30.934,74422.387,-0.009,0.282,-0.959,-0.164,0.068,0.007,-0.012,0.076,-0.178,-0.009,-0.286,0.848
2024-10-15 13:54:30.944,74422.397,-0.009,0.283,-0.959,-0.155,0.09,0.021,-0.193,-0.021,-0.035,-0.009,-0.287,0.847
2024-10-15 13:54:30.954,74422.407,-0.01,0.285,-0.959,-0.134,0.083,0.044,-0.232,-0.085,0.066,-0.01,-0.289,0.847
2024-10-15 13:54:30.964,74422.417,-0.01,0.287,-0.958,-0.101,0.123,0.067,-0.123,-0.045,0.131,-0.01,-0.291,0.848
2024-10-15 13:54:30.974,74422.427,-0.01,0.287,-0.958,-0.078,0.191,0.043,-0.005,0.004,0.204,-0.01,-0.291,0.85
2024-10-15 13:54:30.984,74422.437,-0.009,0.287,-0.958,-0.084,0.192,-0.007,-0.005,-0.006,0.263,-0.009,-0.291,0.852
2024-10-15 13:54:30.994,74422.447,-0.008,0.288,-0.958,-0.073,0.109,-0.031,-0.176,-0.047,0.315,-0.009,-0.292,0.855
2024-10-15 13:54:31.004,74422.457,-0.008,0.291,-0.957,-0.03,0.005,-0.03,-0.444,-0.099,0.34,-0.009,-0.295,0.858
2024-10-15 13:54:31.014,74422.467,-0.009,0.297,-0.955,0.012,-0.089,0.001,-0.72,-0.18,0.383,-0.009,-0.301,0.862
2024-10-15 13:54:31.024,74422.477,-0.009,0.305,-0.952,0.057,-0.138,0.042,-0.959,-0.22,0.415,-0.01,-0.31,0.866
2024-10-15 13:54:31.034,74422.487,-0.01,0.315,-0.949,0.103,-0.142,0.083,-1.052,-0.343,0.433,-0.011,-0.32,0.871
2024-10-15 13:54:31.044,74422.497,-0.013,0.323,-0.946,0.132,-0.14,0.105,-0.803,-0.495,0.395,-0.014,-0.329,0.875
2024-10-15 13:54:31.054,74422.507,-0.017,0.329,-0.944,0.151,-0.113,0.087,-0.228,-0.397,0.271,-0.017,-0.335,0.878
2024-10-15 13:54:31.064,74422.517,-0.018,0.327,-0.945,0.163,0.068,0.075,0.443,-0.017,0.055,-0.019,-0.334,0.88
2024-10-15 13:54:31.073,74422.527,-0.017,0.322,-0.947,0.084,0.219,0.01,0.613,0.192,-0.011,-0.018,-0.328,0.88
2024-10-15 13:54:31.083,74422.537,-0.016,0.318,-0.948,-0.021,0.116,-0.118,0.279,0.055,-0.023,-0.017,-0.323,0.88
2024-10-15 13:54:31.094,74422.547,-0.016,0.317,-0.948,-0.032,-0.151,-0.143,-0.086,-0.109,-0.052,-0.017,-0.322,0.88
2024-10-15 13:54:31.103,74422.557,-0.017,0.319,-0.948,0.059,-0.284,-0.044,-0.317,-0.133,-0.004,-0.018,-0.324,0.88
2024-10-15 13:54:31.113,74422.567,-0.019,0.322,-0.947,0.073,-0.224,0.084,-0.256,-0.093,-0.061,-0.02,-0.327,0.879
2024-10-15 13:54:31.123,74422.577,-0.019,0.324,-0.946,0.04,-0.114,0.085,-0.215,0.033,-0.158,-0.02,-0.33,0.878
2024-10-15 13:54:31.133,74422.587,-0.019,0.326,-0.945,0.002,-0.03,-0.012,-0.362,0.051,-0.156,-0.02,-0.332,0.876
2024-10-15 13:54:31.143,74422.597,-0.019,0.33,-0.944,-0.091,-0.053,-0.048,-0.497,0.038,-0.146,-0.021,-0.337,0.875
2024-10-15 13:54:31.153,74422.607,-0.019,0.335,-0.942,-0.124,-0.117,-0.06,-0.463,0.162,-0.197,-0.02,-0.341,0.873
2024-10-15 13:54:31.163,74422.617,-0.017,0.339,-0.941,-0.117,-0.061,-0.088,-0.445,0.348,-0.218,-0.019,-0.346,0.87
2024-10-15 13:54:31.174,74422.627,-0.014,0.344,-0.939,-0.162,-0.005,-0.098,-0.624,0.48,-0.215,-0.015,-0.351,0.868
2024-10-15 13:54:31.183,74422.637,-0.01,0.352,-0.936,-0.193,-0.057,-0.075,-1.085,0.49,-0.17,-0.011,-0.359,0.866
2024-10-15 13:54:31.193,74422.647,-0.006,0.364,-0.931,-0.173,-0.142,-0.03,-1.521,0.464,-0.08,-0.007,-0.373,0.864
2024-10-15 13:54:31.203,74422.657,-0.002,0.379,-0.925,-0.158,-0.178,-0.001,-1.648,0.424,-0.014,-0.003,-0.389,0.864
2024-10-15 13:54:31.213,74422.667,0.001,0.393,-0.919,-0.137,-0.109,-0.003,-1.485,0.402,0.023,0.002,-0.404,0.864
2024-10-15 13:54:31.224,74422.677,0.005,0.406,-0.914,-0.122,0.021,-0.012,-1.163,0.379,0.042,0.006,-0.418,0.864
2024-10-15 13:54:31.232,74422.687,0.008,0.414,-0.91,-0.114,0.126,0.0,-0.734,0.264,0.035,0.009,-0.427,0.865
2024-10-15 13:54:31.243,74422.697,0.01,0.419,-0.908,-0.085,0.171,0.013,-0.383,0.156,0.036,0.011,-0.433,0.865
2024-10-15 13:54:31.253,74422.707,0.011,0.421,-0.907,-0.026,0.18,0.039,-0.119,0.034,0.064,0.013,-0.435,0.866
2024-10-15 13:54:31.263,74422.717,0.011,0.422,-0.907,0.02,0.176,0.092,-0.005,-0.088,0.084,0.013,-0.436,0.867
2024-10-15 13:54:31.273,74422.727,0.01,0.422,-0.907,0.043,0.141,0.139,0.052,-0.222,0.092,0.011,-0.435,0.868
2024-10-15 13:54:31.284,74422.737,0.008,0.421,-0.907,0.063,0.12,0.172,0.13,-0.318,0.061,0.009,-0.434,0.868
2024-10-15 13:54:31.293,74422.747,0.005,0.419,-0.908,0.078,0.112,0.178,0.251,-0.367,0.028,0.006,-0.433,0.869
2024-10-15 13:54:31.303,74422.757,0.002,0.416,-0.909,0.076,0.085,0.152,0.383,-0.413,-0.003,0.002,-0.429,0.869
2024-10-15 13:54:31.314,74422.766,-0.002,0.412,-0.911,0.052,0.037,0.099,0.5,-0.453,-0.036,-0.002,-0.425,0.869
2024-10-15 13:54:31.324,74422.776,-0.007,0.407,-0.913,0.041,0.019,0.063,0.612,-0.481,-0.104,-0.007,-0.419,0.868
2024-10-15 13:54:31.333,74422.786,-0.012,0.401,-0.916,0.039,0.012,0.055,0.68,-0.461,-0.136,-0.013,-0.413,0.867
2024-10-15 13:54:31.343,74422.796,-0.016,0.395,-0.918,0.026,-0.021,0.052,0.627,-0.459,-0.142,-0.018,-0.406,0.865
2024-10-15 13:54:31.354,74422.806,-0.019,0.392,-0.92,0.002,-0.064,0.053,0.076,-0.14,0.031,-0.021,-0.403,0.865
2024-10-15 13:54:31.363,74422.816,-0.021,0.392,-0.92,-0.017,-0.114,0.084,0.0,-0.331,0.001,-0.023,-0.403,0.865
2024-10-15 13:54:31.373,74422.826,-0.024,0.389,-0.921,-0.059,-0.165,-0.132,0.595,-0.154,-0.147,-0.026,-0.4,0.864
2024-10-15 13:54:31.383,74422.836,-0.023,0.382,-0.924,-0.041,0.068,-0.443,0.908,0.3,-0.076,-0.025,-0.392,0.863
2024-10-15 13:54:31.393,74422.846,-0.021,0.374,-0.927,-0.098,0.376,-0.275,0.783,0.169,0.073,-0.023,-0.383,0.863
2024-10-15 13:54:31.403,74422.856,-0.02,0.368,-0.93,-0.153,0.195,-0.082,0.643,-0.064,0.087,-0.022,-0.377,0.865
2024-10-15 13:54:31.413,74422.866,-0.02,0.362,-0.932,0.082,0.078,-0.011,0.532,-0.039,0.161,-0.022,-0.371,0.866
2024-10-15 13:54:31.423,74422.876,-0.02,0.359,-0.933,0.149,0.102,0.021,0.249,-0.044,0.335,-0.021,-0.367,0.869
2024-10-15 13:54:31.433,74422.886,-0.02,0.357,-0.934,0.038,0.08,0.076,0.004,-0.26,0.395,-0.021,-0.366,0.873
2024-10-15 13:54:31.443,74422.896,-0.021,0.358,-0.933,0.08,0.007,0.06,-0.119,-0.285,0.428,-0.023,-0.366,0.877
2024-10-15 13:54:31.453,74422.906,-0.022,0.36,-0.933,0.173,-0.019,0.091,-0.155,-0.322,0.446,-0.024,-0.368,0.882
2024-10-15 13:54:31.463,74422.916,-0.024,0.361,-0.932,0.123,-0.015,0.048,0.002,-0.313,0.418,-0.025,-0.369,0.887
2024-10-15 13:54:31.473,74422.926,-0.025,0.359,-0.933,0.065,0.013,0.015,0.251,-0.18,0.281,-0.027,-0.368,0.89
2024-10-15 13:54:31.484,74422.936,-0.025,0.356,-0.934,0.051,0.052,-0.01,0.503,-0.08,0.2,-0.027,-0.364,0.893
2024-10-15 13:54:31.493,74422.946,-0.025,0.35,-0.936,0.031,0.019,-0.034,0.768,0.019,0.068,-0.027,-0.358,0.895
2024-10-15 13:54:31.503,74422.956,-0.024,0.342,-0.939,0.025,-0.069,-0.024,0.866,0.172,-0.079,-0.026,-0.349,0.895
2024-10-15 13:54:31.513,74422.966,-0.023,0.335,-0.942,0.046,-0.109,-0.018,0.603,0.157,-0.119,-0.024,-0.342,0.894
2024-10-15 13:54:31.523,74422.976,-0.022,0.332,-0.943,0.049,-0.197,0.019,0.151,-0.001,-0.114,-0.024,-0.338,0.893
2024-10-15 13:54:31.533,74422.986,-0.024,0.332,-0.943,0.071,-0.329,0.083,-0.156,-0.138,-0.122,-0.025,-0.338,0.891
2024-10-15 13:54:31.543,74422.996,-0.025,0.333,-0.942,0.104,-0.352,0.134,-0.154,-0.149,-0.162,-0.027,-0.34,0.89
2024-10-15 13:54:31.553,74423.006,-0.027,0.334,-0.942,0.078,-0.224,0.168,0.05,-0.061,-0.218,-0.029,-0.34,0.888
2024-10-15 13:54:31.563,74423.016,-0.028,0.332,-0.943,0.016,-0.052,0.124,0.357,0.019,-0.242,-0.03,-0.338,0.886
2024-10-15 13:54:31.573,74423.026,-0.028,0.328,-0.944,-0.052,0.081,0.026,0.501,0.109,-0.25,-0.03,-0.334,0.883
2024-10-15 13:54:31.583,74423.036,-0.028,0.323,-0.946,-0.114,0.152,-0.081,0.447,0.126,-0.231,-0.029,-0.329,0.881
2024-10-15 13:54:31.593,74423.046,-0.027,0.319,-0.947,-0.151,0.173,-0.123,0.344,0.061,-0.159,-0.029,-0.325,0.879
2024-10-15 13:54:31.603,74423.056,-0.027,0.316,-0.948,-0.169,0.111,-0.105,0.268,0.036,-0.086,-0.029,-0.322,0.877
2024-10-15 13:54:31.613,74423.066,-0.027,0.314,-0.949,-0.148,0.097,-0.071,0.169,0.019,-0.007,-0.029,-0.32,0.877
2024-10-15 13:54:31.623,74423.076,-0.027,0.313,-0.949,-0.131,0.119,-0.006,0.059,-0.082,0.082,-0.029,-0.318,0.877
2024-10-15 13:54:31.632,74423.086,-0.028,0.313,-0.949,-0.106,0.102,0.075,0.044,-0.132,0.127,-0.03,-0.318,0.879
2024-10-15 13:54:31.642,74423.096,-0.029,0.312,-0.95,-0.053,0.092,0.096,0.062,-0.122,0.175,-0.03,-0.318,0.88
2024-10-15 13:54:31.652,74423.106,-0.029,0.312,-0.95,-0.036,0.088,0.069,0.066,-0.096,0.225,-0.031,-0.317,0.882
2024-10-15 13:54:31.663,74423.116,-0.029,0.311,-0.95,-0.038,0.071,0.019,-0.004,-0.097,0.253,-0.031,-0.317,0.885
2024-10-15 13:54:31.673,74423.126,-0.03,0.312,-0.95,-0.021,0.036,-0.052,-0.045,-0.112,0.268,-0.031,-0.317,0.888
2024-10-15 13:54:31.683,74423.136,-0.029,0.313,-0.949,-0.007,0.003,-0.103,-0.132,-0.049,0.312,-0.031,-0.318,0.891
2024-10-15 13:54:31.693,74423.146,-0.029,0.314,-0.949,0.004,-0.027,-0.083,-0.152,-0.122,0.314,-0.031,-0.32,0.894
2024-10-15 13:54:31.703,74423.156,-0.03,0.315,-0.949,0.041,-0.03,-0.081,0.031,-0.171,0.313,-0.031,-0.32,0.897
2024-10-15 13:54:31.713,74423.166,-0.031,0.314,-0.949,0.087,0.021,-0.011,0.275,-0.215,0.314,-0.032,-0.319,0.9
2024-10-15 13:54:31.723,74423.176,-0.031,0.31,-0.95,0.111,0.062,0.058,0.561,-0.142,0.279,-0.033,-0.315,0.904
2024-10-15 13:54:31.733,74423.186,-0.032,0.303,-0.952,0.134,0.127,0.118,0.771,-0.156,0.262,-0.034,-0.308,0.907
2024-10-15 13:54:31.743,74423.196,-0.032,0.296,-0.955,0.102,0.097,0.104,0.712,-0.119,0.222,-0.034,-0.301,0.91
2024-10-15 13:54:31.752,74423.206,-0.033,0.29,-0.956,0.091,0.013,0.06,0.569,-0.146,0.165,-0.035,-0.295,0.912
2024-10-15 13:54:31.763,74423.216,-0.034,0.286,-0.958,0.082,-0.099,0.026,0.397,-0.116,0.069,-0.036,-0.29,0.913
2024-10-15 13:54:31.773,74423.226,-0.035,0.283,-0.959,0.051,-0.202,-0.022,0.195,-0.075,-0.006,-0.036,-0.287,0.914
2024-10-15 13:54:31.782,74423.236,-0.036,0.282,-0.959,0.012,-0.241,-0.053,0.074,-0.105,-0.056,-0.037,-0.285,0.913
2024-10-15 13:54:31.792,74423.246,-0.037,0.281,-0.959,-0.022,-0.268,-0.029,0.053,-0.127,-0.137,-0.039,-0.285,0.912
2024-10-15 13:54:31.803,74423.256,-0.039,0.28,-0.959,-0.007,-0.217,0.017,0.188,-0.032,-0.223,-0.04,-0.284,0.911
2024-10-15 13:54:31.812,74423.266,-0.039,0.277,-0.96,0.006,-0.082,0.047,0.378,0.073,-0.269,-0.041,-0.281,0.908
2024-10-15 13:54:31.823,74423.276,-0.039,0.273,-0.961,-0.028,0.009,0.029,0.46,0.117,-0.321,-0.041,-0.276,0.905
2024-10-15 13:54:31.832,74423.286,-0.039,0.268,-0.963,-0.063,0.029,-0.013,0.436,0.119,-0.384,-0.04,-0.272,0.902
2024-10-15 13:54:31.842,74423.296,-0.039,0.264,-0.964,-0.08,0.022,-0.013,0.357,0.135,-0.409,-0.04,-0.268,0.898
2024-10-15 13:54:31.853,74423.306,-0.038,0.262,-0.964,-0.104,0.006,-0.011,0.208,0.138,-0.383,-0.04,-0.265,0.894
2024-10-15 13:54:31.863,74423.316,-0.038,0.26,-0.965,-0.135,-0.009,-0.022,0.101,0.072,-0.334,-0.04,-0.263,0.89
2024-10-15 13:54:31.872,74423.326,-0.039,0.259,-0.965,-0.141,-0.019,0.01,0.026,0.017,-0.291,-0.04,-0.262,0.887
2024-10-15 13:54:31.882,74423.336,-0.039,0.259,-0.965,-0.112,0.004,0.052,-0.061,0.04,-0.23,-0.041,-0.262,0.884
2024-10-15 13:54:31.892,74423.346,-0.039,0.26,-0.965,-0.095,0.067,0.082,-0.113,0.024,-0.123,-0.041,-0.263,0.883
2024-10-15 13:54:31.902,74423.355,-0.039,0.261,-0.964,-0.107,0.095,0.067,-0.122,0.03,-0.07,-0.041,-0.264,0.881
2024-10-15 13:54:31.912,74423.365,-0.039,0.262,-0.964,-0.095,0.109,0.02,-0.126,0.064,0.002,-0.04,-0.265,0.881
2024-10-15 13:54:31.922,74423.375,-0.038,0.264,-0.964,-0.075,0.147,-0.012,-0.129,0.076,0.058,-0.04,-0.267,0.881
2024-10-15 13:54:31.932,74423.385,-0.037,0.265,-0.964,-0.059,0.152,-0.045,-0.164,0.08,0.188,-0.039,-0.268,0.883
2024-10-15 13:54:31.942,74423.395,-0.036,0.267,-0.963,-0.044,0.115,-0.076,-0.265,0.012,0.28,-0.037,-0.27,0.885
2024-10-15 13:54:31.952,74423.405,-0.035,0.27,-0.962,-0.021,0.06,-0.083,-0.36,-0.014,0.301,-0.037,-0.274,0.888
2024-10-15 13:54:31.962,74423.415,-0.035,0.274,-0.961,0.017,0.048,-0.041,-0.409,-0.098,0.334,-0.036,-0.278,0.891
2024-10-15 13:54:31.972,74423.425,-0.035,0.278,-0.96,0.045,0.005,0.004,-0.356,-0.123,0.345,-0.037,-0.282,0.894
2024-10-15 13:54:31.983,74423.435,-0.036,0.281,-0.959,0.07,0.008,0.068,-0.165,-0.155,0.296,-0.037,-0.284,0.898
2024-10-15 13:54:31.993,74423.445,-0.036,0.281,-0.959,0.102,0.035,0.112,0.07,-0.106,0.202,-0.038,-0.285,0.9
2024-10-15 13:54:32.002,74423.455,-0.036,0.28,-0.959,0.14,0.028,0.088,0.219,0.015,0.129,-0.038,-0.284,0.902
2024-10-15 13:54:32.012,74423.465,-0.036,0.278,-0.96,0.146,-0.013,0.032,0.215,0.079,0.048,-0.037,-0.281,0.903
2024-10-15 13:54:32.022,74423.475,-0.035,0.276,-0.96,0.119,-0.111,-0.036,0.051,0.071,-0.041,-0.036,-0.28,0.903
2024-10-15 13:54:32.032,74423.485,-0.035,0.277,-0.96,0.101,-0.219,-0.084,-0.134,0.045,-0.102,-0.036,-0.28,0.902
2024-10-15 13:54:32.042,74423.495,-0.034,0.279,-0.96,0.085,-0.284,-0.061,-0.364,0.065,-0.121,-0.036,-0.283,0.901
2024-10-15 13:54:32.052,74423.505,-0.034,0.284,-0.958,0.057,-0.293,0.003,-0.646,-0.005,-0.048,-0.036,-0.288,0.9
2024-10-15 13:54:32.061,74423.515,-0.035,0.29,-0.956,0.036,-0.241,0.091,-0.658,-0.093,-0.042,-0.036,-0.295,0.899
2024-10-15 13:54:32.072,74423.525,-0.036,0.295,-0.955,0.046,-0.164,0.157,-0.314,-0.027,-0.129,-0.037,-0.3,0.898
2024-10-15 13:54:32.082,74423.535,-0.036,0.296,-0.955,0.047,0.028,0.127,0.083,0.102,-0.197,-0.038,-0.3,0.896
2024-10-15 13:54:32.092,74423.545,-0.035,0.294,-0.955,-0.036,0.179,0.028,0.198,0.204,-0.224,-0.037,-0.299,0.894
2024-10-15 13:54:32.102,74423.555,-0.034,0.293,-0.955,-0.127,0.166,-0.079,0.038,0.153,-0.198,-0.035,-0.297,0.892
2024-10-15 13:54:32.113,74423.565,-0.033,0.293,-0.955,-0.169,0.047,-0.114,-0.045,0.09,-0.205,-0.035,-0.298,0.89
2024-10-15 13:54:32.122,74423.575,-0.033,0.293,-0.956,-0.168,-0.04,-0.091,0.076,0.191,-0.274,-0.034,-0.297,0.888
2024-10-15 13:54:32.132,74423.585,-0.031,0.292,-0.956,-0.161,0.011,-0.055,0.164,0.292,-0.321,-0.033,-0.296,0.884
2024-10-15 13:54:32.142,74423.595,-0.029,0.29,-0.957,-0.193,0.051,-0.033,0.186,0.284,-0.382,-0.031,-0.294,0.881
2024-10-15 13:54:32.152,74423.605,-0.028,0.288,-0.957,-0.193,-0.016,-0.015,0.104,0.245,-0.439,-0.029,-0.292,0.877
2024-10-15 13:54:32.162,74423.615,-0.027,0.288,-0.957,-0.14,-0.095,0.03,-0.085,0.196,-0.448,-0.028,-0.292,0.872
2024-10-15 13:54:32.172,74423.625,-0.027,0.29,-0.957,-0.114,-0.121,0.068,-0.297,0.096,-0.401,-0.028,-0.294,0.867
2024-10-15 13:54:32.182,74423.635,-0.027,0.293,-0.956,-0.111,-0.126,0.083,-0.446,0.036,-0.342,-0.029,-0.298,0.863
2024-10-15 13:54:32.192,74423.645,-0.028,0.298,-0.954,-0.081,-0.08,0.08,-0.473,0.021,-0.24,-0.029,-0.302,0.86
2024-10-15 13:54:32.202,74423.655,-0.028,0.302,-0.953,-0.06,0.024,0.067,-0.419,0.004,-0.098,-0.03,-0.307,0.858
2024-10-15 13:54:32.212,74423.665,-0.029,0.305,-0.952,-0.041,0.139,0.035,-0.32,-0.009,0.028,-0.03,-0.31,0.858
2024-10-15 13:54:32.222,74423.675,-0.028,0.308,-0.951,0.011,0.235,-0.001,-0.202,0.012,0.147,-0.03,-0.313,0.859
2024-10-15 13:54:32.232,74423.685,-0.027,0.309,-0.951,0.059,0.292,-0.041,-0.081,0.04,0.249,-0.029,-0.314,0.861
2024-10-15 13:54:32.243,74423.695,-0.026,0.31,-0.95,0.089,0.283,-0.065,-0.098,0.02,0.307,-0.028,-0.315,0.864
2024-10-15 13:54:32.252,74423.705,-0.025,0.312,-0.95,0.117,0.226,-0.068,-0.244,-0.053,0.365,-0.027,-0.317,0.867
2024-10-15 13:54:32.262,74423.715,-0.025,0.315,-0.949,0.14,0.156,-0.015,-0.345,-0.207,0.405,-0.027,-0.32,0.871
2024-10-15 13:54:32.272,74423.725,-0.026,0.318,-0.948,0.153,0.036,0.063,-0.312,-0.261,0.414,-0.028,-0.324,0.875
2024-10-15 13:54:32.282,74423.735,-0.027,0.32,-0.947,0.173,-0.028,0.122,-0.083,-0.216,0.383,-0.029,-0.326,0.88
2024-10-15 13:54:32.292,74423.745,-0.028,0.32,-0.947,0.168,-0.002,0.168,0.043,-0.107,0.31,-0.029,-0.326,0.883
2024-10-15 13:54:32.302,74423.755,-0.028,0.32,-0.947,0.139,-0.033,0.129,-0.061,-0.124,0.246,-0.029,-0.326,0.886
2024-10-15 13:54:32.312,74423.765,-0.028,0.322,-0.946,0.114,-0.162,0.031,-0.286,-0.141,0.152,-0.03,-0.328,0.888
2024-10-15 13:54:32.322,74423.775,-0.029,0.326,-0.945,0.095,-0.303,-0.04,-0.511,-0.16,0.086,-0.031,-0.332,0.889
2024-10-15 13:54:32.332,74423.785,-0.031,0.331,-0.943,0.06,-0.379,-0.079,-0.624,-0.167,0.048,-0.033,-0.338,0.89
2024-10-15 13:54:32.342,74423.795,-0.032,0.337,-0.941,0.018,-0.344,-0.092,-0.52,-0.175,-0.001,-0.034,-0.344,0.89
2024-10-15 13:54:32.351,74423.805,-0.034,0.34,-0.94,-0.006,-0.203,-0.073,-0.198,-0.124,-0.104,-0.036,-0.347,0.889
2024-10-15 13:54:32.362,74423.815,-0.035,0.341,-0.94,-0.03,-0.021,-0.068,0.082,0.028,-0.179,-0.037,-0.348,0.888
2024-10-15 13:54:32.372,74423.825,-0.035,0.339,-0.94,-0.078,0.106,-0.087,0.193,0.074,-0.2,-0.037,-0.346,0.886
2024-10-15 13:54:32.381,74423.835,-0.035,0.337,-0.941,-0.135,0.1,-0.083,0.206,0.08,-0.236,-0.037,-0.344,0.883
2024-10-15 13:54:32.391,74423.845,-0.035,0.335,-0.942,-0.138,0.027,-0.066,0.285,0.149,-0.319,-0.037,-0.342,0.881
2024-10-15 13:54:32.402,74423.855,-0.034,0.332,-0.943,-0.121,0.004,-0.067,0.38,0.241,-0.391,-0.036,-0.338,0.877
2024-10-15 13:54:32.412,74423.865,-0.033,0.328,-0.944,-0.145,-0.001,-0.07,0.401,0.293,-0.466,-0.035,-0.334,0.873
2024-10-15 13:54:32.429,74423.875,-0.032,0.325,-0.945,-0.16,-0.03,-0.057,0.249,0.269,-0.517,-0.034,-0.33,0.867
2024-10-15 13:54:32.432,74423.885,-0.031,0.323,-0.946,-0.133,-0.077,-0.03,0.062,0.189,-0.496,-0.033,-0.329,0.862
2024-10-15 13:54:32.442,74423.895,-0.031,0.322,-0.946,-0.117,-0.085,0.011,0.016,0.14,-0.466,-0.033,-0.328,0.857
2024-10-15 13:54:32.451,74423.905,-0.031,0.322,-0.946,-0.103,-0.008,0.054,0.003,0.184,-0.372,-0.033,-0.328,0.853
2024-10-15 13:54:32.461,74423.915,-0.031,0.322,-0.946,-0.096,0.109,0.082,-0.056,0.09,-0.194,-0.033,-0.328,0.85
2024-10-15 13:54:32.471,74423.925,-0.031,0.323,-0.946,-0.094,0.153,0.104,-0.102,-0.046,-0.024,-0.033,-0.329,0.848
2024-10-15 13:54:32.481,74423.935,-0.032,0.324,-0.945,-0.029,0.172,0.124,-0.111,-0.145,0.135,-0.034,-0.33,0.849
2024-10-15 13:54:32.491,74423.945,-0.033,0.325,-0.945,0.044,0.251,0.127,-0.072,-0.145,0.28,-0.034,-0.331,0.851
2024-10-15 13:54:32.502,74423.954,-0.033,0.326,-0.945,0.043,0.314,0.082,-0.028,-0.138,0.381,-0.035,-0.332,0.855
2024-10-15 13:54:32.511,74423.964,-0.033,0.326,-0.945,0.046,0.3,0.016,-0.091,-0.148,0.45,-0.035,-0.333,0.859
2024-10-15 13:54:32.521,74423.974,-0.033,0.328,-0.944,0.053,0.216,-0.035,-0.281,-0.223,0.516,-0.035,-0.334,0.864
2024-10-15 13:54:32.531,74423.984,-0.034,0.332,-0.943,0.054,0.108,-0.024,-0.422,-0.358,0.576,-0.036,-0.338,0.87
2024-10-15 13:54:32.541,74423.994,-0.036,0.336,-0.941,0.079,-0.012,0.033,-0.334,-0.393,0.563,-0.038,-0.342,0.876
2024-10-15 13:54:32.551,74424.004,-0.037,0.338,-0.94,0.138,-0.027,0.133,-0.12,-0.301,0.521,-0.039,-0.345,0.881
2024-10-15 13:54:32.562,74424.014,-0.038,0.338,-0.94,0.15,-0.003,0.151,0.067,-0.206,0.429,-0.04,-0.345,0.886
2024-10-15 13:54:32.571,74424.024,-0.038,0.337,-0.941,0.122,-0.063,0.088,0.176,-0.187,0.28,-0.041,-0.344,0.89
2024-10-15 13:54:32.581,74424.034,-0.039,0.336,-0.941,0.098,-0.196,-0.033,0.247,-0.086,0.074,-0.041,-0.342,0.892
2024-10-15 13:54:32.591,74424.044,-0.039,0.333,-0.942,0.084,-0.27,-0.113,0.275,0.057,-0.098,-0.042,-0.339,0.892
2024-10-15 13:54:32.601,74424.054,-0.039,0.331,-0.943,0.027,-0.302,-0.153,0.137,0.094,-0.161,-0.041,-0.337,0.891
2024-10-15 13:54:32.611,74424.064,-0.039,0.33,-0.943,-0.026,-0.359,-0.128,0.019,0.04,-0.231,-0.041,-0.336,0.889
2024-10-15 13:54:32.621,74424.074,-0.039,0.329,-0.943,-0.012,-0.348,-0.019,0.166,0.152,-0.336,-0.041,-0.336,0.886
2024-10-15 13:54:32.631,74424.084,-0.038,0.326,-0.945,0.035,-0.206,0.067,0.47,0.345,-0.501,-0.04,-0.332,0.882
2024-10-15 13:54:32.641,74424.094,-0.036,0.321,-0.946,0.02,-0.018,0.025,0.431,0.42,-0.549,-0.038,-0.327,0.876
2024-10-15 13:54:32.651,74424.104,-0.034,0.319,-0.947,-0.069,0.02,-0.055,0.039,0.278,-0.514,-0.036,-0.325,0.871
2024-10-15 13:54:32.661,74424.114,-0.034,0.32,-0.947,-0.103,-0.06,-0.037,-0.261,0.069,-0.43,-0.036,-0.326,0.866
2024-10-15 13:54:32.671,74424.124,-0.035,0.323,-0.946,-0.081,-0.069,0.057,-0.274,0.008,-0.304,-0.037,-0.328,0.862
2024-10-15 13:54:32.681,74424.134,-0.036,0.325,-0.945,-0.071,0.091,0.129,-0.192,0.002,-0.125,-0.038,-0.331,0.859
2024-10-15 13:54:32.691,74424.144,-0.036,0.326,-0.945,-0.106,0.277,0.127,-0.191,-0.147,0.157,-0.038,-0.332,0.859
2024-10-15 13:54:32.701,74424.154,-0.037,0.328,-0.944,-0.119,0.327,0.137,-0.097,-0.249,0.276,-0.04,-0.334,0.862
2024-10-15 13:54:32.711,74424.164,-0.038,0.328,-0.944,-0.047,0.351,0.151,0.162,-0.131,0.297,-0.041,-0.334,0.865
2024-10-15 13:54:32.721,74424.174,-0.038,0.326,-0.945,-0.01,0.366,0.086,0.262,-0.03,0.333,-0.04,-0.332,0.868
2024-10-15 13:54:32.731,74424.184,-0.037,0.324,-0.945,-0.07,0.216,-0.045,0.143,0.019,0.262,-0.039,-0.33,0.871
2024-10-15 13:54:32.741,74424.194,-0.037,0.324,-0.945,-0.089,0.056,-0.155,-0.172,-0.141,0.2,-0.039,-0.33,0.874
2024-10-15 13:54:32.751,74424.204,-0.038,0.327,-0.944,-0.063,-0.121,-0.194,-0.401,-0.224,0.189,-0.04,-0.333,0.876
2024-10-15 13:54:32.761,74424.214,-0.039,0.331,-0.943,-0.036,-0.28,-0.078,-0.385,-0.083,0.076,-0.041,-0.337,0.877
2024-10-15 13:54:32.770,74424.224,-0.039,0.335,-0.942,-0.027,-0.244,0.023,-0.439,0.026,-0.011,-0.042,-0.341,0.877
2024-10-15 13:54:32.780,74424.234,-0.039,0.34,-0.94,-0.067,-0.195,0.022,-0.69,-0.014,-0.051,-0.042,-0.347,0.877
2024-10-15 13:54:32.790,74424.244,-0.04,0.348,-0.937,-0.06,-0.279,0.002,-0.999,0.008,-0.138,-0.042,-0.355,0.875
2024-10-15 13:54:32.800,74424.254,-0.04,0.358,-0.933,-0.021,-0.325,-0.016,-1.315,0.035,-0.166,-0.043,-0.366,0.873
2024-10-15 13:54:32.810,74424.264,-0.04,0.372,-0.928,-0.046,-0.309,-0.043,-1.55,0.064,-0.164,-0.043,-0.381,0.871
2024-10-15 13:54:32.821,74424.274,-0.04,0.386,-0.922,-0.079,-0.263,-0.041,-1.626,0.093,-0.201,-0.043,-0.397,0.868
2024-10-15 13:54:32.831,74424.284,-0.04,0.401,-0.915,-0.069,-0.17,-0.007,-1.597,0.12,-0.215,-0.044,-0.413,0.865
2024-10-15 13:54:32.841,74424.294,-0.039,0.415,-0.909,-0.07,-0.072,0.003,-1.584,0.148,-0.18,-0.043,-0.428,0.862
2024-10-15 13:54:32.851,74424.304,-0.039,0.429,-0.902,-0.088,0.022,0.027,-1.4,0.108,-0.123,-0.043,-0.443,0.859
2024-10-15 13:54:32.861,74424.314,-0.038,0.44,-0.897,-0.09,0.109,0.07,-0.99,0.177,-0.121,-0.043,-0.455,0.858
2024-10-15 13:54:32.871,74424.324,-0.036,0.447,-0.894,-0.063,0.203,0.091,-0.695,0.299,-0.092,-0.041,-0.464,0.856
2024-10-15 13:54:32.881,74424.334,-0.034,0.453,-0.891,-0.057,0.286,0.077,-0.617,0.315,-0.007,-0.038,-0.47,0.855
2024-10-15 13:54:32.891,74424.344,-0.031,0.458,-0.888,-0.069,0.235,0.043,-0.655,0.244,0.057,-0.035,-0.476,0.855
2024-10-15 13:54:32.900,74424.354,-0.029,0.465,-0.885,-0.021,0.164,0.014,-0.751,0.193,0.11,-0.033,-0.483,0.856
2024-10-15 13:54:32.910,74424.364,-0.027,0.471,-0.882,0.019,0.142,-0.004,-0.747,0.11,0.193,-0.031,-0.491,0.857
2024-10-15 13:54:32.920,74424.374,-0.025,0.478,-0.878,0.011,0.108,0.003,-0.724,0.056,0.246,-0.029,-0.498,0.86
2024-10-15 13:54:32.930,74424.384,-0.024,0.484,-0.875,0.019,0.09,0.022,-0.678,0.017,0.294,-0.027,-0.505,0.862
2024-10-15 13:54:32.940,74424.394,-0.022,0.49,-0.872,0.023,0.069,0.048,-0.608,-0.024,0.32,-0.026,-0.512,0.866
2024-10-15 13:54:32.950,74424.404,-0.021,0.495,-0.869,0.02,0.046,0.049,-0.508,-0.067,0.334,-0.024,-0.517,0.869
2024-10-15 13:54:32.960,74424.414,-0.02,0.499,-0.867,0.037,0.035,0.035,-0.393,-0.115,0.343,-0.023,-0.522,0.873
2024-10-15 13:54:32.970,74424.424,-0.02,0.501,-0.865,0.063,0.031,0.041,-0.193,-0.21,0.303,-0.023,-0.525,0.877
2024-10-15 13:54:32.980,74424.434,-0.02,0.502,-0.865,0.098,0.041,0.051,0.012,-0.235,0.3,-0.024,-0.526,0.88
2024-10-15 13:54:32.991,74424.444,-0.021,0.501,-0.865,0.125,0.057,0.042,0.219,-0.263,0.278,-0.024,-0.525,0.883
2024-10-15 13:54:33.000,74424.454,-0.023,0.498,-0.867,0.126,0.071,0.026,0.599,-0.434,0.212,-0.026,-0.521,0.886
2024-10-15 13:54:33.011,74424.464,-0.026,0.491,-0.871,0.111,0.075,0.015,1.037,-0.501,0.078,-0.03,-0.513,0.888
2024-10-15 13:54:33.021,74424.474,-0.03,0.48,-0.877,0.122,0.147,0.013,1.529,-0.416,-0.019,-0.035,-0.5,0.889
2024-10-15 13:54:33.030,74424.484,-0.033,0.464,-0.885,0.103,0.231,0.002,1.962,-0.258,-0.052,-0.038,-0.483,0.889
2024-10-15 13:54:33.041,74424.494,-0.035,0.446,-0.894,0.037,0.214,-0.029,2.044,-0.152,-0.042,-0.04,-0.462,0.89
2024-10-15 13:54:33.051,74424.504,-0.037,0.429,-0.903,0.012,0.117,-0.025,1.752,-0.142,-0.003,-0.041,-0.443,0.89
2024-10-15 13:54:33.061,74424.514,-0.038,0.415,-0.909,0.035,-0.007,0.026,1.195,-0.203,0.089,-0.042,-0.428,0.891
2024-10-15 13:54:33.071,74424.524,-0.04,0.407,-0.912,0.065,-0.144,0.055,0.604,-0.25,0.21,-0.044,-0.42,0.894
2024-10-15 13:54:33.081,74424.534,-0.041,0.404,-0.914,0.083,-0.247,0.074,0.176,-0.18,0.319,-0.044,-0.416,0.897
2024-10-15 13:54:33.091,74424.543,-0.041,0.404,-0.914,0.075,-0.254,0.075,-0.072,-0.183,0.33,-0.044,-0.416,0.9
2024-10-15 13:54:33.103,74424.553,-0.042,0.405,-0.913,0.043,-0.162,-0.059,-0.056,-0.439,0.388,-0.046,-0.417,0.904
2024-10-15 13:54:33.110,74424.563,-0.045,0.403,-0.914,0.034,-0.064,-0.12,0.397,-0.506,0.309,-0.049,-0.415,0.908
2024-10-15 13:54:33.120,74424.573,-0.048,0.397,-0.917,0.09,0.105,0.009,1.066,-0.199,0.132,-0.052,-0.408,0.911
2024-10-15 13:54:33.130,74424.583,-0.048,0.385,-0.922,0.073,0.275,0.019,1.418,0.135,0.075,-0.052,-0.395,0.913
2024-10-15 13:54:33.140,74424.593,-0.045,0.373,-0.927,-0.057,0.281,-0.101,1.22,0.185,0.192,-0.049,-0.382,0.915
2024-10-15 13:54:33.150,74424.603,-0.044,0.363,-0.931,-0.137,0.086,-0.17,0.825,0.021,0.237,-0.047,-0.372,0.918
2024-10-15 13:54:33.160,74424.613,-0.043,0.357,-0.933,-0.074,-0.117,-0.143,0.505,-0.042,0.186,-0.046,-0.366,0.92
2024-10-15 13:54:33.171,74424.623,-0.043,0.354,-0.934,0.002,-0.164,-0.062,0.191,-0.047,0.234,-0.046,-0.362,0.923
2024-10-15 13:54:33.180,74424.633,-0.043,0.354,-0.934,-0.011,-0.136,0.03,-0.052,-0.192,0.278,-0.046,-0.362,0.925
2024-10-15 13:54:33.190,74424.643,-0.044,0.354,-0.934,-0.035,-0.174,0.131,-0.015,-0.295,0.213,-0.047,-0.362,0.928
2024-10-15 13:54:33.200,74424.653,-0.046,0.353,-0.934,0.005,-0.161,0.18,0.3,-0.223,0.058,-0.05,-0.361,0.93
2024-10-15 13:54:33.210,74424.663,-0.048,0.349,-0.936,0.022,-0.043,0.153,0.676,-0.048,-0.103,-0.051,-0.356,0.93
2024-10-15 13:54:33.220,74424.673,-0.048,0.342,-0.939,-0.051,0.045,0.079,0.741,0.076,-0.201,-0.051,-0.349,0.928
2024-10-15 13:54:33.230,74424.683,-0.048,0.335,-0.941,-0.128,-0.018,-0.012,0.682,0.029,-0.227,-0.051,-0.342,0.926
2024-10-15 13:54:33.240,74424.693,-0.049,0.328,-0.943,-0.156,-0.13,-0.049,0.693,0.054,-0.291,-0.052,-0.335,0.924
2024-10-15 13:54:33.250,74424.703,-0.049,0.322,-0.946,-0.127,-0.111,-0.061,0.669,0.157,-0.351,-0.052,-0.328,0.921
2024-10-15 13:54:33.260,74424.713,-0.048,0.316,-0.947,-0.108,0.012,-0.086,0.454,0.105,-0.255,-0.051,-0.322,0.918
2024-10-15 13:54:33.270,74424.723,-0.049,0.313,-0.948,-0.13,0.01,-0.066,0.218,-0.066,-0.081,-0.051,-0.318,0.916
2024-10-15 13:54:33.280,74424.733,-0.05,0.311,-0.949,-0.08,-0.018,-0.004,0.158,-0.11,-0.007,-0.052,-0.317,0.916
2024-10-15 13:54:33.290,74424.743,-0.05,0.31,-0.949,0.015,0.102,0.023,0.16,-0.029,0.086,-0.053,-0.315,0.917
2024-10-15 13:54:33.300,74424.753,-0.05,0.309,-0.95,0.029,0.226,0.018,0.07,-0.056,0.259,-0.053,-0.314,0.918
2024-10-15 13:54:33.310,74424.763,-0.05,0.309,-0.95,-0.001,0.178,0.019,-0.085,-0.15,0.334,-0.053,-0.314,0.922
2024-10-15 13:54:33.320,74424.773,-0.051,0.31,-0.949,0.06,0.067,0.015,-0.15,-0.211,0.323,-0.054,-0.316,0.925
2024-10-15 13:54:33.330,74424.783,-0.052,0.312,-0.949,0.122,0.04,0.017,-0.143,-0.275,0.354,-0.055,-0.317,0.929
2024-10-15 13:54:33.340,74424.793,-0.054,0.313,-0.948,0.09,0.004,0.029,-0.04,-0.217,0.309,-0.056,-0.318,0.932
2024-10-15 13:54:33.350,74424.803,-0.054,0.313,-0.948,0.071,-0.01,0.034,0.069,-0.107,0.199,-0.057,-0.318,0.935
2024-10-15 13:54:33.360,74424.813,-0.054,0.312,-0.948,0.059,-0.018,0.005,0.069,-0.039,0.138,-0.057,-0.318,0.936
2024-10-15 13:54:33.370,74424.823,-0.054,0.312,-0.948,0.029,-0.101,-0.053,-0.017,-0.051,0.079,-0.057,-0.317,0.938
2024-10-15 13:54:33.380,74424.833,-0.055,0.312,-0.948,0.018,-0.2,-0.076,-0.05,-0.087,-0.019,-0.058,-0.318,0.938
2024-10-15 13:54:33.390,74424.843,-0.056,0.313,-0.948,0.032,-0.223,-0.04,0.047,-0.067,-0.106,-0.059,-0.318,0.937
2024-10-15 13:54:33.400,74424.853,-0.057,0.311,-0.949,0.031,-0.159,0.011,0.198,-0.014,-0.186,-0.06,-0.317,0.936
2024-10-15 13:54:33.410,74424.863,-0.057,0.308,-0.95,0.007,-0.078,0.046,0.398,0.081,-0.278,-0.06,-0.313,0.934
2024-10-15 13:54:33.420,74424.873,-0.057,0.303,-0.951,-0.026,-0.033,0.054,0.633,0.118,-0.397,-0.06,-0.308,0.93
2024-10-15 13:54:33.430,74424.883,-0.057,0.296,-0.953,-0.056,-0.017,0.024,0.75,0.201,-0.482,-0.06,-0.301,0.926
2024-10-15 13:54:33.440,74424.893,-0.057,0.289,-0.956,-0.071,-0.011,-0.018,0.645,0.24,-0.509,-0.059,-0.293,0.921
2024-10-15 13:54:33.450,74424.903,-0.056,0.284,-0.957,-0.113,-0.017,-0.055,0.348,0.147,-0.413,-0.058,-0.288,0.917
2024-10-15 13:54:33.460,74424.913,-0.056,0.282,-0.958,-0.143,-0.042,-0.044,0.064,-0.012,-0.33,-0.059,-0.286,0.913
2024-10-15 13:54:33.470,74424.923,-0.058,0.282,-0.958,-0.123,-0.032,0.01,0.017,-0.033,-0.241,-0.06,-0.286,0.91
2024-10-15 13:54:33.480,74424.933,-0.058,0.281,-0.958,-0.097,0.07,0.065,0.07,-0.009,-0.109,-0.061,-0.285,0.908
2024-10-15 13:54:33.490,74424.943,-0.059,0.28,-0.958,-0.109,0.17,0.087,0.14,-0.071,0.007,-0.061,-0.284,0.908
2024-10-15 13:54:33.500,74424.953,-0.06,0.279,-0.959,-0.096,0.213,0.099,0.202,-0.126,0.098,-0.062,-0.282,0.909
2024-10-15 13:54:33.510,74424.963,-0.06,0.277,-0.959,-0.033,0.231,0.098,0.215,-0.127,0.21,-0.063,-0.28,0.91
2024-10-15 13:54:33.520,74424.973,-0.061,0.275,-0.96,0.002,0.226,0.074,0.177,-0.126,0.296,-0.063,-0.278,0.913
2024-10-15 13:54:33.530,74424.983,-0.061,0.274,-0.96,0.013,0.176,0.021,0.042,-0.139,0.34,-0.064,-0.277,0.917
2024-10-15 13:54:33.539,74424.993,-0.062,0.275,-0.96,0.026,0.092,-0.031,-0.157,-0.151,0.369,-0.064,-0.278,0.92
2024-10-15 13:54:33.549,74425.003,-0.062,0.278,-0.959,0.041,0.002,-0.05,-0.426,-0.204,0.414,-0.065,-0.281,0.924
2024-10-15 13:54:33.559,74425.013,-0.064,0.283,-0.957,0.051,-0.084,-0.027,-0.59,-0.312,0.42,-0.066,-0.287,0.928
2024-10-15 13:54:33.569,74425.023,-0.066,0.288,-0.955,0.074,-0.155,0.041,-0.46,-0.416,0.353,-0.069,-0.293,0.932
2024-10-15 13:54:33.579,74425.033,-0.069,0.291,-0.954,0.111,-0.137,0.07,-0.072,-0.356,0.241,-0.072,-0.296,0.935
2024-10-15 13:54:33.590,74425.043,-0.071,0.29,-0.954,0.116,-0.045,0.051,0.406,-0.105,0.091,-0.074,-0.294,0.936
