Date,TimeStamp,GravityX,GravityY,GravityZ,UserAccelerationX,UserAccelerationY,UserAccelerationZ,RotationRateX,RotationRateY,RotationRateZ,AttitudeRoll,AttitudePitch,AttitudeYaw
2024-10-15 11:30:48.910,65800.286,0.142,0.007,-0.99,0.02,0.016,0.007,0.023,-0.028,0.04,0.143,-0.007,1.489
2024-10-15 11:30:48.920,65800.296,0.142,0.007,-0.99,-0.004,0.006,0.009,-0.085,0.012,0.068,0.143,-0.007,1.489
2024-10-15 11:30:48.923,65800.306,0.142,0.008,-0.99,-0.014,-0.018,0.007,-0.161,0.033,0.083,0.143,-0.008,1.49
2024-10-15 11:30:48.926,65800.316,0.143,0.01,-0.99,-0.015,-0.035,0.001,-0.179,0.044,0.095,0.143,-0.01,1.491
2024-10-15 11:30:48.937,65800.326,0.143,0.012,-0.99,-0.009,-0.02,0.005,-0.18,0.058,0.097,0.144,-0.012,1.493
2024-10-15 11:30:48.946,65800.336,0.144,0.013,-0.99,-0.006,-0.003,0.009,-0.167,0.059,0.089,0.144,-0.013,1.494
2024-10-15 11:30:48.957,65800.346,0.144,0.015,-0.989,-0.007,0.004,0.01,-0.146,0.057,0.075,0.145,-0.015,1.495
2024-10-15 11:30:48.966,65800.356,0.145,0.016,-0.989,-0.001,0.013,0.007,-0.094,0.046,0.048,0.145,-0.016,1.496
2024-10-15 11:30:48.977,65800.366,0.145,0.017,-0.989,0.004,0.019,0.009,-0.028,0.018,-0.01,0.146,-0.017,1.496
2024-10-15 11:30:48.987,65800.376,0.145,0.016,-0.989,0.01,0.02,0.009,0.131,-0.071,0.03,0.146,-0.016,1.496
2024-10-15 11:30:48.997,65800.386,0.144,0.015,-0.989,0.016,0.02,0.012,0.161,-0.108,0.068,0.145,-0.015,1.496
2024-10-15 11:30:49.008,65800.396,0.143,0.013,-0.99,0.015,0.034,0.017,0.114,-0.096,0.131,0.143,-0.013,1.497
2024-10-15 11:30:49.017,65800.406,0.142,0.012,-0.99,-0.001,0.02,0.014,-0.013,-0.012,0.09,0.143,-0.012,1.498
2024-10-15 11:30:49.028,65800.416,0.143,0.012,-0.99,-0.019,-0.031,0.004,-0.056,0.04,-0.008,0.143,-0.012,1.498
2024-10-15 11:30:49.037,65800.426,0.143,0.013,-0.99,-0.022,-0.062,-0.002,-0.025,0.01,0.005,0.143,-0.013,1.498
2024-10-15 11:30:49.047,65800.436,0.143,0.013,-0.99,-0.001,-0.048,0.003,0.018,-0.002,0.001,0.143,-0.013,1.499
2024-10-15 11:30:49.059,65800.446,0.143,0.013,-0.99,0.012,0.005,0.009,0.019,0.002,-0.008,0.143,-0.013,1.498
2024-10-15 11:30:49.067,65800.456,0.143,0.013,-0.99,-0.003,0.014,0.01,0.003,0.006,0.004,0.143,-0.013,1.498
2024-10-15 11:30:49.077,65800.466,0.143,0.013,-0.99,-0.004,-0.004,0.011,0.008,0.005,0.013,0.144,-0.013,1.499
2024-10-15 11:30:49.087,65800.476,0.143,0.013,-0.99,0.001,0.002,0.009,0.013,-0.009,0.007,0.144,-0.013,1.499
2024-10-15 11:30:49.097,65800.486,0.143,0.013,-0.99,-0.001,0.014,0.006,0.015,-0.013,0.006,0.144,-0.013,1.499
2024-10-15 11:30:49.108,65800.496,0.143,0.012,-0.99,0.003,0.01,0.008,-0.001,-0.006,0.001,0.143,-0.012,1.499
2024-10-15 11:30:49.116,65800.506,0.143,0.012,-0.99,-0.0,-0.005,0.008,-0.017,0.007,0.0,0.143,-0.012,1.499
2024-10-15 11:30:49.127,65800.516,0.143,0.012,-0.99,-0.004,-0.011,0.007,-0.01,0.009,-0.0,0.143,-0.012,1.499
2024-10-15 11:30:49.136,65800.526,0.143,0.012,-0.99,-0.004,-0.005,0.007,0.004,0.001,-0.003,0.143,-0.012,1.499
2024-10-15 11:30:49.146,65800.536,0.143,0.012,-0.99,-0.002,0.001,0.007,0.01,-0.003,-0.003,0.143,-0.012,1.499
2024-10-15 11:30:49.158,65800.546,0.143,0.012,-0.99,0.002,0.002,0.007,0.014,0.002,0.002,0.143,-0.012,1.499
2024-10-15 11:30:49.166,65800.556,0.143,0.012,-0.99,-0.0,0.004,0.01,0.013,0.0,0.006,0.143,-0.012,1.499
2024-10-15 11:30:49.177,65800.566,0.143,0.012,-0.99,-0.002,0.005,0.007,0.009,-0.002,0.008,0.143,-0.012,1.499
2024-10-15 11:30:49.186,65800.576,0.143,0.012,-0.99,-0.001,0.005,0.009,0.011,0.002,0.001,0.143,-0.012,1.499
2024-10-15 11:30:49.197,65800.586,0.143,0.012,-0.99,-0.001,0.002,0.008,0.012,0.005,0.001,0.144,-0.012,1.499
2024-10-15 11:30:49.209,65800.596,0.143,0.012,-0.99,-0.004,-0.003,0.008,0.013,0.003,-0.001,0.144,-0.012,1.499
2024-10-15 11:30:49.217,65800.606,0.143,0.011,-0.99,-0.003,-0.001,0.01,0.008,-0.004,-0.0,0.144,-0.011,1.499
2024-10-15 11:30:49.227,65800.616,0.143,0.011,-0.99,-0.001,0.0,0.007,-0.007,-0.001,0.006,0.143,-0.011,1.499
2024-10-15 11:30:49.236,65800.626,0.143,0.012,-0.99,0.001,-0.002,0.006,-0.013,-0.001,0.003,0.144,-0.012,1.499
2024-10-15 11:30:49.246,65800.636,0.143,0.012,-0.99,0.001,-0.004,0.007,-0.014,-0.0,0.006,0.144,-0.012,1.499
2024-10-15 11:30:49.258,65800.645,0.143,0.012,-0.99,-0.002,-0.003,0.007,-0.012,0.006,0.005,0.144,-0.012,1.499
2024-10-15 11:30:49.266,65800.655,0.143,0.012,-0.99,-0.002,-0.005,0.006,-0.007,0.008,-0.003,0.144,-0.012,1.499
2024-10-15 11:30:49.277,65800.665,0.143,0.012,-0.99,-0.003,-0.004,0.008,-0.0,0.009,0.002,0.144,-0.012,1.499
2024-10-15 11:30:49.287,65800.675,0.143,0.012,-0.99,-0.005,-0.003,0.008,0.009,0.019,0.002,0.144,-0.012,1.499
2024-10-15 11:30:49.296,65800.685,0.143,0.012,-0.99,-0.003,0.003,0.008,0.032,0.016,0.005,0.144,-0.012,1.499
2024-10-15 11:30:49.306,65800.695,0.144,0.011,-0.99,-0.003,0.009,0.008,0.041,0.003,0.01,0.144,-0.011,1.499
2024-10-15 11:30:49.316,65800.705,0.144,0.011,-0.99,-0.001,0.015,0.007,0.028,-0.007,0.017,0.144,-0.011,1.499
2024-10-15 11:30:49.326,65800.715,0.143,0.011,-0.99,0.004,0.016,0.008,0.008,-0.006,0.017,0.144,-0.011,1.499
2024-10-15 11:30:49.336,65800.725,0.143,0.011,-0.99,0.005,0.007,0.009,-0.005,-0.007,0.018,0.144,-0.011,1.499
2024-10-15 11:30:49.346,65800.735,0.143,0.011,-0.99,0.003,-0.006,0.008,-0.02,-0.008,0.008,0.144,-0.011,1.5
2024-10-15 11:30:49.356,65800.745,0.143,0.011,-0.99,0.003,-0.014,0.007,-0.028,-0.0,0.003,0.144,-0.011,1.5
2024-10-15 11:30:49.366,65800.755,0.143,0.011,-0.99,-0.003,-0.017,0.007,-0.03,0.009,-0.006,0.144,-0.011,1.5
2024-10-15 11:30:49.376,65800.765,0.143,0.012,-0.99,-0.007,-0.016,0.006,-0.02,0.009,-0.011,0.144,-0.012,1.5
2024-10-15 11:30:49.386,65800.775,0.143,0.012,-0.99,-0.008,-0.01,0.011,-0.013,0.0,-0.007,0.144,-0.012,1.499
2024-10-15 11:30:49.396,65800.785,0.143,0.012,-0.99,-0.003,0.001,0.011,-0.013,0.001,-0.005,0.144,-0.012,1.499
2024-10-15 11:30:49.407,65800.795,0.143,0.012,-0.99,-0.0,0.006,0.009,-0.008,0.002,0.006,0.144,-0.012,1.499
2024-10-15 11:30:49.424,65800.805,0.143,0.012,-0.99,-0.002,0.009,0.008,0.003,0.003,0.01,0.144,-0.012,1.5
2024-10-15 11:30:49.429,65800.815,0.144,0.012,-0.99,-0.001,0.013,0.006,0.014,-0.005,0.005,0.144,-0.012,1.5
2024-10-15 11:30:49.436,65800.825,0.143,0.012,-0.99,0.002,0.013,0.007,0.011,-0.007,0.005,0.144,-0.012,1.5
2024-10-15 11:30:49.446,65800.835,0.143,0.012,-0.99,0.002,0.007,0.008,-0.005,0.001,0.005,0.144,-0.012,1.5
2024-10-15 11:30:49.456,65800.845,0.143,0.012,-0.99,-0.0,-0.003,0.006,-0.012,0.009,0.005,0.144,-0.012,1.5
2024-10-15 11:30:49.466,65800.855,0.143,0.012,-0.99,-0.004,-0.009,0.007,-0.012,0.009,0.002,0.144,-0.012,1.5
2024-10-15 11:30:49.476,65800.865,0.144,0.012,-0.99,-0.003,-0.008,0.007,0.003,0.005,0.001,0.144,-0.012,1.5
2024-10-15 11:30:49.486,65800.875,0.144,0.012,-0.99,0.0,-0.002,0.008,0.014,0.004,0.0,0.144,-0.012,1.5
2024-10-15 11:30:49.496,65800.885,0.144,0.012,-0.99,-0.0,0.0,0.008,0.008,0.003,0.01,0.144,-0.012,1.5
2024-10-15 11:30:49.506,65800.895,0.144,0.012,-0.99,-0.0,0.001,0.006,0.004,0.007,0.007,0.144,-0.012,1.5
2024-10-15 11:30:49.516,65800.905,0.144,0.012,-0.99,-0.0,0.006,0.009,0.01,-0.002,0.007,0.144,-0.012,1.5
2024-10-15 11:30:49.527,65800.915,0.144,0.012,-0.99,-0.002,0.008,0.01,0.005,-0.003,0.006,0.144,-0.012,1.5
2024-10-15 11:30:49.536,65800.925,0.144,0.012,-0.99,0.0,0.003,0.007,-0.002,0.002,0.001,0.144,-0.012,1.5
2024-10-15 11:30:49.546,65800.935,0.144,0.012,-0.99,-0.001,-0.0,0.009,0.0,-0.005,0.004,0.144,-0.012,1.5
2024-10-15 11:30:49.556,65800.945,0.144,0.012,-0.99,-0.005,0.0,0.008,-0.003,0.0,0.002,0.144,-0.012,1.5
2024-10-15 11:30:49.566,65800.955,0.144,0.012,-0.99,-0.002,-0.002,0.006,-0.005,0.008,-0.004,0.144,-0.012,1.5
2024-10-15 11:30:49.576,65800.965,0.144,0.012,-0.99,-0.001,-0.005,0.005,-0.007,0.007,-0.0,0.144,-0.012,1.5
2024-10-15 11:30:49.586,65800.975,0.144,0.012,-0.99,-0.005,-0.002,0.007,-0.001,-0.0,0.001,0.144,-0.012,1.5
2024-10-15 11:30:49.596,65800.985,0.144,0.012,-0.99,0.0,0.003,0.007,-0.003,-0.0,0.001,0.144,-0.012,1.5
2024-10-15 11:30:49.606,65800.995,0.144,0.012,-0.99,0.002,0.003,0.007,-0.008,0.003,0.001,0.144,-0.012,1.5
2024-10-15 11:30:49.616,65801.005,0.144,0.012,-0.99,0.0,-0.0,0.007,0.001,0.001,-0.002,0.144,-0.012,1.5
2024-10-15 11:30:49.626,65801.015,0.144,0.012,-0.99,-0.001,-0.0,0.008,0.009,-0.001,-0.003,0.144,-0.012,1.5
2024-10-15 11:30:49.636,65801.025,0.144,0.012,-0.99,-0.003,-0.0,0.009,0.011,0.002,-0.003,0.144,-0.012,1.5
2024-10-15 11:30:49.646,65801.035,0.144,0.012,-0.99,-0.001,-0.0,0.01,0.002,0.004,-0.005,0.144,-0.012,1.5
2024-10-15 11:30:49.656,65801.045,0.144,0.012,-0.99,-0.003,0.003,0.01,0.008,-0.005,0.001,0.144,-0.012,1.5
2024-10-15 11:30:49.666,65801.055,0.144,0.012,-0.99,-0.002,0.002,0.008,-0.007,-0.001,-0.001,0.144,-0.012,1.5
2024-10-15 11:30:49.676,65801.065,0.144,0.012,-0.99,0.0,-0.003,0.006,-0.005,0.002,0.003,0.144,-0.012,1.5
2024-10-15 11:30:49.686,65801.075,0.144,0.012,-0.99,0.001,0.0,0.008,0.001,-0.003,0.001,0.144,-0.012,1.5
2024-10-15 11:30:49.696,65801.085,0.144,0.012,-0.99,0.002,0.003,0.007,0.001,-0.007,-0.0,0.144,-0.012,1.5
2024-10-15 11:30:49.706,65801.095,0.144,0.012,-0.99,0.004,0.001,0.008,-0.003,-0.004,-0.001,0.144,-0.012,1.5
2024-10-15 11:30:49.716,65801.105,0.144,0.012,-0.99,0.002,-0.002,0.008,-0.007,0.0,0.003,0.144,-0.012,1.5
2024-10-15 11:30:49.726,65801.115,0.144,0.012,-0.99,-0.003,-0.001,0.007,-0.01,-0.0,-0.002,0.144,-0.012,1.5
2024-10-15 11:30:49.736,65801.125,0.144,0.012,-0.99,-0.005,-0.001,0.01,-0.005,0.004,-0.0,0.144,-0.012,1.5
2024-10-15 11:30:49.746,65801.135,0.144,0.012,-0.99,-0.002,-0.002,0.01,0.009,0.006,0.0,0.144,-0.012,1.5
2024-10-15 11:30:49.756,65801.145,0.144,0.012,-0.99,-0.002,-0.0,0.009,0.013,-0.0,-0.0,0.144,-0.012,1.5
2024-10-15 11:30:49.766,65801.155,0.144,0.012,-0.99,-0.002,0.005,0.009,0.009,-0.005,0.002,0.144,-0.012,1.5
2024-10-15 11:30:49.776,65801.165,0.144,0.012,-0.99,0.001,0.007,0.01,-0.001,-0.008,0.003,0.144,-0.012,1.5
2024-10-15 11:30:49.786,65801.175,0.144,0.012,-0.99,0.001,0.002,0.008,-0.008,-0.005,0.002,0.144,-0.012,1.5
2024-10-15 11:30:49.796,65801.185,0.144,0.012,-0.99,-0.001,-0.003,0.006,-0.018,-0.003,0.0,0.144,-0.012,1.5
2024-10-15 11:30:49.806,65801.195,0.144,0.012,-0.99,-0.002,-0.005,0.005,-0.017,0.009,-0.002,0.144,-0.012,1.5
2024-10-15 11:30:49.815,65801.205,0.144,0.012,-0.99,-0.004,-0.007,0.005,-0.009,0.011,-0.005,0.144,-0.012,1.5
2024-10-15 11:30:49.826,65801.215,0.144,0.012,-0.99,-0.004,-0.005,0.009,0.01,0.004,-0.0,0.144,-0.012,1.5
2024-10-15 11:30:49.835,65801.225,0.144,0.012,-0.99,-0.003,0.005,0.009,0.014,0.001,0.001,0.144,-0.012,1.5
2024-10-15 11:30:49.846,65801.235,0.144,0.012,-0.99,0.002,0.01,0.009,0.009,-0.008,0.002,0.144,-0.012,1.5
2024-10-15 11:30:49.856,65801.244,0.144,0.012,-0.99,0.002,0.01,0.009,0.017,-0.009,0.007,0.144,-0.012,1.5
2024-10-15 11:30:49.866,65801.254,0.144,0.012,-0.99,0.001,0.008,0.007,0.024,-0.0,-0.0,0.144,-0.012,1.5
2024-10-15 11:30:49.875,65801.264,0.144,0.011,-0.99,0.0,0.003,0.007,0.026,-0.001,0.0,0.144,-0.011,1.5
2024-10-15 11:30:49.886,65801.274,0.144,0.011,-0.99,-0.002,-0.002,0.006,0.018,-0.001,0.006,0.144,-0.011,1.5
2024-10-15 11:30:49.896,65801.284,0.144,0.011,-0.99,-0.002,-0.002,0.007,0.0,0.003,0.004,0.144,-0.011,1.5
2024-10-15 11:30:49.905,65801.294,0.144,0.011,-0.99,-0.002,-0.004,0.007,-0.012,0.005,0.008,0.144,-0.011,1.5
2024-10-15 11:30:49.916,65801.304,0.144,0.011,-0.99,-0.002,-0.008,0.007,-0.019,0.0,0.001,0.144,-0.011,1.5
2024-10-15 11:30:49.926,65801.314,0.144,0.012,-0.99,-0.0,-0.008,0.008,-0.028,0.002,-0.003,0.144,-0.012,1.5
2024-10-15 11:30:49.935,65801.324,0.144,0.012,-0.99,0.002,-0.008,0.007,-0.023,0.009,-0.008,0.144,-0.012,1.5
2024-10-15 11:30:49.945,65801.334,0.144,0.012,-0.99,-0.0,-0.005,0.007,-0.008,0.009,-0.002,0.145,-0.012,1.5
2024-10-15 11:30:49.955,65801.344,0.144,0.012,-0.989,-0.005,-0.001,0.004,0.013,0.007,-0.002,0.145,-0.012,1.5
2024-10-15 11:30:49.965,65801.354,0.144,0.012,-0.989,-0.003,0.005,0.006,0.017,0.002,0.0,0.145,-0.012,1.5
2024-10-15 11:30:49.975,65801.364,0.144,0.012,-0.989,-0.0,0.013,0.008,0.008,0.0,0.006,0.145,-0.012,1.5
2024-10-15 11:30:49.985,65801.374,0.144,0.012,-0.989,-0.0,0.013,0.006,-0.003,-0.001,0.01,0.145,-0.012,1.5
2024-10-15 11:30:49.996,65801.384,0.144,0.012,-0.989,-0.0,0.004,0.007,-0.011,-0.003,0.002,0.145,-0.012,1.5
2024-10-15 11:30:50.005,65801.394,0.144,0.012,-0.99,0.002,-0.004,0.01,-0.024,-0.009,-0.001,0.145,-0.012,1.5
2024-10-15 11:30:50.016,65801.404,0.144,0.012,-0.99,0.001,-0.012,0.011,-0.041,-0.005,-0.015,0.145,-0.012,1.5
2024-10-15 11:30:50.025,65801.414,0.144,0.013,-0.99,-0.0,-0.017,0.011,-0.063,-0.008,-0.02,0.144,-0.013,1.5
2024-10-15 11:30:50.035,65801.424,0.144,0.013,-0.99,-0.002,-0.019,0.009,-0.092,-0.002,-0.028,0.144,-0.013,1.5
2024-10-15 11:30:50.046,65801.434,0.144,0.014,-0.989,-0.003,-0.02,0.009,-0.105,0.001,-0.031,0.144,-0.014,1.5
2024-10-15 11:30:50.055,65801.444,0.144,0.016,-0.989,-0.008,-0.013,0.011,-0.14,-0.006,-0.031,0.144,-0.016,1.5
2024-10-15 11:30:50.065,65801.454,0.144,0.018,-0.989,-0.008,-0.013,0.009,-0.2,-0.018,-0.031,0.144,-0.018,1.5
2024-10-15 11:30:50.075,65801.464,0.143,0.02,-0.989,-0.004,-0.016,0.01,-0.281,-0.025,-0.038,0.144,-0.02,1.5
2024-10-15 11:30:50.086,65801.474,0.143,0.023,-0.989,-0.0,-0.018,0.015,-0.373,-0.031,-0.058,0.144,-0.023,1.5
2024-10-15 11:30:50.096,65801.484,0.143,0.027,-0.989,0.005,-0.025,0.02,-0.45,-0.052,-0.075,0.143,-0.027,1.5
2024-10-15 11:30:50.105,65801.494,0.142,0.032,-0.989,0.001,-0.042,0.013,-0.58,-0.056,-0.067,0.143,-0.032,1.5
2024-10-15 11:30:50.116,65801.504,0.142,0.038,-0.989,-0.001,-0.064,0.008,-0.664,-0.021,-0.074,0.142,-0.038,1.5
2024-10-15 11:30:50.125,65801.514,0.142,0.045,-0.989,-0.008,-0.062,0.002,-0.743,-0.019,-0.077,0.142,-0.045,1.5
2024-10-15 11:30:50.135,65801.524,0.141,0.052,-0.989,-0.021,-0.062,-0.003,-0.779,0.013,-0.095,0.142,-0.052,1.5
2024-10-15 11:30:50.145,65801.534,0.142,0.06,-0.988,-0.021,-0.039,0.012,-0.745,0.03,-0.107,0.142,-0.06,1.5
2024-10-15 11:30:50.155,65801.544,0.142,0.068,-0.988,-0.017,-0.017,0.031,-0.794,0.016,-0.08,0.143,-0.068,1.501
2024-10-15 11:30:50.166,65801.554,0.142,0.076,-0.987,-0.006,0.017,0.016,-0.838,0.009,-0.093,0.143,-0.076,1.501
2024-10-15 11:30:50.175,65801.564,0.142,0.085,-0.986,0.013,0.015,-0.003,-0.938,0.049,-0.081,0.143,-0.085,1.501
2024-10-15 11:30:50.185,65801.574,0.143,0.095,-0.985,0.013,-0.057,-0.013,-1.06,0.097,-0.055,0.144,-0.095,1.502
2024-10-15 11:30:50.195,65801.584,0.144,0.105,-0.984,0.0,-0.073,-0.021,-1.124,0.129,-0.043,0.145,-0.106,1.503
2024-10-15 11:30:50.205,65801.594,0.145,0.117,-0.983,-0.005,-0.049,-0.016,-1.118,0.146,-0.048,0.147,-0.117,1.504
2024-10-15 11:30:50.215,65801.604,0.147,0.128,-0.981,-0.003,-0.029,-0.006,-1.1,0.175,-0.054,0.148,-0.128,1.506
2024-10-15 11:30:50.225,65801.614,0.148,0.138,-0.979,-0.0,-0.014,-0.008,-1.058,0.175,-0.045,0.15,-0.139,1.507
2024-10-15 11:30:50.235,65801.624,0.15,0.148,-0.978,0.0,-0.008,-0.014,-1.001,0.178,-0.064,0.152,-0.149,1.508
2024-10-15 11:30:50.245,65801.634,0.152,0.158,-0.976,0.003,-0.012,-0.005,-0.916,0.206,-0.096,0.154,-0.158,1.508
2024-10-15 11:30:50.255,65801.644,0.154,0.166,-0.974,0.001,-0.013,0.003,-0.833,0.248,-0.111,0.156,-0.167,1.509
2024-10-15 11:30:50.265,65801.654,0.156,0.174,-0.972,-0.005,-0.011,0.0,-0.778,0.219,-0.117,0.159,-0.175,1.509
2024-10-15 11:30:50.275,65801.664,0.158,0.182,-0.971,-0.004,-0.01,0.003,-0.7,0.137,-0.127,0.161,-0.183,1.509
2024-10-15 11:30:50.285,65801.674,0.159,0.188,-0.969,-0.001,0.0,0.012,-0.594,0.142,-0.148,0.162,-0.189,1.509
2024-10-15 11:30:50.296,65801.684,0.16,0.194,-0.968,-0.01,0.022,0.016,-0.583,0.106,-0.131,0.163,-0.195,1.509
2024-10-15 11:30:50.305,65801.694,0.16,0.2,-0.967,-0.013,0.019,0.006,-0.622,0.078,-0.124,0.164,-0.201,1.509
2024-10-15 11:30:50.315,65801.704,0.161,0.206,-0.965,-0.01,-0.01,0.008,-0.599,0.069,-0.134,0.165,-0.208,1.508
2024-10-15 11:30:50.325,65801.714,0.161,0.212,-0.964,-0.011,-0.044,0.018,-0.53,0.068,-0.135,0.166,-0.214,1.508
2024-10-15 11:30:50.335,65801.724,0.161,0.217,-0.963,-0.018,-0.052,0.019,-0.438,0.06,-0.153,0.166,-0.219,1.507
2024-10-15 11:30:50.345,65801.734,0.162,0.221,-0.962,-0.013,-0.024,0.012,-0.329,0.06,-0.186,0.166,-0.223,1.506
2024-10-15 11:30:50.355,65801.744,0.162,0.224,-0.961,-0.002,-0.014,0.008,-0.281,0.088,-0.207,0.167,-0.226,1.505
2024-10-15 11:30:50.365,65801.754,0.162,0.227,-0.96,-0.001,0.003,0.027,-0.225,0.079,-0.228,0.167,-0.229,1.503
2024-10-15 11:30:50.375,65801.764,0.162,0.229,-0.96,-0.0,0.038,0.033,-0.177,0.024,-0.226,0.167,-0.231,1.501
2024-10-15 11:30:50.385,65801.774,0.162,0.231,-0.959,0.007,0.022,0.03,-0.174,-0.031,-0.227,0.167,-0.233,1.499
2024-10-15 11:30:50.395,65801.784,0.161,0.233,-0.959,0.025,-0.011,0.036,-0.188,-0.07,-0.205,0.166,-0.235,1.497
2024-10-15 11:30:50.405,65801.794,0.159,0.236,-0.959,0.031,-0.036,0.016,-0.234,-0.076,-0.198,0.165,-0.238,1.495
2024-10-15 11:30:50.415,65801.804,0.158,0.238,-0.958,0.021,-0.039,-0.003,-0.291,-0.076,-0.192,0.164,-0.241,1.494
2024-10-15 11:30:50.425,65801.814,0.157,0.241,-0.958,0.004,-0.026,-0.0,-0.252,-0.069,-0.199,0.163,-0.244,1.492
2024-10-15 11:30:50.435,65801.824,0.156,0.244,-0.957,-0.002,-0.038,-0.006,-0.274,-0.106,-0.202,0.161,-0.247,1.491
2024-10-15 11:30:50.445,65801.833,0.154,0.247,-0.957,-0.0,-0.071,-0.013,-0.281,-0.099,-0.193,0.16,-0.25,1.489
2024-10-15 11:30:50.455,65801.843,0.153,0.25,-0.956,0.009,-0.077,-0.023,-0.232,-0.012,-0.218,0.159,-0.252,1.488
2024-10-15 11:30:50.465,65801.853,0.153,0.252,-0.955,-0.009,-0.066,-0.044,-0.246,0.041,-0.223,0.159,-0.255,1.486
2024-10-15 11:30:50.475,65801.863,0.153,0.255,-0.955,-0.053,-0.004,-0.053,-0.184,0.093,-0.234,0.159,-0.258,1.484
2024-10-15 11:30:50.485,65801.873,0.154,0.257,-0.954,-0.057,0.026,-0.052,-0.207,0.165,-0.162,0.16,-0.26,1.482
2024-10-15 11:30:50.495,65801.883,0.155,0.259,-0.953,-0.037,0.005,-0.087,-0.265,0.232,-0.109,0.161,-0.262,1.481
2024-10-15 11:30:50.504,65801.893,0.157,0.262,-0.952,-0.029,0.047,-0.08,-0.294,0.288,-0.097,0.164,-0.265,1.48
2024-10-15 11:30:50.515,65801.903,0.16,0.265,-0.951,-0.027,0.062,-0.045,-0.271,0.341,-0.122,0.167,-0.268,1.48
2024-10-15 11:30:50.524,65801.913,0.163,0.268,-0.95,-0.014,0.012,-0.011,-0.212,0.353,-0.112,0.17,-0.271,1.479
2024-10-15 11:30:50.535,65801.923,0.166,0.269,-0.949,-0.012,0.0,0.001,-0.064,0.366,-0.085,0.174,-0.273,1.478
2024-10-15 11:30:50.544,65801.933,0.17,0.269,-0.948,-0.02,0.037,0.022,0.065,0.38,-0.053,0.177,-0.273,1.478
2024-10-15 11:30:50.555,65801.943,0.173,0.269,-0.948,-0.036,0.069,0.022,0.1,0.361,-0.034,0.181,-0.272,1.477
2024-10-15 11:30:50.565,65801.953,0.176,0.268,-0.947,-0.038,0.097,0.034,0.117,0.349,-0.047,0.184,-0.271,1.476
2024-10-15 11:30:50.575,65801.963,0.179,0.266,-0.947,-0.033,0.09,0.065,0.141,0.283,-0.047,0.187,-0.27,1.476
2024-10-15 11:30:50.585,65801.973,0.181,0.265,-0.947,-0.027,0.058,0.076,0.138,0.191,-0.03,0.189,-0.268,1.475
2024-10-15 11:30:50.595,65801.983,0.183,0.264,-0.947,-0.01,0.03,0.086,0.143,0.127,-0.018,0.191,-0.267,1.474
2024-10-15 11:30:50.604,65801.993,0.184,0.262,-0.947,0.008,0.034,0.103,0.19,0.092,-0.028,0.192,-0.266,1.474
2024-10-15 11:30:50.615,65802.003,0.184,0.26,-0.948,0.012,0.038,0.084,0.282,0.086,-0.032,0.192,-0.263,1.473
2024-10-15 11:30:50.624,65802.013,0.185,0.257,-0.949,0.016,0.037,0.069,0.485,0.083,-0.007,0.193,-0.26,1.472
2024-10-15 11:30:50.634,65802.023,0.186,0.251,-0.95,0.013,0.069,0.049,0.823,0.064,-0.001,0.193,-0.253,1.471
2024-10-15 11:30:50.644,65802.033,0.186,0.241,-0.953,0.022,0.096,0.043,1.202,-0.061,-0.004,0.193,-0.243,1.469
2024-10-15 11:30:50.654,65802.043,0.185,0.228,-0.956,0.04,0.104,0.022,1.485,-0.144,-0.08,0.191,-0.23,1.466
2024-10-15 11:30:50.664,65802.053,0.183,0.216,-0.959,0.061,0.077,0.062,0.862,-0.174,-0.123,0.189,-0.218,1.462
2024-10-15 11:30:50.675,65802.063,0.182,0.211,-0.96,0.059,0.018,0.034,0.234,-0.061,-0.123,0.187,-0.213,1.46
2024-10-15 11:30:50.684,65802.073,0.182,0.211,-0.96,0.06,-0.128,-0.102,-0.15,0.117,0.066,0.187,-0.213,1.46
2024-10-15 11:30:50.694,65802.083,0.184,0.212,-0.96,0.034,-0.304,-0.077,-0.035,0.24,0.129,0.189,-0.214,1.461
2024-10-15 11:30:50.703,65802.093,0.186,0.211,-0.96,-0.038,-0.086,0.005,0.298,0.128,0.095,0.191,-0.213,1.462
2024-10-15 11:30:50.714,65802.103,0.186,0.206,-0.961,-0.048,0.138,0.029,0.589,-0.068,0.055,0.192,-0.208,1.462
2024-10-15 11:30:50.724,65802.113,0.185,0.2,-0.962,0.056,0.193,0.042,0.649,-0.168,0.006,0.19,-0.202,1.461
2024-10-15 11:30:50.734,65802.123,0.184,0.194,-0.964,0.111,0.155,0.032,0.529,-0.129,0.06,0.188,-0.196,1.46
2024-10-15 11:30:50.745,65802.133,0.183,0.19,-0.964,0.061,0.06,0.015,0.28,-0.055,0.206,0.188,-0.191,1.46
2024-10-15 11:30:50.754,65802.143,0.183,0.188,-0.965,-0.014,-0.01,-0.012,0.045,0.007,0.301,0.188,-0.189,1.463
2024-10-15 11:30:50.764,65802.153,0.184,0.188,-0.965,-0.037,-0.013,-0.016,-0.055,0.018,0.309,0.189,-0.189,1.466
2024-10-15 11:30:50.775,65802.163,0.185,0.188,-0.965,-0.014,0.006,0.019,0.028,0.002,0.263,0.189,-0.189,1.469
2024-10-15 11:30:50.784,65802.173,0.185,0.186,-0.965,0.02,0.045,0.05,0.228,-0.058,0.219,0.189,-0.187,1.471
2024-10-15 11:30:50.795,65802.183,0.185,0.182,-0.966,0.037,0.063,0.044,0.408,-0.128,0.202,0.189,-0.183,1.472
2024-10-15 11:30:50.804,65802.193,0.183,0.178,-0.967,0.037,0.034,0.027,0.463,-0.207,0.247,0.187,-0.179,1.474
2024-10-15 11:30:50.814,65802.203,0.182,0.173,-0.968,0.028,-0.011,0.013,0.368,-0.187,0.295,0.186,-0.174,1.476
2024-10-15 11:30:50.824,65802.213,0.181,0.17,-0.969,0.012,-0.031,0.007,0.143,-0.129,0.311,0.184,-0.171,1.478
2024-10-15 11:30:50.834,65802.223,0.18,0.169,-0.969,-0.013,-0.017,0.012,0.028,-0.121,0.258,0.184,-0.17,1.481
2024-10-15 11:30:50.844,65802.233,0.179,0.168,-0.969,-0.027,0.017,0.033,0.046,-0.129,0.18,0.183,-0.169,1.483
2024-10-15 11:30:50.854,65802.243,0.178,0.167,-0.97,-0.023,-0.01,0.023,0.042,-0.231,0.181,0.181,-0.168,1.485
2024-10-15 11:30:50.864,65802.253,0.175,0.167,-0.97,0.005,-0.075,0.001,-0.021,-0.298,0.165,0.179,-0.168,1.486
2024-10-15 11:30:50.874,65802.263,0.173,0.168,-0.971,0.039,-0.095,0.039,-0.188,-0.338,0.094,0.176,-0.168,1.488
2024-10-15 11:30:50.884,65802.273,0.169,0.17,-0.971,0.023,-0.102,0.047,-0.4,-0.368,0.07,0.173,-0.171,1.489
2024-10-15 11:30:50.894,65802.283,0.166,0.175,-0.971,0.001,-0.12,0.017,-0.576,-0.35,0.074,0.169,-0.176,1.491
2024-10-15 11:30:50.904,65802.293,0.163,0.181,-0.97,-0.002,-0.117,0.017,-0.682,-0.329,0.052,0.166,-0.182,1.492
2024-10-15 11:30:50.914,65802.303,0.16,0.187,-0.969,-0.002,-0.076,0.048,-0.585,-0.335,0.03,0.163,-0.188,1.494
2024-10-15 11:30:50.924,65802.313,0.156,0.192,-0.969,0.006,-0.026,0.05,-0.412,-0.345,0.009,0.16,-0.193,1.495
2024-10-15 11:30:50.935,65802.323,0.153,0.195,-0.969,0.013,0.042,0.021,-0.156,-0.355,-0.028,0.157,-0.196,1.495
2024-10-15 11:30:50.944,65802.333,0.149,0.196,-0.969,-0.001,0.12,0.001,-0.089,-0.408,-0.015,0.153,-0.197,1.495
2024-10-15 11:30:50.953,65802.343,0.145,0.197,-0.97,-0.0,0.082,-0.031,-0.209,-0.356,-0.014,0.149,-0.199,1.495
2024-10-15 11:30:50.963,65802.353,0.142,0.2,-0.969,0.029,-0.023,-0.028,-0.308,-0.265,-0.026,0.146,-0.201,1.496
2024-10-15 11:30:50.973,65802.363,0.14,0.203,-0.969,0.01,-0.09,-0.005,-0.283,-0.246,-0.05,0.143,-0.204,1.496
2024-10-15 11:30:50.983,65802.373,0.137,0.206,-0.969,-0.034,-0.064,0.008,-0.26,-0.289,-0.06,0.141,-0.207,1.495
2024-10-15 11:30:50.993,65802.383,0.134,0.209,-0.969,-0.032,-0.015,0.023,-0.408,-0.333,-0.051,0.137,-0.21,1.495
2024-10-15 11:30:51.004,65802.393,0.131,0.214,-0.968,-0.007,-0.014,0.011,-0.693,-0.256,0.0,0.135,-0.216,1.496
2024-10-15 11:30:51.014,65802.403,0.129,0.222,-0.966,-0.011,-0.043,-0.007,-0.927,-0.188,0.102,0.133,-0.224,1.497
2024-10-15 11:30:51.024,65802.413,0.128,0.231,-0.965,-0.039,-0.046,-0.017,-0.972,-0.127,0.113,0.132,-0.233,1.5
2024-10-15 11:30:51.034,65802.423,0.127,0.24,-0.962,-0.035,-0.019,0.011,-0.835,-0.058,0.059,0.131,-0.242,1.502
2024-10-15 11:30:51.044,65802.432,0.127,0.247,-0.961,-0.017,-0.012,0.024,-0.656,-0.052,0.072,0.131,-0.249,1.504
2024-10-15 11:30:51.054,65802.442,0.126,0.253,-0.959,-0.001,-0.009,-0.019,-0.614,-0.101,0.136,0.131,-0.255,1.505
2024-10-15 11:30:51.064,65802.452,0.126,0.258,-0.958,0.021,0.038,-0.078,-0.638,-0.1,0.165,0.13,-0.261,1.508
2024-10-15 11:30:51.074,65802.462,0.125,0.265,-0.956,0.022,0.079,-0.094,-0.687,-0.064,0.141,0.13,-0.268,1.51
2024-10-15 11:30:51.084,65802.472,0.125,0.271,-0.954,0.004,0.026,-0.074,-0.742,-0.048,0.083,0.13,-0.275,1.512
2024-10-15 11:30:51.094,65802.482,0.124,0.279,-0.952,0.008,-0.079,-0.035,-0.884,-0.104,0.026,0.13,-0.283,1.514
2024-10-15 11:30:51.104,65802.492,0.123,0.288,-0.95,0.035,-0.195,0.008,-0.932,-0.079,-0.054,0.129,-0.292,1.515
2024-10-15 11:30:51.114,65802.502,0.123,0.296,-0.947,0.023,-0.207,0.069,-0.808,0.019,-0.129,0.129,-0.301,1.515
2024-10-15 11:30:51.123,65802.512,0.123,0.303,-0.945,-0.067,-0.113,0.098,-0.582,-0.03,-0.192,0.129,-0.308,1.515
2024-10-15 11:30:51.134,65802.522,0.121,0.308,-0.944,-0.078,-0.035,0.071,-0.389,-0.133,-0.27,0.127,-0.313,1.513
2024-10-15 11:30:51.144,65802.532,0.119,0.311,-0.943,-0.001,-0.025,0.018,-0.323,-0.136,-0.341,0.125,-0.317,1.51
2024-10-15 11:30:51.154,65802.542,0.117,0.314,-0.942,0.043,-0.038,0.005,-0.184,-0.126,-0.325,0.123,-0.32,1.507
2024-10-15 11:30:51.164,65802.552,0.114,0.316,-0.942,0.01,0.018,0.033,-0.118,-0.22,-0.192,0.121,-0.321,1.504
2024-10-15 11:30:51.174,65802.562,0.111,0.317,-0.942,-0.02,0.116,0.013,-0.149,-0.294,-0.089,0.118,-0.323,1.503
2024-10-15 11:30:51.184,65802.572,0.108,0.319,-0.942,0.006,0.195,0.024,-0.166,-0.304,-0.04,0.114,-0.324,1.503
2024-10-15 11:30:51.194,65802.582,0.105,0.32,-0.942,0.02,0.19,0.061,-0.066,-0.322,0.014,0.111,-0.326,1.503
2024-10-15 11:30:51.204,65802.592,0.102,0.32,-0.942,0.018,0.138,0.08,0.101,-0.289,0.018,0.108,-0.325,1.503
2024-10-15 11:30:51.213,65802.602,0.1,0.318,-0.943,0.025,0.121,0.074,0.322,-0.302,-0.062,0.105,-0.323,1.502
2024-10-15 11:30:51.223,65802.612,0.096,0.314,-0.944,0.011,0.133,0.027,0.363,-0.349,-0.075,0.102,-0.32,1.501
2024-10-15 11:30:51.233,65802.622,0.093,0.312,-0.946,0.013,0.057,-0.049,0.173,-0.28,-0.033,0.098,-0.317,1.5
2024-10-15 11:30:51.243,65802.632,0.091,0.311,-0.946,0.037,-0.028,-0.07,0.004,-0.134,0.015,0.096,-0.316,1.5
2024-10-15 11:30:51.254,65802.642,0.091,0.311,-0.946,-0.019,-0.026,-0.046,-0.031,-0.019,0.119,0.095,-0.317,1.501
2024-10-15 11:30:51.263,65802.652,0.091,0.311,-0.946,-0.088,0.005,-0.02,0.1,0.05,0.145,0.096,-0.316,1.502
2024-10-15 11:30:51.273,65802.662,0.092,0.309,-0.946,-0.08,0.063,0.006,0.225,0.047,0.102,0.097,-0.314,1.503
2024-10-15 11:30:51.283,65802.672,0.093,0.307,-0.947,-0.048,0.084,0.009,0.266,0.017,0.083,0.098,-0.312,1.504
2024-10-15 11:30:51.293,65802.682,0.093,0.305,-0.948,-0.009,0.031,0.0,0.111,-0.019,0.109,0.098,-0.31,1.505
2024-10-15 11:30:51.303,65802.692,0.093,0.305,-0.948,0.036,-0.06,-0.017,-0.133,-0.012,0.144,0.098,-0.31,1.506
2024-10-15 11:30:51.313,65802.702,0.094,0.307,-0.947,0.043,-0.106,-0.054,-0.337,0.048,0.149,0.099,-0.312,1.508
2024-10-15 11:30:51.323,65802.712,0.094,0.311,-0.946,-0.0,-0.123,-0.092,-0.659,-0.077,0.183,0.099,-0.317,1.51
2024-10-15 11:30:51.333,65802.722,0.094,0.32,-0.943,-0.018,-0.18,-0.101,-1.114,-0.131,0.206,0.099,-0.325,1.513
2024-10-15 11:30:51.344,65802.732,0.094,0.33,-0.939,0.048,-0.265,-0.03,-1.102,0.088,0.044,0.099,-0.337,1.516
2024-10-15 11:30:51.353,65802.742,0.095,0.338,-0.936,0.037,-0.264,0.126,-0.624,0.193,-0.097,0.101,-0.345,1.516
2024-10-15 11:30:51.363,65802.752,0.096,0.342,-0.935,-0.083,-0.136,0.117,0.003,0.106,-0.214,0.102,-0.349,1.515
2024-10-15 11:30:51.373,65802.762,0.095,0.34,-0.936,-0.057,0.045,0.021,0.328,-0.092,-0.286,0.101,-0.347,1.512
2024-10-15 11:30:51.384,65802.772,0.093,0.337,-0.937,0.049,0.083,-0.064,0.307,-0.073,-0.265,0.099,-0.344,1.509
2024-10-15 11:30:51.393,65802.782,0.092,0.335,-0.938,0.104,-0.023,-0.07,0.1,0.044,-0.207,0.098,-0.342,1.506
2024-10-15 11:30:51.403,65802.792,0.092,0.336,-0.937,0.029,-0.036,-0.015,-0.102,0.028,-0.125,0.098,-0.342,1.505
2024-10-15 11:30:51.413,65802.802,0.092,0.337,-0.937,-0.05,0.045,0.018,-0.225,0.023,-0.113,0.098,-0.344,1.503
2024-10-15 11:30:51.423,65802.812,0.092,0.339,-0.936,0.019,0.058,0.066,-0.083,-0.003,-0.206,0.098,-0.346,1.502
2024-10-15 11:30:51.433,65802.822,0.091,0.338,-0.937,0.08,0.066,0.096,0.376,0.056,-0.273,0.097,-0.345,1.499
2024-10-15 11:30:51.443,65802.832,0.09,0.333,-0.939,0.012,0.18,0.087,0.826,-0.053,-0.224,0.096,-0.339,1.496
2024-10-15 11:30:51.453,65802.842,0.089,0.325,-0.941,-0.089,0.242,-0.027,0.709,-0.097,-0.166,0.094,-0.331,1.493
2024-10-15 11:30:51.462,65802.852,0.088,0.32,-0.943,-0.005,0.112,-0.105,0.423,0.036,-0.125,0.093,-0.326,1.491
2024-10-15 11:30:51.472,65802.862,0.088,0.317,-0.944,0.035,-0.017,-0.038,0.151,0.085,0.044,0.093,-0.323,1.49
2024-10-15 11:30:51.482,65802.872,0.089,0.317,-0.944,-0.054,-0.012,0.028,0.008,0.022,0.198,0.094,-0.322,1.492
2024-10-15 11:30:51.492,65802.882,0.091,0.316,-0.944,-0.063,0.112,0.089,0.019,0.1,0.249,0.096,-0.322,1.494
2024-10-15 11:30:51.503,65802.892,0.092,0.315,-0.945,-0.026,0.194,0.117,0.284,0.07,0.163,0.097,-0.32,1.496
2024-10-15 11:30:51.513,65802.902,0.093,0.311,-0.946,-0.033,0.245,0.057,0.442,0.016,0.248,0.098,-0.316,1.498
2024-10-15 11:30:51.523,65802.912,0.094,0.307,-0.947,-0.057,0.162,-0.088,0.393,0.124,0.283,0.099,-0.312,1.5
2024-10-15 11:30:51.533,65802.922,0.097,0.304,-0.948,-0.035,0.021,-0.158,0.157,0.251,0.259,0.102,-0.309,1.503
2024-10-15 11:30:51.543,65802.932,0.1,0.304,-0.947,-0.066,-0.111,-0.134,-0.225,0.129,0.335,0.105,-0.309,1.506
2024-10-15 11:30:51.553,65802.942,0.102,0.309,-0.946,-0.06,-0.194,-0.095,-0.893,0.148,0.388,0.108,-0.314,1.51
2024-10-15 11:30:51.563,65802.952,0.105,0.318,-0.942,0.036,-0.245,0.054,-1.004,0.313,0.254,0.111,-0.323,1.515
2024-10-15 11:30:51.573,65802.962,0.109,0.326,-0.939,0.014,-0.194,0.235,-0.705,0.238,0.234,0.115,-0.332,1.518
2024-10-15 11:30:51.583,65802.972,0.111,0.33,-0.937,-0.051,-0.166,0.188,-0.23,0.169,0.04,0.118,-0.336,1.52
2024-10-15 11:30:51.593,65802.982,0.112,0.33,-0.937,0.034,-0.071,0.084,0.271,0.182,-0.238,0.119,-0.336,1.519
2024-10-15 11:30:51.603,65802.992,0.113,0.326,-0.939,0.028,0.005,-0.048,0.527,0.12,-0.238,0.12,-0.332,1.516
2024-10-15 11:30:51.613,65803.002,0.113,0.322,-0.94,-0.01,-0.026,-0.157,0.447,0.083,-0.181,0.12,-0.328,1.513
2024-10-15 11:30:51.623,65803.012,0.114,0.319,-0.941,0.035,-0.082,-0.133,0.137,0.148,-0.173,0.12,-0.325,1.511
2024-10-15 11:30:51.633,65803.021,0.115,0.319,-0.941,0.032,-0.116,-0.039,-0.089,0.133,-0.155,0.121,-0.325,1.509
2024-10-15 11:30:51.643,65803.031,0.115,0.321,-0.94,0.004,-0.049,0.069,-0.208,0.001,-0.107,0.121,-0.327,1.508
2024-10-15 11:30:51.653,65803.041,0.114,0.322,-0.94,0.023,0.057,0.104,-0.04,0.035,-0.117,0.121,-0.328,1.507
2024-10-15 11:30:51.663,65803.051,0.115,0.321,-0.94,0.062,0.11,0.119,0.372,0.103,-0.231,0.121,-0.327,1.505
2024-10-15 11:30:51.673,65803.061,0.114,0.316,-0.942,0.022,0.152,0.097,0.753,-0.135,-0.308,0.12,-0.321,1.501
2024-10-15 11:30:51.683,65803.071,0.111,0.31,-0.944,-0.015,0.137,-0.034,0.506,-0.219,-0.348,0.117,-0.315,1.497
2024-10-15 11:30:51.693,65803.081,0.109,0.308,-0.945,0.084,-0.057,-0.13,0.047,0.073,-0.322,0.115,-0.313,1.493
2024-10-15 11:30:51.703,65803.091,0.11,0.309,-0.945,0.062,-0.19,-0.051,-0.14,0.258,-0.137,0.116,-0.314,1.491
2024-10-15 11:30:51.713,65803.101,0.111,0.31,-0.944,-0.105,-0.066,0.028,-0.109,0.081,0.005,0.117,-0.315,1.491
2024-10-15 11:30:51.723,65803.111,0.112,0.311,-0.944,-0.111,0.151,0.047,-0.221,-0.044,0.113,0.118,-0.317,1.491
2024-10-15 11:30:51.733,65803.121,0.112,0.313,-0.943,0.011,0.234,0.076,-0.186,0.053,0.171,0.118,-0.319,1.493
2024-10-15 11:30:51.743,65803.131,0.113,0.314,-0.943,0.029,0.274,0.125,-0.033,-0.022,0.159,0.119,-0.319,1.495
2024-10-15 11:30:51.753,65803.141,0.113,0.314,-0.943,-0.039,0.237,0.05,-0.042,-0.128,0.242,0.119,-0.319,1.497
2024-10-15 11:30:51.763,65803.151,0.113,0.315,-0.942,-0.01,0.088,-0.066,-0.18,0.004,0.218,0.119,-0.32,1.5
2024-10-15 11:30:51.773,65803.161,0.114,0.317,-0.942,0.029,-0.05,-0.114,-0.397,-0.006,0.225,0.12,-0.323,1.502
2024-10-15 11:30:51.783,65803.171,0.114,0.323,-0.94,-0.057,-0.148,-0.145,-0.902,-0.143,0.4,0.121,-0.328,1.506
2024-10-15 11:30:51.793,65803.181,0.115,0.333,-0.936,-0.037,-0.246,-0.101,-1.393,0.124,0.346,0.122,-0.34,1.512
2024-10-15 11:30:51.803,65803.191,0.119,0.345,-0.931,0.049,-0.237,0.111,-1.007,0.402,0.219,0.127,-0.352,1.516
2024-10-15 11:30:51.813,65803.201,0.123,0.35,-0.929,-0.089,-0.132,0.203,-0.316,0.244,0.21,0.131,-0.358,1.52
2024-10-15 11:30:51.822,65803.211,0.124,0.35,-0.928,-0.098,-0.03,0.076,0.368,0.066,-0.083,0.133,-0.358,1.52
2024-10-15 11:30:51.833,65803.221,0.124,0.345,-0.93,0.066,0.081,-0.031,0.723,0.101,-0.297,0.133,-0.352,1.517
2024-10-15 11:30:51.843,65803.231,0.124,0.338,-0.933,0.078,0.002,-0.13,0.728,0.153,-0.247,0.133,-0.345,1.513
2024-10-15 11:30:51.852,65803.241,0.125,0.333,-0.935,0.037,-0.129,-0.149,0.474,0.197,-0.203,0.133,-0.34,1.51
2024-10-15 11:30:51.862,65803.251,0.127,0.33,-0.935,0.02,-0.151,-0.064,0.216,0.216,-0.2,0.134,-0.336,1.508
2024-10-15 11:30:51.872,65803.261,0.128,0.329,-0.936,-0.003,-0.093,0.018,0.105,0.15,-0.119,0.136,-0.335,1.506
2024-10-15 11:30:51.882,65803.271,0.128,0.328,-0.936,-0.004,0.006,0.063,0.15,0.005,-0.079,0.136,-0.334,1.505
2024-10-15 11:30:51.893,65803.281,0.128,0.326,-0.937,0.039,0.106,0.139,0.387,-0.003,-0.151,0.135,-0.332,1.503
2024-10-15 11:30:51.902,65803.291,0.127,0.32,-0.939,0.056,0.168,0.158,0.875,0.01,-0.253,0.135,-0.326,1.5
2024-10-15 11:30:51.912,65803.301,0.126,0.311,-0.942,-0.028,0.231,0.119,1.034,-0.215,-0.291,0.132,-0.316,1.496
2024-10-15 11:30:51.922,65803.311,0.123,0.303,-0.945,-0.037,0.126,-0.051,0.665,-0.159,-0.281,0.129,-0.308,1.492
2024-10-15 11:30:51.933,65803.321,0.122,0.3,-0.946,0.095,-0.119,-0.123,0.199,0.135,-0.31,0.128,-0.304,1.488
2024-10-15 11:30:51.942,65803.331,0.123,0.299,-0.946,0.025,-0.158,-0.048,-0.075,0.128,-0.028,0.129,-0.304,1.486
2024-10-15 11:30:51.952,65803.341,0.124,0.3,-0.946,-0.152,0.019,0.005,-0.163,0.016,0.207,0.13,-0.305,1.487
2024-10-15 11:30:51.963,65803.351,0.125,0.302,-0.945,-0.089,0.192,0.109,-0.134,0.069,0.188,0.131,-0.306,1.49
2024-10-15 11:30:51.972,65803.361,0.125,0.301,-0.945,0.015,0.273,0.181,0.285,-0.116,0.121,0.132,-0.305,1.491
2024-10-15 11:30:51.982,65803.371,0.124,0.298,-0.947,0.001,0.295,0.107,0.172,-0.246,0.264,0.13,-0.303,1.493
2024-10-15 11:30:51.992,65803.381,0.123,0.297,-0.947,0.023,0.123,-0.066,-0.036,-0.04,0.258,0.129,-0.302,1.495
2024-10-15 11:30:52.002,65803.391,0.124,0.298,-0.946,0.032,0.033,-0.094,-0.185,0.134,0.264,0.131,-0.302,1.498
2024-10-15 11:30:52.012,65803.401,0.126,0.301,-0.945,-0.102,-0.053,-0.128,-0.5,-0.053,0.353,0.132,-0.305,1.502
2024-10-15 11:30:52.022,65803.411,0.126,0.307,-0.943,-0.073,-0.177,-0.164,-1.078,-0.11,0.383,0.133,-0.312,1.507
2024-10-15 11:30:52.032,65803.421,0.128,0.319,-0.939,0.068,-0.285,-0.063,-1.289,0.259,0.26,0.135,-0.324,1.512
2024-10-15 11:30:52.042,65803.431,0.132,0.328,-0.936,0.041,-0.245,0.17,-0.656,0.401,0.214,0.14,-0.334,1.516
2024-10-15 11:30:52.052,65803.441,0.135,0.33,-0.934,-0.123,-0.111,0.216,0.152,0.116,0.114,0.143,-0.336,1.518
2024-10-15 11:30:52.062,65803.451,0.135,0.326,-0.936,-0.039,-0.036,0.061,0.539,-0.017,-0.25,0.143,-0.332,1.517
2024-10-15 11:30:52.072,65803.461,0.134,0.321,-0.937,0.118,-0.006,-0.071,0.545,0.074,-0.383,0.142,-0.327,1.512
2024-10-15 11:30:52.082,65803.471,0.134,0.318,-0.938,0.067,-0.113,-0.136,0.201,0.132,-0.24,0.142,-0.324,1.508
2024-10-15 11:30:52.092,65803.481,0.135,0.318,-0.938,0.001,-0.236,-0.122,-0.154,0.226,-0.215,0.143,-0.324,1.506
2024-10-15 11:30:52.102,65803.491,0.136,0.321,-0.937,-0.002,-0.217,-0.021,-0.283,0.189,-0.199,0.145,-0.327,1.504
2024-10-15 11:30:52.112,65803.501,0.137,0.323,-0.936,-0.011,-0.075,0.068,-0.126,-0.039,-0.115,0.145,-0.329,1.503
2024-10-15 11:30:52.122,65803.511,0.135,0.323,-0.937,0.03,0.143,0.138,0.232,-0.153,-0.029,0.143,-0.329,1.502
2024-10-15 11:30:52.132,65803.521,0.134,0.319,-0.938,0.073,0.288,0.14,0.622,-0.022,-0.057,0.142,-0.325,1.501
2024-10-15 11:30:52.142,65803.531,0.133,0.311,-0.941,0.038,0.352,0.102,1.123,-0.165,-0.19,0.141,-0.316,1.498
2024-10-15 11:30:52.152,65803.541,0.13,0.301,-0.945,-0.047,0.32,0.013,0.882,-0.297,-0.172,0.137,-0.306,1.495
2024-10-15 11:30:52.162,65803.551,0.128,0.296,-0.947,0.036,0.026,-0.156,0.378,-0.006,-0.17,0.134,-0.3,1.492
2024-10-15 11:30:52.172,65803.561,0.129,0.294,-0.947,0.097,-0.215,-0.118,-0.066,0.25,-0.106,0.135,-0.299,1.491
2024-10-15 11:30:52.182,65803.571,0.131,0.296,-0.946,-0.067,-0.193,-0.017,-0.203,0.125,0.048,0.137,-0.3,1.491
2024-10-15 11:30:52.192,65803.581,0.132,0.298,-0.945,-0.139,0.036,0.076,-0.275,0.055,0.202,0.139,-0.303,1.492
2024-10-15 11:30:52.202,65803.591,0.133,0.3,-0.944,-0.057,0.164,0.125,-0.231,0.111,0.127,0.14,-0.305,1.495
2024-10-15 11:30:52.212,65803.601,0.134,0.301,-0.944,-0.004,0.223,0.14,-0.048,0.043,0.082,0.141,-0.306,1.496
2024-10-15 11:30:52.222,65803.611,0.135,0.302,-0.944,-0.051,0.19,0.029,-0.068,-0.02,0.239,0.142,-0.306,1.497
2024-10-15 11:30:52.232,65803.62,0.136,0.303,-0.943,-0.035,0.067,-0.103,-0.186,0.085,0.262,0.143,-0.307,1.5
2024-10-15 11:30:52.242,65803.63,0.138,0.305,-0.942,-0.013,0.004,-0.134,-0.388,0.145,0.253,0.145,-0.31,1.503
2024-10-15 11:30:52.252,65803.64,0.139,0.309,-0.941,-0.063,-0.098,-0.14,-0.682,-0.023,0.304,0.147,-0.315,1.507
2024-10-15 11:30:52.262,65803.65,0.14,0.318,-0.938,-0.022,-0.21,-0.102,-1.167,0.067,0.332,0.148,-0.323,1.512
2024-10-15 11:30:52.272,65803.66,0.143,0.327,-0.934,0.07,-0.278,0.048,-0.893,0.386,0.187,0.152,-0.334,1.516
2024-10-15 11:30:52.282,65803.67,0.147,0.332,-0.932,-0.016,-0.166,0.227,-0.142,0.294,0.147,0.157,-0.338,1.519
2024-10-15 11:30:52.292,65803.68,0.149,0.331,-0.932,-0.106,-0.066,0.12,0.418,0.052,-0.049,0.158,-0.337,1.519
2024-10-15 11:30:52.302,65803.69,0.148,0.326,-0.934,0.041,0.032,-0.032,0.651,0.025,-0.327,0.158,-0.332,1.516
2024-10-15 11:30:52.312,65803.7,0.148,0.321,-0.936,0.11,0.013,-0.077,0.434,0.063,-0.23,0.157,-0.327,1.512
2024-10-15 11:30:52.322,65803.71,0.148,0.319,-0.936,0.039,-0.125,-0.108,0.101,0.174,-0.163,0.157,-0.324,1.51
2024-10-15 11:30:52.332,65803.72,0.15,0.319,-0.936,0.015,-0.139,-0.029,-0.098,0.192,-0.191,0.159,-0.325,1.508
2024-10-15 11:30:52.343,65803.73,0.15,0.32,-0.935,-0.015,-0.116,0.041,-0.137,0.032,-0.204,0.159,-0.326,1.506
2024-10-15 11:30:52.352,65803.74,0.149,0.322,-0.935,0.024,-0.064,0.088,-0.109,-0.146,-0.218,0.158,-0.328,1.504
2024-10-15 11:30:52.361,65803.75,0.146,0.323,-0.935,0.077,0.042,0.144,-0.059,-0.201,-0.178,0.155,-0.329,1.502
2024-10-15 11:30:52.372,65803.76,0.145,0.323,-0.935,0.06,0.126,0.139,0.142,-0.047,-0.114,0.154,-0.329,1.501
2024-10-15 11:30:52.381,65803.77,0.144,0.32,-0.937,-0.008,0.225,0.095,0.644,-0.124,-0.079,0.153,-0.325,1.499
2024-10-15 11:30:52.392,65803.78,0.142,0.313,-0.939,-0.092,0.338,0.03,0.628,-0.337,0.006,0.15,-0.319,1.498
2024-10-15 11:30:52.402,65803.79,0.139,0.309,-0.941,-0.013,0.232,-0.102,0.241,-0.221,0.019,0.146,-0.314,1.497
2024-10-15 11:30:52.412,65803.8,0.138,0.309,-0.941,0.087,0.027,-0.101,-0.326,0.032,0.111,0.146,-0.315,1.498
2024-10-15 11:30:52.422,65803.81,0.139,0.313,-0.939,-0.02,-0.086,-0.014,-0.49,0.124,0.222,0.147,-0.319,1.5
2024-10-15 11:30:52.431,65803.82,0.141,0.317,-0.938,-0.114,0.035,0.073,-0.443,0.052,0.161,0.149,-0.323,1.503
2024-10-15 11:30:52.441,65803.83,0.142,0.321,-0.936,-0.084,0.094,0.094,-0.354,0.003,0.114,0.15,-0.327,1.505
2024-10-15 11:30:52.452,65803.84,0.142,0.324,-0.935,-0.01,0.002,0.037,-0.329,0.047,0.122,0.151,-0.33,1.507
2024-10-15 11:30:52.461,65803.85,0.144,0.327,-0.934,0.014,-0.049,-0.019,-0.301,0.118,0.227,0.153,-0.333,1.509
2024-10-15 11:30:52.472,65803.86,0.145,0.329,-0.933,-0.042,0.022,-0.093,-0.328,0.029,0.343,0.155,-0.335,1.513
2024-10-15 11:30:52.481,65803.87,0.146,0.333,-0.932,-0.077,0.068,-0.14,-0.626,-0.17,0.447,0.156,-0.339,1.517
2024-10-15 11:30:52.491,65803.88,0.147,0.34,-0.929,-0.003,-0.047,-0.126,-1.134,0.013,0.34,0.157,-0.347,1.523
2024-10-15 11:30:52.501,65803.89,0.149,0.35,-0.925,0.089,-0.202,0.035,-1.026,0.298,0.151,0.16,-0.358,1.528
2024-10-15 11:30:52.511,65803.9,0.152,0.358,-0.921,-0.02,-0.256,0.152,-0.63,0.27,0.134,0.164,-0.366,1.531
2024-10-15 11:30:52.521,65803.91,0.155,0.361,-0.92,-0.079,-0.204,0.071,0.065,0.25,-0.092,0.167,-0.369,1.531
2024-10-15 11:30:52.532,65803.92,0.156,0.357,-0.921,0.006,-0.015,0.015,0.63,0.133,-0.276,0.168,-0.365,1.529
2024-10-15 11:30:52.541,65803.93,0.155,0.352,-0.923,0.01,0.018,-0.098,0.652,-0.012,-0.269,0.167,-0.359,1.525
2024-10-15 11:30:52.551,65803.94,0.155,0.347,-0.925,0.072,-0.073,-0.148,0.369,0.074,-0.246,0.166,-0.355,1.521
2024-10-15 11:30:52.561,65803.95,0.155,0.346,-0.926,0.109,-0.165,-0.045,0.094,0.145,-0.183,0.166,-0.353,1.518
2024-10-15 11:30:52.571,65803.96,0.155,0.345,-0.926,0.015,-0.11,0.06,0.103,-0.006,-0.099,0.166,-0.352,1.517
2024-10-15 11:30:52.581,65803.97,0.154,0.343,-0.927,-0.019,0.082,0.131,0.403,-0.089,-0.028,0.165,-0.35,1.516
2024-10-15 11:30:52.591,65803.98,0.154,0.337,-0.929,0.041,0.2,0.132,0.913,-0.004,-0.168,0.164,-0.344,1.514
2024-10-15 11:30:52.601,65803.99,0.152,0.326,-0.933,0.044,0.282,0.133,1.465,-0.21,-0.356,0.161,-0.332,1.509
2024-10-15 11:30:52.611,65804.0,0.148,0.314,-0.938,-0.023,0.244,0.012,1.182,-0.428,-0.341,0.156,-0.319,1.503
2024-10-15 11:30:52.621,65804.01,0.144,0.307,-0.941,0.072,-0.052,-0.153,0.457,-0.104,-0.362,0.152,-0.312,1.498
2024-10-15 11:30:52.631,65804.02,0.144,0.305,-0.941,0.107,-0.28,-0.096,-0.046,0.274,-0.221,0.152,-0.31,1.494
2024-10-15 11:30:52.641,65804.03,0.146,0.307,-0.941,-0.119,-0.206,0.005,-0.161,0.184,0.043,0.154,-0.312,1.494
2024-10-15 11:30:52.651,65804.04,0.147,0.308,-0.94,-0.205,0.06,0.049,-0.206,-0.039,0.167,0.155,-0.313,1.495
2024-10-15 11:30:52.661,65804.05,0.147,0.31,-0.939,-0.043,0.25,0.079,-0.208,-0.022,0.156,0.155,-0.315,1.497
2024-10-15 11:30:52.671,65804.06,0.148,0.311,-0.939,0.067,0.319,0.131,-0.034,0.063,0.145,0.156,-0.316,1.499
2024-10-15 11:30:52.681,65804.07,0.149,0.31,-0.939,0.005,0.293,0.115,0.086,-0.029,0.246,0.157,-0.316,1.501
2024-10-15 11:30:52.691,65804.08,0.149,0.309,-0.939,-0.056,0.179,-0.027,-0.029,-0.052,0.342,0.157,-0.315,1.504
2024-10-15 11:30:52.701,65804.09,0.15,0.31,-0.939,0.004,0.015,-0.138,-0.241,0.148,0.259,0.159,-0.315,1.507
2024-10-15 11:30:52.711,65804.1,0.152,0.314,-0.937,0.006,-0.101,-0.154,-0.533,0.077,0.306,0.161,-0.319,1.511
2024-10-15 11:30:52.721,65804.11,0.154,0.32,-0.935,-0.063,-0.183,-0.138,-0.979,0.038,0.429,0.163,-0.326,1.516
2024-10-15 11:30:52.731,65804.12,0.157,0.329,-0.931,0.013,-0.231,-0.028,-0.884,0.35,0.289,0.167,-0.335,1.521
2024-10-15 11:30:52.741,65804.13,0.161,0.333,-0.929,0.009,-0.138,0.16,-0.193,0.36,0.22,0.172,-0.34,1.525
2024-10-15 11:30:52.751,65804.14,0.164,0.332,-0.929,-0.118,-0.042,0.132,0.474,0.114,0.078,0.175,-0.338,1.526
2024-10-15 11:30:52.761,65804.15,0.164,0.326,-0.931,-0.014,0.009,0.008,0.75,0.021,-0.28,0.174,-0.332,1.524
2024-10-15 11:30:52.771,65804.16,0.163,0.32,-0.933,0.104,-0.059,-0.055,0.597,0.084,-0.362,0.173,-0.326,1.519
2024-10-15 11:30:52.781,65804.17,0.163,0.316,-0.934,0.058,-0.232,-0.069,0.23,0.142,-0.274,0.173,-0.322,1.515
2024-10-15 11:30:52.791,65804.18,0.164,0.316,-0.934,-0.0,-0.264,-0.03,-0.061,0.179,-0.261,0.174,-0.322,1.512
2024-10-15 11:30:52.801,65804.19,0.165,0.317,-0.934,-0.032,-0.137,0.038,-0.078,0.078,-0.18,0.175,-0.323,1.51
2024-10-15 11:30:52.811,65804.2,0.164,0.318,-0.934,-0.045,0.06,0.07,0.053,-0.135,-0.055,0.174,-0.323,1.509
2024-10-15 11:30:52.821,65804.21,0.162,0.316,-0.935,0.014,0.198,0.094,0.254,-0.218,0.012,0.172,-0.322,1.509
2024-10-15 11:30:52.831,65804.219,0.16,0.313,-0.936,0.076,0.237,0.126,0.614,-0.171,-0.067,0.17,-0.318,1.508
2024-10-15 11:30:52.841,65804.229,0.158,0.305,-0.939,0.056,0.251,0.143,0.98,-0.308,-0.172,0.167,-0.31,1.505
2024-10-15 11:30:52.851,65804.239,0.154,0.297,-0.943,0.011,0.204,0.055,0.796,-0.409,-0.172,0.162,-0.301,1.501
2024-10-15 11:30:52.861,65804.249,0.151,0.292,-0.945,0.062,0.034,-0.088,0.312,-0.167,-0.158,0.158,-0.296,1.499
2024-10-15 11:30:52.871,65804.259,0.15,0.291,-0.945,0.06,-0.113,-0.089,-0.134,0.121,-0.035,0.158,-0.295,1.498
2024-10-15 11:30:52.881,65804.269,0.152,0.293,-0.944,-0.082,-0.109,-0.032,-0.193,0.144,0.145,0.159,-0.297,1.499
2024-10-15 11:30:52.891,65804.279,0.153,0.294,-0.944,-0.146,0.047,0.015,-0.086,0.054,0.186,0.161,-0.298,1.501
2024-10-15 11:30:52.901,65804.289,0.154,0.294,-0.943,-0.064,0.155,0.056,0.054,0.045,0.114,0.162,-0.298,1.502
2024-10-15 11:30:52.911,65804.299,0.155,0.293,-0.944,0.01,0.178,0.085,0.098,0.068,0.086,0.163,-0.297,1.503
2024-10-15 11:30:52.921,65804.309,0.156,0.292,-0.944,-0.01,0.128,0.022,-0.014,0.052,0.217,0.164,-0.296,1.504
2024-10-15 11:30:52.931,65804.319,0.157,0.293,-0.943,-0.045,0.063,-0.09,-0.166,0.13,0.335,0.165,-0.297,1.507
2024-10-15 11:30:52.941,65804.329,0.16,0.294,-0.942,-0.044,-0.001,-0.135,-0.325,0.214,0.343,0.168,-0.299,1.511
2024-10-15 11:30:52.951,65804.339,0.162,0.298,-0.941,-0.04,-0.096,-0.133,-0.653,0.034,0.315,0.171,-0.303,1.516
2024-10-15 11:30:52.961,65804.349,0.163,0.306,-0.938,0.003,-0.196,-0.105,-1.185,0.001,0.311,0.172,-0.311,1.521
2024-10-15 11:30:52.971,65804.359,0.165,0.317,-0.934,0.097,-0.313,-0.008,-1.133,0.359,0.133,0.175,-0.323,1.525
2024-10-15 11:30:52.981,65804.369,0.17,0.325,-0.93,0.057,-0.322,0.163,-0.484,0.493,0.021,0.18,-0.331,1.527
2024-10-15 11:30:52.991,65804.379,0.173,0.326,-0.929,-0.108,-0.203,0.131,0.205,0.21,-0.119,0.184,-0.332,1.527
2024-10-15 11:30:53.000,65804.389,0.173,0.322,-0.931,-0.046,0.001,0.014,0.627,-0.07,-0.358,0.184,-0.328,1.524
2024-10-15 11:30:53.010,65804.399,0.171,0.318,-0.933,0.108,0.027,-0.085,0.396,-0.073,-0.378,0.181,-0.324,1.519
2024-10-15 11:30:53.021,65804.409,0.17,0.316,-0.933,0.149,-0.16,-0.093,0.098,0.066,-0.311,0.18,-0.322,1.515
2024-10-15 11:30:53.030,65804.419,0.169,0.317,-0.933,0.062,-0.174,-0.002,-0.084,0.021,-0.221,0.18,-0.323,1.512
2024-10-15 11:30:53.040,65804.429,0.168,0.318,-0.933,-0.048,-0.055,0.053,-0.083,-0.181,-0.158,0.178,-0.324,1.51
2024-10-15 11:30:53.051,65804.439,0.165,0.318,-0.933,-0.014,0.093,0.13,0.136,-0.241,-0.147,0.175,-0.324,1.509
2024-10-15 11:30:53.061,65804.449,0.163,0.316,-0.935,0.057,0.177,0.176,0.57,-0.17,-0.262,0.173,-0.321,1.506
2024-10-15 11:30:53.071,65804.459,0.159,0.308,-0.938,0.037,0.24,0.179,1.05,-0.379,-0.378,0.168,-0.313,1.501
2024-10-15 11:30:53.080,65804.469,0.154,0.3,-0.942,-0.008,0.214,0.052,0.744,-0.552,-0.367,0.162,-0.305,1.496
2024-10-15 11:30:53.090,65804.479,0.149,0.296,-0.943,0.1,0.003,-0.131,0.077,-0.237,-0.348,0.156,-0.301,1.491
2024-10-15 11:30:53.100,65804.489,0.148,0.298,-0.943,0.116,-0.135,-0.105,-0.348,0.119,-0.13,0.155,-0.303,1.489
2024-10-15 11:30:53.111,65804.499,0.149,0.301,-0.942,-0.106,-0.034,-0.026,-0.243,0.09,0.202,0.157,-0.306,1.49
2024-10-15 11:30:53.120,65804.509,0.149,0.302,-0.941,-0.196,0.21,0.038,-0.017,-0.151,0.279,0.157,-0.307,1.493
2024-10-15 11:30:53.130,65804.519,0.149,0.302,-0.942,-0.053,0.315,0.066,0.018,-0.126,0.137,0.156,-0.306,1.495
2024-10-15 11:30:53.140,65804.529,0.149,0.301,-0.942,0.067,0.255,0.086,0.078,0.023,0.076,0.156,-0.306,1.496
2024-10-15 11:30:53.150,65804.539,0.149,0.3,-0.942,-0.001,0.18,0.076,0.092,-0.029,0.256,0.157,-0.305,1.497
2024-10-15 11:30:53.160,65804.549,0.15,0.299,-0.942,-0.09,0.08,-0.06,-0.028,-0.033,0.362,0.157,-0.304,1.501
2024-10-15 11:30:53.170,65804.559,0.151,0.3,-0.942,-0.037,-0.039,-0.149,-0.263,0.117,0.252,0.159,-0.305,1.504
2024-10-15 11:30:53.180,65804.569,0.153,0.304,-0.94,-0.029,-0.136,-0.14,-0.636,0.033,0.226,0.161,-0.309,1.507
2024-10-15 11:30:53.190,65804.579,0.153,0.312,-0.938,-0.06,-0.226,-0.115,-1.207,-0.033,0.316,0.162,-0.317,1.512
2024-10-15 11:30:53.200,65804.589,0.155,0.324,-0.933,0.023,-0.348,-0.042,-1.388,0.369,0.16,0.165,-0.33,1.517
2024-10-15 11:30:53.210,65804.599,0.161,0.334,-0.929,0.048,-0.351,0.126,-0.576,0.649,0.057,0.171,-0.34,1.519
2024-10-15 11:30:53.220,65804.609,0.166,0.334,-0.928,-0.135,-0.173,0.112,0.402,0.343,0.035,0.177,-0.341,1.52
2024-10-15 11:30:53.230,65804.619,0.167,0.328,-0.93,-0.102,0.078,-0.023,0.923,-0.091,-0.241,0.177,-0.334,1.518
2024-10-15 11:30:53.240,65804.629,0.164,0.321,-0.933,0.12,0.182,-0.128,0.638,-0.066,-0.403,0.175,-0.327,1.513
2024-10-15 11:30:53.250,65804.639,0.164,0.318,-0.934,0.185,-0.037,-0.103,0.202,0.186,-0.294,0.174,-0.323,1.508
2024-10-15 11:30:53.260,65804.649,0.165,0.317,-0.934,0.034,-0.154,0.04,-0.05,0.175,-0.089,0.175,-0.323,1.506
2024-10-15 11:30:53.270,65804.659,0.166,0.318,-0.934,-0.105,-0.073,0.095,-0.037,-0.011,-0.037,0.176,-0.324,1.506
2024-10-15 11:30:53.280,65804.669,0.165,0.317,-0.934,-0.038,0.08,0.159,0.228,-0.189,-0.069,0.174,-0.323,1.505
2024-10-15 11:30:53.290,65804.679,0.162,0.314,-0.936,0.058,0.198,0.212,0.591,-0.212,-0.134,0.172,-0.319,1.503
2024-10-15 11:30:53.300,65804.689,0.159,0.306,-0.939,0.078,0.262,0.198,1.019,-0.357,-0.236,0.168,-0.311,1.5
2024-10-15 11:30:53.310,65804.699,0.154,0.298,-0.942,0.026,0.281,0.089,0.789,-0.506,-0.165,0.163,-0.302,1.496
2024-10-15 11:30:53.320,65804.709,0.15,0.293,-0.944,0.039,0.111,-0.1,0.231,-0.278,0.005,0.158,-0.297,1.494
2024-10-15 11:30:53.330,65804.719,0.15,0.293,-0.944,0.063,-0.047,-0.11,-0.192,-0.0,0.221,0.157,-0.297,1.495
2024-10-15 11:30:53.340,65804.729,0.151,0.295,-0.944,-0.082,-0.047,-0.033,-0.252,0.028,0.397,0.158,-0.299,1.499
2024-10-15 11:30:53.350,65804.739,0.151,0.296,-0.943,-0.153,0.144,0.049,-0.074,-0.129,0.348,0.159,-0.3,1.503
2024-10-15 11:30:53.360,65804.749,0.151,0.295,-0.943,-0.068,0.295,0.102,0.004,-0.223,0.249,0.158,-0.3,1.507
2024-10-15 11:30:53.370,65804.759,0.149,0.295,-0.944,0.032,0.177,0.079,-0.107,-0.193,0.22,0.157,-0.3,1.509
2024-10-15 11:30:53.380,65804.769,0.149,0.297,-0.943,0.066,-0.025,0.013,-0.287,-0.085,0.248,0.156,-0.302,1.512
2024-10-15 11:30:53.390,65804.779,0.149,0.3,-0.942,0.006,-0.129,-0.066,-0.429,0.013,0.272,0.157,-0.305,1.515
2024-10-15 11:30:53.399,65804.789,0.15,0.305,-0.94,-0.065,-0.158,-0.146,-0.829,-0.123,0.344,0.158,-0.31,1.519
2024-10-15 11:30:53.409,65804.799,0.149,0.316,-0.937,-0.068,-0.216,-0.177,-1.574,-0.082,0.391,0.158,-0.321,1.525
2024-10-15 11:30:53.419,65804.808,0.151,0.331,-0.931,0.034,-0.292,-0.05,-1.602,0.257,0.174,0.161,-0.337,1.531
2024-10-15 11:30:53.429,65804.818,0.155,0.343,-0.927,0.02,-0.288,0.123,-0.96,0.351,0.158,0.166,-0.35,1.535
2024-10-15 11:30:53.440,65804.828,0.158,0.348,-0.924,-0.111,-0.223,0.094,-0.23,0.197,0.099,0.169,-0.355,1.537
2024-10-15 11:30:53.450,65804.838,0.159,0.347,-0.924,-0.022,-0.002,0.031,0.479,0.009,-0.18,0.17,-0.354,1.537
2024-10-15 11:30:53.460,65804.848,0.157,0.342,-0.927,0.089,0.12,-0.054,0.605,-0.09,-0.238,0.168,-0.349,1.533
2024-10-15 11:30:53.470,65804.858,0.156,0.337,-0.928,0.125,-0.042,-0.143,0.444,0.017,-0.268,0.167,-0.344,1.53
2024-10-15 11:30:53.480,65804.868,0.156,0.335,-0.929,0.096,-0.145,-0.097,0.208,0.044,-0.269,0.166,-0.341,1.526
2024-10-15 11:30:53.490,65804.878,0.155,0.334,-0.93,-0.016,-0.17,-0.033,-0.03,-0.059,-0.228,0.165,-0.341,1.523
2024-10-15 11:30:53.500,65804.888,0.153,0.336,-0.93,-0.019,-0.111,0.034,-0.168,-0.15,-0.211,0.163,-0.342,1.521
2024-10-15 11:30:53.510,65804.898,0.151,0.337,-0.929,0.033,0.013,0.136,-0.017,-0.109,-0.152,0.161,-0.343,1.52
2024-10-15 11:30:53.520,65804.908,0.15,0.335,-0.93,0.024,0.16,0.176,0.519,-0.105,-0.186,0.16,-0.342,1.518
2024-10-15 11:30:53.530,65804.918,0.147,0.328,-0.933,-0.017,0.338,0.171,1.028,-0.34,-0.183,0.156,-0.334,1.514
2024-10-15 11:30:53.540,65804.928,0.143,0.318,-0.937,-0.021,0.374,0.034,0.969,-0.448,-0.086,0.151,-0.324,1.511
2024-10-15 11:30:53.550,65804.938,0.14,0.311,-0.94,0.085,0.245,-0.065,0.526,-0.224,0.028,0.147,-0.317,1.51
2024-10-15 11:30:53.560,65804.948,0.139,0.307,-0.941,0.063,0.105,-0.024,0.284,0.022,0.206,0.147,-0.313,1.51
2024-10-15 11:30:53.570,65804.958,0.14,0.304,-0.942,-0.086,0.068,0.028,0.339,0.065,0.291,0.148,-0.309,1.512
2024-10-15 11:30:53.580,65804.968,0.141,0.3,-0.943,-0.131,0.124,0.011,0.41,-0.026,0.282,0.149,-0.305,1.515
2024-10-15 11:30:53.590,65804.978,0.142,0.296,-0.944,-0.059,0.131,-0.074,0.323,0.024,0.228,0.149,-0.301,1.517
2024-10-15 11:30:53.599,65804.988,0.144,0.294,-0.945,0.012,-0.003,-0.133,0.045,0.176,0.194,0.151,-0.299,1.519
2024-10-15 11:30:53.609,65804.998,0.146,0.295,-0.944,-0.013,-0.198,-0.128,-0.291,0.296,0.177,0.154,-0.3,1.521
2024-10-15 11:30:53.619,65805.008,0.149,0.299,-0.943,-0.067,-0.233,-0.096,-0.537,0.203,0.142,0.157,-0.304,1.523
2024-10-15 11:30:53.630,65805.018,0.151,0.306,-0.94,-0.07,-0.227,-0.058,-0.956,0.091,0.17,0.159,-0.31,1.526
2024-10-15 11:30:53.638,65805.028,0.153,0.316,-0.936,0.014,-0.306,0.019,-1.162,0.289,0.063,0.162,-0.321,1.529
2024-10-15 11:30:53.649,65805.038,0.157,0.325,-0.933,0.035,-0.244,0.175,-0.728,0.425,-0.078,0.166,-0.331,1.531
2024-10-15 11:30:53.659,65805.048,0.159,0.329,-0.931,-0.111,-0.094,0.209,-0.082,0.229,-0.153,0.169,-0.335,1.53
2024-10-15 11:30:53.669,65805.058,0.16,0.328,-0.931,-0.106,-0.001,0.038,0.339,0.032,-0.335,0.17,-0.334,1.527
2024-10-15 11:30:53.679,65805.068,0.158,0.325,-0.932,0.065,-0.008,-0.054,0.327,0.0,-0.42,0.168,-0.331,1.523
2024-10-15 11:30:53.689,65805.078,0.157,0.323,-0.933,0.106,-0.07,-0.038,0.13,-0.024,-0.322,0.167,-0.329,1.518
2024-10-15 11:30:53.699,65805.088,0.156,0.324,-0.933,0.034,-0.041,-0.003,-0.088,-0.107,-0.226,0.165,-0.33,1.516
2024-10-15 11:30:53.709,65805.098,0.154,0.325,-0.933,0.009,0.039,0.063,-0.149,-0.221,-0.171,0.163,-0.331,1.514
2024-10-15 11:30:53.719,65805.108,0.151,0.326,-0.933,0.041,0.107,0.126,0.078,-0.159,-0.184,0.161,-0.332,1.512
2024-10-15 11:30:53.729,65805.118,0.149,0.323,-0.934,0.07,0.139,0.14,0.575,-0.204,-0.317,0.158,-0.329,1.509
2024-10-15 11:30:53.739,65805.128,0.145,0.317,-0.937,0.035,0.18,0.084,0.711,-0.435,-0.337,0.153,-0.323,1.504
2024-10-15 11:30:53.750,65805.138,0.14,0.313,-0.939,0.033,0.112,-0.076,0.328,-0.327,-0.257,0.148,-0.318,1.5
2024-10-15 11:30:53.759,65805.148,0.138,0.312,-0.94,0.099,-0.04,-0.11,-0.125,0.011,-0.12,0.146,-0.318,1.498
2024-10-15 11:30:53.769,65805.158,0.139,0.314,-0.939,-0.008,-0.057,-0.029,-0.204,0.073,0.134,0.147,-0.319,1.499
2024-10-15 11:30:53.779,65805.168,0.14,0.315,-0.939,-0.154,0.101,0.013,-0.083,-0.002,0.283,0.148,-0.321,1.501
2024-10-15 11:30:53.789,65805.178,0.14,0.315,-0.939,-0.089,0.246,0.042,0.094,-0.016,0.22,0.148,-0.32,1.504
2024-10-15 11:30:53.799,65805.188,0.141,0.312,-0.939,0.012,0.312,0.065,0.329,-0.022,0.158,0.149,-0.318,1.505
2024-10-15 11:30:53.811,65805.198,0.141,0.309,-0.941,-0.008,0.237,0.026,0.297,-0.053,0.219,0.149,-0.314,1.507
2024-10-15 11:30:53.819,65805.208,0.142,0.307,-0.941,-0.005,0.028,-0.066,0.047,0.045,0.214,0.149,-0.312,1.509
2024-10-15 11:30:53.828,65805.218,0.143,0.308,-0.941,0.019,-0.115,-0.11,-0.24,0.148,0.162,0.151,-0.313,1.511
2024-10-15 11:30:53.838,65805.228,0.144,0.311,-0.939,-0.037,-0.174,-0.113,-0.607,0.007,0.223,0.153,-0.317,1.514
2024-10-15 11:30:53.848,65805.238,0.145,0.319,-0.936,-0.06,-0.222,-0.102,-1.172,0.049,0.275,0.154,-0.325,1.518
2024-10-15 11:30:53.859,65805.248,0.148,0.33,-0.932,0.027,-0.271,0.021,-1.075,0.335,0.107,0.157,-0.336,1.522
2024-10-15 11:30:53.869,65805.258,0.151,0.337,-0.929,-0.012,-0.202,0.177,-0.481,0.331,0.06,0.161,-0.344,1.524
2024-10-15 11:30:53.879,65805.268,0.154,0.338,-0.928,-0.127,-0.099,0.112,0.238,0.165,-0.072,0.164,-0.345,1.524
2024-10-15 11:30:53.889,65805.278,0.154,0.335,-0.93,-0.028,0.038,0.0,0.57,-0.004,-0.329,0.164,-0.341,1.521
2024-10-15 11:30:53.899,65805.288,0.152,0.33,-0.931,0.081,0.023,-0.092,0.397,-0.04,-0.34,0.162,-0.337,1.517
2024-10-15 11:30:53.909,65805.298,0.151,0.329,-0.932,0.093,-0.087,-0.088,0.026,0.069,-0.255,0.161,-0.335,1.513
2024-10-15 11:30:53.919,65805.308,0.152,0.33,-0.932,0.034,-0.104,0.006,-0.228,0.101,-0.168,0.161,-0.337,1.511
2024-10-15 11:30:53.929,65805.318,0.151,0.333,-0.931,-0.045,-0.012,0.079,-0.194,-0.047,-0.08,0.161,-0.339,1.51
2024-10-15 11:30:53.939,65805.328,0.15,0.334,-0.931,-0.032,0.121,0.1,-0.023,-0.184,-0.027,0.16,-0.34,1.51
2024-10-15 11:30:53.949,65805.338,0.148,0.333,-0.931,0.049,0.168,0.122,0.23,-0.186,-0.039,0.158,-0.339,1.509
2024-10-15 11:30:53.959,65805.348,0.146,0.329,-0.933,0.078,0.182,0.15,0.589,-0.195,-0.114,0.156,-0.336,1.508
2024-10-15 11:30:53.969,65805.358,0.144,0.323,-0.936,0.029,0.207,0.106,0.792,-0.3,-0.156,0.152,-0.329,1.505
2024-10-15 11:30:53.979,65805.368,0.14,0.317,-0.938,0.008,0.14,-0.01,0.532,-0.281,-0.081,0.149,-0.322,1.503
2024-10-15 11:30:53.989,65805.378,0.138,0.313,-0.939,0.041,0.011,-0.095,0.128,-0.089,0.018,0.146,-0.319,1.502
2024-10-15 11:30:53.999,65805.388,0.139,0.314,-0.939,-0.009,-0.065,-0.09,-0.217,0.108,0.155,0.147,-0.319,1.503
2024-10-15 11:30:54.009,65805.398,0.141,0.316,-0.938,-0.111,-0.025,-0.047,-0.189,0.157,0.21,0.149,-0.321,1.505
2024-10-15 11:30:54.019,65805.407,0.143,0.316,-0.938,-0.134,0.118,0.02,0.008,0.098,0.191,0.151,-0.322,1.508
2024-10-15 11:30:54.029,65805.417,0.144,0.315,-0.938,-0.08,0.181,0.039,0.207,0.035,0.138,0.152,-0.32,1.509
2024-10-15 11:30:54.039,65805.427,0.144,0.312,-0.939,-0.017,0.136,0.042,0.317,0.023,0.086,0.153,-0.318,1.51
2024-10-15 11:30:54.049,65805.437,0.145,0.309,-0.94,-0.003,0.011,0.047,0.265,0.053,0.097,0.153,-0.315,1.51
2024-10-15 11:30:54.059,65805.447,0.146,0.308,-0.94,-0.027,-0.107,0.03,0.071,0.117,0.061,0.154,-0.313,1.511
2024-10-15 11:30:54.069,65805.457,0.147,0.308,-0.94,-0.061,-0.149,0.001,-0.136,0.16,0.003,0.155,-0.313,1.511
2024-10-15 11:30:54.078,65805.467,0.149,0.31,-0.939,-0.083,-0.173,-0.001,-0.333,0.171,-0.011,0.157,-0.315,1.512
2024-10-15 11:30:54.088,65805.477,0.15,0.314,-0.937,-0.07,-0.182,0.002,-0.506,0.093,0.013,0.159,-0.319,1.512
2024-10-15 11:30:54.098,65805.487,0.151,0.32,-0.935,-0.039,-0.156,-0.016,-0.843,0.008,0.096,0.16,-0.326,1.514
2024-10-15 11:30:54.108,65805.497,0.152,0.33,-0.932,0.003,-0.136,-0.01,-1.304,0.118,0.13,0.161,-0.336,1.517
2024-10-15 11:30:54.118,65805.507,0.154,0.343,-0.927,0.035,-0.091,0.008,-1.501,0.319,0.133,0.165,-0.35,1.521
2024-10-15 11:30:54.128,65805.517,0.158,0.356,-0.921,-0.023,-0.016,-0.061,-1.422,0.396,0.246,0.17,-0.364,1.525
2024-10-15 11:30:54.138,65805.527,0.163,0.368,-0.915,-0.067,0.017,-0.129,-1.285,0.384,0.333,0.176,-0.377,1.531
2024-10-15 11:30:54.148,65805.537,0.167,0.379,-0.91,-0.0,0.02,-0.127,-1.194,0.374,0.28,0.182,-0.389,1.537
2024-10-15 11:30:54.158,65805.547,0.172,0.389,-0.905,0.079,-0.007,-0.094,-1.101,0.359,0.232,0.188,-0.399,1.542
2024-10-15 11:30:54.168,65805.557,0.176,0.398,-0.901,0.093,-0.039,-0.055,-0.927,0.311,0.232,0.193,-0.409,1.546
2024-10-15 11:30:54.178,65805.567,0.179,0.405,-0.897,0.076,-0.022,-0.011,-0.704,0.236,0.225,0.197,-0.417,1.55
2024-10-15 11:30:54.189,65805.577,0.182,0.409,-0.894,0.052,0.017,0.036,-0.448,0.145,0.215,0.2,-0.422,1.554
2024-10-15 11:30:54.198,65805.587,0.183,0.412,-0.893,0.039,0.042,0.068,-0.188,0.037,0.203,0.203,-0.425,1.557
2024-10-15 11:30:54.208,65805.597,0.184,0.412,-0.892,0.038,0.06,0.076,0.023,-0.045,0.194,0.203,-0.425,1.559
2024-10-15 11:30:54.218,65805.607,0.184,0.411,-0.893,0.031,0.085,0.07,0.226,-0.099,0.163,0.203,-0.423,1.561
2024-10-15 11:30:54.228,65805.617,0.184,0.408,-0.895,0.013,0.106,0.065,0.446,-0.122,0.156,0.203,-0.42,1.562
2024-10-15 11:30:54.238,65805.627,0.183,0.402,-0.897,-0.003,0.083,0.069,0.674,-0.157,0.15,0.201,-0.414,1.562
2024-10-15 11:30:54.248,65805.637,0.182,0.395,-0.9,0.002,0.034,0.057,0.796,-0.228,0.151,0.2,-0.406,1.562
2024-10-15 11:30:54.258,65805.647,0.18,0.387,-0.904,0.02,0.014,0.054,0.896,-0.281,0.114,0.197,-0.398,1.562
2024-10-15 11:30:54.269,65805.657,0.178,0.379,-0.908,0.029,0.048,0.071,0.951,-0.319,0.049,0.193,-0.389,1.561
2024-10-15 11:30:54.278,65805.667,0.175,0.37,-0.912,0.012,0.055,0.064,0.924,-0.326,-0.002,0.189,-0.379,1.559
2024-10-15 11:30:54.288,65805.677,0.172,0.362,-0.916,0.002,0.01,0.035,0.82,-0.275,-0.06,0.186,-0.371,1.557
2024-10-15 11:30:54.298,65805.687,0.17,0.355,-0.919,0.005,-0.059,0.018,0.696,-0.206,-0.12,0.182,-0.363,1.554
2024-10-15 11:30:54.308,65805.697,0.167,0.35,-0.922,-0.005,-0.106,-0.009,0.603,-0.181,-0.169,0.179,-0.357,1.552
2024-10-15 11:30:54.318,65805.707,0.165,0.345,-0.924,-0.006,-0.132,-0.028,0.496,-0.17,-0.197,0.177,-0.352,1.549
2024-10-15 11:30:54.328,65805.717,0.163,0.341,-0.926,0.004,-0.133,-0.026,0.465,-0.12,-0.245,0.174,-0.348,1.546
2024-10-15 11:30:54.338,65805.727,0.161,0.337,-0.928,0.004,-0.103,-0.022,0.511,-0.045,-0.278,0.172,-0.344,1.542
2024-10-15 11:30:54.349,65805.737,0.16,0.333,-0.929,-0.008,-0.073,-0.027,0.502,-0.116,-0.301,0.17,-0.339,1.538
2024-10-15 11:30:54.358,65805.747,0.157,0.331,-0.93,-0.013,-0.029,-0.016,-0.099,-0.144,-0.233,0.168,-0.337,1.535
2024-10-15 11:30:54.368,65805.757,0.157,0.334,-0.929,0.019,-0.025,0.041,-0.429,0.185,-0.186,0.167,-0.341,1.533
2024-10-15 11:30:54.378,65805.767,0.159,0.337,-0.928,0.024,-0.007,-0.085,-0.039,0.381,-0.202,0.17,-0.344,1.532
2024-10-15 11:30:54.388,65805.777,0.161,0.335,-0.928,-0.075,0.008,-0.048,0.482,0.089,-0.075,0.172,-0.341,1.53
2024-10-15 11:30:54.399,65805.787,0.16,0.33,-0.93,-0.094,0.121,0.015,0.403,-0.235,0.015,0.17,-0.337,1.529
2024-10-15 11:30:54.408,65805.797,0.158,0.328,-0.931,0.082,0.166,0.033,0.092,-0.139,-0.084,0.168,-0.334,1.528
2024-10-15 11:30:54.418,65805.807,0.158,0.329,-0.931,0.139,0.103,0.09,-0.113,0.055,0.05,0.168,-0.335,1.527
2024-10-15 11:30:54.428,65805.817,0.159,0.329,-0.931,-0.023,0.083,0.08,0.029,0.096,0.263,0.169,-0.335,1.529
2024-10-15 11:30:54.438,65805.827,0.16,0.327,-0.931,-0.08,0.163,0.065,0.343,0.037,0.273,0.171,-0.333,1.532
2024-10-15 11:30:54.448,65805.837,0.161,0.322,-0.933,-0.025,0.206,0.016,0.636,-0.064,0.192,0.171,-0.327,1.533
2024-10-15 11:30:54.458,65805.847,0.161,0.315,-0.935,0.026,0.16,-0.035,0.693,-0.094,0.147,0.17,-0.321,1.534
2024-10-15 11:30:54.468,65805.857,0.161,0.309,-0.937,0.044,0.054,-0.043,0.604,0.042,0.134,0.17,-0.314,1.534
2024-10-15 11:30:54.478,65805.867,0.162,0.304,-0.939,0.001,-0.041,-0.035,0.435,0.118,0.166,0.171,-0.308,1.535
2024-10-15 11:30:54.488,65805.877,0.164,0.301,-0.939,-0.063,-0.135,-0.03,-0.078,-0.006,0.259,0.172,-0.306,1.537
2024-10-15 11:30:54.498,65805.887,0.163,0.305,-0.938,-0.045,-0.171,-0.006,-0.762,-0.219,0.355,0.172,-0.31,1.54
2024-10-15 11:30:54.508,65805.897,0.163,0.314,-0.935,0.033,-0.152,0.037,-1.346,-0.142,0.336,0.172,-0.32,1.546
2024-10-15 11:30:54.519,65805.907,0.163,0.326,-0.931,0.079,-0.139,0.149,-1.041,0.144,0.15,0.174,-0.332,1.551
2024-10-15 11:30:54.528,65805.917,0.165,0.331,-0.929,-0.028,0.001,0.182,-0.23,0.007,0.223,0.176,-0.338,1.554
2024-10-15 11:30:54.538,65805.927,0.164,0.33,-0.93,-0.118,0.119,0.007,0.358,-0.304,0.176,0.175,-0.336,1.556
2024-10-15 11:30:54.548,65805.937,0.162,0.326,-0.932,0.031,0.163,-0.096,0.516,-0.221,-0.084,0.172,-0.332,1.556
2024-10-15 11:30:54.558,65805.947,0.16,0.322,-0.933,0.094,0.024,-0.125,0.326,0.008,-0.193,0.17,-0.328,1.553
2024-10-15 11:30:54.568,65805.957,0.16,0.321,-0.934,-0.005,-0.215,-0.112,0.017,0.131,-0.178,0.17,-0.326,1.551
2024-10-15 11:30:54.578,65805.967,0.161,0.322,-0.933,-0.063,-0.285,-0.062,-0.184,0.199,-0.203,0.171,-0.328,1.549
2024-10-15 11:30:54.588,65805.977,0.163,0.324,-0.932,-0.054,-0.222,-0.007,-0.13,0.22,-0.262,0.173,-0.33,1.547
2024-10-15 11:30:54.598,65805.987,0.163,0.324,-0.932,-0.029,-0.097,0.035,0.096,0.1,-0.216,0.174,-0.33,1.545
2024-10-15 11:30:54.608,65805.997,0.163,0.323,-0.932,-0.008,0.064,0.058,0.24,-0.122,-0.157,0.173,-0.329,1.542
2024-10-15 11:30:54.618,65806.006,0.161,0.321,-0.933,0.035,0.187,0.072,0.268,-0.178,-0.124,0.17,-0.327,1.54
2024-10-15 11:30:54.628,65806.016,0.16,0.318,-0.935,0.057,0.193,0.08,0.424,0.024,-0.15,0.169,-0.324,1.539
2024-10-15 11:30:54.638,65806.026,0.159,0.313,-0.936,0.017,0.15,0.093,0.799,0.026,-0.215,0.169,-0.318,1.536
2024-10-15 11:30:54.648,65806.036,0.158,0.305,-0.939,-0.054,0.149,0.032,0.847,-0.165,-0.175,0.167,-0.31,1.532
2024-10-15 11:30:54.658,65806.046,0.156,0.298,-0.942,0.001,0.063,-0.084,0.586,-0.148,-0.179,0.164,-0.303,1.529
2024-10-15 11:30:54.668,65806.056,0.155,0.295,-0.943,0.09,-0.051,-0.073,0.227,0.031,-0.177,0.163,-0.299,1.526
2024-10-15 11:30:54.677,65806.066,0.156,0.294,-0.943,0.01,-0.107,-0.015,0.002,0.132,-0.041,0.163,-0.298,1.525
2024-10-15 11:30:54.688,65806.076,0.157,0.294,-0.943,-0.088,-0.044,0.039,0.003,0.136,0.05,0.165,-0.298,1.525
2024-10-15 11:30:54.698,65806.086,0.158,0.293,-0.943,-0.088,0.1,0.074,0.128,-0.0,0.107,0.166,-0.298,1.526
2024-10-15 11:30:54.707,65806.096,0.158,0.292,-0.943,-0.039,0.176,0.05,0.167,-0.059,0.199,0.166,-0.296,1.527
2024-10-15 11:30:54.717,65806.106,0.158,0.289,-0.944,0.023,0.176,0.041,0.259,0.047,0.256,0.166,-0.294,1.529
2024-10-15 11:30:54.727,65806.116,0.16,0.286,-0.945,0.009,0.206,0.055,0.448,0.088,0.326,0.168,-0.29,1.531
2024-10-15 11:30:54.737,65806.126,0.162,0.28,-0.946,-0.071,0.239,0.009,0.559,0.054,0.455,0.169,-0.284,1.535
2024-10-15 11:30:54.747,65806.136,0.164,0.274,-0.948,-0.067,0.205,-0.044,0.513,0.059,0.468,0.171,-0.278,1.538
2024-10-15 11:30:54.758,65806.146,0.165,0.27,-0.949,-0.002,0.103,-0.059,0.2,0.077,0.393,0.173,-0.273,1.542
2024-10-15 11:30:54.767,65806.156,0.166,0.27,-0.948,0.031,-0.065,-0.066,-0.395,-0.084,0.408,0.174,-0.274,1.546
2024-10-15 11:30:54.778,65806.166,0.167,0.277,-0.946,0.053,-0.232,-0.068,-1.305,0.058,0.44,0.175,-0.281,1.552
2024-10-15 11:30:54.787,65806.176,0.171,0.29,-0.942,0.083,-0.358,0.026,-1.284,0.499,0.168,0.179,-0.294,1.558
2024-10-15 11:30:54.798,65806.186,0.176,0.298,-0.938,-0.016,-0.322,0.133,-0.503,0.563,0.13,0.186,-0.303,1.561
2024-10-15 11:30:54.807,65806.196,0.181,0.298,-0.937,-0.161,-0.234,-0.014,0.399,0.228,0.183,0.19,-0.303,1.563
2024-10-15 11:30:54.818,65806.206,0.182,0.292,-0.939,-0.043,-0.032,-0.107,0.946,-0.007,-0.112,0.191,-0.296,1.562
2024-10-15 11:30:54.827,65806.216,0.181,0.283,-0.942,0.09,0.121,-0.112,0.83,-0.018,-0.278,0.19,-0.287,1.558
2024-10-15 11:30:54.838,65806.226,0.18,0.278,-0.944,0.063,-0.013,-0.064,0.365,0.047,-0.217,0.189,-0.282,1.554
2024-10-15 11:30:54.850,65806.236,0.181,0.278,-0.944,0.032,-0.227,0.054,-0.161,0.15,-0.233,0.189,-0.281,1.552
2024-10-15 11:30:54.858,65806.246,0.181,0.281,-0.943,0.003,-0.284,0.107,-0.354,0.143,-0.28,0.19,-0.284,1.55
2024-10-15 11:30:54.867,65806.256,0.181,0.284,-0.941,-0.028,-0.17,0.117,-0.292,-0.041,-0.231,0.19,-0.288,1.548
2024-10-15 11:30:54.877,65806.266,0.179,0.287,-0.941,0.003,-0.017,0.072,-0.158,-0.187,-0.188,0.188,-0.291,1.546
2024-10-15 11:30:54.888,65806.276,0.178,0.287,-0.941,0.064,0.094,0.037,0.131,-0.084,-0.235,0.186,-0.291,1.544
2024-10-15 11:30:54.897,65806.286,0.176,0.284,-0.942,0.051,0.155,0.053,0.6,-0.065,-0.337,0.185,-0.288,1.54
2024-10-15 11:30:54.908,65806.296,0.174,0.279,-0.945,-0.025,0.18,0.035,0.713,-0.259,-0.296,0.182,-0.282,1.536
2024-10-15 11:30:54.917,65806.306,0.17,0.273,-0.947,-0.006,0.12,-0.057,0.433,-0.29,-0.213,0.178,-0.277,1.532
2024-10-15 11:30:54.927,65806.316,0.168,0.272,-0.948,0.083,0.009,-0.055,-0.061,-0.071,-0.079,0.176,-0.275,1.53
2024-10-15 11:30:54.937,65806.326,0.169,0.274,-0.947,0.034,-0.047,0.009,-0.3,0.11,0.082,0.176,-0.277,1.531
2024-10-15 11:30:54.947,65806.336,0.17,0.276,-0.946,-0.086,0.099,0.082,-0.124,0.058,0.227,0.178,-0.279,1.533
2024-10-15 11:30:54.957,65806.346,0.171,0.275,-0.946,-0.11,0.256,0.104,0.169,-0.063,0.251,0.178,-0.279,1.535
2024-10-15 11:30:54.967,65806.356,0.17,0.272,-0.947,-0.016,0.287,0.091,0.368,-0.109,0.158,0.178,-0.276,1.537
2024-10-15 11:30:54.977,65806.366,0.17,0.268,-0.948,0.043,0.231,0.037,0.319,-0.113,0.151,0.177,-0.272,1.538
2024-10-15 11:30:54.987,65806.376,0.169,0.267,-0.949,0.022,0.062,-0.063,-0.011,-0.031,0.193,0.177,-0.27,1.539
2024-10-15 11:30:54.997,65806.386,0.17,0.268,-0.948,0.001,-0.136,-0.12,-0.434,0.133,0.17,0.178,-0.272,1.541
2024-10-15 11:30:55.007,65806.396,0.172,0.275,-0.946,-0.038,-0.269,-0.123,-1.014,0.107,0.185,0.18,-0.279,1.544
2024-10-15 11:30:55.017,65806.406,0.174,0.287,-0.942,-0.072,-0.335,-0.103,-1.584,0.104,0.285,0.182,-0.291,1.549
2024-10-15 11:30:55.027,65806.416,0.176,0.301,-0.937,-0.013,-0.337,-0.024,-1.505,0.35,0.196,0.186,-0.306,1.555
2024-10-15 11:30:55.037,65806.426,0.181,0.311,-0.933,-0.005,-0.194,0.118,-0.544,0.413,0.158,0.191,-0.316,1.559
2024-10-15 11:30:55.046,65806.436,0.183,0.311,-0.932,-0.105,0.023,0.121,0.308,0.014,0.209,0.194,-0.317,1.561
2024-10-15 11:30:55.056,65806.446,0.182,0.307,-0.934,-0.028,0.189,-0.021,0.596,-0.264,-0.017,0.193,-0.312,1.561
2024-10-15 11:30:55.066,65806.456,0.18,0.302,-0.936,0.138,0.204,-0.093,0.385,-0.116,-0.232,0.19,-0.307,1.559
2024-10-15 11:30:55.077,65806.466,0.179,0.301,-0.937,0.128,-0.06,-0.062,0.005,0.074,-0.189,0.189,-0.305,1.556
2024-10-15 11:30:55.087,65806.476,0.18,0.302,-0.936,0.016,-0.246,-0.007,-0.084,0.136,-0.14,0.19,-0.306,1.554
2024-10-15 11:30:55.097,65806.486,0.18,0.302,-0.936,-0.038,-0.172,0.027,0.1,0.066,-0.125,0.19,-0.307,1.553
2024-10-15 11:30:55.107,65806.496,0.18,0.3,-0.937,-0.025,-0.02,0.045,0.267,-0.097,-0.134,0.19,-0.305,1.551
2024-10-15 11:30:55.117,65806.506,0.178,0.298,-0.938,0.025,0.124,0.069,0.305,-0.231,-0.104,0.187,-0.302,1.549
2024-10-15 11:30:55.127,65806.516,0.176,0.295,-0.939,0.057,0.184,0.073,0.334,-0.171,-0.017,0.185,-0.299,1.548
2024-10-15 11:30:55.137,65806.526,0.175,0.291,-0.941,0.054,0.152,0.1,0.585,-0.023,-0.063,0.184,-0.295,1.547
2024-10-15 11:30:55.147,65806.536,0.174,0.284,-0.943,0.003,0.178,0.131,0.963,-0.162,-0.14,0.182,-0.288,1.544
2024-10-15 11:30:55.158,65806.546,0.17,0.275,-0.946,-0.04,0.187,0.04,0.842,-0.39,-0.123,0.178,-0.279,1.541
2024-10-15 11:30:55.167,65806.556,0.167,0.269,-0.948,0.056,0.059,-0.089,0.396,-0.274,-0.128,0.174,-0.273,1.539
2024-10-15 11:30:55.177,65806.566,0.165,0.268,-0.949,0.101,-0.064,-0.059,-0.146,-0.02,-0.004,0.172,-0.272,1.538
2024-10-15 11:30:55.187,65806.576,0.166,0.271,-0.948,-0.052,-0.099,-0.02,-0.456,0.104,0.154,0.173,-0.275,1.539
2024-10-15 11:30:55.197,65806.586,0.167,0.276,-0.947,-0.164,0.002,0.049,-0.48,0.137,0.161,0.175,-0.279,1.542
2024-10-15 11:30:55.207,65806.595,0.169,0.279,-0.945,-0.138,0.109,0.093,-0.222,0.121,0.119,0.177,-0.283,1.544
2024-10-15 11:30:55.217,65806.605,0.17,0.28,-0.945,-0.062,0.095,0.059,0.003,0.087,0.147,0.178,-0.283,1.546
2024-10-15 11:30:55.227,65806.615,0.172,0.279,-0.945,0.004,0.024,-0.005,0.14,0.07,0.186,0.18,-0.282,1.547
2024-10-15 11:30:55.237,65806.625,0.173,0.277,-0.945,0.017,0.052,-0.053,0.169,0.038,0.282,0.181,-0.28,1.549
2024-10-15 11:30:55.247,65806.635,0.174,0.275,-0.946,-0.004,0.086,-0.09,-0.051,-0.07,0.372,0.182,-0.279,1.552
2024-10-15 11:30:55.257,65806.645,0.173,0.277,-0.945,0.007,0.046,-0.098,-0.461,-0.221,0.489,0.181,-0.28,1.557
2024-10-15 11:30:55.267,65806.655,0.173,0.283,-0.943,0.054,-0.074,-0.062,-0.947,-0.048,0.475,0.182,-0.287,1.564
2024-10-15 11:30:55.276,65806.665,0.175,0.29,-0.941,0.094,-0.171,0.069,-0.597,0.238,0.308,0.184,-0.294,1.569
2024-10-15 11:30:55.287,65806.675,0.178,0.292,-0.94,-0.02,-0.124,0.144,0.029,0.041,0.302,0.187,-0.296,1.573
2024-10-15 11:30:55.297,65806.685,0.178,0.289,-0.941,-0.07,-0.087,0.008,0.411,-0.147,0.098,0.187,-0.293,1.575
2024-10-15 11:30:55.306,65806.695,0.177,0.285,-0.942,0.082,-0.038,-0.05,0.587,0.072,-0.273,0.186,-0.289,1.573
2024-10-15 11:30:55.317,65806.705,0.177,0.28,-0.944,0.074,-0.094,-0.048,0.531,0.095,-0.292,0.185,-0.284,1.568
2024-10-15 11:30:55.327,65806.715,0.177,0.277,-0.945,-0.056,-0.212,-0.115,0.268,0.083,-0.276,0.185,-0.28,1.565
2024-10-15 11:30:55.336,65806.725,0.178,0.275,-0.945,-0.016,-0.215,-0.063,0.187,0.218,-0.312,0.186,-0.279,1.561
2024-10-15 11:30:55.347,65806.735,0.179,0.274,-0.945,-0.021,-0.122,0.028,0.208,0.128,-0.222,0.187,-0.277,1.558
2024-10-15 11:30:55.357,65806.745,0.178,0.272,-0.946,-0.068,0.009,0.064,0.313,-0.077,-0.136,0.186,-0.275,1.556
2024-10-15 11:30:55.367,65806.755,0.177,0.268,-0.947,-0.019,0.187,0.115,0.553,-0.044,-0.122,0.185,-0.271,1.554
2024-10-15 11:30:55.376,65806.765,0.177,0.261,-0.949,0.02,0.265,0.156,1.023,0.003,-0.258,0.184,-0.264,1.551
2024-10-15 11:30:55.387,65806.775,0.175,0.25,-0.952,-0.02,0.305,0.127,1.224,-0.226,-0.296,0.182,-0.253,1.546
2024-10-15 11:30:55.397,65806.785,0.172,0.241,-0.955,-0.027,0.182,-0.033,0.829,-0.319,-0.271,0.178,-0.243,1.541
2024-10-15 11:30:55.407,65806.795,0.169,0.236,-0.957,0.095,-0.07,-0.135,0.197,-0.036,-0.235,0.175,-0.238,1.537
2024-10-15 11:30:55.417,65806.805,0.17,0.237,-0.956,0.055,-0.225,-0.077,-0.384,0.201,-0.079,0.176,-0.24,1.536
2024-10-15 11:30:55.427,65806.815,0.172,0.242,-0.955,-0.114,-0.107,0.02,-0.454,0.171,0.038,0.178,-0.244,1.536
2024-10-15 11:30:55.436,65806.825,0.173,0.246,-0.954,-0.146,0.14,0.099,-0.444,-0.026,0.106,0.179,-0.248,1.538
2024-10-15 11:30:55.447,65806.835,0.173,0.25,-0.953,-0.035,0.164,0.084,-0.427,0.011,0.082,0.179,-0.252,1.54
2024-10-15 11:30:55.457,65806.845,0.174,0.253,-0.952,0.065,0.141,0.085,-0.311,0.119,0.079,0.18,-0.256,1.541
2024-10-15 11:30:55.466,65806.855,0.175,0.255,-0.951,-0.001,0.123,0.062,-0.262,0.043,0.188,0.182,-0.258,1.543
2024-10-15 11:30:55.477,65806.865,0.175,0.258,-0.95,-0.031,0.048,-0.036,-0.33,-0.004,0.209,0.183,-0.261,1.546
2024-10-15 11:30:55.487,65806.875,0.176,0.262,-0.949,0.04,-0.044,-0.103,-0.532,0.087,0.176,0.184,-0.265,1.548
2024-10-15 11:30:55.496,65806.885,0.177,0.268,-0.947,0.034,-0.108,-0.115,-0.87,0.016,0.186,0.185,-0.271,1.552
2024-10-15 11:30:55.506,65806.895,0.178,0.277,-0.944,-0.014,-0.129,-0.094,-1.325,-0.093,0.308,0.186,-0.281,1.556
2024-10-15 11:30:55.516,65806.905,0.179,0.291,-0.94,0.017,-0.195,-0.037,-1.435,0.24,0.204,0.188,-0.295,1.562
2024-10-15 11:30:55.526,65806.915,0.183,0.3,-0.936,0.036,-0.168,0.131,-0.638,0.477,0.121,0.193,-0.305,1.565
2024-10-15 11:30:55.536,65806.925,0.186,0.302,-0.935,-0.124,-0.023,0.128,0.186,0.11,0.126,0.197,-0.307,1.567
2024-10-15 11:30:55.547,65806.935,0.186,0.298,-0.936,-0.073,0.069,-0.028,0.57,-0.157,-0.147,0.196,-0.303,1.566
2024-10-15 11:30:55.556,65806.945,0.184,0.294,-0.938,0.131,0.082,-0.092,0.447,-0.008,-0.365,0.194,-0.298,1.562
2024-10-15 11:30:55.566,65806.955,0.184,0.292,-0.939,0.101,-0.08,-0.082,0.135,0.107,-0.281,0.193,-0.296,1.558
2024-10-15 11:30:55.576,65806.965,0.184,0.292,-0.938,-0.024,-0.204,-0.037,-0.099,0.181,-0.222,0.194,-0.296,1.556
2024-10-15 11:30:55.586,65806.975,0.185,0.293,-0.938,-0.046,-0.179,0.028,-0.029,0.183,-0.196,0.195,-0.298,1.554
2024-10-15 11:30:55.596,65806.985,0.186,0.293,-0.938,-0.053,-0.045,0.059,0.183,-0.009,-0.135,0.196,-0.297,1.552
2024-10-15 11:30:55.606,65806.995,0.185,0.29,-0.939,-0.024,0.109,0.086,0.454,-0.13,-0.087,0.194,-0.294,1.55
2024-10-15 11:30:55.616,65807.005,0.184,0.285,-0.941,0.037,0.2,0.111,0.753,-0.048,-0.139,0.193,-0.289,1.548
2024-10-15 11:30:55.626,65807.015,0.182,0.276,-0.944,0.031,0.253,0.117,1.211,-0.157,-0.261,0.191,-0.279,1.544
2024-10-15 11:30:55.636,65807.025,0.179,0.265,-0.947,-0.036,0.263,0.081,0.959,-0.397,-0.203,0.187,-0.269,1.539
2024-10-15 11:30:55.646,65807.035,0.175,0.259,-0.95,0.038,0.051,-0.077,0.436,-0.218,-0.169,0.182,-0.262,1.536
2024-10-15 11:30:55.656,65807.045,0.175,0.258,-0.95,0.116,-0.129,-0.066,-0.081,0.108,-0.07,0.182,-0.261,1.534
2024-10-15 11:30:55.666,65807.055,0.176,0.26,-0.95,-0.047,-0.144,-0.003,-0.31,0.098,0.127,0.183,-0.263,1.535
2024-10-15 11:30:55.676,65807.065,0.176,0.263,-0.949,-0.144,0.028,0.038,-0.356,-0.031,0.143,0.184,-0.266,1.537
2024-10-15 11:30:55.686,65807.075,0.176,0.266,-0.948,-0.037,0.14,0.074,-0.396,-0.014,0.049,0.184,-0.269,1.539
2024-10-15 11:30:55.696,65807.085,0.177,0.269,-0.947,0.046,0.107,0.073,-0.283,0.058,0.071,0.185,-0.273,1.54
2024-10-15 11:30:55.706,65807.095,0.178,0.271,-0.946,0.014,0.061,0.034,-0.246,0.02,0.249,0.186,-0.275,1.542
2024-10-15 11:30:55.716,65807.105,0.178,0.274,-0.945,-0.023,0.037,-0.049,-0.326,0.003,0.314,0.187,-0.277,1.546
2024-10-15 11:30:55.726,65807.115,0.179,0.277,-0.944,0.006,0.025,-0.106,-0.662,-0.041,0.267,0.188,-0.281,1.55
2024-10-15 11:30:55.736,65807.125,0.178,0.286,-0.941,0.027,-0.052,-0.118,-1.39,-0.306,0.347,0.187,-0.29,1.555
2024-10-15 11:30:55.746,65807.135,0.177,0.303,-0.936,0.055,-0.183,-0.089,-2.339,-0.131,0.363,0.187,-0.308,1.562
2024-10-15 11:30:55.756,65807.145,0.179,0.324,-0.929,0.117,-0.285,0.087,-1.912,0.436,0.221,0.191,-0.33,1.569
2024-10-15 11:30:55.766,65807.155,0.185,0.335,-0.924,-0.044,-0.216,0.218,-0.734,0.394,0.341,0.197,-0.342,1.575
2024-10-15 11:30:55.776,65807.165,0.187,0.336,-0.923,-0.188,-0.052,0.042,0.504,-0.025,0.21,0.2,-0.342,1.578
2024-10-15 11:30:55.786,65807.175,0.186,0.328,-0.926,0.001,0.237,-0.091,1.068,-0.22,-0.169,0.198,-0.334,1.577
2024-10-15 11:30:55.796,65807.185,0.183,0.32,-0.93,0.122,0.222,-0.197,0.746,-0.163,-0.298,0.195,-0.325,1.572
2024-10-15 11:30:55.806,65807.194,0.182,0.316,-0.931,0.086,-0.114,-0.192,0.104,0.11,-0.254,0.193,-0.322,1.569
2024-10-15 11:30:55.815,65807.204,0.184,0.317,-0.93,0.011,-0.365,-0.027,-0.226,0.346,-0.184,0.195,-0.323,1.566
2024-10-15 11:30:55.826,65807.214,0.186,0.319,-0.929,-0.079,-0.368,0.097,-0.089,0.225,-0.166,0.198,-0.325,1.565
2024-10-15 11:30:55.836,65807.224,0.186,0.319,-0.929,-0.101,-0.093,0.13,0.277,-0.118,-0.169,0.198,-0.325,1.563
2024-10-15 11:30:55.846,65807.234,0.184,0.315,-0.931,-0.021,0.205,0.138,0.663,-0.195,-0.157,0.195,-0.32,1.561
2024-10-15 11:30:55.856,65807.244,0.182,0.307,-0.934,0.052,0.313,0.11,1.111,-0.113,-0.254,0.192,-0.312,1.557
2024-10-15 11:30:55.866,65807.254,0.18,0.296,-0.938,0.001,0.346,0.112,1.289,-0.257,-0.265,0.189,-0.3,1.551
2024-10-15 11:30:55.876,65807.264,0.176,0.286,-0.942,-0.059,0.234,-0.002,0.893,-0.39,-0.204,0.184,-0.29,1.547
2024-10-15 11:30:55.886,65807.274,0.173,0.28,-0.944,0.055,-0.02,-0.086,0.267,-0.136,-0.181,0.181,-0.284,1.544
2024-10-15 11:30:55.896,65807.284,0.172,0.28,-0.944,0.079,-0.19,-0.019,-0.108,0.126,-0.019,0.18,-0.284,1.543
2024-10-15 11:30:55.906,65807.294,0.174,0.281,-0.944,-0.062,-0.111,0.032,-0.112,0.074,0.171,0.182,-0.285,1.544
2024-10-15 11:30:55.916,65807.304,0.174,0.282,-0.944,-0.117,0.121,0.056,-0.031,-0.058,0.191,0.183,-0.285,1.546
2024-10-15 11:30:55.927,65807.314,0.174,0.281,-0.944,-0.032,0.248,0.048,0.003,-0.052,0.074,0.182,-0.285,1.547
2024-10-15 11:30:55.936,65807.324,0.174,0.281,-0.944,0.03,0.237,0.038,-0.031,0.019,0.062,0.182,-0.285,1.548
2024-10-15 11:30:55.946,65807.334,0.175,0.283,-0.943,0.002,0.082,0.013,-0.256,0.088,0.153,0.183,-0.286,1.549
2024-10-15 11:30:55.956,65807.344,0.177,0.286,-0.942,-0.009,-0.097,-0.039,-0.481,0.206,0.194,0.185,-0.29,1.552
2024-10-15 11:30:55.966,65807.354,0.179,0.291,-0.94,-0.012,-0.152,-0.077,-0.637,0.205,0.234,0.189,-0.295,1.555
2024-10-15 11:30:55.976,65807.364,0.181,0.298,-0.937,-0.023,-0.142,-0.086,-0.983,-0.048,0.244,0.191,-0.302,1.559
2024-10-15 11:30:55.986,65807.374,0.18,0.309,-0.934,0.028,-0.121,-0.069,-1.552,-0.172,0.288,0.191,-0.314,1.564
2024-10-15 11:30:55.996,65807.384,0.181,0.324,-0.929,0.093,-0.154,-0.015,-1.612,0.157,0.218,0.192,-0.33,1.57
2024-10-15 11:30:56.006,65807.394,0.184,0.335,-0.924,0.049,-0.169,0.13,-0.857,0.382,0.234,0.197,-0.342,1.575
2024-10-15 11:30:56.016,65807.404,0.188,0.337,-0.922,-0.11,-0.059,0.091,0.248,0.161,0.212,0.201,-0.344,1.578
2024-10-15 11:30:56.026,65807.414,0.189,0.331,-0.925,-0.083,0.126,-0.041,1.018,-0.092,-0.055,0.201,-0.337,1.578
2024-10-15 11:30:56.036,65807.424,0.187,0.322,-0.928,0.073,0.165,-0.149,0.941,-0.123,-0.287,0.199,-0.328,1.574
2024-10-15 11:30:56.045,65807.434,0.185,0.316,-0.93,0.123,-0.053,-0.193,0.431,0.061,-0.324,0.197,-0.322,1.569
2024-10-15 11:30:56.056,65807.444,0.186,0.315,-0.931,0.064,-0.26,-0.051,0.008,0.245,-0.22,0.197,-0.32,1.566
2024-10-15 11:30:56.066,65807.454,0.188,0.316,-0.93,-0.038,-0.278,0.07,-0.088,0.185,-0.145,0.199,-0.321,1.564
2024-10-15 11:30:56.075,65807.464,0.188,0.316,-0.93,-0.078,-0.094,0.12,0.078,-0.041,-0.127,0.199,-0.321,1.563
2024-10-15 11:30:56.085,65807.474,0.186,0.315,-0.931,-0.026,0.132,0.143,0.267,-0.235,-0.094,0.197,-0.32,1.561
2024-10-15 11:30:56.095,65807.484,0.184,0.311,-0.932,0.034,0.241,0.126,0.551,-0.187,-0.095,0.195,-0.316,1.559
2024-10-15 11:30:56.105,65807.494,0.182,0.304,-0.935,0.035,0.249,0.121,0.951,-0.102,-0.191,0.192,-0.309,1.556
2024-10-15 11:30:56.115,65807.504,0.18,0.295,-0.938,-0.036,0.241,0.112,1.095,-0.241,-0.191,0.19,-0.299,1.552
2024-10-15 11:30:56.125,65807.514,0.177,0.286,-0.942,-0.051,0.157,-0.011,0.768,-0.318,-0.171,0.186,-0.29,1.549
2024-10-15 11:30:56.135,65807.524,0.174,0.282,-0.944,0.045,-0.001,-0.098,0.178,-0.116,-0.136,0.183,-0.286,1.546
2024-10-15 11:30:56.145,65807.534,0.174,0.283,-0.943,0.028,-0.114,-0.06,-0.326,0.09,0.033,0.182,-0.287,1.546
2024-10-15 11:30:56.155,65807.544,0.175,0.287,-0.942,-0.084,-0.074,0.014,-0.452,0.108,0.149,0.184,-0.291,1.547
2024-10-15 11:30:56.165,65807.554,0.176,0.29,-0.941,-0.11,0.077,0.087,-0.416,-0.01,0.175,0.185,-0.295,1.55
2024-10-15 11:30:56.175,65807.564,0.176,0.294,-0.939,-0.042,0.138,0.1,-0.415,-0.027,0.113,0.186,-0.298,1.552
2024-10-15 11:30:56.185,65807.574,0.177,0.297,-0.938,0.031,0.119,0.088,-0.354,0.026,0.079,0.186,-0.302,1.554
2024-10-15 11:30:56.196,65807.584,0.177,0.3,-0.937,0.011,0.058,0.026,-0.362,0.008,0.153,0.187,-0.305,1.556
2024-10-15 11:30:56.205,65807.594,0.178,0.304,-0.936,-0.015,-0.051,-0.078,-0.589,0.007,0.197,0.188,-0.309,1.559
2024-10-15 11:30:56.215,65807.604,0.179,0.311,-0.934,0.008,-0.127,-0.126,-0.848,0.071,0.127,0.189,-0.316,1.562
2024-10-15 11:30:56.225,65807.614,0.179,0.32,-0.93,0.003,-0.173,-0.113,-1.289,-0.078,0.144,0.19,-0.326,1.565
2024-10-15 11:30:56.235,65807.624,0.179,0.335,-0.925,0.003,-0.281,-0.108,-1.898,-0.065,0.222,0.191,-0.342,1.57
2024-10-15 11:30:56.245,65807.634,0.181,0.351,-0.919,0.08,-0.349,-0.02,-1.573,0.385,0.067,0.194,-0.359,1.575
2024-10-15 11:30:56.255,65807.644,0.185,0.361,-0.914,0.018,-0.196,0.143,-0.433,0.477,0.074,0.2,-0.369,1.578
2024-10-15 11:30:56.265,65807.654,0.188,0.36,-0.914,-0.159,0.06,0.049,0.553,0.016,0.113,0.203,-0.368,1.579
2024-10-15 11:30:56.275,65807.664,0.186,0.352,-0.917,-0.039,0.282,-0.103,0.91,-0.28,-0.132,0.201,-0.36,1.577
2024-10-15 11:30:56.285,65807.674,0.184,0.346,-0.92,0.169,0.225,-0.151,0.558,-0.115,-0.264,0.197,-0.353,1.574
2024-10-15 11:30:56.295,65807.684,0.183,0.343,-0.921,0.168,-0.123,-0.079,0.159,0.182,-0.207,0.196,-0.35,1.57
2024-10-15 11:30:56.305,65807.694,0.185,0.342,-0.921,0.025,-0.254,0.038,0.125,0.248,-0.11,0.198,-0.349,1.568
2024-10-15 11:30:56.315,65807.704,0.186,0.34,-0.922,-0.089,-0.106,0.08,0.396,0.063,-0.057,0.199,-0.347,1.567
2024-10-15 11:30:56.325,65807.714,0.185,0.335,-0.924,-0.057,0.105,0.09,0.682,-0.187,-0.055,0.198,-0.342,1.565
2024-10-15 11:30:56.335,65807.724,0.183,0.328,-0.927,0.035,0.234,0.101,0.905,-0.247,-0.057,0.195,-0.334,1.563
2024-10-15 11:30:56.345,65807.734,0.181,0.319,-0.93,0.067,0.245,0.104,1.146,-0.084,-0.142,0.192,-0.325,1.56
2024-10-15 11:30:56.355,65807.744,0.18,0.307,-0.935,0.007,0.225,0.127,1.427,-0.128,-0.211,0.19,-0.312,1.556
2024-10-15 11:30:56.365,65807.754,0.177,0.295,-0.939,-0.076,0.163,0.037,1.146,-0.32,-0.153,0.186,-0.3,1.551
2024-10-15 11:30:56.375,65807.764,0.174,0.287,-0.942,-0.005,-0.018,-0.093,0.58,-0.159,-0.132,0.183,-0.291,1.548
2024-10-15 11:30:56.385,65807.774,0.174,0.285,-0.943,0.056,-0.145,-0.061,-0.004,0.119,-0.018,0.182,-0.289,1.547
2024-10-15 11:30:56.395,65807.784,0.175,0.286,-0.942,-0.074,-0.123,-0.003,-0.229,0.14,0.156,0.184,-0.29,1.548
2024-10-15 11:30:56.405,65807.793,0.177,0.288,-0.941,-0.154,0.051,0.064,-0.341,0.039,0.237,0.185,-0.292,1.55
2024-10-15 11:30:56.415,65807.803,0.177,0.291,-0.94,-0.074,0.136,0.093,-0.388,0.046,0.146,0.187,-0.296,1.553
2024-10-15 11:30:56.425,65807.813,0.179,0.294,-0.939,0.015,0.14,0.098,-0.251,0.122,0.069,0.188,-0.299,1.555
2024-10-15 11:30:56.435,65807.823,0.18,0.296,-0.938,-0.006,0.081,0.044,-0.201,0.08,0.186,0.189,-0.301,1.556
2024-10-15 11:30:56.445,65807.833,0.181,0.298,-0.937,-0.025,-0.012,-0.064,-0.216,0.091,0.226,0.191,-0.302,1.559
2024-10-15 11:30:56.455,65807.843,0.183,0.3,-0.936,0.003,-0.032,-0.105,-0.341,0.147,0.169,0.193,-0.304,1.562
2024-10-15 11:30:56.465,65807.853,0.184,0.304,-0.934,-0.007,-0.089,-0.118,-0.785,0.017,0.143,0.195,-0.309,1.564
2024-10-15 11:30:56.475,65807.863,0.185,0.314,-0.931,0.011,-0.204,-0.114,-1.459,-0.086,0.2,0.196,-0.32,1.568
2024-10-15 11:30:56.485,65807.873,0.186,0.33,-0.926,0.082,-0.326,-0.05,-1.737,0.227,0.16,0.198,-0.336,1.574
2024-10-15 11:30:56.495,65807.883,0.19,0.342,-0.92,0.074,-0.329,0.117,-1.031,0.499,0.123,0.203,-0.35,1.578
2024-10-15 11:30:56.505,65807.893,0.194,0.347,-0.918,-0.09,-0.126,0.13,0.067,0.264,0.12,0.208,-0.354,1.58
2024-10-15 11:30:56.515,65807.903,0.195,0.342,-0.919,-0.1,0.153,0.011,0.925,-0.132,-0.063,0.209,-0.349,1.58
2024-10-15 11:30:56.525,65807.913,0.192,0.333,-0.923,0.07,0.301,-0.078,0.983,-0.276,-0.24,0.205,-0.339,1.576
2024-10-15 11:30:56.535,65807.923,0.189,0.326,-0.926,0.158,0.128,-0.116,0.516,-0.127,-0.246,0.201,-0.332,1.572
2024-10-15 11:30:56.545,65807.933,0.188,0.324,-0.927,0.104,-0.112,-0.007,0.102,0.061,-0.152,0.2,-0.33,1.569
2024-10-15 11:30:56.555,65807.943,0.188,0.324,-0.927,-0.023,-0.183,0.092,0.017,0.059,-0.098,0.201,-0.33,1.567
2024-10-15 11:30:56.565,65807.953,0.188,0.323,-0.928,-0.077,-0.106,0.116,0.202,-0.111,-0.123,0.2,-0.329,1.566
2024-10-15 11:30:56.575,65807.963,0.186,0.321,-0.929,-0.019,0.015,0.106,0.396,-0.275,-0.177,0.197,-0.326,1.564
2024-10-15 11:30:56.584,65807.973,0.182,0.316,-0.931,0.039,0.101,0.063,0.63,-0.24,-0.188,0.194,-0.322,1.561
2024-10-15 11:30:56.594,65807.983,0.18,0.31,-0.934,0.036,0.135,0.054,0.897,-0.075,-0.229,0.191,-0.315,1.557
2024-10-15 11:30:56.604,65807.993,0.179,0.3,-0.937,-0.027,0.186,0.069,1.168,-0.144,-0.234,0.188,-0.305,1.553
2024-10-15 11:30:56.614,65808.003,0.176,0.29,-0.941,-0.08,0.203,-0.014,0.922,-0.309,-0.144,0.185,-0.295,1.549
2024-10-15 11:30:56.624,65808.013,0.173,0.284,-0.943,0.014,0.065,-0.099,0.416,-0.171,-0.066,0.182,-0.288,1.546
2024-10-15 11:30:56.634,65808.023,0.173,0.283,-0.943,0.077,-0.07,-0.062,-0.123,0.063,0.068,0.181,-0.287,1.546
2024-10-15 11:30:56.644,65808.033,0.174,0.285,-0.943,-0.027,-0.072,0.027,-0.305,0.134,0.21,0.183,-0.289,1.548
2024-10-15 11:30:56.655,65808.043,0.176,0.287,-0.942,-0.101,0.115,0.103,-0.125,0.061,0.257,0.185,-0.291,1.551
2024-10-15 11:30:56.664,65808.053,0.177,0.286,-0.942,-0.067,0.255,0.103,0.21,-0.031,0.237,0.185,-0.29,1.553
2024-10-15 11:30:56.674,65808.063,0.177,0.283,-0.943,0.005,0.232,0.054,0.328,-0.06,0.233,0.185,-0.287,1.555
2024-10-15 11:30:56.685,65808.073,0.177,0.28,-0.944,0.043,0.098,-0.027,0.22,-0.014,0.221,0.186,-0.284,1.557
2024-10-15 11:30:56.695,65808.083,0.178,0.278,-0.944,0.033,-0.042,-0.098,-0.025,0.089,0.202,0.186,-0.282,1.559
2024-10-15 11:30:56.705,65808.093,0.18,0.28,-0.943,-0.001,-0.175,-0.119,-0.39,0.168,0.178,0.188,-0.284,1.561
2024-10-15 11:30:56.714,65808.103,0.182,0.286,-0.941,-0.026,-0.269,-0.113,-0.893,0.082,0.157,0.191,-0.29,1.564
2024-10-15 11:30:56.724,65808.113,0.183,0.296,-0.937,-0.016,-0.3,-0.068,-1.434,0.056,0.182,0.192,-0.301,1.568
2024-10-15 11:30:56.734,65808.123,0.185,0.31,-0.933,0.034,-0.325,0.029,-1.356,0.306,0.082,0.195,-0.315,1.573
2024-10-15 11:30:56.744,65808.133,0.188,0.319,-0.929,0.015,-0.229,0.135,-0.612,0.386,0.053,0.2,-0.325,1.575
2024-10-15 11:30:56.754,65808.143,0.191,0.32,-0.928,-0.097,-0.022,0.092,0.255,0.07,0.039,0.203,-0.326,1.576
2024-10-15 11:30:56.764,65808.153,0.19,0.316,-0.93,-0.049,0.188,-0.028,0.683,-0.189,-0.116,0.201,-0.321,1.575
2024-10-15 11:30:56.774,65808.163,0.187,0.31,-0.932,0.082,0.215,-0.086,0.556,-0.189,-0.228,0.198,-0.315,1.572
2024-10-15 11:30:56.784,65808.173,0.185,0.307,-0.933,0.092,0.052,-0.052,0.154,-0.064,-0.215,0.196,-0.312,1.568
2024-10-15 11:30:56.794,65808.183,0.185,0.308,-0.933,0.014,-0.098,0.038,-0.126,0.026,-0.161,0.195,-0.313,1.567
2024-10-15 11:30:56.804,65808.193,0.184,0.309,-0.933,-0.044,-0.128,0.107,-0.099,-0.025,-0.13,0.195,-0.314,1.565
2024-10-15 11:30:56.814,65808.203,0.183,0.309,-0.933,-0.046,-0.043,0.098,0.095,-0.136,-0.136,0.194,-0.315,1.564
2024-10-15 11:30:56.824,65808.213,0.181,0.308,-0.934,0.002,0.054,0.066,0.304,-0.21,-0.142,0.192,-0.313,1.562
2024-10-15 11:30:56.834,65808.223,0.179,0.304,-0.936,0.031,0.119,0.037,0.425,-0.225,-0.094,0.189,-0.309,1.56
2024-10-15 11:30:56.844,65808.233,0.177,0.3,-0.937,0.024,0.145,0.018,0.573,-0.095,-0.061,0.187,-0.305,1.558
2024-10-15 11:30:56.854,65808.243,0.176,0.294,-0.94,-0.001,0.162,0.034,0.813,-0.037,-0.089,0.185,-0.298,1.556
2024-10-15 11:30:56.864,65808.253,0.175,0.286,-0.942,-0.039,0.194,0.034,0.902,-0.18,-0.06,0.184,-0.29,1.554
2024-10-15 11:30:56.874,65808.263,0.173,0.278,-0.945,-0.017,0.145,-0.035,0.617,-0.226,0.002,0.181,-0.282,1.552
2024-10-15 11:30:56.885,65808.273,0.172,0.275,-0.946,0.071,0.021,-0.057,0.167,-0.064,0.041,0.179,-0.278,1.552
2024-10-15 11:30:56.894,65808.283,0.172,0.275,-0.946,0.036,-0.043,-0.004,-0.184,0.082,0.149,0.18,-0.278,1.553
2024-10-15 11:30:56.904,65808.293,0.173,0.277,-0.945,-0.066,-0.035,0.041,-0.297,0.106,0.204,0.181,-0.28,1.555
2024-10-15 11:30:56.914,65808.303,0.175,0.279,-0.944,-0.079,0.011,0.069,-0.233,0.086,0.155,0.183,-0.283,1.557
2024-10-15 11:30:56.924,65808.313,0.176,0.28,-0.944,-0.043,0.039,0.051,-0.139,0.059,0.12,0.184,-0.284,1.559
2024-10-15 11:30:56.934,65808.323,0.177,0.282,-0.943,-0.008,-0.009,-0.009,-0.185,0.069,0.12,0.185,-0.286,1.561
2024-10-15 11:30:56.944,65808.333,0.178,0.284,-0.942,0.016,-0.085,-0.073,-0.332,0.104,0.156,0.187,-0.288,1.562
2024-10-15 11:30:56.955,65808.343,0.18,0.288,-0.941,0.003,-0.131,-0.105,-0.622,0.116,0.148,0.189,-0.292,1.565
2024-10-15 11:30:56.964,65808.353,0.181,0.295,-0.938,-0.011,-0.149,-0.095,-0.996,0.007,0.11,0.19,-0.3,1.568
2024-10-15 11:30:56.973,65808.363,0.181,0.306,-0.935,0.007,-0.18,-0.06,-1.394,-0.005,0.126,0.191,-0.311,1.571
2024-10-15 11:30:56.983,65808.373,0.182,0.319,-0.93,0.065,-0.264,0.007,-1.153,0.28,-0.015,0.193,-0.324,1.575
2024-10-15 11:30:56.993,65808.382,0.185,0.326,-0.927,0.041,-0.222,0.112,-0.321,0.368,-0.06,0.197,-0.332,1.576
2024-10-15 11:30:57.003,65808.392,0.187,0.325,-0.927,-0.086,-0.044,0.042,0.405,0.062,-0.088,0.199,-0.331,1.575
2024-10-15 11:30:57.013,65808.402,0.186,0.32,-0.929,-0.039,0.173,-0.065,0.718,-0.183,-0.27,0.197,-0.326,1.572
2024-10-15 11:30:57.023,65808.412,0.183,0.315,-0.931,0.095,0.192,-0.075,0.425,-0.132,-0.298,0.194,-0.32,1.568
2024-10-15 11:30:57.034,65808.422,0.182,0.313,-0.932,0.101,-0.009,-0.037,0.047,0.056,-0.207,0.193,-0.319,1.564
2024-10-15 11:30:57.044,65808.432,0.182,0.314,-0.932,0.005,-0.075,0.073,-0.073,0.091,-0.1,0.193,-0.319,1.563
2024-10-15 11:30:57.054,65808.442,0.182,0.314,-0.932,-0.086,0.011,0.124,0.05,-0.064,-0.053,0.193,-0.32,1.562
2024-10-15 11:30:57.064,65808.452,0.181,0.313,-0.932,-0.047,0.113,0.131,0.234,-0.224,-0.082,0.191,-0.318,1.561
2024-10-15 11:30:57.074,65808.462,0.178,0.31,-0.934,0.036,0.156,0.118,0.405,-0.203,-0.118,0.189,-0.315,1.56
2024-10-15 11:30:57.084,65808.472,0.177,0.306,-0.936,0.05,0.149,0.075,0.625,-0.084,-0.159,0.187,-0.311,1.557
2024-10-15 11:30:57.093,65808.482,0.175,0.299,-0.938,-0.009,0.153,0.036,0.784,-0.129,-0.132,0.185,-0.304,1.554
2024-10-15 11:30:57.103,65808.492,0.173,0.293,-0.94,-0.051,0.126,-0.051,0.596,-0.176,-0.044,0.182,-0.297,1.552
2024-10-15 11:30:57.113,65808.502,0.172,0.289,-0.942,0.004,0.033,-0.101,0.29,0.002,0.021,0.181,-0.293,1.551
2024-10-15 11:30:57.123,65808.512,0.173,0.287,-0.942,0.011,-0.026,-0.057,-0.023,0.122,0.124,0.182,-0.291,1.552
2024-10-15 11:30:57.133,65808.522,0.175,0.288,-0.941,-0.068,-0.035,0.004,-0.196,0.107,0.199,0.184,-0.292,1.553
2024-10-15 11:30:57.144,65808.532,0.176,0.29,-0.941,-0.07,0.019,0.059,-0.257,0.103,0.176,0.185,-0.294,1.556
2024-10-15 11:30:57.154,65808.542,0.178,0.292,-0.94,-0.018,0.039,0.09,-0.155,0.117,0.129,0.187,-0.296,1.558
2024-10-15 11:30:57.164,65808.552,0.179,0.293,-0.939,0.005,0.009,0.046,-0.074,0.04,0.185,0.188,-0.297,1.56
2024-10-15 11:30:57.174,65808.562,0.18,0.293,-0.939,0.018,-0.024,-0.039,-0.144,0.01,0.205,0.189,-0.297,1.562
2024-10-15 11:30:57.184,65808.572,0.18,0.295,-0.938,0.032,-0.009,-0.084,-0.368,-0.031,0.155,0.19,-0.3,1.564
2024-10-15 11:30:57.194,65808.582,0.18,0.3,-0.937,0.002,-0.037,-0.099,-0.911,-0.188,0.219,0.19,-0.305,1.567
2024-10-15 11:30:57.203,65808.592,0.179,0.312,-0.933,0.022,-0.211,-0.07,-1.544,-0.059,0.178,0.19,-0.317,1.572
2024-10-15 11:30:57.214,65808.602,0.18,0.326,-0.928,0.088,-0.333,0.058,-1.477,0.237,0.008,0.192,-0.332,1.576
2024-10-15 11:30:57.223,65808.612,0.183,0.337,-0.924,-0.014,-0.283,0.143,-0.823,0.184,0.027,0.195,-0.344,1.578
2024-10-15 11:30:57.232,65808.622,0.184,0.341,-0.922,-0.098,-0.143,0.036,-0.073,0.063,-0.066,0.197,-0.348,1.579
2024-10-15 11:30:57.243,65808.632,0.183,0.339,-0.923,0.003,0.062,-0.065,0.564,0.023,-0.314,0.196,-0.346,1.577
2024-10-15 11:30:57.253,65808.642,0.182,0.334,-0.925,0.034,0.178,-0.102,0.602,-0.12,-0.286,0.194,-0.34,1.572
2024-10-15 11:30:57.263,65808.652,0.18,0.33,-0.927,0.022,0.089,-0.134,0.295,-0.017,-0.238,0.192,-0.336,1.569
2024-10-15 11:30:57.273,65808.662,0.18,0.329,-0.927,0.062,-0.031,-0.016,0.073,0.151,-0.204,0.192,-0.335,1.566
2024-10-15 11:30:57.284,65808.672,0.181,0.329,-0.927,-0.016,-0.07,0.096,0.055,0.065,-0.122,0.193,-0.335,1.564
2024-10-15 11:30:57.293,65808.682,0.18,0.327,-0.928,-0.059,0.027,0.127,0.291,-0.081,-0.096,0.192,-0.334,1.563
2024-10-15 11:30:57.303,65808.692,0.179,0.323,-0.929,0.008,0.159,0.138,0.639,-0.018,-0.178,0.191,-0.329,1.561
2024-10-15 11:30:57.313,65808.702,0.178,0.315,-0.932,0.03,0.235,0.115,1.148,-0.086,-0.256,0.189,-0.321,1.556
2024-10-15 11:30:57.323,65808.712,0.176,0.305,-0.936,-0.034,0.268,0.032,1.12,-0.267,-0.172,0.186,-0.31,1.552
2024-10-15 11:30:57.334,65808.722,0.173,0.296,-0.939,-0.004,0.137,-0.085,0.762,-0.151,-0.118,0.183,-0.301,1.549
2024-10-15 11:30:57.343,65808.732,0.173,0.292,-0.941,0.05,0.001,-0.064,0.253,0.076,-0.022,0.182,-0.296,1.547
2024-10-15 11:30:57.353,65808.742,0.174,0.291,-0.941,-0.054,-0.057,-0.003,-0.045,0.124,0.168,0.183,-0.295,1.547
2024-10-15 11:30:57.363,65808.752,0.176,0.292,-0.94,-0.116,-0.004,0.062,-0.23,0.092,0.28,0.185,-0.296,1.55
2024-10-15 11:30:57.373,65808.762,0.178,0.293,-0.939,-0.062,0.071,0.086,-0.106,0.133,0.2,0.187,-0.297,1.553
2024-10-15 11:30:57.383,65808.772,0.179,0.292,-0.939,-0.008,0.141,0.089,0.221,0.078,0.2,0.188,-0.296,1.555
2024-10-15 11:30:57.393,65808.782,0.18,0.289,-0.94,-0.013,0.111,0.001,0.22,-0.017,0.306,0.189,-0.294,1.557
2024-10-15 11:30:57.403,65808.792,0.181,0.288,-0.94,0.028,0.026,-0.124,-0.067,0.033,0.28,0.19,-0.292,1.56
2024-10-15 11:30:57.413,65808.802,0.182,0.291,-0.939,0.052,-0.04,-0.148,-0.593,-0.0,0.233,0.191,-0.295,1.563
2024-10-15 11:30:57.423,65808.812,0.182,0.299,-0.937,0.003,-0.16,-0.109,-1.393,-0.058,0.347,0.192,-0.304,1.568
2024-10-15 11:30:57.433,65808.822,0.184,0.314,-0.932,0.033,-0.322,-0.018,-1.72,0.227,0.201,0.195,-0.319,1.574
2024-10-15 11:30:57.443,65808.832,0.187,0.327,-0.926,0.048,-0.313,0.163,-1.2,0.366,0.076,0.2,-0.334,1.579
2024-10-15 11:30:57.453,65808.842,0.19,0.335,-0.923,-0.1,-0.199,0.147,-0.4,0.115,0.098,0.203,-0.341,1.581
2024-10-15 11:30:57.463,65808.852,0.191,0.335,-0.923,-0.057,-0.06,0.003,0.289,0.075,-0.16,0.204,-0.342,1.581
2024-10-15 11:30:57.473,65808.862,0.191,0.331,-0.924,0.072,0.1,-0.068,0.691,0.108,-0.361,0.204,-0.337,1.577
2024-10-15 11:30:57.483,65808.872,0.19,0.325,-0.926,0.003,0.129,-0.106,0.626,-0.018,-0.243,0.202,-0.331,1.572
2024-10-15 11:30:57.493,65808.882,0.19,0.321,-0.928,-0.015,0.024,-0.12,0.271,0.069,-0.194,0.201,-0.327,1.569
2024-10-15 11:30:57.503,65808.892,0.19,0.32,-0.928,0.052,-0.103,0.006,0.039,0.168,-0.222,0.202,-0.326,1.567
2024-10-15 11:30:57.513,65808.902,0.19,0.32,-0.928,-0.023,-0.085,0.109,0.08,0.016,-0.202,0.202,-0.326,1.565
2024-10-15 11:30:57.523,65808.912,0.19,0.319,-0.929,-0.054,0.036,0.136,0.36,-0.026,-0.19,0.201,-0.324,1.562
2024-10-15 11:30:57.533,65808.922,0.189,0.314,-0.931,0.02,0.115,0.138,0.849,-0.025,-0.374,0.2,-0.319,1.558
2024-10-15 11:30:57.543,65808.932,0.186,0.305,-0.934,0.011,0.168,0.095,1.044,-0.219,-0.444,0.197,-0.31,1.552
2024-10-15 11:30:57.553,65808.942,0.183,0.298,-0.937,-0.017,0.08,-0.066,0.7,-0.239,-0.377,0.193,-0.302,1.546
2024-10-15 11:30:57.563,65808.952,0.181,0.294,-0.939,0.071,-0.099,-0.116,0.228,0.053,-0.3,0.19,-0.298,1.541
2024-10-15 11:30:57.573,65808.962,0.182,0.294,-0.938,0.017,-0.133,-0.049,-0.02,0.238,-0.129,0.191,-0.298,1.539
2024-10-15 11:30:57.583,65808.972,0.184,0.294,-0.938,-0.132,0.027,0.01,0.067,0.15,0.093,0.193,-0.298,1.539
2024-10-15 11:30:57.593,65808.981,0.184,0.292,-0.938,-0.128,0.234,0.067,0.17,-0.05,0.262,0.194,-0.296,1.54
2024-10-15 11:30:57.603,65808.991,0.185,0.29,-0.939,-0.009,0.311,0.089,0.199,-0.028,0.316,0.194,-0.294,1.543
2024-10-15 11:30:57.613,65809.001,0.186,0.286,-0.94,0.086,0.323,0.115,0.446,0.049,0.288,0.195,-0.291,1.545
2024-10-15 11:30:57.623,65809.011,0.187,0.281,-0.941,0.045,0.303,0.088,0.673,-0.025,0.347,0.196,-0.284,1.547
2024-10-15 11:30:57.633,65809.021,0.187,0.273,-0.944,-0.009,0.171,-0.043,0.676,-0.084,0.376,0.196,-0.277,1.55
2024-10-15 11:30:57.643,65809.031,0.188,0.269,-0.945,0.05,-0.047,-0.142,0.104,-0.069,0.272,0.196,-0.272,1.552
2024-10-15 11:30:57.653,65809.041,0.188,0.271,-0.944,0.066,-0.265,-0.159,-0.792,-0.025,0.272,0.196,-0.275,1.555
2024-10-15 11:30:57.663,65809.051,0.19,0.282,-0.94,0.01,-0.392,-0.1,-1.599,0.273,0.247,0.199,-0.286,1.561
2024-10-15 11:30:57.673,65809.061,0.194,0.296,-0.935,-0.019,-0.415,0.079,-1.297,0.584,0.121,0.205,-0.301,1.566
2024-10-15 11:30:57.683,65809.071,0.199,0.304,-0.931,-0.136,-0.278,0.155,-0.476,0.374,0.136,0.211,-0.309,1.569
2024-10-15 11:30:57.693,65809.081,0.202,0.304,-0.931,-0.146,-0.084,0.047,0.377,0.078,-0.02,0.213,-0.309,1.57
2024-10-15 11:30:57.703,65809.091,0.201,0.299,-0.933,0.036,0.134,0.023,0.753,-0.044,-0.271,0.213,-0.304,1.567
2024-10-15 11:30:57.713,65809.101,0.2,0.294,-0.935,0.062,0.19,-0.043,0.468,-0.143,-0.244,0.21,-0.298,1.563
2024-10-15 11:30:57.723,65809.111,0.198,0.292,-0.936,0.016,0.031,-0.082,-0.035,-0.051,-0.148,0.209,-0.296,1.56
2024-10-15 11:30:57.733,65809.121,0.198,0.295,-0.935,0.023,-0.158,0.013,-0.454,0.08,-0.091,0.209,-0.299,1.56
2024-10-15 11:30:57.743,65809.131,0.198,0.3,-0.933,-0.042,-0.212,0.089,-0.598,0.057,-0.086,0.21,-0.305,1.56
2024-10-15 11:30:57.753,65809.141,0.198,0.305,-0.931,-0.069,-0.087,0.102,-0.471,-0.021,-0.128,0.21,-0.31,1.56
2024-10-15 11:30:57.763,65809.151,0.197,0.309,-0.93,-0.025,0.041,0.075,-0.222,-0.087,-0.115,0.209,-0.314,1.559
2024-10-15 11:30:57.773,65809.161,0.196,0.31,-0.93,0.0,0.073,0.014,-0.043,-0.053,-0.074,0.208,-0.315,1.559
2024-10-15 11:30:57.783,65809.171,0.196,0.31,-0.93,-0.008,0.094,-0.022,0.132,0.076,-0.095,0.208,-0.315,1.558
2024-10-15 11:30:57.792,65809.181,0.197,0.308,-0.931,-0.056,0.152,-0.032,0.22,0.161,-0.098,0.209,-0.313,1.556
2024-10-15 11:30:57.802,65809.191,0.198,0.307,-0.931,-0.101,0.135,-0.061,-0.054,0.215,-0.035,0.21,-0.313,1.556
2024-10-15 11:30:57.812,65809.201,0.201,0.31,-0.929,-0.065,0.016,-0.104,-0.567,0.395,0.009,0.213,-0.316,1.556
2024-10-15 11:30:57.822,65809.211,0.206,0.317,-0.926,-0.022,-0.067,-0.106,-0.933,0.643,0.06,0.219,-0.323,1.558
2024-10-15 11:30:57.832,65809.221,0.213,0.327,-0.921,-0.061,-0.04,-0.082,-1.062,0.711,0.149,0.227,-0.333,1.562
2024-10-15 11:30:57.843,65809.231,0.22,0.336,-0.916,-0.099,0.03,-0.074,-1.049,0.608,0.237,0.235,-0.342,1.566
2024-10-15 11:30:57.853,65809.241,0.226,0.344,-0.911,-0.047,0.057,-0.046,-0.96,0.541,0.253,0.243,-0.352,1.571
2024-10-15 11:30:57.862,65809.251,0.231,0.352,-0.907,0.013,0.08,0.021,-0.768,0.536,0.248,0.25,-0.36,1.576
2024-10-15 11:30:57.872,65809.261,0.237,0.357,-0.904,-0.011,0.125,0.073,-0.471,0.444,0.308,0.256,-0.365,1.581
2024-10-15 11:30:57.882,65809.271,0.241,0.359,-0.902,-0.04,0.145,0.086,-0.128,0.279,0.361,0.261,-0.367,1.585
2024-10-15 11:30:57.892,65809.281,0.244,0.358,-0.901,-0.026,0.133,0.082,0.115,0.157,0.356,0.265,-0.366,1.589
2024-10-15 11:30:57.902,65809.291,0.247,0.355,-0.902,-0.009,0.092,0.099,0.255,0.136,0.306,0.267,-0.363,1.591
2024-10-15 11:30:57.912,65809.301,0.249,0.352,-0.902,-0.015,0.067,0.114,0.303,0.127,0.245,0.269,-0.36,1.594
2024-10-15 11:30:57.922,65809.311,0.251,0.349,-0.903,-0.026,0.039,0.105,0.336,0.054,0.217,0.271,-0.356,1.595
2024-10-15 11:30:57.932,65809.321,0.252,0.345,-0.904,-0.009,-0.005,0.069,0.302,-0.015,0.196,0.271,-0.352,1.596
2024-10-15 11:30:57.942,65809.331,0.252,0.342,-0.905,0.026,-0.039,0.042,0.352,-0.041,0.153,0.271,-0.349,1.597
2024-10-15 11:30:57.952,65809.341,0.252,0.338,-0.907,0.036,-0.032,0.045,0.54,-0.034,0.091,0.271,-0.344,1.597
2024-10-15 11:30:57.962,65809.351,0.252,0.331,-0.909,0.035,-0.035,0.048,0.878,-0.058,-0.004,0.27,-0.337,1.596
2024-10-15 11:30:57.973,65809.361,0.251,0.321,-0.913,0.044,-0.038,0.029,1.297,-0.133,-0.058,0.268,-0.327,1.592
2024-10-15 11:30:57.983,65809.371,0.249,0.308,-0.918,0.07,-0.037,0.007,1.726,-0.218,-0.132,0.265,-0.313,1.587
2024-10-15 11:30:57.992,65809.381,0.246,0.291,-0.925,0.104,-0.021,-0.008,2.009,-0.316,-0.235,0.26,-0.295,1.58
2024-10-15 11:30:58.003,65809.391,0.242,0.272,-0.931,0.11,-0.023,0.006,2.104,-0.348,-0.354,0.254,-0.276,1.572
2024-10-15 11:30:58.012,65809.401,0.237,0.255,-0.938,0.099,-0.035,0.046,1.951,-0.498,-0.502,0.248,-0.258,1.562
2024-10-15 11:30:58.022,65809.411,0.231,0.243,-0.942,0.072,-0.074,0.06,0.452,-0.518,-0.433,0.24,-0.246,1.554
2024-10-15 11:30:58.032,65809.421,0.227,0.246,-0.942,0.062,-0.287,0.036,-0.786,-0.084,-0.051,0.237,-0.249,1.552
2024-10-15 11:30:58.042,65809.431,0.229,0.254,-0.94,0.041,-0.386,-0.251,-0.786,0.433,0.255,0.24,-0.257,1.556
2024-10-15 11:30:58.052,65809.441,0.234,0.256,-0.938,-0.053,-0.253,-0.141,0.411,0.36,0.003,0.245,-0.259,1.558
2024-10-15 11:30:58.062,65809.451,0.234,0.248,-0.94,-0.156,0.261,0.143,1.314,-0.423,-0.107,0.244,-0.25,1.554
2024-10-15 11:30:58.072,65809.461,0.228,0.236,-0.945,-0.001,0.439,0.121,1.191,-0.694,-0.078,0.236,-0.238,1.55
2024-10-15 11:30:58.082,65809.471,0.223,0.227,-0.948,0.317,0.274,0.048,0.731,-0.299,-0.121,0.231,-0.229,1.547
2024-10-15 11:30:58.092,65809.481,0.221,0.221,-0.95,0.174,0.153,0.015,0.423,0.055,0.036,0.229,-0.223,1.545
2024-10-15 11:30:58.103,65809.491,0.223,0.217,-0.95,-0.168,0.11,-0.014,0.409,0.168,0.23,0.23,-0.219,1.546
2024-10-15 11:30:58.111,65809.501,0.225,0.212,-0.951,-0.223,0.152,-0.025,0.56,0.177,0.217,0.232,-0.214,1.547
2024-10-15 11:30:58.122,65809.511,0.227,0.205,-0.952,-0.122,0.208,-0.065,0.843,0.135,0.161,0.234,-0.207,1.547
2024-10-15 11:30:58.131,65809.521,0.229,0.195,-0.954,-0.058,0.243,-0.092,1.18,0.136,0.128,0.235,-0.197,1.546
2024-10-15 11:30:58.142,65809.531,0.23,0.183,-0.956,-0.049,0.268,-0.08,1.375,0.159,0.113,0.236,-0.184,1.545
2024-10-15 11:30:58.151,65809.541,0.232,0.169,-0.958,-0.088,0.26,-0.047,1.401,0.171,0.125,0.238,-0.17,1.543
2024-10-15 11:30:58.162,65809.551,0.234,0.157,-0.96,-0.119,0.247,-0.015,1.115,0.22,0.192,0.239,-0.157,1.541
2024-10-15 11:30:58.172,65809.561,0.236,0.147,-0.961,-0.131,0.229,0.006,0.858,0.097,0.334,0.241,-0.147,1.541
2024-10-15 11:30:58.182,65809.571,0.239,0.141,-0.961,-0.142,0.192,0.059,0.015,0.482,0.115,0.244,-0.142,1.543
2024-10-15 11:30:58.192,65809.58,0.245,0.144,-0.959,-0.135,0.198,0.353,-0.516,0.735,0.127,0.251,-0.145,1.544
2024-10-15 11:30:58.202,65809.59,0.252,0.149,-0.956,-0.287,0.265,0.458,-0.726,0.541,0.508,0.258,-0.15,1.549
2024-10-15 11:30:58.212,65809.6,0.258,0.155,-0.954,-0.297,0.129,0.151,-0.691,0.573,0.594,0.264,-0.155,1.557
2024-10-15 11:30:58.222,65809.61,0.264,0.158,-0.951,-0.131,0.202,0.097,-0.224,0.525,0.527,0.271,-0.159,1.564
2024-10-15 11:30:58.232,65809.62,0.269,0.156,-0.95,-0.151,0.315,0.071,0.221,0.412,0.543,0.276,-0.157,1.569
2024-10-15 11:30:58.242,65809.63,0.274,0.152,-0.95,-0.135,0.26,-0.098,0.404,0.388,0.564,0.281,-0.152,1.573
2024-10-15 11:30:58.252,65809.64,0.279,0.145,-0.949,-0.063,0.138,-0.15,0.664,0.392,0.505,0.285,-0.146,1.577
2024-10-15 11:30:58.262,65809.65,0.282,0.136,-0.95,-0.009,-0.02,-0.151,1.137,0.251,0.351,0.289,-0.136,1.578
2024-10-15 11:30:58.272,65809.66,0.285,0.123,-0.951,0.071,-0.119,-0.153,1.342,0.18,0.224,0.291,-0.123,1.577
2024-10-15 11:30:58.282,65809.67,0.287,0.11,-0.952,0.174,-0.06,-0.166,1.141,0.274,0.213,0.293,-0.11,1.575
2024-10-15 11:30:58.292,65809.68,0.291,0.1,-0.952,0.188,-0.046,-0.134,0.83,0.5,0.221,0.297,-0.1,1.575
2024-10-15 11:30:58.302,65809.69,0.297,0.093,-0.95,0.129,-0.162,-0.059,0.549,0.663,0.183,0.302,-0.093,1.574
2024-10-15 11:30:58.312,65809.7,0.303,0.088,-0.949,0.082,-0.209,-0.001,0.413,0.707,0.137,0.309,-0.088,1.574
2024-10-15 11:30:58.322,65809.71,0.31,0.084,-0.947,0.078,-0.078,0.063,0.424,0.644,0.12,0.316,-0.084,1.573
2024-10-15 11:30:58.332,65809.72,0.316,0.079,-0.946,0.111,0.048,0.083,0.434,0.568,0.115,0.322,-0.08,1.573
2024-10-15 11:30:58.341,65809.73,0.321,0.075,-0.944,0.133,0.047,0.092,0.362,0.48,0.142,0.327,-0.075,1.572
2024-10-15 11:30:58.351,65809.74,0.325,0.072,-0.943,0.113,-0.016,0.103,0.241,0.398,0.223,0.332,-0.072,1.572
2024-10-15 11:30:58.362,65809.75,0.328,0.07,-0.942,0.091,-0.087,0.129,0.068,0.301,0.269,0.335,-0.07,1.574
2024-10-15 11:30:58.371,65809.76,0.332,0.069,-0.941,0.083,-0.099,0.159,-0.008,0.333,0.215,0.339,-0.069,1.576
2024-10-15 11:30:58.381,65809.77,0.335,0.068,-0.94,0.073,-0.04,0.188,-0.03,0.331,0.123,0.342,-0.068,1.578
2024-10-15 11:30:58.391,65809.78,0.338,0.068,-0.939,0.05,-0.011,0.189,-0.111,0.258,0.05,0.345,-0.069,1.579
2024-10-15 11:30:58.401,65809.79,0.34,0.07,-0.938,0.061,-0.026,0.161,-0.2,0.225,-0.003,0.348,-0.07,1.58
2024-10-15 11:30:58.411,65809.8,0.342,0.072,-0.937,0.038,-0.074,0.142,-0.302,0.259,0.073,0.35,-0.072,1.581
2024-10-15 11:30:58.422,65809.81,0.345,0.075,-0.936,-0.032,-0.184,0.131,-0.397,0.249,0.163,0.353,-0.075,1.583
2024-10-15 11:30:58.431,65809.82,0.347,0.078,-0.935,-0.067,-0.275,0.087,-0.473,0.26,0.171,0.356,-0.079,1.586
2024-10-15 11:30:58.441,65809.83,0.35,0.083,-0.933,-0.063,-0.315,0.024,-0.536,0.349,0.176,0.359,-0.083,1.59
2024-10-15 11:30:58.451,65809.84,0.353,0.087,-0.931,-0.076,-0.328,-0.046,-0.588,0.373,0.086,0.363,-0.087,1.593
2024-10-15 11:30:58.461,65809.85,0.357,0.093,-0.929,-0.089,-0.351,-0.101,-0.726,0.396,-0.084,0.367,-0.094,1.595
2024-10-15 11:30:58.471,65809.86,0.36,0.101,-0.927,-0.063,-0.381,-0.128,-0.699,0.386,-0.226,0.371,-0.101,1.597
2024-10-15 11:30:58.482,65809.87,0.364,0.107,-0.925,-0.039,-0.379,-0.121,-0.449,0.41,-0.337,0.375,-0.107,1.596
2024-10-15 11:30:58.492,65809.88,0.367,0.111,-0.924,-0.018,-0.301,-0.08,-0.112,0.339,-0.513,0.378,-0.112,1.593
2024-10-15 11:30:58.501,65809.89,0.369,0.114,-0.922,-0.018,-0.133,-0.036,-0.021,0.248,-0.561,0.38,-0.114,1.588
2024-10-15 11:30:58.511,65809.9,0.37,0.117,-0.922,-0.02,-0.106,-0.093,-0.246,0.186,-0.564,0.382,-0.117,1.583
2024-10-15 11:30:58.521,65809.91,0.371,0.122,-0.92,0.009,-0.236,-0.15,-0.344,0.224,-0.59,0.384,-0.122,1.579
2024-10-15 11:30:58.531,65809.92,0.373,0.127,-0.919,0.029,-0.316,-0.12,-0.223,0.259,-0.627,0.385,-0.127,1.575
2024-10-15 11:30:58.541,65809.93,0.374,0.13,-0.918,0.004,-0.266,-0.072,0.074,0.18,-0.635,0.387,-0.13,1.569
2024-10-15 11:30:58.551,65809.94,0.374,0.13,-0.918,-0.014,-0.095,-0.051,0.353,0.072,-0.62,0.387,-0.131,1.562
2024-10-15 11:30:58.561,65809.95,0.374,0.128,-0.919,0.014,0.046,-0.028,0.651,-0.021,-0.664,0.387,-0.129,1.555
2024-10-15 11:30:58.571,65809.96,0.372,0.123,-0.92,0.059,0.089,-0.001,0.874,-0.13,-0.674,0.385,-0.124,1.545
2024-10-15 11:30:58.581,65809.97,0.37,0.118,-0.922,0.085,-0.012,0.041,0.818,-0.239,-0.683,0.382,-0.118,1.536
2024-10-15 11:30:58.591,65809.98,0.367,0.113,-0.923,0.081,-0.075,0.067,0.739,-0.267,-0.688,0.378,-0.114,1.526
2024-10-15 11:30:58.601,65809.99,0.364,0.111,-0.925,0.058,-0.093,0.051,0.374,-0.222,-0.615,0.374,-0.111,1.518
2024-10-15 11:30:58.611,65810.0,0.361,0.111,-0.926,0.019,-0.126,-0.022,-0.107,-0.178,-0.501,0.372,-0.112,1.512
2024-10-15 11:30:58.622,65810.01,0.359,0.116,-0.926,-0.041,-0.001,-0.078,-0.504,-0.148,-0.297,0.37,-0.116,1.51
2024-10-15 11:30:58.631,65810.02,0.357,0.122,-0.926,-0.07,0.18,-0.091,-0.607,-0.188,-0.106,0.368,-0.122,1.51
2024-10-15 11:30:58.641,65810.03,0.355,0.127,-0.926,-0.036,0.383,-0.092,-0.438,-0.295,0.082,0.366,-0.127,1.512
2024-10-15 11:30:58.651,65810.04,0.352,0.129,-0.927,0.006,0.557,-0.05,-0.171,-0.385,0.374,0.363,-0.129,1.515
2024-10-15 11:30:58.661,65810.05,0.349,0.127,-0.928,0.034,0.584,0.012,0.068,-0.479,0.667,0.36,-0.128,1.52
2024-10-15 11:30:58.671,65810.06,0.345,0.123,-0.93,0.05,0.554,0.019,0.34,-0.543,0.818,0.355,-0.123,1.527
2024-10-15 11:30:58.681,65810.07,0.341,0.115,-0.933,0.051,0.563,-0.02,0.685,-0.577,0.838,0.35,-0.116,1.533
2024-10-15 11:30:58.691,65810.08,0.337,0.105,-0.936,0.016,0.493,-0.045,0.93,-0.572,0.821,0.345,-0.105,1.538
2024-10-15 11:30:58.701,65810.09,0.332,0.094,-0.939,-0.016,0.301,-0.064,0.925,-0.584,0.738,0.34,-0.094,1.542
2024-10-15 11:30:58.711,65810.1,0.327,0.083,-0.941,-0.028,0.056,-0.106,0.717,-0.525,0.676,0.335,-0.084,1.546
2024-10-15 11:30:58.721,65810.11,0.323,0.075,-0.943,-0.03,-0.204,-0.052,0.6,-0.493,0.564,0.33,-0.075,1.55
2024-10-15 11:30:58.731,65810.12,0.318,0.068,-0.945,-0.006,-0.305,0.061,0.628,-0.559,0.42,0.325,-0.068,1.552
2024-10-15 11:30:58.742,65810.13,0.313,0.06,-0.948,-0.015,-0.298,0.104,0.765,-0.611,0.305,0.319,-0.06,1.554
2024-10-15 11:30:58.751,65810.14,0.307,0.052,-0.95,0.015,-0.326,0.17,0.884,-0.69,0.182,0.313,-0.052,1.553
2024-10-15 11:30:58.761,65810.15,0.3,0.043,-0.953,0.061,-0.349,0.212,0.96,-0.783,0.03,0.305,-0.043,1.552
2024-10-15 11:30:58.771,65810.16,0.293,0.034,-0.956,0.111,-0.329,0.285,0.779,-0.757,-0.079,0.297,-0.034,1.549
2024-10-15 11:30:58.781,65810.169,0.286,0.029,-0.958,0.136,-0.368,0.267,0.45,-0.675,-0.155,0.29,-0.029,1.546
2024-10-15 11:30:58.791,65810.179,0.28,0.026,-0.96,0.131,-0.421,0.162,0.228,-0.577,-0.205,0.284,-0.026,1.543
2024-10-15 11:30:58.801,65810.189,0.274,0.024,-0.961,0.119,-0.359,0.063,0.278,-0.547,-0.246,0.278,-0.024,1.54
2024-10-15 11:30:58.811,65810.199,0.269,0.022,-0.963,0.106,-0.209,-0.028,0.434,-0.564,-0.259,0.272,-0.022,1.537
2024-10-15 11:30:58.821,65810.209,0.263,0.017,-0.965,0.1,-0.071,-0.064,0.605,-0.601,-0.221,0.266,-0.017,1.533
2024-10-15 11:30:58.831,65810.219,0.257,0.011,-0.966,0.091,0.04,-0.046,0.786,-0.624,-0.209,0.26,-0.011,1.529
2024-10-15 11:30:58.841,65810.229,0.251,0.004,-0.968,0.059,0.178,0.026,0.91,-0.609,-0.139,0.254,-0.004,1.525
2024-10-15 11:30:58.851,65810.239,0.246,-0.004,-0.969,0.036,0.291,0.019,0.771,-0.531,0.033,0.248,0.004,1.523
2024-10-15 11:30:58.861,65810.249,0.241,-0.011,-0.97,-0.014,0.275,-0.072,0.442,-0.393,0.224,0.244,0.011,1.522
2024-10-15 11:30:58.871,65810.259,0.238,-0.014,-0.971,-0.054,0.276,-0.178,0.097,-0.238,0.398,0.241,0.014,1.525
2024-10-15 11:30:58.881,65810.269,0.236,-0.015,-0.972,-0.077,0.365,-0.258,-0.015,-0.134,0.634,0.239,0.015,1.53
2024-10-15 11:30:58.898,65810.279,0.235,-0.018,-0.972,-0.096,0.457,-0.289,0.143,-0.058,0.756,0.238,0.018,1.536
2024-10-15 11:30:58.901,65810.289,0.235,-0.022,-0.972,-0.121,0.508,-0.289,0.328,-0.003,0.82,0.237,0.022,1.543
2024-10-15 11:30:58.910,65810.299,0.235,-0.027,-0.972,-0.141,0.439,-0.234,0.281,0.078,0.853,0.237,0.027,1.551
2024-10-15 11:30:58.921,65810.309,0.236,-0.03,-0.971,-0.131,0.265,-0.122,0.007,0.09,0.803,0.238,0.03,1.559
2024-10-15 11:30:58.931,65810.319,0.237,-0.03,-0.971,-0.114,0.034,-0.052,-0.488,0.15,0.877,0.239,0.03,1.567
2024-10-15 11:30:58.941,65810.329,0.238,-0.027,-0.971,-0.108,-0.203,-0.013,-0.473,0.174,0.814,0.24,0.027,1.577
2024-10-15 11:30:58.950,65810.339,0.239,-0.026,-0.971,-0.085,-0.141,0.182,-0.037,0.003,0.79,0.241,0.026,1.585
2024-10-15 11:30:58.960,65810.349,0.238,-0.029,-0.971,-0.08,0.013,0.189,0.32,-0.065,0.674,0.241,0.029,1.592
2024-10-15 11:30:58.970,65810.359,0.237,-0.035,-0.971,-0.035,-0.026,0.118,0.451,-0.078,0.537,0.24,0.035,1.597
2024-10-15 11:30:58.980,65810.369,0.236,-0.04,-0.971,-0.013,-0.143,0.108,0.496,-0.07,0.402,0.239,0.04,1.6
2024-10-15 11:30:58.991,65810.379,0.236,-0.046,-0.971,0.009,-0.2,0.152,0.612,-0.093,0.246,0.238,0.046,1.602
2024-10-15 11:30:59.001,65810.389,0.234,-0.053,-0.971,0.045,-0.214,0.187,0.599,-0.151,0.093,0.237,0.053,1.602
2024-10-15 11:30:59.011,65810.399,0.233,-0.058,-0.971,0.101,-0.267,0.208,0.372,-0.157,-0.046,0.235,0.058,1.601
2024-10-15 11:30:59.021,65810.409,0.231,-0.06,-0.971,0.161,-0.367,0.235,0.137,-0.136,-0.181,0.234,0.06,1.6
2024-10-15 11:30:59.030,65810.419,0.23,-0.06,-0.971,0.171,-0.482,0.251,0.061,-0.146,-0.284,0.233,0.06,1.597
2024-10-15 11:30:59.040,65810.429,0.229,-0.06,-0.972,0.161,-0.468,0.258,0.064,-0.143,-0.366,0.232,0.06,1.594
2024-10-15 11:30:59.051,65810.439,0.228,-0.06,-0.972,0.108,-0.351,0.181,0.086,-0.184,-0.391,0.23,0.06,1.59
2024-10-15 11:30:59.061,65810.449,0.226,-0.061,-0.972,0.031,-0.209,0.07,0.347,-0.223,-0.529,0.228,0.061,1.585
2024-10-15 11:30:59.071,65810.459,0.224,-0.064,-0.973,0.002,-0.061,0.12,0.613,-0.327,-0.595,0.226,0.064,1.578
2024-10-15 11:30:59.081,65810.469,0.221,-0.068,-0.973,0.028,0.011,0.133,0.447,-0.279,-0.596,0.223,0.068,1.571
2024-10-15 11:30:59.090,65810.479,0.219,-0.069,-0.973,0.016,-0.078,0.011,-0.002,-0.126,-0.54,0.222,0.069,1.565
2024-10-15 11:30:59.100,65810.489,0.219,-0.066,-0.974,-0.082,-0.087,-0.078,-0.357,-0.044,-0.385,0.221,0.066,1.561
2024-10-15 11:30:59.110,65810.499,0.219,-0.061,-0.974,-0.152,0.047,-0.157,-0.52,0.065,-0.225,0.221,0.061,1.559
2024-10-15 11:30:59.120,65810.509,0.22,-0.056,-0.974,-0.123,0.25,-0.207,-0.563,0.104,0.033,0.222,0.056,1.559
2024-10-15 11:30:59.131,65810.519,0.221,-0.05,-0.974,-0.112,0.398,-0.273,-0.525,0.119,0.212,0.223,0.05,1.562
2024-10-15 11:30:59.140,65810.529,0.222,-0.046,-0.974,-0.099,0.518,-0.275,-0.509,0.096,0.357,0.224,0.046,1.566
2024-10-15 11:30:59.150,65810.539,0.223,-0.042,-0.974,-0.089,0.562,-0.231,-0.563,0.14,0.489,0.225,0.042,1.571
2024-10-15 11:30:59.160,65810.549,0.225,-0.037,-0.974,-0.095,0.434,-0.212,-0.612,0.233,0.549,0.227,0.037,1.577
2024-10-15 11:30:59.170,65810.559,0.227,-0.033,-0.973,-0.114,0.252,-0.148,-0.637,0.26,0.575,0.229,0.033,1.584
2024-10-15 11:30:59.180,65810.569,0.229,-0.027,-0.973,-0.112,0.09,-0.11,-0.697,0.228,0.513,0.232,0.027,1.591
2024-10-15 11:30:59.190,65810.579,0.232,-0.021,-0.972,-0.062,-0.076,-0.101,-0.835,0.335,0.548,0.235,0.021,1.598
2024-10-15 11:30:59.200,65810.589,0.236,-0.015,-0.972,-0.076,-0.231,-0.171,-0.56,0.417,0.53,0.238,0.015,1.605
2024-10-15 11:30:59.210,65810.599,0.239,-0.014,-0.971,-0.11,-0.193,-0.049,0.121,0.205,0.55,0.241,0.014,1.611
2024-10-15 11:30:59.220,65810.609,0.24,-0.02,-0.971,-0.071,0.007,0.08,0.67,0.06,0.467,0.242,0.02,1.615
2024-10-15 11:30:59.230,65810.619,0.24,-0.028,-0.97,0.04,0.076,0.141,0.825,-0.023,0.35,0.242,0.028,1.617
2024-10-15 11:30:59.240,65810.629,0.239,-0.036,-0.97,0.077,0.01,0.221,0.764,-0.066,0.279,0.242,0.036,1.618
2024-10-15 11:30:59.250,65810.639,0.239,-0.044,-0.97,0.101,-0.113,0.273,0.624,-0.084,0.132,0.241,0.044,1.619
2024-10-15 11:30:59.260,65810.649,0.237,-0.049,-0.97,0.136,-0.232,0.307,0.467,-0.15,-0.013,0.24,0.049,1.618
2024-10-15 11:30:59.270,65810.659,0.236,-0.052,-0.97,0.146,-0.345,0.276,0.261,-0.134,-0.17,0.239,0.052,1.616
2024-10-15 11:30:59.280,65810.669,0.235,-0.054,-0.971,0.147,-0.433,0.256,0.078,-0.134,-0.283,0.238,0.054,1.614
2024-10-15 11:30:59.290,65810.679,0.234,-0.053,-0.971,0.117,-0.446,0.23,0.006,-0.178,-0.402,0.236,0.053,1.61
2024-10-15 11:30:59.300,65810.689,0.232,-0.052,-0.971,0.087,-0.324,0.144,0.049,-0.217,-0.417,0.235,0.052,1.606
2024-10-15 11:30:59.310,65810.699,0.23,-0.054,-0.972,0.029,-0.179,0.106,0.604,-0.35,-0.508,0.232,0.054,1.601
2024-10-15 11:30:59.320,65810.709,0.226,-0.06,-0.972,0.047,-0.012,0.221,0.787,-0.49,-0.564,0.228,0.06,1.593
2024-10-15 11:30:59.330,65810.719,0.222,-0.065,-0.973,0.098,-0.037,0.1,0.316,-0.34,-0.581,0.224,0.065,1.585
2024-10-15 11:30:59.340,65810.729,0.22,-0.064,-0.973,0.031,-0.165,-0.047,-0.211,-0.153,-0.496,0.222,0.064,1.579
2024-10-15 11:30:59.350,65810.739,0.219,-0.059,-0.974,-0.126,-0.098,-0.125,-0.478,-0.051,-0.348,0.221,0.059,1.574
2024-10-15 11:30:59.360,65810.749,0.219,-0.053,-0.974,-0.171,0.105,-0.203,-0.684,0.042,-0.137,0.221,0.053,1.572
2024-10-15 11:30:59.370,65810.759,0.22,-0.046,-0.974,-0.129,0.304,-0.307,-0.808,0.112,0.135,0.222,0.046,1.573
2024-10-15 11:30:59.380,65810.768,0.221,-0.038,-0.974,-0.129,0.538,-0.349,-0.806,0.114,0.417,0.223,0.038,1.577
2024-10-15 11:30:59.390,65810.778,0.222,-0.034,-0.975,-0.141,0.725,-0.309,-0.363,0.017,0.571,0.224,0.034,1.582
2024-10-15 11:30:59.399,65810.788,0.221,-0.034,-0.975,-0.093,0.806,-0.172,0.201,-0.098,0.676,0.223,0.034,1.588
2024-10-15 11:30:59.410,65810.798,0.22,-0.039,-0.975,-0.043,0.731,-0.063,0.402,-0.066,0.746,0.222,0.039,1.593
2024-10-15 11:30:59.419,65810.808,0.22,-0.044,-0.975,-0.052,0.462,-0.052,0.176,0.114,0.79,0.222,0.044,1.599
2024-10-15 11:30:59.429,65810.818,0.221,-0.045,-0.974,-0.103,0.097,-0.068,-0.392,0.252,0.793,0.223,0.045,1.606
2024-10-15 11:30:59.440,65810.828,0.224,-0.041,-0.974,-0.117,-0.196,-0.203,-0.769,0.435,0.671,0.226,0.041,1.614
2024-10-15 11:30:59.450,65810.838,0.228,-0.035,-0.973,-0.109,-0.347,-0.253,-0.622,0.367,0.627,0.23,0.035,1.622
2024-10-15 11:30:59.460,65810.848,0.23,-0.032,-0.973,-0.094,-0.32,-0.177,-0.145,0.222,0.553,0.233,0.032,1.628
2024-10-15 11:30:59.470,65810.858,0.232,-0.034,-0.972,-0.009,-0.208,-0.092,0.203,0.144,0.431,0.234,0.034,1.631
2024-10-15 11:30:59.480,65810.868,0.233,-0.038,-0.972,0.04,-0.089,0.107,0.39,0.058,0.345,0.235,0.038,1.634
2024-10-15 11:30:59.489,65810.878,0.233,-0.043,-0.972,0.054,-0.096,0.236,0.6,-0.019,0.207,0.235,0.043,1.634
2024-10-15 11:30:59.499,65810.888,0.232,-0.051,-0.971,0.117,-0.098,0.346,0.827,-0.107,0.041,0.235,0.051,1.633
2024-10-15 11:30:59.510,65810.898,0.231,-0.059,-0.971,0.153,-0.116,0.403,0.858,-0.152,-0.075,0.234,0.059,1.63
2024-10-15 11:30:59.520,65810.908,0.229,-0.066,-0.971,0.163,-0.252,0.43,0.604,-0.176,-0.133,0.232,0.066,1.627
2024-10-15 11:30:59.529,65810.918,0.228,-0.07,-0.971,0.16,-0.447,0.386,0.331,-0.135,-0.287,0.231,0.07,1.623
2024-10-15 11:30:59.539,65810.928,0.227,-0.071,-0.971,0.152,-0.465,0.264,0.195,-0.072,-0.354,0.23,0.072,1.618
2024-10-15 11:30:59.549,65810.938,0.227,-0.072,-0.971,0.09,-0.312,0.096,0.189,-0.108,-0.326,0.229,0.073,1.614
2024-10-15 11:30:59.559,65810.948,0.226,-0.075,-0.971,0.005,-0.121,-0.078,0.583,-0.167,-0.405,0.228,0.075,1.609
2024-10-15 11:30:59.569,65810.958,0.224,-0.082,-0.971,-0.013,0.062,0.013,0.975,-0.342,-0.406,0.226,0.082,1.602
2024-10-15 11:30:59.579,65810.968,0.221,-0.09,-0.971,0.058,0.108,0.142,0.837,-0.333,-0.463,0.223,0.09,1.594
2024-10-15 11:30:59.589,65810.978,0.219,-0.095,-0.971,0.076,-0.007,0.062,0.375,-0.172,-0.379,0.221,0.095,1.588
2024-10-15 11:30:59.600,65810.988,0.218,-0.095,-0.971,-0.068,-0.055,-0.032,-0.181,-0.03,-0.18,0.221,0.095,1.584
2024-10-15 11:30:59.610,65810.998,0.218,-0.091,-0.972,-0.179,0.013,-0.2,-0.572,0.104,0.003,0.221,0.091,1.584
2024-10-15 11:30:59.620,65811.008,0.22,-0.086,-0.972,-0.192,0.216,-0.322,-0.601,0.14,0.18,0.222,0.086,1.585
2024-10-15 11:30:59.629,65811.018,0.221,-0.081,-0.972,-0.175,0.454,-0.383,-0.326,0.101,0.296,0.223,0.082,1.588
2024-10-15 11:30:59.640,65811.028,0.221,-0.081,-0.972,-0.128,0.598,-0.364,-0.006,0.097,0.373,0.224,0.081,1.59
2024-10-15 11:30:59.650,65811.038,0.222,-0.082,-0.972,-0.08,0.577,-0.219,0.051,0.093,0.491,0.224,0.082,1.594
2024-10-15 11:30:59.660,65811.048,0.223,-0.083,-0.971,-0.067,0.393,-0.133,-0.158,0.184,0.598,0.225,0.083,1.599
2024-10-15 11:30:59.669,65811.058,0.225,-0.081,-0.971,-0.088,0.162,-0.108,-0.449,0.263,0.628,0.227,0.082,1.604
2024-10-15 11:30:59.679,65811.068,0.227,-0.077,-0.971,-0.092,-0.004,-0.087,-0.763,0.257,0.653,0.229,0.077,1.612
2024-10-15 11:30:59.689,65811.078,0.229,-0.07,-0.971,-0.061,-0.11,-0.183,-0.845,0.382,0.531,0.232,0.07,1.618
2024-10-15 11:30:59.699,65811.088,0.232,-0.065,-0.971,-0.053,-0.162,-0.14,-0.526,0.201,0.581,0.235,0.065,1.625
2024-10-15 11:30:59.709,65811.098,0.233,-0.063,-0.97,-0.065,-0.156,-0.065,-0.051,0.08,0.536,0.236,0.063,1.63
2024-10-15 11:30:59.719,65811.108,0.233,-0.066,-0.97,0.016,-0.069,0.037,0.343,0.045,0.409,0.236,0.066,1.634
2024-10-15 11:30:59.729,65811.118,0.233,-0.071,-0.97,0.038,0.045,0.196,0.584,-0.085,0.336,0.236,0.071,1.636
2024-10-15 11:30:59.739,65811.128,0.231,-0.078,-0.97,0.044,0.011,0.297,0.749,-0.184,0.223,0.234,0.079,1.636
2024-10-15 11:30:59.749,65811.138,0.229,-0.086,-0.97,0.091,-0.094,0.347,0.805,-0.256,0.107,0.232,0.087,1.635
2024-10-15 11:30:59.759,65811.148,0.226,-0.094,-0.97,0.126,-0.216,0.363,0.719,-0.308,-0.034,0.229,0.094,1.633
2024-10-15 11:30:59.769,65811.158,0.224,-0.099,-0.97,0.152,-0.338,0.36,0.428,-0.268,-0.149,0.227,0.1,1.63
2024-10-15 11:30:59.779,65811.168,0.221,-0.101,-0.97,0.149,-0.489,0.29,0.069,-0.215,-0.248,0.224,0.102,1.627
2024-10-15 11:30:59.789,65811.178,0.22,-0.101,-0.97,0.133,-0.533,0.191,-0.069,-0.19,-0.298,0.223,0.101,1.624
2024-10-15 11:30:59.800,65811.188,0.218,-0.099,-0.971,0.11,-0.388,0.053,-0.034,-0.183,-0.334,0.221,0.099,1.62
2024-10-15 11:30:59.809,65811.198,0.217,-0.099,-0.971,0.059,-0.143,-0.093,0.119,-0.183,-0.339,0.22,0.099,1.616
2024-10-15 11:30:59.819,65811.208,0.215,-0.102,-0.971,-0.003,0.038,-0.118,0.701,-0.311,-0.413,0.218,0.102,1.611
2024-10-15 11:30:59.829,65811.218,0.211,-0.11,-0.971,0.037,0.142,0.129,0.94,-0.509,-0.395,0.214,0.11,1.605
2024-10-15 11:30:59.839,65811.228,0.207,-0.116,-0.971,0.122,0.069,0.127,0.534,-0.356,-0.333,0.21,0.117,1.599
