Date,TimeStamp,GravityX,GravityY,GravityZ,UserAccelerationX,UserAccelerationY,UserAccelerationZ,RotationRateX,RotationRateY,RotationRateZ,AttitudeRoll,AttitudePitch,AttitudeYaw
2024-10-15 13:34:14.036,73205.473,-0.012,0.095,-0.995,0.012,-0.003,0.006,0.032,0.007,-0.005,-0.012,-0.095,0.866
2024-10-15 13:34:14.050,73205.483,-0.012,0.095,-0.995,0.008,0.002,0.009,0.033,-0.002,-0.023,-0.012,-0.095,0.866
2024-10-15 13:34:14.052,73205.493,-0.012,0.094,-0.995,0.007,-0.002,0.009,0.028,-0.002,-0.028,-0.012,-0.094,0.865
2024-10-15 13:34:14.053,73205.503,-0.012,0.094,-0.996,0.002,-0.002,0.007,0.02,0.001,-0.034,-0.012,-0.094,0.865
2024-10-15 13:34:14.062,73205.513,-0.012,0.094,-0.996,-0.0,-0.004,0.005,0.018,0.012,-0.043,-0.012,-0.094,0.865
2024-10-15 13:34:14.071,73205.523,-0.012,0.094,-0.996,-0.006,-0.002,0.003,0.024,0.014,-0.044,-0.012,-0.094,0.864
2024-10-15 13:34:14.082,73205.533,-0.012,0.093,-0.996,-0.011,-0.007,0.002,0.023,0.014,-0.033,-0.012,-0.094,0.864
2024-10-15 13:34:14.092,73205.543,-0.012,0.093,-0.996,-0.003,-0.008,0.005,0.022,0.006,-0.026,-0.012,-0.093,0.863
2024-10-15 13:34:14.102,73205.553,-0.012,0.093,-0.996,0.002,-0.004,0.013,0.02,0.004,-0.022,-0.012,-0.093,0.863
2024-10-15 13:34:14.112,73205.563,-0.012,0.093,-0.996,0.002,-0.003,0.017,0.021,0.005,-0.015,-0.012,-0.093,0.863
2024-10-15 13:34:14.122,73205.573,-0.012,0.093,-0.996,0.001,-0.002,0.011,0.018,0.007,-0.009,-0.012,-0.093,0.863
2024-10-15 13:34:14.133,73205.582,-0.012,0.092,-0.996,0.0,-0.002,0.006,0.005,0.008,-0.009,-0.012,-0.093,0.863
2024-10-15 13:34:14.142,73205.592,-0.011,0.092,-0.996,0.001,-0.006,0.002,-0.012,0.011,-0.002,-0.011,-0.093,0.863
2024-10-15 13:34:14.153,73205.602,-0.011,0.093,-0.996,0.001,-0.014,0.001,-0.03,0.005,0.004,-0.011,-0.093,0.863
2024-10-15 13:34:14.162,73205.612,-0.011,0.093,-0.996,0.004,-0.017,0.008,-0.048,-0.001,0.012,-0.011,-0.093,0.863
2024-10-15 13:34:14.172,73205.622,-0.011,0.094,-0.996,0.009,-0.015,0.013,-0.054,-0.009,0.011,-0.011,-0.094,0.863
2024-10-15 13:34:14.182,73205.632,-0.011,0.094,-0.995,0.009,-0.013,0.014,-0.054,-0.01,0.006,-0.012,-0.094,0.863
2024-10-15 13:34:14.192,73205.642,-0.012,0.095,-0.995,0.007,-0.008,0.009,-0.046,-0.008,0.01,-0.012,-0.095,0.863
2024-10-15 13:34:14.203,73205.652,-0.012,0.095,-0.995,0.001,0.001,0.003,-0.026,-0.005,0.009,-0.012,-0.095,0.863
2024-10-15 13:34:14.212,73205.662,-0.012,0.095,-0.995,-0.003,0.01,0.002,-0.005,-0.003,0.014,-0.012,-0.095,0.863
2024-10-15 13:34:14.222,73205.672,-0.012,0.095,-0.995,-0.001,0.015,0.004,0.011,-0.0,0.004,-0.012,-0.095,0.863
2024-10-15 13:34:14.232,73205.682,-0.012,0.095,-0.995,-0.002,0.013,0.006,0.024,0.004,-0.002,-0.012,-0.095,0.863
2024-10-15 13:34:14.242,73205.692,-0.012,0.094,-0.995,-0.007,0.009,0.007,0.038,0.005,0.004,-0.012,-0.095,0.864
2024-10-15 13:34:14.253,73205.702,-0.012,0.094,-0.995,-0.008,0.005,0.006,0.04,0.0,0.005,-0.012,-0.094,0.864
2024-10-15 13:34:14.262,73205.712,-0.012,0.094,-0.996,-0.002,-0.001,0.007,0.036,0.002,0.0,-0.012,-0.094,0.864
2024-10-15 13:34:14.272,73205.722,-0.011,0.093,-0.996,0.0,-0.007,0.007,0.023,0.001,0.006,-0.012,-0.094,0.864
2024-10-15 13:34:14.282,73205.732,-0.011,0.093,-0.996,-0.002,-0.01,0.004,0.003,0.0,0.011,-0.011,-0.093,0.864
2024-10-15 13:34:14.292,73205.742,-0.011,0.093,-0.996,0.002,-0.014,0.004,-0.02,0.003,0.012,-0.011,-0.094,0.864
2024-10-15 13:34:14.302,73205.752,-0.011,0.094,-0.996,0.005,-0.016,0.009,-0.039,-0.001,0.009,-0.011,-0.094,0.864
2024-10-15 13:34:14.312,73205.762,-0.011,0.094,-0.995,0.001,-0.018,0.012,-0.052,0.003,-0.002,-0.011,-0.094,0.864
2024-10-15 13:34:14.322,73205.772,-0.011,0.095,-0.995,-0.003,-0.018,0.015,-0.057,0.006,-0.038,-0.011,-0.095,0.864
2024-10-15 13:34:14.332,73205.782,-0.011,0.095,-0.995,-0.013,-0.016,0.009,-0.062,0.018,-0.051,-0.011,-0.096,0.863
2024-10-15 13:34:14.341,73205.792,-0.011,0.096,-0.995,-0.022,-0.012,-0.002,-0.058,0.025,-0.046,-0.011,-0.096,0.863
2024-10-15 13:34:14.352,73205.802,-0.011,0.097,-0.995,-0.012,-0.003,-0.01,-0.063,0.041,-0.058,-0.011,-0.097,0.862
2024-10-15 13:34:14.362,73205.812,-0.011,0.097,-0.995,-0.003,-0.002,-0.005,-0.052,0.038,-0.059,-0.011,-0.097,0.862
2024-10-15 13:34:14.373,73205.822,-0.01,0.097,-0.995,-0.006,-0.008,0.003,-0.033,0.031,-0.041,-0.01,-0.098,0.861
2024-10-15 13:34:14.382,73205.832,-0.01,0.098,-0.995,0.002,-0.0,0.012,-0.04,-0.067,0.076,-0.01,-0.098,0.861
2024-10-15 13:34:14.391,73205.842,-0.011,0.098,-0.995,0.055,0.033,0.025,0.014,0.019,-0.051,-0.011,-0.098,0.861
2024-10-15 13:34:14.407,73205.852,-0.01,0.098,-0.995,0.032,0.025,0.02,0.032,0.015,0.006,-0.01,-0.098,0.861
2024-10-15 13:34:14.419,73205.862,-0.01,0.097,-0.995,-0.05,0.006,-0.002,0.054,0.01,0.005,-0.01,-0.097,0.861
2024-10-15 13:34:14.424,73205.872,-0.01,0.097,-0.995,0.001,0.028,0.004,0.057,0.009,-0.004,-0.01,-0.097,0.861
2024-10-15 13:34:14.432,73205.882,-0.01,0.096,-0.995,0.016,0.005,0.004,0.05,0.01,-0.0,-0.01,-0.096,0.861
2024-10-15 13:34:14.441,73205.892,-0.01,0.096,-0.995,-0.0,-0.007,0.007,0.034,0.012,0.004,-0.01,-0.096,0.861
2024-10-15 13:34:14.451,73205.902,-0.01,0.095,-0.995,-0.007,-0.01,0.007,0.007,0.009,0.001,-0.01,-0.096,0.861
2024-10-15 13:34:14.461,73205.912,-0.01,0.095,-0.995,-0.001,-0.02,0.008,-0.024,0.001,-0.007,-0.01,-0.096,0.861
2024-10-15 13:34:14.471,73205.922,-0.01,0.096,-0.995,0.002,-0.024,0.01,-0.044,-0.002,-0.004,-0.01,-0.096,0.861
2024-10-15 13:34:14.481,73205.932,-0.01,0.096,-0.995,-0.002,-0.023,0.009,-0.044,-0.007,-0.012,-0.01,-0.096,0.861
2024-10-15 13:34:14.491,73205.942,-0.01,0.097,-0.995,-0.0,-0.02,0.006,-0.042,-0.01,-0.013,-0.01,-0.097,0.861
2024-10-15 13:34:14.501,73205.952,-0.01,0.097,-0.995,0.003,-0.003,0.005,-0.02,-0.003,-0.01,-0.01,-0.097,0.861
2024-10-15 13:34:14.511,73205.962,-0.01,0.097,-0.995,0.002,0.012,0.001,0.009,0.002,-0.007,-0.01,-0.097,0.861
2024-10-15 13:34:14.521,73205.972,-0.01,0.097,-0.995,-0.001,0.02,0.002,0.031,0.006,0.001,-0.01,-0.097,0.861
2024-10-15 13:34:14.531,73205.982,-0.01,0.097,-0.995,-0.001,0.02,0.005,0.04,0.007,0.007,-0.01,-0.097,0.861
2024-10-15 13:34:14.542,73205.992,-0.01,0.096,-0.995,-0.001,0.014,0.011,0.039,0.009,0.008,-0.01,-0.096,0.861
2024-10-15 13:34:14.556,73206.002,-0.01,0.096,-0.995,-0.001,0.004,0.012,0.018,0.007,0.003,-0.01,-0.096,0.861
2024-10-15 13:34:14.563,73206.012,-0.01,0.096,-0.995,-0.002,-0.01,0.009,-0.007,0.009,-0.0,-0.01,-0.096,0.861
2024-10-15 13:34:14.572,73206.022,-0.01,0.096,-0.995,-0.003,-0.022,0.008,-0.035,0.009,-0.002,-0.01,-0.096,0.861
2024-10-15 13:34:14.582,73206.032,-0.01,0.096,-0.995,-0.003,-0.029,0.005,-0.062,0.008,-0.008,-0.01,-0.097,0.861
2024-10-15 13:34:14.592,73206.042,-0.01,0.097,-0.995,-0.0,-0.028,0.005,-0.071,0.014,-0.012,-0.01,-0.097,0.861
2024-10-15 13:34:14.602,73206.052,-0.009,0.098,-0.995,0.001,-0.02,0.006,-0.063,0.012,-0.01,-0.009,-0.098,0.861
2024-10-15 13:34:14.612,73206.062,-0.009,0.098,-0.995,-0.0,-0.007,0.007,-0.039,0.01,-0.009,-0.009,-0.099,0.861
2024-10-15 13:34:14.622,73206.072,-0.009,0.099,-0.995,0.0,0.007,0.007,-0.016,0.007,-0.011,-0.009,-0.099,0.861
2024-10-15 13:34:14.632,73206.082,-0.009,0.099,-0.995,0.001,0.009,0.008,0.006,0.005,-0.014,-0.009,-0.099,0.86
2024-10-15 13:34:14.641,73206.092,-0.009,0.099,-0.995,0.001,0.008,0.004,0.022,0.008,-0.004,-0.009,-0.099,0.86
2024-10-15 13:34:14.651,73206.102,-0.009,0.098,-0.995,-0.001,0.019,0.003,0.023,0.012,0.004,-0.009,-0.099,0.86
2024-10-15 13:34:14.662,73206.112,-0.009,0.098,-0.995,-0.004,0.015,0.003,0.029,0.008,0.005,-0.009,-0.098,0.86
2024-10-15 13:34:14.672,73206.122,-0.009,0.098,-0.995,-0.002,0.008,0.005,0.034,0.005,0.005,-0.009,-0.098,0.86
2024-10-15 13:34:14.681,73206.132,-0.009,0.097,-0.995,-0.001,0.003,0.006,0.038,0.008,0.003,-0.009,-0.097,0.861
2024-10-15 13:34:14.691,73206.142,-0.009,0.097,-0.995,-0.006,-0.001,0.003,0.044,0.019,0.008,-0.009,-0.097,0.861
2024-10-15 13:34:14.702,73206.152,-0.009,0.096,-0.995,-0.013,0.002,0.0,0.046,0.023,0.015,-0.009,-0.097,0.861
2024-10-15 13:34:14.711,73206.161,-0.008,0.096,-0.995,-0.014,-0.0,-0.0,0.041,0.05,0.025,-0.008,-0.096,0.861
2024-10-15 13:34:14.722,73206.171,-0.008,0.096,-0.995,-0.01,-0.003,-0.0,0.023,0.057,0.033,-0.008,-0.096,0.861
2024-10-15 13:34:14.731,73206.181,-0.007,0.096,-0.995,-0.005,-0.01,0.002,0.008,0.055,0.029,-0.007,-0.096,0.862
2024-10-15 13:34:14.741,73206.191,-0.006,0.096,-0.995,0.003,-0.023,0.002,0.019,0.046,0.019,-0.007,-0.096,0.862
2024-10-15 13:34:14.751,73206.201,-0.006,0.095,-0.995,0.007,-0.021,0.001,0.034,0.043,0.011,-0.006,-0.095,0.862
2024-10-15 13:34:14.762,73206.211,-0.006,0.095,-0.995,0.004,-0.01,0.0,0.049,0.036,0.006,-0.006,-0.095,0.862
2024-10-15 13:34:14.771,73206.221,-0.005,0.094,-0.996,0.002,-0.006,0.0,0.035,0.027,0.006,-0.005,-0.095,0.862
2024-10-15 13:34:14.781,73206.231,-0.005,0.094,-0.996,0.003,0.0,-0.002,0.025,0.014,0.004,-0.005,-0.094,0.862
2024-10-15 13:34:14.791,73206.241,-0.005,0.094,-0.996,-0.002,0.01,-0.006,0.068,0.01,0.007,-0.005,-0.094,0.862
2024-10-15 13:34:14.801,73206.251,-0.005,0.093,-0.996,-0.014,0.032,-0.013,0.133,0.024,0.022,-0.005,-0.093,0.862
2024-10-15 13:34:14.811,73206.261,-0.004,0.091,-0.996,-0.035,0.049,-0.019,0.174,0.094,0.069,-0.004,-0.091,0.863
2024-10-15 13:34:14.821,73206.271,-0.003,0.089,-0.996,-0.05,0.045,-0.022,0.215,0.157,0.102,-0.003,-0.089,0.864
2024-10-15 13:34:14.831,73206.281,-0.001,0.087,-0.996,-0.053,0.011,-0.029,0.249,0.212,0.122,-0.001,-0.087,0.865
2024-10-15 13:34:14.841,73206.291,0.001,0.084,-0.996,-0.039,0.0,-0.03,0.3,0.238,0.139,0.001,-0.084,0.866
2024-10-15 13:34:14.851,73206.301,0.004,0.081,-0.997,-0.021,0.01,-0.031,0.278,0.21,0.121,0.004,-0.081,0.867
2024-10-15 13:34:14.861,73206.311,0.006,0.079,-0.997,-0.014,0.002,-0.04,0.25,0.196,0.15,0.006,-0.079,0.869
2024-10-15 13:34:14.871,73206.321,0.008,0.076,-0.997,-0.01,0.03,-0.03,0.3,0.167,0.162,0.008,-0.076,0.87
2024-10-15 13:34:14.881,73206.331,0.01,0.073,-0.997,0.011,0.064,0.001,0.369,0.181,0.139,0.01,-0.073,0.872
2024-10-15 13:34:14.891,73206.341,0.011,0.069,-0.998,0.011,0.047,-0.001,0.401,0.182,0.129,0.012,-0.069,0.873
2024-10-15 13:34:14.901,73206.351,0.013,0.065,-0.998,-0.003,0.047,-0.023,0.424,0.189,0.135,0.013,-0.065,0.874
2024-10-15 13:34:14.911,73206.361,0.016,0.061,-0.998,-0.018,0.058,-0.039,0.435,0.263,0.169,0.016,-0.061,0.876
2024-10-15 13:34:14.921,73206.371,0.019,0.056,-0.998,-0.045,0.056,-0.06,0.443,0.348,0.229,0.019,-0.056,0.878
2024-10-15 13:34:14.931,73206.381,0.023,0.052,-0.998,-0.065,0.045,-0.062,0.409,0.4,0.293,0.023,-0.052,0.88
2024-10-15 13:34:14.941,73206.391,0.027,0.048,-0.998,-0.063,0.024,-0.049,0.339,0.445,0.339,0.027,-0.048,0.883
2024-10-15 13:34:14.951,73206.401,0.032,0.045,-0.998,-0.049,0.021,-0.042,0.224,0.489,0.391,0.032,-0.045,0.887
2024-10-15 13:34:14.961,73206.411,0.037,0.043,-0.998,-0.036,0.02,-0.041,0.104,0.496,0.425,0.037,-0.043,0.891
2024-10-15 13:34:14.971,73206.421,0.042,0.042,-0.998,-0.009,0.02,-0.033,0.066,0.5,0.388,0.042,-0.042,0.895
2024-10-15 13:34:14.981,73206.431,0.047,0.041,-0.998,0.009,0.023,-0.054,0.11,0.546,0.355,0.048,-0.041,0.899
2024-10-15 13:34:14.991,73206.441,0.053,0.04,-0.998,0.008,0.05,-0.064,0.219,0.565,0.339,0.053,-0.04,0.902
2024-10-15 13:34:15.002,73206.451,0.059,0.037,-0.998,0.009,0.079,-0.047,0.329,0.577,0.327,0.059,-0.037,0.905
2024-10-15 13:34:15.012,73206.461,0.065,0.033,-0.997,0.015,0.073,-0.029,0.413,0.577,0.312,0.065,-0.033,0.908
2024-10-15 13:34:15.020,73206.471,0.071,0.028,-0.997,0.016,0.056,-0.005,0.474,0.558,0.307,0.071,-0.028,0.911
2024-10-15 13:34:15.030,73206.481,0.076,0.023,-0.997,0.015,0.039,0.021,0.526,0.512,0.297,0.076,-0.023,0.914
2024-10-15 13:34:15.040,73206.491,0.081,0.017,-0.997,0.016,0.03,0.029,0.535,0.499,0.328,0.081,-0.017,0.916
2024-10-15 13:34:15.051,73206.501,0.086,0.012,-0.996,-0.013,0.009,0.036,0.527,0.455,0.315,0.086,-0.012,0.919
2024-10-15 13:34:15.061,73206.511,0.09,0.006,-0.996,-0.025,-0.009,0.059,0.505,0.396,0.285,0.09,-0.006,0.922
2024-10-15 13:34:15.071,73206.521,0.094,0.001,-0.996,0.005,-0.012,0.09,0.478,0.328,0.255,0.094,-0.001,0.924
2024-10-15 13:34:15.081,73206.531,0.097,-0.004,-0.995,0.019,-0.004,0.096,0.427,0.266,0.235,0.097,0.004,0.926
2024-10-15 13:34:15.091,73206.541,0.099,-0.008,-0.995,0.009,0.008,0.089,0.374,0.218,0.227,0.099,0.008,0.928
2024-10-15 13:34:15.101,73206.551,0.101,-0.011,-0.995,-0.0,0.006,0.086,0.291,0.159,0.224,0.101,0.011,0.93
2024-10-15 13:34:15.111,73206.561,0.102,-0.014,-0.995,0.006,-0.018,0.094,0.205,0.121,0.214,0.103,0.014,0.932
2024-10-15 13:34:15.121,73206.571,0.103,-0.016,-0.995,0.016,-0.037,0.106,0.129,0.078,0.199,0.103,0.016,0.933
2024-10-15 13:34:15.131,73206.581,0.104,-0.017,-0.994,0.018,-0.036,0.119,0.07,0.049,0.201,0.104,0.017,0.935
2024-10-15 13:34:15.141,73206.591,0.104,-0.018,-0.994,0.014,-0.024,0.127,0.032,0.034,0.208,0.104,0.018,0.937
2024-10-15 13:34:15.151,73206.601,0.104,-0.018,-0.994,0.007,-0.018,0.123,0.014,0.017,0.217,0.105,0.018,0.939
2024-10-15 13:34:15.161,73206.611,0.104,-0.018,-0.994,0.002,-0.018,0.112,-0.006,-0.006,0.227,0.105,0.018,0.942
2024-10-15 13:34:15.170,73206.621,0.104,-0.019,-0.994,0.002,-0.015,0.09,-0.016,0.005,0.231,0.105,0.019,0.944
2024-10-15 13:34:15.180,73206.631,0.104,-0.019,-0.994,-0.006,-0.014,0.061,-0.014,0.006,0.23,0.105,0.019,0.946
2024-10-15 13:34:15.190,73206.641,0.104,-0.019,-0.994,-0.024,-0.015,0.041,-0.017,0.004,0.224,0.105,0.019,0.948
2024-10-15 13:34:15.200,73206.651,0.104,-0.019,-0.994,-0.023,-0.014,0.03,-0.022,-0.01,0.211,0.105,0.019,0.951
2024-10-15 13:34:15.210,73206.661,0.104,-0.019,-0.994,-0.015,-0.017,0.024,-0.018,-0.027,0.19,0.104,0.019,0.953
2024-10-15 13:34:15.221,73206.671,0.104,-0.019,-0.994,-0.005,-0.023,0.018,-0.001,-0.033,0.171,0.104,0.019,0.954
2024-10-15 13:34:15.231,73206.681,0.103,-0.019,-0.994,0.005,-0.029,0.012,0.042,-0.039,0.15,0.104,0.019,0.956
2024-10-15 13:34:15.240,73206.691,0.103,-0.02,-0.994,0.013,-0.031,0.006,0.089,-0.044,0.131,0.103,0.02,0.957
2024-10-15 13:34:15.250,73206.701,0.102,-0.021,-0.995,0.02,-0.028,-0.0,0.12,-0.055,0.106,0.103,0.021,0.958
2024-10-15 13:34:15.260,73206.711,0.102,-0.023,-0.995,0.022,-0.027,-0.005,0.118,-0.049,0.087,0.102,0.023,0.959
2024-10-15 13:34:15.271,73206.721,0.102,-0.024,-0.995,0.02,-0.033,-0.006,0.083,0.007,0.071,0.102,0.024,0.96
2024-10-15 13:34:15.280,73206.73,0.102,-0.024,-0.995,0.006,-0.041,-0.01,0.022,0.017,0.068,0.102,0.024,0.96
2024-10-15 13:34:15.290,73206.74,0.102,-0.024,-0.994,-0.007,-0.047,0.004,-0.067,0.013,0.062,0.102,0.024,0.961
2024-10-15 13:34:15.300,73206.75,0.102,-0.023,-0.995,0.004,-0.048,0.019,-0.166,0.025,0.054,0.102,0.023,0.962
2024-10-15 13:34:15.310,73206.76,0.102,-0.021,-0.995,0.009,-0.048,0.017,-0.24,0.02,0.047,0.103,0.021,0.963
2024-10-15 13:34:15.320,73206.77,0.102,-0.019,-0.995,0.003,-0.049,0.011,-0.256,0.003,0.037,0.103,0.019,0.963
2024-10-15 13:34:15.330,73206.78,0.102,-0.016,-0.995,0.008,-0.046,0.006,-0.206,-0.015,0.02,0.103,0.016,0.964
2024-10-15 13:34:15.340,73206.79,0.102,-0.015,-0.995,0.016,-0.026,-0.001,-0.12,-0.012,0.016,0.103,0.015,0.964
2024-10-15 13:34:15.350,73206.8,0.102,-0.014,-0.995,0.014,-0.001,-0.005,-0.039,-0.001,0.017,0.103,0.014,0.964
2024-10-15 13:34:15.360,73206.81,0.102,-0.014,-0.995,0.005,0.006,0.001,0.008,-0.005,0.019,0.102,0.014,0.965
2024-10-15 13:34:15.370,73206.82,0.102,-0.014,-0.995,0.008,-0.005,0.018,0.006,-0.012,0.019,0.102,0.014,0.965
2024-10-15 13:34:15.380,73206.83,0.102,-0.014,-0.995,0.015,-0.016,0.03,-0.029,-0.022,0.025,0.102,0.014,0.965
2024-10-15 13:34:15.390,73206.84,0.102,-0.014,-0.995,0.008,-0.019,0.038,-0.077,-0.02,0.025,0.102,0.014,0.965
2024-10-15 13:34:15.401,73206.85,0.102,-0.013,-0.995,-0.001,-0.02,0.035,-0.138,-0.025,0.032,0.102,0.013,0.966
2024-10-15 13:34:15.410,73206.86,0.101,-0.011,-0.995,-0.004,-0.016,0.033,-0.195,-0.02,0.039,0.102,0.011,0.966
2024-10-15 13:34:15.420,73206.87,0.101,-0.01,-0.995,-0.003,-0.018,0.029,-0.199,-0.043,0.029,0.101,0.01,0.967
2024-10-15 13:34:15.430,73206.88,0.101,-0.008,-0.995,0.001,-0.023,0.024,-0.172,-0.058,0.029,0.101,0.008,0.967
2024-10-15 13:34:15.440,73206.89,0.1,-0.006,-0.995,0.008,-0.012,0.023,-0.13,-0.057,0.032,0.1,0.006,0.968
2024-10-15 13:34:15.452,73206.9,0.099,-0.005,-0.995,0.007,0.001,0.023,-0.093,-0.064,0.036,0.1,0.005,0.968
2024-10-15 13:34:15.461,73206.91,0.099,-0.004,-0.995,0.007,-0.0,0.021,-0.081,-0.078,0.033,0.099,0.004,0.969
2024-10-15 13:34:15.470,73206.92,0.098,-0.004,-0.995,0.01,-0.002,0.009,-0.114,-0.082,0.034,0.098,0.004,0.969
2024-10-15 13:34:15.479,73206.93,0.097,-0.002,-0.995,0.002,0.007,-0.01,-0.173,-0.08,0.042,0.097,0.002,0.97
2024-10-15 13:34:15.490,73206.94,0.096,-0.0,-0.995,-0.012,0.01,-0.017,-0.245,-0.083,0.053,0.097,0.0,0.97
2024-10-15 13:34:15.500,73206.95,0.096,0.003,-0.995,-0.007,0.003,-0.012,-0.321,-0.067,0.061,0.096,-0.003,0.971
2024-10-15 13:34:15.510,73206.96,0.095,0.006,-0.995,0.002,-0.001,-0.012,-0.389,-0.032,0.079,0.095,-0.006,0.972
2024-10-15 13:34:15.520,73206.97,0.095,0.01,-0.995,-0.004,0.004,-0.01,-0.429,-0.041,0.111,0.095,-0.01,0.973
2024-10-15 13:34:15.530,73206.98,0.095,0.014,-0.995,-0.002,0.005,0.001,-0.431,-0.035,0.119,0.095,-0.014,0.975
2024-10-15 13:34:15.540,73206.99,0.094,0.018,-0.995,0.013,-0.001,0.001,-0.401,-0.028,0.12,0.094,-0.018,0.977
2024-10-15 13:34:15.550,73207.0,0.094,0.021,-0.995,0.009,0.004,-0.008,-0.323,-0.012,0.106,0.094,-0.021,0.978
2024-10-15 13:34:15.560,73207.01,0.094,0.024,-0.995,0.001,0.012,-0.01,-0.237,-0.01,0.126,0.094,-0.024,0.979
2024-10-15 13:34:15.570,73207.02,0.094,0.026,-0.995,0.004,0.02,-0.007,-0.17,0.003,0.119,0.094,-0.026,0.981
2024-10-15 13:34:15.580,73207.03,0.094,0.027,-0.995,0.004,0.024,-0.008,-0.139,-0.004,0.112,0.094,-0.027,0.982
2024-10-15 13:34:15.590,73207.04,0.094,0.029,-0.995,-0.004,0.011,-0.002,-0.145,-0.015,0.118,0.094,-0.029,0.983
2024-10-15 13:34:15.600,73207.05,0.094,0.03,-0.995,0.0,0.007,0.008,-0.176,-0.025,0.125,0.094,-0.03,0.985
2024-10-15 13:34:15.610,73207.06,0.094,0.032,-0.995,0.001,0.003,0.011,-0.21,-0.029,0.138,0.094,-0.032,0.986
2024-10-15 13:34:15.620,73207.07,0.093,0.034,-0.995,-0.002,-0.015,0.015,-0.26,-0.033,0.142,0.094,-0.034,0.988
2024-10-15 13:34:15.630,73207.08,0.093,0.037,-0.995,0.0,-0.032,0.016,-0.325,-0.042,0.132,0.093,-0.037,0.99
2024-10-15 13:34:15.640,73207.09,0.093,0.04,-0.995,0.004,-0.041,0.017,-0.374,-0.059,0.107,0.093,-0.04,0.991
2024-10-15 13:34:15.651,73207.1,0.092,0.044,-0.995,0.005,-0.055,0.012,-0.37,-0.093,0.082,0.092,-0.044,0.992
2024-10-15 13:34:15.660,73207.11,0.091,0.047,-0.995,0.009,-0.055,0.011,-0.321,-0.108,0.058,0.091,-0.047,0.993
2024-10-15 13:34:15.670,73207.12,0.09,0.05,-0.995,0.011,-0.036,0.005,-0.23,-0.116,0.042,0.09,-0.05,0.994
2024-10-15 13:34:15.679,73207.13,0.089,0.052,-0.995,0.003,-0.02,-0.009,-0.132,-0.084,0.034,0.089,-0.052,0.995
2024-10-15 13:34:15.690,73207.14,0.088,0.053,-0.995,-0.013,-0.001,-0.021,-0.028,-0.047,0.056,0.089,-0.053,0.995
2024-10-15 13:34:15.700,73207.15,0.088,0.052,-0.995,-0.022,0.008,-0.018,0.048,-0.049,0.082,0.088,-0.052,0.996
2024-10-15 13:34:15.710,73207.16,0.088,0.052,-0.995,-0.009,0.018,0.001,0.084,-0.037,0.111,0.088,-0.052,0.997
2024-10-15 13:34:15.720,73207.17,0.087,0.051,-0.995,0.001,0.037,0.009,0.042,-0.042,0.108,0.087,-0.051,0.998
2024-10-15 13:34:15.730,73207.18,0.087,0.051,-0.995,-0.007,0.018,0.01,-0.049,-0.045,0.11,0.087,-0.051,0.999
2024-10-15 13:34:15.739,73207.19,0.086,0.051,-0.995,-0.004,-0.009,0.014,-0.13,-0.053,0.11,0.087,-0.051,1.0
2024-10-15 13:34:15.750,73207.2,0.086,0.053,-0.995,0.005,-0.014,0.014,-0.165,-0.06,0.1,0.086,-0.053,1.001
2024-10-15 13:34:15.759,73207.21,0.085,0.054,-0.995,0.007,-0.009,0.009,-0.126,-0.077,0.092,0.085,-0.054,1.002
2024-10-15 13:34:15.770,73207.22,0.084,0.055,-0.995,0.005,0.0,-0.001,-0.075,-0.081,0.091,0.085,-0.055,1.003
2024-10-15 13:34:15.780,73207.23,0.084,0.055,-0.995,0.004,0.008,-0.008,0.002,-0.074,0.081,0.084,-0.055,1.004
2024-10-15 13:34:15.790,73207.24,0.083,0.055,-0.995,0.004,0.01,-0.007,0.063,-0.076,0.072,0.083,-0.055,1.005
2024-10-15 13:34:15.800,73207.25,0.082,0.054,-0.995,-0.001,0.016,-0.009,0.071,-0.061,0.077,0.083,-0.054,1.006
2024-10-15 13:34:15.810,73207.26,0.082,0.053,-0.995,-0.005,0.016,-0.005,0.06,-0.048,0.068,0.082,-0.054,1.006
2024-10-15 13:34:15.820,73207.27,0.081,0.053,-0.995,-0.005,0.005,0.003,0.021,-0.042,0.066,0.082,-0.053,1.007
2024-10-15 13:34:15.829,73207.28,0.081,0.053,-0.995,-0.0,-0.005,0.009,-0.024,-0.034,0.054,0.081,-0.053,1.008
2024-10-15 13:34:15.839,73207.29,0.081,0.053,-0.995,0.001,-0.003,0.01,-0.065,-0.022,0.048,0.081,-0.053,1.008
2024-10-15 13:34:15.849,73207.299,0.081,0.054,-0.995,-0.003,0.003,0.008,-0.073,-0.006,0.036,0.081,-0.054,1.009
2024-10-15 13:34:15.859,73207.309,0.081,0.055,-0.995,-0.004,0.002,0.005,-0.077,0.001,0.025,0.081,-0.055,1.009
2024-10-15 13:34:15.869,73207.319,0.081,0.055,-0.995,-0.004,-0.001,0.003,-0.065,-0.003,0.021,0.081,-0.056,1.009
2024-10-15 13:34:15.879,73207.329,0.081,0.056,-0.995,0.0,-0.003,0.002,-0.045,-0.018,0.018,0.081,-0.056,1.009
2024-10-15 13:34:15.889,73207.339,0.08,0.057,-0.995,-0.0,-0.006,0.001,-0.034,-0.03,0.014,0.081,-0.057,1.01
2024-10-15 13:34:15.899,73207.349,0.08,0.057,-0.995,0.0,-0.012,0.003,-0.035,-0.053,0.018,0.08,-0.057,1.01
2024-10-15 13:34:15.909,73207.359,0.079,0.057,-0.995,-0.001,-0.008,0.01,-0.016,-0.062,0.009,0.08,-0.057,1.01
2024-10-15 13:34:15.919,73207.369,0.079,0.057,-0.995,-0.003,-0.008,0.014,0.003,-0.058,0.006,0.079,-0.057,1.01
2024-10-15 13:34:15.929,73207.379,0.078,0.057,-0.995,-0.01,-0.005,0.007,-0.008,-0.053,0.009,0.079,-0.057,1.01
2024-10-15 13:34:15.939,73207.389,0.078,0.057,-0.995,-0.023,0.005,-0.003,-0.019,-0.049,0.01,0.078,-0.057,1.01
2024-10-15 13:34:15.949,73207.399,0.077,0.057,-0.995,-0.022,-0.0,-0.009,-0.017,-0.045,0.013,0.078,-0.057,1.01
2024-10-15 13:34:15.959,73207.409,0.077,0.057,-0.995,-0.015,-0.006,-0.008,-0.019,-0.046,0.027,0.077,-0.058,1.011
2024-10-15 13:34:15.969,73207.419,0.077,0.058,-0.995,-0.011,-0.006,-0.005,-0.008,-0.044,0.041,0.077,-0.058,1.011
2024-10-15 13:34:15.980,73207.429,0.076,0.058,-0.995,-0.007,-0.005,-0.008,0.004,-0.001,0.05,0.077,-0.058,1.011
2024-10-15 13:34:15.989,73207.439,0.077,0.057,-0.995,-0.01,-0.006,-0.014,0.029,0.021,0.052,0.077,-0.057,1.012
2024-10-15 13:34:15.999,73207.449,0.077,0.057,-0.995,-0.016,-0.007,-0.011,0.046,0.037,0.048,0.077,-0.057,1.012
2024-10-15 13:34:16.009,73207.459,0.077,0.056,-0.995,-0.01,-0.002,0.0,0.06,0.045,0.034,0.077,-0.056,1.013
2024-10-15 13:34:16.019,73207.469,0.078,0.056,-0.995,-0.007,-0.006,0.006,0.043,0.035,0.021,0.078,-0.056,1.013
2024-10-15 13:34:16.029,73207.479,0.078,0.056,-0.995,-0.003,-0.014,0.015,0.012,0.011,0.011,0.078,-0.056,1.013
2024-10-15 13:34:16.039,73207.489,0.078,0.056,-0.995,0.005,-0.019,0.02,-0.018,-0.011,0.001,0.078,-0.056,1.013
2024-10-15 13:34:16.049,73207.499,0.078,0.056,-0.995,0.009,-0.018,0.019,-0.033,-0.028,-0.006,0.078,-0.056,1.013
2024-10-15 13:34:16.059,73207.509,0.077,0.056,-0.995,0.006,-0.014,0.018,-0.027,-0.036,-0.004,0.077,-0.056,1.013
2024-10-15 13:34:16.069,73207.519,0.077,0.056,-0.995,0.002,-0.005,0.016,-0.0,-0.044,-0.001,0.077,-0.056,1.013
2024-10-15 13:34:16.079,73207.529,0.076,0.056,-0.996,0.0,0.005,0.014,0.018,-0.049,0.004,0.077,-0.056,1.013
2024-10-15 13:34:16.089,73207.539,0.076,0.056,-0.996,0.001,0.012,0.008,0.018,-0.048,0.01,0.076,-0.056,1.013
2024-10-15 13:34:16.099,73207.549,0.075,0.056,-0.996,-0.0,0.008,0.006,-0.008,-0.04,0.009,0.076,-0.056,1.013
2024-10-15 13:34:16.109,73207.559,0.075,0.056,-0.996,-0.004,-0.006,0.004,-0.039,-0.03,0.016,0.075,-0.056,1.013
2024-10-15 13:34:16.119,73207.569,0.075,0.057,-0.996,-0.008,-0.012,0.002,-0.068,-0.029,0.017,0.075,-0.057,1.014
2024-10-15 13:34:16.129,73207.579,0.075,0.057,-0.996,-0.002,-0.014,0.006,-0.078,-0.03,0.009,0.075,-0.057,1.014
2024-10-15 13:34:16.139,73207.589,0.074,0.058,-0.996,0.004,-0.018,0.007,-0.082,-0.018,-0.005,0.075,-0.058,1.014
2024-10-15 13:34:16.149,73207.599,0.074,0.059,-0.996,-0.001,-0.018,0.006,-0.058,-0.001,-0.007,0.074,-0.059,1.014
2024-10-15 13:34:16.159,73207.609,0.074,0.059,-0.995,-0.002,-0.013,-0.0,-0.025,0.013,-0.008,0.075,-0.059,1.014
2024-10-15 13:34:16.169,73207.619,0.075,0.059,-0.995,-0.004,-0.003,-0.005,-0.001,0.035,-0.004,0.075,-0.059,1.014
2024-10-15 13:34:16.178,73207.629,0.075,0.059,-0.995,-0.005,0.004,0.001,0.015,0.031,-0.002,0.075,-0.059,1.014
2024-10-15 13:34:16.189,73207.639,0.075,0.059,-0.995,-0.004,0.004,0.008,0.011,0.017,0.001,0.075,-0.059,1.014
2024-10-15 13:34:16.199,73207.649,0.075,0.059,-0.995,0.003,0.003,0.011,-0.009,-0.001,0.004,0.075,-0.059,1.014
2024-10-15 13:34:16.209,73207.659,0.075,0.059,-0.995,0.003,0.007,0.008,-0.023,-0.013,0.006,0.075,-0.059,1.014
2024-10-15 13:34:16.219,73207.669,0.075,0.059,-0.995,-0.001,0.009,0.009,-0.022,-0.023,0.007,0.075,-0.059,1.014
2024-10-15 13:34:16.229,73207.679,0.075,0.059,-0.995,0.002,0.01,0.008,-0.009,-0.028,0.008,0.075,-0.059,1.014
2024-10-15 13:34:16.239,73207.689,0.074,0.059,-0.995,0.003,0.01,0.008,0.028,-0.018,0.009,0.075,-0.059,1.014
2024-10-15 13:34:16.249,73207.699,0.074,0.059,-0.995,-0.001,0.009,0.003,0.056,-0.012,0.01,0.074,-0.059,1.014
2024-10-15 13:34:16.259,73207.709,0.074,0.058,-0.996,-0.003,0.012,0.007,0.069,-0.011,0.009,0.074,-0.058,1.014
2024-10-15 13:34:16.268,73207.719,0.074,0.058,-0.996,-0.0,0.01,0.016,0.065,-0.011,0.01,0.074,-0.058,1.014
2024-10-15 13:34:16.279,73207.729,0.074,0.057,-0.996,0.003,0.002,0.017,0.041,-0.021,0.009,0.074,-0.057,1.014
2024-10-15 13:34:16.289,73207.739,0.074,0.057,-0.996,-0.0,-0.003,0.017,0.009,-0.028,0.01,0.074,-0.057,1.014
2024-10-15 13:34:16.298,73207.749,0.073,0.057,-0.996,-0.003,-0.007,0.02,-0.014,-0.039,0.011,0.074,-0.057,1.015
2024-10-15 13:34:16.309,73207.759,0.073,0.057,-0.996,0.0,-0.012,0.017,-0.034,-0.055,0.011,0.073,-0.057,1.015
2024-10-15 13:34:16.319,73207.769,0.072,0.058,-0.996,-0.002,-0.013,0.01,-0.037,-0.059,0.012,0.073,-0.058,1.015
2024-10-15 13:34:16.329,73207.779,0.072,0.058,-0.996,-0.001,-0.01,0.003,-0.033,-0.067,0.01,0.072,-0.058,1.015
2024-10-15 13:34:16.338,73207.789,0.071,0.058,-0.996,-0.002,-0.009,0.001,-0.003,-0.069,0.005,0.071,-0.058,1.015
2024-10-15 13:34:16.349,73207.799,0.07,0.058,-0.996,0.001,-0.001,0.003,0.019,-0.075,0.003,0.071,-0.058,1.015
2024-10-15 13:34:16.358,73207.809,0.07,0.058,-0.996,0.005,0.008,0.008,0.03,-0.079,-0.003,0.07,-0.058,1.015
2024-10-15 13:34:16.368,73207.819,0.069,0.057,-0.996,0.005,0.001,0.013,0.024,-0.081,-0.007,0.069,-0.057,1.015
2024-10-15 13:34:16.378,73207.829,0.068,0.057,-0.996,0.003,-0.007,0.012,0.028,-0.079,-0.01,0.068,-0.057,1.015
2024-10-15 13:34:16.388,73207.839,0.067,0.057,-0.996,0.001,-0.002,0.012,0.023,-0.066,-0.013,0.068,-0.057,1.015
2024-10-15 13:34:16.398,73207.849,0.067,0.057,-0.996,-0.004,-0.001,0.009,0.028,-0.064,-0.015,0.067,-0.057,1.015
2024-10-15 13:34:16.408,73207.859,0.066,0.056,-0.996,-0.006,-0.006,0.004,0.029,-0.06,-0.016,0.066,-0.056,1.014
2024-10-15 13:34:16.419,73207.869,0.066,0.056,-0.996,-0.001,-0.009,0.002,0.034,-0.069,-0.011,0.066,-0.056,1.014
2024-10-15 13:34:16.429,73207.878,0.065,0.056,-0.996,-0.001,-0.011,-0.0,0.041,-0.07,-0.008,0.065,-0.056,1.014
2024-10-15 13:34:16.438,73207.888,0.064,0.055,-0.996,0.003,-0.013,0.002,0.038,-0.071,0.001,0.064,-0.055,1.014
2024-10-15 13:34:16.448,73207.898,0.063,0.055,-0.996,0.006,-0.009,0.006,0.037,-0.07,0.003,0.064,-0.055,1.014
2024-10-15 13:34:16.458,73207.908,0.063,0.055,-0.997,0.004,-0.006,0.004,0.043,-0.047,0.005,0.063,-0.055,1.014
2024-10-15 13:34:16.469,73207.918,0.063,0.054,-0.997,0.001,0.001,0.005,0.041,-0.036,0.004,0.063,-0.054,1.014
2024-10-15 13:34:16.478,73207.928,0.062,0.054,-0.997,-0.001,0.005,0.005,0.028,-0.036,0.003,0.062,-0.054,1.014
2024-10-15 13:34:16.488,73207.938,0.062,0.054,-0.997,0.002,0.009,0.004,0.022,-0.029,0.005,0.062,-0.054,1.014
2024-10-15 13:34:16.498,73207.948,0.062,0.053,-0.997,0.005,0.006,0.005,-0.012,-0.026,0.011,0.062,-0.053,1.014
2024-10-15 13:34:16.508,73207.958,0.061,0.054,-0.997,0.003,0.004,0.004,-0.042,-0.02,0.015,0.062,-0.054,1.014
2024-10-15 13:34:16.518,73207.968,0.061,0.054,-0.997,0.003,0.003,0.002,-0.037,-0.011,0.016,0.061,-0.054,1.015
2024-10-15 13:34:16.528,73207.978,0.061,0.054,-0.997,0.003,0.007,-0.001,-0.026,0.0,0.033,0.061,-0.054,1.015
2024-10-15 13:34:16.538,73207.988,0.061,0.055,-0.997,0.002,0.013,-0.003,-0.034,0.0,0.052,0.061,-0.055,1.015
2024-10-15 13:34:16.548,73207.998,0.061,0.055,-0.997,0.0,0.003,0.001,-0.03,0.011,0.068,0.061,-0.055,1.016
2024-10-15 13:34:16.558,73208.008,0.062,0.055,-0.997,0.003,-0.003,0.003,-0.02,0.017,0.07,0.062,-0.055,1.017
2024-10-15 13:34:16.568,73208.018,0.062,0.055,-0.997,-0.001,0.013,0.004,0.003,0.017,0.078,0.062,-0.055,1.017
2024-10-15 13:34:16.578,73208.028,0.062,0.055,-0.997,-0.006,0.019,0.006,0.005,0.009,0.078,0.062,-0.055,1.018
2024-10-15 13:34:16.588,73208.038,0.062,0.055,-0.997,-0.005,0.004,0.004,-0.007,0.003,0.078,0.062,-0.055,1.019
2024-10-15 13:34:16.598,73208.048,0.062,0.055,-0.997,-0.003,-0.006,0.005,-0.02,0.003,0.068,0.062,-0.055,1.02
2024-10-15 13:34:16.608,73208.058,0.062,0.055,-0.997,-0.002,-0.005,0.006,-0.019,-0.003,0.055,0.062,-0.055,1.02
2024-10-15 13:34:16.618,73208.068,0.062,0.056,-0.997,-0.001,-0.007,0.008,-0.029,-0.01,0.041,0.062,-0.056,1.021
2024-10-15 13:34:16.628,73208.078,0.062,0.056,-0.997,-0.0,-0.012,0.011,-0.034,-0.02,0.021,0.062,-0.056,1.021
2024-10-15 13:34:16.638,73208.088,0.062,0.056,-0.997,0.002,-0.017,0.013,-0.05,-0.038,0.017,0.062,-0.056,1.021
2024-10-15 13:34:16.648,73208.098,0.061,0.057,-0.997,0.005,-0.021,0.015,-0.062,-0.048,0.008,0.061,-0.057,1.021
2024-10-15 13:34:16.658,73208.108,0.061,0.058,-0.996,0.005,-0.018,0.015,-0.067,-0.061,0.004,0.061,-0.058,1.021
2024-10-15 13:34:16.668,73208.118,0.06,0.058,-0.997,0.003,-0.009,0.011,-0.045,-0.072,0.002,0.06,-0.058,1.022
2024-10-15 13:34:16.678,73208.128,0.059,0.058,-0.997,-0.003,0.001,0.008,-0.013,-0.069,-0.0,0.059,-0.058,1.022
2024-10-15 13:34:16.688,73208.138,0.059,0.058,-0.997,-0.002,0.005,0.005,0.031,-0.064,-0.001,0.059,-0.058,1.022
2024-10-15 13:34:16.698,73208.148,0.058,0.058,-0.997,0.0,0.014,0.006,0.045,-0.041,0.004,0.058,-0.058,1.022
2024-10-15 13:34:16.708,73208.158,0.058,0.057,-0.997,-0.003,0.014,0.004,0.034,-0.029,0.001,0.058,-0.057,1.022
2024-10-15 13:34:16.718,73208.168,0.058,0.057,-0.997,-0.007,0.009,0.008,0.012,-0.023,-0.001,0.058,-0.057,1.022
2024-10-15 13:34:16.728,73208.178,0.057,0.057,-0.997,-0.004,0.006,0.01,-0.005,-0.018,-0.002,0.058,-0.057,1.022
2024-10-15 13:34:16.738,73208.188,0.057,0.057,-0.997,-0.002,0.001,0.011,-0.005,-0.019,-0.005,0.057,-0.057,1.022
2024-10-15 13:34:16.748,73208.198,0.057,0.057,-0.997,-0.004,-0.002,0.01,-0.004,-0.022,-0.001,0.057,-0.057,1.022
2024-10-15 13:34:16.758,73208.208,0.057,0.057,-0.997,-0.004,-0.001,0.013,-0.004,-0.024,-0.0,0.057,-0.057,1.022
2024-10-15 13:34:16.768,73208.218,0.057,0.057,-0.997,-0.002,-0.004,0.011,0.006,-0.021,0.001,0.057,-0.057,1.021
2024-10-15 13:34:16.778,73208.228,0.056,0.057,-0.997,-0.006,0.003,0.002,0.025,-0.015,0.003,0.057,-0.057,1.021
2024-10-15 13:34:16.788,73208.238,0.056,0.057,-0.997,-0.009,0.011,-0.005,0.033,-0.008,0.016,0.056,-0.057,1.022
2024-10-15 13:34:16.798,73208.248,0.056,0.057,-0.997,-0.01,0.011,-0.008,0.035,-0.002,0.028,0.056,-0.057,1.022
2024-10-15 13:34:16.808,73208.258,0.056,0.056,-0.997,-0.009,0.006,-0.002,0.036,0.01,0.031,0.056,-0.056,1.022
2024-10-15 13:34:16.817,73208.268,0.056,0.056,-0.997,-0.005,0.005,0.004,0.034,0.015,0.032,0.057,-0.056,1.022
2024-10-15 13:34:16.827,73208.278,0.057,0.056,-0.997,-0.005,0.006,0.007,0.01,0.01,0.032,0.057,-0.056,1.023
2024-10-15 13:34:16.838,73208.288,0.057,0.056,-0.997,-0.0,0.004,0.012,-0.008,0.009,0.027,0.057,-0.056,1.023
2024-10-15 13:34:16.848,73208.298,0.057,0.056,-0.997,0.002,-0.003,0.013,-0.019,-0.0,0.029,0.057,-0.056,1.023
2024-10-15 13:34:16.858,73208.308,0.057,0.056,-0.997,0.002,0.002,0.013,-0.013,-0.001,0.035,0.057,-0.056,1.024
2024-10-15 13:34:16.868,73208.318,0.057,0.056,-0.997,0.001,0.012,0.008,-0.006,0.011,0.04,0.057,-0.056,1.024
2024-10-15 13:34:16.878,73208.328,0.057,0.056,-0.997,-0.006,0.01,0.003,0.011,0.011,0.044,0.057,-0.056,1.024
2024-10-15 13:34:16.887,73208.338,0.057,0.056,-0.997,-0.007,0.008,0.003,0.026,0.005,0.056,0.057,-0.056,1.025
2024-10-15 13:34:16.897,73208.348,0.057,0.055,-0.997,-0.002,0.009,0.005,0.031,0.014,0.062,0.057,-0.055,1.025
2024-10-15 13:34:16.907,73208.358,0.057,0.055,-0.997,-0.003,0.002,-0.001,0.046,0.026,0.065,0.057,-0.055,1.026
2024-10-15 13:34:16.918,73208.368,0.058,0.054,-0.997,-0.006,-0.001,-0.004,0.059,0.034,0.067,0.058,-0.054,1.027
2024-10-15 13:34:16.927,73208.378,0.058,0.054,-0.997,-0.003,0.006,-0.003,0.065,0.036,0.063,0.058,-0.054,1.027
2024-10-15 13:34:16.938,73208.388,0.058,0.053,-0.997,-0.004,0.011,0.0,0.039,0.034,0.065,0.059,-0.053,1.028
2024-10-15 13:34:16.947,73208.398,0.059,0.053,-0.997,-0.002,0.007,0.001,-0.002,0.031,0.066,0.059,-0.053,1.029
2024-10-15 13:34:16.957,73208.408,0.059,0.053,-0.997,-0.002,-0.009,0.002,-0.049,0.031,0.064,0.059,-0.053,1.029
2024-10-15 13:34:16.967,73208.418,0.059,0.054,-0.997,-0.002,-0.017,0.001,-0.071,0.031,0.063,0.06,-0.054,1.03
2024-10-15 13:34:16.977,73208.428,0.06,0.055,-0.997,-0.007,-0.011,-0.002,-0.066,0.039,0.061,0.06,-0.055,1.031
2024-10-15 13:34:16.988,73208.438,0.06,0.055,-0.997,-0.013,-0.004,-0.007,-0.048,0.036,0.049,0.06,-0.055,1.031
2024-10-15 13:34:16.997,73208.447,0.061,0.055,-0.997,-0.015,-0.002,-0.015,-0.003,0.034,0.033,0.061,-0.055,1.032
2024-10-15 13:34:17.008,73208.457,0.061,0.055,-0.997,-0.013,-0.001,-0.014,0.023,0.038,0.037,0.061,-0.055,1.032
2024-10-15 13:34:17.018,73208.467,0.061,0.055,-0.997,-0.01,-0.008,-0.005,-0.038,0.041,0.044,0.061,-0.055,1.032
2024-10-15 13:34:17.027,73208.477,0.062,0.056,-0.997,-0.014,-0.027,-0.004,-0.146,0.049,0.044,0.062,-0.056,1.033
2024-10-15 13:34:17.037,73208.487,0.062,0.058,-0.996,-0.015,-0.046,-0.006,-0.219,0.067,0.037,0.063,-0.058,1.033
2024-10-15 13:34:17.047,73208.497,0.063,0.06,-0.996,-0.017,-0.046,-0.012,-0.25,0.084,0.028,0.063,-0.06,1.034
2024-10-15 13:34:17.058,73208.507,0.064,0.063,-0.996,-0.025,-0.028,-0.018,-0.255,0.103,0.009,0.064,-0.063,1.034
2024-10-15 13:34:17.067,73208.517,0.065,0.065,-0.996,-0.028,-0.019,-0.023,-0.25,0.118,-0.008,0.065,-0.065,1.034
2024-10-15 13:34:17.077,73208.527,0.066,0.067,-0.996,-0.027,-0.029,-0.031,-0.222,0.133,-0.053,0.067,-0.067,1.034
2024-10-15 13:34:17.087,73208.537,0.068,0.069,-0.995,-0.032,-0.05,-0.041,-0.155,0.155,-0.129,0.068,-0.069,1.033
2024-10-15 13:34:17.097,73208.547,0.069,0.071,-0.995,-0.045,-0.064,-0.059,-0.083,0.163,-0.171,0.069,-0.071,1.032
2024-10-15 13:34:17.107,73208.557,0.071,0.071,-0.995,-0.061,-0.059,-0.078,-0.024,0.172,-0.221,0.071,-0.071,1.03
2024-10-15 13:34:17.117,73208.567,0.072,0.071,-0.995,-0.072,-0.069,-0.09,-0.008,0.177,-0.273,0.072,-0.072,1.028
2024-10-15 13:34:17.127,73208.577,0.074,0.072,-0.995,-0.069,-0.099,-0.089,-0.041,0.205,-0.325,0.074,-0.072,1.025
2024-10-15 13:34:17.137,73208.587,0.076,0.073,-0.994,-0.072,-0.117,-0.078,-0.149,0.276,-0.384,0.076,-0.073,1.021
2024-10-15 13:34:17.147,73208.597,0.079,0.076,-0.994,-0.084,-0.13,-0.06,-0.323,0.327,-0.453,0.079,-0.076,1.017
2024-10-15 13:34:17.157,73208.607,0.082,0.08,-0.993,-0.09,-0.154,-0.049,-0.516,0.352,-0.525,0.082,-0.08,1.013
2024-10-15 13:34:17.167,73208.617,0.085,0.087,-0.993,-0.085,-0.187,-0.047,-0.751,0.392,-0.536,0.085,-0.087,1.008
2024-10-15 13:34:17.177,73208.627,0.088,0.096,-0.991,-0.078,-0.181,-0.04,-0.982,0.418,-0.556,0.089,-0.096,1.003
2024-10-15 13:34:17.187,73208.637,0.092,0.107,-0.99,-0.069,-0.166,-0.028,-1.229,0.414,-0.593,0.093,-0.108,0.998
2024-10-15 13:34:17.197,73208.647,0.095,0.121,-0.988,-0.072,-0.146,-0.02,-1.441,0.422,-0.607,0.096,-0.121,0.994
2024-10-15 13:34:17.207,73208.657,0.099,0.137,-0.986,-0.076,-0.121,-0.01,-1.637,0.44,-0.607,0.1,-0.137,0.989
2024-10-15 13:34:17.217,73208.667,0.102,0.154,-0.983,-0.074,-0.105,-0.003,-1.818,0.463,-0.605,0.104,-0.155,0.985
2024-10-15 13:34:17.227,73208.677,0.106,0.173,-0.979,-0.073,-0.084,-0.005,-1.915,0.481,-0.628,0.108,-0.174,0.981
2024-10-15 13:34:17.237,73208.687,0.109,0.193,-0.975,-0.079,-0.063,-0.003,-1.954,0.475,-0.634,0.112,-0.194,0.976
2024-10-15 13:34:17.247,73208.697,0.113,0.213,-0.971,-0.076,-0.039,0.01,-1.93,0.479,-0.637,0.116,-0.214,0.972
2024-10-15 13:34:17.257,73208.707,0.116,0.232,-0.966,-0.07,-0.03,0.014,-1.876,0.462,-0.642,0.119,-0.234,0.968
2024-10-15 13:34:17.267,73208.717,0.119,0.25,-0.961,-0.076,-0.036,0.004,-1.776,0.443,-0.652,0.123,-0.253,0.964
2024-10-15 13:34:17.277,73208.727,0.121,0.267,-0.956,-0.076,-0.026,-0.002,-1.65,0.468,-0.608,0.126,-0.271,0.96
2024-10-15 13:34:17.287,73208.737,0.124,0.283,-0.951,-0.072,-0.003,0.005,-1.555,0.461,-0.575,0.13,-0.287,0.956
2024-10-15 13:34:17.297,73208.747,0.127,0.298,-0.946,-0.065,0.023,0.036,-1.508,0.426,-0.598,0.133,-0.303,0.953
2024-10-15 13:34:17.307,73208.757,0.129,0.313,-0.941,-0.038,0.026,0.066,-1.47,0.336,-0.617,0.136,-0.319,0.949
2024-10-15 13:34:17.317,73208.767,0.129,0.327,-0.936,-0.001,0.027,0.07,-1.378,0.234,-0.63,0.137,-0.334,0.945
2024-10-15 13:34:17.327,73208.777,0.129,0.341,-0.931,0.02,0.038,0.062,-1.288,0.143,-0.606,0.138,-0.348,0.941
2024-10-15 13:34:17.337,73208.787,0.128,0.353,-0.927,0.017,0.063,0.075,-1.278,0.094,-0.569,0.137,-0.361,0.937
2024-10-15 13:34:17.347,73208.797,0.126,0.366,-0.922,0.008,0.071,0.085,-1.271,0.013,-0.527,0.136,-0.374,0.934
2024-10-15 13:34:17.356,73208.807,0.124,0.378,-0.918,0.006,0.013,0.048,-1.215,-0.096,-0.483,0.135,-0.387,0.931
2024-10-15 13:34:17.366,73208.817,0.121,0.389,-0.913,0.015,-0.022,0.007,-1.111,-0.204,-0.403,0.132,-0.399,0.929
2024-10-15 13:34:17.376,73208.827,0.118,0.399,-0.91,0.012,0.0,-0.002,-0.947,-0.286,-0.302,0.129,-0.41,0.928
2024-10-15 13:34:17.387,73208.837,0.113,0.407,-0.906,0.0,0.016,-0.008,-0.783,-0.377,-0.221,0.125,-0.419,0.927
2024-10-15 13:34:17.397,73208.847,0.109,0.414,-0.904,-0.021,0.018,0.01,-0.655,-0.433,-0.17,0.12,-0.426,0.926
2024-10-15 13:34:17.407,73208.857,0.104,0.419,-0.902,-0.045,0.029,0.023,-0.567,-0.444,-0.133,0.115,-0.433,0.926
2024-10-15 13:34:17.417,73208.867,0.1,0.424,-0.9,-0.055,0.044,0.032,-0.513,-0.443,-0.13,0.11,-0.438,0.926
2024-10-15 13:34:17.426,73208.877,0.095,0.429,-0.898,-0.057,0.052,0.045,-0.453,-0.423,-0.139,0.106,-0.443,0.926
2024-10-15 13:34:17.437,73208.887,0.091,0.433,-0.897,-0.055,0.055,0.055,-0.385,-0.385,-0.162,0.101,-0.447,0.927
2024-10-15 13:34:17.447,73208.897,0.087,0.436,-0.896,-0.048,0.054,0.059,-0.33,-0.331,-0.186,0.097,-0.451,0.926
2024-10-15 13:34:17.456,73208.907,0.084,0.439,-0.895,-0.045,0.057,0.061,-0.326,-0.292,-0.21,0.093,-0.454,0.926
2024-10-15 13:34:17.466,73208.917,0.08,0.442,-0.893,-0.034,0.049,0.066,-0.355,-0.28,-0.249,0.089,-0.458,0.925
2024-10-15 13:34:17.476,73208.927,0.076,0.446,-0.892,-0.01,0.025,0.066,-0.397,-0.281,-0.285,0.085,-0.462,0.924
2024-10-15 13:34:17.486,73208.937,0.073,0.45,-0.89,0.01,-0.002,0.067,-0.452,-0.275,-0.293,0.081,-0.466,0.923
2024-10-15 13:34:17.497,73208.947,0.069,0.454,-0.888,0.016,-0.007,0.072,-0.514,-0.29,-0.278,0.077,-0.471,0.922
2024-10-15 13:34:17.506,73208.957,0.065,0.459,-0.886,0.017,0.008,0.074,-0.549,-0.279,-0.274,0.073,-0.477,0.921
2024-10-15 13:34:17.516,73208.967,0.061,0.464,-0.884,0.02,0.034,0.077,-0.565,-0.263,-0.268,0.069,-0.483,0.92
2024-10-15 13:34:17.526,73208.977,0.058,0.469,-0.881,0.012,0.054,0.099,-0.6,-0.239,-0.249,0.066,-0.489,0.92
2024-10-15 13:34:17.536,73208.987,0.055,0.475,-0.878,0.012,0.063,0.137,-0.673,-0.187,-0.223,0.062,-0.495,0.919
2024-10-15 13:34:17.546,73208.997,0.052,0.481,-0.875,0.022,0.056,0.163,-0.682,-0.165,-0.225,0.06,-0.502,0.917
2024-10-15 13:34:17.556,73209.007,0.049,0.487,-0.872,0.041,0.043,0.179,-0.649,-0.23,-0.217,0.057,-0.509,0.915
2024-10-15 13:34:17.566,73209.017,0.046,0.493,-0.869,0.066,0.042,0.179,-0.643,-0.244,-0.191,0.053,-0.515,0.913
2024-10-15 13:34:17.577,73209.026,0.043,0.498,-0.866,0.061,0.051,0.165,-0.589,-0.276,-0.146,0.05,-0.522,0.912
2024-10-15 13:34:17.586,73209.036,0.04,0.503,-0.863,0.065,0.044,0.157,-0.51,-0.334,-0.1,0.046,-0.527,0.911
2024-10-15 13:34:17.596,73209.046,0.037,0.507,-0.861,0.099,0.046,0.135,-0.407,-0.387,-0.08,0.042,-0.532,0.91
2024-10-15 13:34:17.606,73209.056,0.033,0.51,-0.859,0.103,0.043,0.112,-0.348,-0.435,-0.046,0.038,-0.536,0.909
2024-10-15 13:34:17.616,73209.066,0.029,0.513,-0.858,0.092,0.047,0.091,-0.278,-0.438,-0.017,0.034,-0.539,0.909
2024-10-15 13:34:17.626,73209.076,0.025,0.515,-0.857,0.088,0.055,0.074,-0.101,-0.396,-0.009,0.029,-0.541,0.909
2024-10-15 13:34:17.636,73209.086,0.022,0.515,-0.857,0.084,0.059,0.053,0.062,-0.38,0.017,0.025,-0.541,0.909
2024-10-15 13:34:17.646,73209.096,0.019,0.513,-0.858,0.087,0.081,0.063,0.288,-0.295,-0.006,0.022,-0.539,0.909
2024-10-15 13:34:17.656,73209.106,0.016,0.51,-0.86,0.104,0.083,0.082,0.482,-0.299,-0.044,0.019,-0.535,0.909
2024-10-15 13:34:17.666,73209.116,0.014,0.505,-0.863,0.129,0.082,0.082,0.635,-0.279,-0.009,0.016,-0.53,0.908
2024-10-15 13:34:17.676,73209.126,0.011,0.499,-0.866,0.132,0.073,0.068,0.787,-0.251,0.001,0.013,-0.523,0.908
2024-10-15 13:34:17.686,73209.136,0.009,0.492,-0.871,0.11,0.055,0.038,0.935,-0.217,-0.011,0.011,-0.514,0.908
2024-10-15 13:34:17.696,73209.146,0.008,0.483,-0.876,0.106,0.053,0.006,1.041,-0.187,-0.003,0.009,-0.504,0.908
2024-10-15 13:34:17.707,73209.156,0.006,0.474,-0.881,0.105,0.047,-0.023,1.095,-0.143,0.019,0.007,-0.493,0.908
2024-10-15 13:34:17.716,73209.166,0.005,0.464,-0.886,0.097,0.025,-0.037,1.088,-0.096,0.016,0.006,-0.482,0.908
2024-10-15 13:34:17.726,73209.176,0.005,0.455,-0.891,0.088,0.004,-0.035,1.015,-0.083,0.037,0.005,-0.472,0.908
2024-10-15 13:34:17.736,73209.186,0.004,0.446,-0.895,0.087,-0.008,-0.046,0.95,-0.078,0.046,0.005,-0.462,0.908
2024-10-15 13:34:17.746,73209.196,0.004,0.438,-0.899,0.08,-0.036,-0.056,0.9,-0.072,0.051,0.004,-0.453,0.909
2024-10-15 13:34:17.756,73209.206,0.003,0.43,-0.903,0.083,-0.046,-0.04,0.826,-0.07,0.036,0.004,-0.444,0.909
2024-10-15 13:34:17.767,73209.216,0.003,0.423,-0.906,0.085,-0.037,-0.026,0.769,-0.072,0.032,0.003,-0.436,0.91
2024-10-15 13:34:17.776,73209.226,0.002,0.416,-0.909,0.075,-0.04,-0.035,0.703,-0.074,0.035,0.002,-0.429,0.91
2024-10-15 13:34:17.786,73209.236,0.002,0.41,-0.912,0.062,-0.039,-0.038,0.646,-0.062,0.046,0.002,-0.422,0.91
2024-10-15 13:34:17.796,73209.246,0.001,0.404,-0.915,0.045,-0.035,-0.028,0.592,-0.051,0.055,0.002,-0.416,0.911
2024-10-15 13:34:17.806,73209.256,0.001,0.399,-0.917,0.041,-0.032,-0.01,0.55,-0.05,0.071,0.001,-0.41,0.912
2024-10-15 13:34:17.816,73209.266,0.001,0.394,-0.919,0.037,-0.04,-0.007,0.504,-0.053,0.063,0.001,-0.405,0.912
2024-10-15 13:34:17.827,73209.276,0.001,0.39,-0.921,0.027,-0.049,-0.02,0.432,-0.052,0.048,0.001,-0.4,0.913
2024-10-15 13:34:17.836,73209.286,0.0,0.386,-0.922,0.007,-0.041,-0.038,0.303,-0.069,0.054,0.0,-0.397,0.913
2024-10-15 13:34:17.846,73209.296,-0.0,0.384,-0.923,-0.008,-0.02,-0.048,0.145,-0.08,0.052,-0.0,-0.394,0.914
2024-10-15 13:34:17.856,73209.306,-0.001,0.384,-0.923,-0.009,-0.014,-0.06,0.0,-0.096,0.053,-0.001,-0.394,0.915
2024-10-15 13:34:17.866,73209.316,-0.002,0.384,-0.923,-0.003,-0.026,-0.064,-0.103,-0.128,0.057,-0.002,-0.394,0.915
2024-10-15 13:34:17.875,73209.326,-0.003,0.385,-0.923,0.008,-0.038,-0.055,-0.129,-0.118,0.052,-0.003,-0.395,0.916
2024-10-15 13:34:17.886,73209.336,-0.003,0.386,-0.922,0.005,-0.019,-0.046,-0.073,-0.092,0.058,-0.004,-0.396,0.916
2024-10-15 13:34:17.896,73209.346,-0.004,0.386,-0.922,-0.009,0.013,-0.028,0.03,-0.065,0.061,-0.004,-0.397,0.917
2024-10-15 13:34:17.906,73209.356,-0.004,0.386,-0.923,-0.011,0.033,-0.015,0.176,-0.059,0.039,-0.004,-0.396,0.918
2024-10-15 13:34:17.916,73209.366,-0.005,0.383,-0.924,-0.005,0.035,-0.013,0.327,-0.049,0.014,-0.005,-0.393,0.918
2024-10-15 13:34:17.926,73209.376,-0.005,0.379,-0.925,-0.011,0.036,-0.013,0.506,-0.039,-0.003,-0.005,-0.389,0.918
2024-10-15 13:34:17.936,73209.386,-0.005,0.374,-0.928,-0.024,0.044,-0.005,0.715,-0.013,-0.035,-0.006,-0.383,0.918
2024-10-15 13:34:17.946,73209.396,-0.005,0.366,-0.931,-0.027,0.052,0.001,0.91,-0.001,-0.049,-0.006,-0.375,0.917
2024-10-15 13:34:17.956,73209.406,-0.006,0.357,-0.934,-0.021,0.064,0.019,1.084,0.007,-0.044,-0.006,-0.365,0.917
2024-10-15 13:34:17.965,73209.416,-0.006,0.346,-0.938,-0.017,0.063,0.029,1.226,0.015,-0.032,-0.006,-0.353,0.917
2024-10-15 13:34:17.975,73209.426,-0.006,0.334,-0.943,-0.02,0.059,0.036,1.336,0.009,-0.04,-0.006,-0.341,0.916
2024-10-15 13:34:17.985,73209.436,-0.006,0.321,-0.947,-0.016,0.032,0.034,1.404,-0.029,-0.038,-0.006,-0.327,0.916
2024-10-15 13:34:17.996,73209.446,-0.006,0.308,-0.951,-0.002,-0.002,0.031,1.414,-0.068,-0.023,-0.007,-0.313,0.916
2024-10-15 13:34:18.006,73209.456,-0.007,0.294,-0.956,0.006,-0.01,0.028,1.383,-0.105,-0.032,-0.008,-0.299,0.916
2024-10-15 13:34:18.015,73209.466,-0.009,0.281,-0.96,0.002,-0.019,0.022,1.349,-0.15,-0.035,-0.009,-0.285,0.915
2024-10-15 13:34:18.026,73209.476,-0.01,0.268,-0.963,-0.005,-0.034,0.024,1.295,-0.174,-0.056,-0.011,-0.272,0.915
2024-10-15 13:34:18.036,73209.486,-0.012,0.257,-0.966,-0.007,-0.024,0.017,1.15,-0.123,-0.042,-0.012,-0.26,0.915
2024-10-15 13:34:18.045,73209.496,-0.013,0.246,-0.969,-0.035,0.024,-0.025,1.036,-0.091,-0.025,-0.013,-0.249,0.915
2024-10-15 13:34:18.055,73209.506,-0.014,0.237,-0.971,-0.066,0.017,-0.067,0.858,-0.062,0.003,-0.014,-0.239,0.915
2024-10-15 13:34:18.065,73209.516,-0.014,0.229,-0.973,-0.063,0.0,-0.074,0.667,-0.05,0.024,-0.015,-0.232,0.915
2024-10-15 13:34:18.075,73209.526,-0.015,0.224,-0.975,-0.046,0.016,-0.067,0.49,-0.057,0.06,-0.015,-0.226,0.915
2024-10-15 13:34:18.086,73209.536,-0.015,0.22,-0.975,-0.032,0.03,-0.054,0.291,-0.072,0.093,-0.015,-0.222,0.916
2024-10-15 13:34:18.095,73209.546,-0.016,0.219,-0.976,-0.025,0.031,-0.04,-0.014,-0.096,0.119,-0.016,-0.22,0.917
2024-10-15 13:34:18.106,73209.556,-0.016,0.22,-0.975,-0.03,-0.01,-0.027,-0.306,-0.111,0.16,-0.017,-0.222,0.919
2024-10-15 13:34:18.115,73209.566,-0.017,0.224,-0.974,-0.03,-0.045,-0.014,-0.547,-0.159,0.216,-0.018,-0.226,0.92
2024-10-15 13:34:18.125,73209.576,-0.018,0.231,-0.973,-0.031,-0.018,-0.009,-0.737,-0.209,0.28,-0.019,-0.233,0.923
2024-10-15 13:34:18.135,73209.586,-0.02,0.239,-0.971,-0.032,0.017,0.009,-0.863,-0.222,0.306,-0.02,-0.241,0.927
2024-10-15 13:34:18.145,73209.595,-0.021,0.247,-0.969,-0.047,-0.003,0.03,-0.841,-0.224,0.309,-0.022,-0.25,0.931
2024-10-15 13:34:18.155,73209.605,-0.023,0.254,-0.967,-0.043,-0.024,0.054,-0.643,-0.219,0.293,-0.023,-0.257,0.935
2024-10-15 13:34:18.165,73209.615,-0.024,0.259,-0.966,-0.027,-0.01,0.047,-0.286,-0.179,0.318,-0.025,-0.262,0.938
2024-10-15 13:34:18.175,73209.625,-0.024,0.26,-0.965,-0.014,0.027,0.017,0.083,-0.107,0.328,-0.025,-0.263,0.943
2024-10-15 13:34:18.185,73209.635,-0.024,0.258,-0.966,-0.008,0.027,-0.034,0.265,-0.056,0.324,-0.025,-0.261,0.947
2024-10-15 13:34:18.195,73209.645,-0.024,0.255,-0.967,-0.001,-0.006,-0.063,0.332,-0.017,0.272,-0.025,-0.258,0.95
2024-10-15 13:34:18.205,73209.655,-0.023,0.252,-0.967,0.026,-0.044,-0.069,0.3,0.027,0.198,-0.024,-0.255,0.953
2024-10-15 13:34:18.216,73209.665,-0.022,0.25,-0.968,0.066,-0.083,-0.054,0.167,0.059,0.121,-0.023,-0.253,0.956
2024-10-15 13:34:18.225,73209.675,-0.022,0.249,-0.968,0.096,-0.135,-0.022,0.05,0.052,0.043,-0.022,-0.252,0.957
2024-10-15 13:34:18.235,73209.685,-0.021,0.249,-0.968,0.111,-0.182,0.017,0.036,0.027,-0.073,-0.022,-0.251,0.958
2024-10-15 13:34:18.245,73209.695,-0.021,0.247,-0.969,0.121,-0.192,0.049,0.31,0.076,-0.156,-0.022,-0.25,0.957
2024-10-15 13:34:18.255,73209.705,-0.021,0.242,-0.97,0.111,-0.126,0.079,0.719,0.099,-0.241,-0.021,-0.245,0.956
2024-10-15 13:34:18.265,73209.715,-0.02,0.233,-0.972,0.1,0.005,0.111,1.162,0.151,-0.284,-0.021,-0.235,0.954
2024-10-15 13:34:18.276,73209.725,-0.019,0.22,-0.975,0.1,0.075,0.136,1.368,0.159,-0.221,-0.02,-0.222,0.953
2024-10-15 13:34:18.285,73209.735,-0.018,0.208,-0.978,0.1,0.049,0.146,1.244,0.126,-0.12,-0.019,-0.209,0.952
2024-10-15 13:34:18.295,73209.745,-0.017,0.197,-0.98,0.101,-0.021,0.147,1.013,0.094,-0.16,-0.018,-0.198,0.951
2024-10-15 13:34:18.306,73209.755,-0.017,0.187,-0.982,0.075,-0.048,0.136,0.925,0.061,-0.223,-0.017,-0.188,0.95
2024-10-15 13:34:18.315,73209.765,-0.017,0.179,-0.984,0.059,-0.001,0.089,0.796,0.016,-0.2,-0.017,-0.18,0.948
2024-10-15 13:34:18.325,73209.775,-0.017,0.172,-0.985,0.053,0.031,0.005,0.511,-0.028,-0.145,-0.018,-0.173,0.947
2024-10-15 13:34:18.335,73209.785,-0.018,0.169,-0.986,-0.017,0.004,-0.086,0.167,-0.065,-0.09,-0.018,-0.169,0.946
2024-10-15 13:34:18.345,73209.795,-0.019,0.169,-0.985,-0.12,0.027,-0.162,-0.137,-0.079,0.009,-0.019,-0.169,0.946
2024-10-15 13:34:18.355,73209.805,-0.02,0.171,-0.985,-0.199,0.136,-0.174,-0.35,-0.085,0.163,-0.02,-0.172,0.948
2024-10-15 13:34:18.365,73209.815,-0.02,0.175,-0.984,-0.224,0.248,-0.142,-0.506,-0.12,0.297,-0.02,-0.176,0.951
2024-10-15 13:34:18.375,73209.825,-0.021,0.181,-0.983,-0.226,0.273,-0.087,-0.64,-0.167,0.427,-0.021,-0.182,0.954
2024-10-15 13:34:18.385,73209.835,-0.022,0.188,-0.982,-0.217,0.231,-0.023,-0.671,-0.226,0.567,-0.022,-0.189,0.96
2024-10-15 13:34:18.395,73209.845,-0.023,0.194,-0.981,-0.179,0.17,0.015,-0.642,-0.274,0.653,-0.024,-0.196,0.966
2024-10-15 13:34:18.405,73209.855,-0.025,0.2,-0.979,-0.134,0.092,0.046,-0.516,-0.303,0.688,-0.025,-0.202,0.973
2024-10-15 13:34:18.415,73209.865,-0.026,0.206,-0.978,-0.089,0.036,0.029,-0.679,-0.451,0.899,-0.027,-0.207,0.982
2024-10-15 13:34:18.425,73209.875,-0.029,0.213,-0.977,-0.033,0.007,-0.031,-0.768,-0.41,0.839,-0.03,-0.215,0.991
2024-10-15 13:34:18.435,73209.885,-0.031,0.22,-0.975,-0.057,-0.029,0.029,-0.527,-0.419,0.821,-0.032,-0.222,1.0
2024-10-15 13:34:18.445,73209.895,-0.033,0.223,-0.974,-0.053,-0.016,0.003,-0.015,-0.354,0.678,-0.034,-0.225,1.008
2024-10-15 13:34:18.455,73209.905,-0.035,0.22,-0.975,0.02,-0.02,-0.089,0.644,-0.215,0.494,-0.036,-0.222,1.014
2024-10-15 13:34:18.465,73209.915,-0.035,0.211,-0.977,0.032,-0.039,-0.091,1.206,-0.089,0.329,-0.036,-0.213,1.019
2024-10-15 13:34:18.475,73209.925,-0.035,0.198,-0.98,0.102,-0.081,-0.063,1.413,0.017,0.117,-0.036,-0.2,1.022
2024-10-15 13:34:18.485,73209.935,-0.035,0.183,-0.982,0.17,-0.251,-0.035,1.532,0.096,-0.107,-0.035,-0.185,1.023
2024-10-15 13:34:18.495,73209.945,-0.034,0.17,-0.985,0.22,-0.384,0.061,1.188,0.102,-0.137,-0.035,-0.171,1.022
2024-10-15 13:34:18.505,73209.955,-0.034,0.161,-0.986,0.289,-0.395,0.188,0.556,0.061,-0.223,-0.034,-0.162,1.021
2024-10-15 13:34:18.515,73209.965,-0.034,0.159,-0.987,0.278,-0.453,0.233,-0.042,0.019,-0.28,-0.034,-0.159,1.019
2024-10-15 13:34:18.525,73209.975,-0.034,0.161,-0.986,0.183,-0.421,0.196,-0.479,0.029,-0.278,-0.034,-0.162,1.017
2024-10-15 13:34:18.534,73209.985,-0.034,0.167,-0.985,0.082,-0.27,0.11,-0.561,0.063,-0.337,-0.034,-0.167,1.014
2024-10-15 13:34:18.545,73209.995,-0.033,0.17,-0.985,-0.014,-0.084,0.029,-0.079,0.198,-0.492,-0.034,-0.171,1.01
2024-10-15 13:34:18.554,73210.005,-0.032,0.168,-0.985,-0.04,0.055,-0.039,0.268,0.268,-0.522,-0.032,-0.169,1.005
2024-10-15 13:34:18.564,73210.015,-0.03,0.166,-0.986,0.044,0.065,-0.11,0.147,0.296,-0.602,-0.03,-0.167,1.0
2024-10-15 13:34:18.574,73210.025,-0.028,0.166,-0.986,0.023,-0.022,-0.106,-0.238,0.231,-0.598,-0.029,-0.167,0.994
2024-10-15 13:34:18.584,73210.035,-0.027,0.17,-0.985,-0.039,0.045,-0.029,-0.62,0.138,-0.403,-0.028,-0.171,0.989
2024-10-15 13:34:18.595,73210.045,-0.027,0.178,-0.984,-0.058,0.198,0.01,-0.945,0.019,-0.114,-0.027,-0.179,0.986
2024-10-15 13:34:18.604,73210.055,-0.027,0.188,-0.982,-0.16,0.331,0.02,-1.057,-0.119,0.273,-0.028,-0.189,0.987
2024-10-15 13:34:18.615,73210.065,-0.028,0.197,-0.98,-0.283,0.568,-0.001,-0.674,-0.159,0.494,-0.029,-0.198,0.991
2024-10-15 13:34:18.624,73210.075,-0.028,0.2,-0.979,-0.351,0.683,-0.051,-0.021,-0.087,0.609,-0.029,-0.202,0.996
2024-10-15 13:34:18.634,73210.085,-0.028,0.199,-0.98,-0.33,0.569,-0.144,0.385,-0.035,0.653,-0.028,-0.2,1.003
2024-10-15 13:34:18.645,73210.095,-0.027,0.195,-0.981,-0.242,0.285,-0.235,0.411,-0.05,0.574,-0.027,-0.196,1.01
2024-10-15 13:34:18.655,73210.105,-0.027,0.193,-0.981,-0.133,-0.045,-0.235,-0.21,-0.241,0.599,-0.027,-0.195,1.016
2024-10-15 13:34:18.665,73210.115,-0.028,0.199,-0.979,-0.024,-0.239,-0.184,-0.922,-0.299,0.522,-0.029,-0.201,1.022
2024-10-15 13:34:18.674,73210.125,-0.031,0.209,-0.977,-0.04,-0.272,0.01,-0.916,-0.314,0.447,-0.031,-0.211,1.027
2024-10-15 13:34:18.684,73210.135,-0.032,0.216,-0.976,-0.071,-0.189,0.139,-0.381,-0.276,0.448,-0.033,-0.217,1.031
2024-10-15 13:34:18.694,73210.145,-0.034,0.217,-0.976,0.045,-0.15,0.113,0.115,-0.189,0.317,-0.035,-0.219,1.036
2024-10-15 13:34:18.704,73210.155,-0.035,0.214,-0.976,0.105,-0.193,0.14,0.407,-0.116,0.122,-0.036,-0.216,1.038
2024-10-15 13:34:18.714,73210.165,-0.036,0.209,-0.977,0.129,-0.253,0.147,0.594,-0.034,-0.112,-0.037,-0.211,1.039
2024-10-15 13:34:18.724,73210.174,-0.036,0.203,-0.978,0.156,-0.366,0.156,0.582,0.028,-0.278,-0.037,-0.205,1.038
2024-10-15 13:34:18.735,73210.184,-0.036,0.199,-0.979,0.223,-0.425,0.178,0.263,0.051,-0.378,-0.037,-0.2,1.035
2024-10-15 13:34:18.744,73210.194,-0.037,0.198,-0.979,0.245,-0.409,0.183,-0.167,0.046,-0.447,-0.037,-0.2,1.031
2024-10-15 13:34:18.754,73210.204,-0.037,0.202,-0.979,0.187,-0.339,0.128,-0.49,0.059,-0.474,-0.038,-0.203,1.026
2024-10-15 13:34:18.764,73210.214,-0.037,0.207,-0.978,0.115,-0.151,0.012,-0.701,0.097,-0.402,-0.038,-0.209,1.022
2024-10-15 13:34:18.774,73210.224,-0.037,0.214,-0.976,0.058,0.091,-0.043,-0.618,0.135,-0.406,-0.038,-0.216,1.018
2024-10-15 13:34:18.784,73210.234,-0.036,0.218,-0.975,0.007,0.271,-0.048,-0.352,0.193,-0.328,-0.037,-0.22,1.014
2024-10-15 13:34:18.794,73210.244,-0.035,0.222,-0.974,0.0,0.381,-0.056,-0.418,0.198,-0.151,-0.036,-0.224,1.012
2024-10-15 13:34:18.804,73210.254,-0.033,0.227,-0.973,-0.025,0.415,-0.09,-0.703,0.15,0.109,-0.034,-0.229,1.011
2024-10-15 13:34:18.815,73210.264,-0.031,0.234,-0.972,-0.171,0.448,-0.072,-0.615,0.11,0.299,-0.032,-0.236,1.014
2024-10-15 13:34:18.824,73210.274,-0.029,0.238,-0.971,-0.25,0.491,-0.025,-0.171,0.117,0.454,-0.03,-0.24,1.018
2024-10-15 13:34:18.834,73210.284,-0.027,0.238,-0.971,-0.234,0.48,0.008,0.154,0.121,0.55,-0.028,-0.24,1.023
2024-10-15 13:34:18.844,73210.294,-0.025,0.236,-0.971,-0.199,0.311,-0.03,0.235,0.06,0.539,-0.026,-0.238,1.029
2024-10-15 13:34:18.854,73210.304,-0.024,0.235,-0.972,-0.163,0.015,-0.076,-0.047,-0.097,0.543,-0.024,-0.237,1.034
2024-10-15 13:34:18.864,73210.314,-0.024,0.238,-0.971,-0.079,-0.203,-0.129,-0.503,-0.181,0.534,-0.025,-0.24,1.04
2024-10-15 13:34:18.874,73210.324,-0.025,0.243,-0.97,-0.034,-0.215,0.043,-0.308,-0.205,0.433,-0.026,-0.245,1.045
2024-10-15 13:34:18.884,73210.334,-0.026,0.243,-0.97,-0.036,-0.111,0.186,0.275,-0.148,0.337,-0.027,-0.245,1.05
2024-10-15 13:34:18.894,73210.344,-0.026,0.238,-0.971,0.056,-0.165,0.051,0.619,-0.037,0.171,-0.027,-0.241,1.053
2024-10-15 13:34:18.904,73210.354,-0.026,0.233,-0.972,0.123,-0.267,0.069,0.596,0.022,-0.097,-0.027,-0.235,1.054
2024-10-15 13:34:18.914,73210.364,-0.026,0.228,-0.973,0.212,-0.529,0.013,0.32,0.006,-0.269,-0.027,-0.23,1.052
2024-10-15 13:34:18.924,73210.374,-0.027,0.227,-0.974,0.291,-0.678,-0.006,-0.014,-0.014,-0.403,-0.028,-0.228,1.049
2024-10-15 13:34:18.934,73210.384,-0.028,0.227,-0.973,0.302,-0.531,0.027,-0.156,-0.0,-0.424,-0.029,-0.229,1.045
2024-10-15 13:34:18.944,73210.394,-0.029,0.229,-0.973,0.197,-0.29,-0.021,-0.168,0.066,-0.378,-0.03,-0.231,1.041
2024-10-15 13:34:18.954,73210.404,-0.029,0.23,-0.973,0.1,0.025,-0.126,-0.004,0.135,-0.345,-0.029,-0.232,1.037
2024-10-15 13:34:18.964,73210.414,-0.028,0.227,-0.974,0.006,0.256,-0.166,0.68,0.265,-0.492,-0.029,-0.229,1.033
2024-10-15 13:34:18.974,73210.424,-0.026,0.218,-0.976,-0.002,0.329,-0.114,0.971,0.317,-0.518,-0.027,-0.22,1.029
2024-10-15 13:34:18.984,73210.434,-0.024,0.211,-0.977,0.131,0.169,-0.077,0.307,0.256,-0.592,-0.025,-0.213,1.023
2024-10-15 13:34:18.994,73210.444,-0.024,0.213,-0.977,0.096,-0.156,-0.045,-0.621,0.132,-0.56,-0.024,-0.214,1.017
2024-10-15 13:34:19.004,73210.454,-0.024,0.221,-0.975,-0.081,-0.182,0.031,-1.14,0.05,-0.393,-0.025,-0.223,1.012
2024-10-15 13:34:19.014,73210.464,-0.025,0.233,-0.972,-0.221,0.115,0.044,-1.215,-0.065,-0.05,-0.025,-0.235,1.01
2024-10-15 13:34:19.024,73210.474,-0.025,0.243,-0.97,-0.333,0.449,0.052,-0.893,-0.104,0.194,-0.026,-0.246,1.01
2024-10-15 13:34:19.034,73210.484,-0.025,0.249,-0.968,-0.399,0.627,0.08,-0.213,-0.054,0.377,-0.026,-0.252,1.013
2024-10-15 13:34:19.044,73210.494,-0.024,0.248,-0.968,-0.416,0.702,0.1,0.354,-0.028,0.545,-0.025,-0.251,1.018
2024-10-15 13:34:19.053,73210.504,-0.023,0.244,-0.97,-0.344,0.577,0.027,0.488,-0.025,0.557,-0.024,-0.246,1.024
2024-10-15 13:34:19.063,73210.514,-0.023,0.241,-0.97,-0.251,0.207,-0.025,-0.069,-0.262,0.631,-0.023,-0.244,1.031
2024-10-15 13:34:19.074,73210.524,-0.024,0.245,-0.969,-0.136,-0.072,-0.025,-0.493,-0.276,0.606,-0.025,-0.247,1.037
2024-10-15 13:34:19.084,73210.534,-0.025,0.248,-0.968,-0.124,-0.12,0.19,-0.134,-0.284,0.574,-0.026,-0.251,1.043
2024-10-15 13:34:19.093,73210.544,-0.026,0.247,-0.969,-0.075,-0.035,0.253,0.47,-0.227,0.511,-0.027,-0.249,1.049
2024-10-15 13:34:19.103,73210.554,-0.027,0.241,-0.97,0.057,-0.061,0.102,0.65,-0.154,0.37,-0.028,-0.244,1.054
2024-10-15 13:34:19.114,73210.564,-0.028,0.235,-0.972,0.115,-0.287,0.03,0.516,-0.1,0.118,-0.028,-0.238,1.057
2024-10-15 13:34:19.123,73210.574,-0.028,0.231,-0.972,0.186,-0.597,-0.048,0.366,-0.068,-0.12,-0.029,-0.233,1.058
2024-10-15 13:34:19.133,73210.584,-0.03,0.228,-0.973,0.27,-0.742,-0.074,0.298,-0.051,-0.356,-0.03,-0.23,1.055
2024-10-15 13:34:19.144,73210.594,-0.031,0.226,-0.974,0.338,-0.715,-0.05,0.051,-0.037,-0.49,-0.032,-0.228,1.051
2024-10-15 13:34:19.153,73210.604,-0.032,0.227,-0.973,0.366,-0.587,-0.011,-0.215,0.02,-0.574,-0.033,-0.229,1.046
2024-10-15 13:34:19.164,73210.614,-0.033,0.229,-0.973,0.291,-0.364,-0.008,-0.406,0.096,-0.532,-0.034,-0.232,1.04
2024-10-15 13:34:19.174,73210.624,-0.033,0.233,-0.972,0.166,-0.071,-0.059,-0.352,0.19,-0.498,-0.034,-0.235,1.035
2024-10-15 13:34:19.183,73210.634,-0.032,0.234,-0.972,0.063,0.209,-0.098,0.216,0.336,-0.6,-0.033,-0.236,1.029
2024-10-15 13:34:19.193,73210.644,-0.029,0.229,-0.973,-0.004,0.356,-0.085,0.63,0.409,-0.613,-0.03,-0.231,1.023
2024-10-15 13:34:19.203,73210.654,-0.027,0.225,-0.974,0.031,0.3,-0.112,0.194,0.367,-0.567,-0.028,-0.227,1.017
2024-10-15 13:34:19.214,73210.664,-0.025,0.226,-0.974,0.029,0.104,-0.079,-0.471,0.229,-0.482,-0.026,-0.228,1.012
2024-10-15 13:34:19.223,73210.674,-0.024,0.232,-0.972,-0.088,0.096,0.048,-0.665,0.094,-0.199,-0.025,-0.234,1.009
2024-10-15 13:34:19.234,73210.684,-0.024,0.239,-0.971,-0.158,0.352,0.105,-0.76,-0.034,0.242,-0.025,-0.242,1.009
2024-10-15 13:34:19.243,73210.694,-0.024,0.244,-0.969,-0.231,0.659,0.167,-0.222,-0.066,0.469,-0.025,-0.247,1.013
2024-10-15 13:34:19.252,73210.704,-0.023,0.243,-0.97,-0.345,0.756,0.156,0.578,-0.04,0.639,-0.024,-0.245,1.019
2024-10-15 13:34:19.263,73210.714,-0.021,0.235,-0.972,-0.316,0.708,0.018,0.872,0.014,0.687,-0.022,-0.238,1.026
2024-10-15 13:34:19.273,73210.724,-0.02,0.228,-0.973,-0.21,0.345,-0.114,0.531,-0.02,0.635,-0.02,-0.23,1.033
2024-10-15 13:34:19.283,73210.734,-0.02,0.227,-0.974,-0.12,-0.138,-0.187,-0.315,-0.195,0.599,-0.02,-0.229,1.04
2024-10-15 13:34:19.293,73210.743,-0.021,0.232,-0.972,-0.051,-0.363,-0.09,-0.553,-0.259,0.518,-0.021,-0.235,1.046
2024-10-15 13:34:19.303,73210.753,-0.022,0.235,-0.972,-0.072,-0.275,0.161,0.0,-0.232,0.467,-0.023,-0.238,1.051
2024-10-15 13:34:19.314,73210.763,-0.023,0.233,-0.972,0.005,-0.105,0.137,0.445,-0.161,0.392,-0.024,-0.235,1.056
2024-10-15 13:34:19.323,73210.773,-0.023,0.228,-0.973,0.068,-0.13,0.093,0.522,-0.101,0.192,-0.024,-0.23,1.059
2024-10-15 13:34:19.333,73210.783,-0.024,0.223,-0.974,0.129,-0.411,0.038,0.487,-0.054,-0.062,-0.025,-0.225,1.06
2024-10-15 13:34:19.343,73210.793,-0.025,0.219,-0.976,0.209,-0.655,-0.017,0.46,-0.031,-0.325,-0.026,-0.22,1.059
2024-10-15 13:34:19.353,73210.803,-0.026,0.215,-0.976,0.286,-0.708,-0.018,0.122,-0.043,-0.471,-0.027,-0.217,1.055
2024-10-15 13:34:19.364,73210.813,-0.028,0.216,-0.976,0.317,-0.667,0.017,-0.244,-0.027,-0.616,-0.028,-0.218,1.049
2024-10-15 13:34:19.373,73210.823,-0.029,0.219,-0.975,0.256,-0.51,0.035,-0.369,0.056,-0.628,-0.03,-0.221,1.043
2024-10-15 13:34:19.383,73210.833,-0.029,0.222,-0.975,0.138,-0.145,-0.046,-0.281,0.184,-0.57,-0.03,-0.224,1.037
2024-10-15 13:34:19.393,73210.843,-0.028,0.222,-0.975,0.021,0.248,-0.088,0.411,0.339,-0.671,-0.029,-0.224,1.031
2024-10-15 13:34:19.403,73210.853,-0.026,0.215,-0.976,-0.036,0.467,-0.042,0.729,0.352,-0.553,-0.027,-0.217,1.025
2024-10-15 13:34:19.413,73210.863,-0.024,0.211,-0.977,0.044,0.449,-0.1,-0.062,0.24,-0.408,-0.025,-0.213,1.02
2024-10-15 13:34:19.423,73210.873,-0.023,0.216,-0.976,0.009,0.25,-0.077,-0.708,0.087,-0.217,-0.024,-0.217,1.017
2024-10-15 13:34:19.432,73210.883,-0.023,0.224,-0.974,-0.155,0.285,0.028,-0.806,-0.04,0.259,-0.023,-0.226,1.017
2024-10-15 13:34:19.442,73210.893,-0.022,0.229,-0.973,-0.202,0.656,0.107,-0.147,-0.035,0.516,-0.023,-0.231,1.022
2024-10-15 13:34:19.452,73210.903,-0.021,0.226,-0.974,-0.274,0.86,0.122,0.695,0.03,0.715,-0.021,-0.228,1.028
2024-10-15 13:34:19.462,73210.913,-0.019,0.218,-0.976,-0.311,0.756,0.053,0.979,0.063,0.772,-0.019,-0.219,1.037
2024-10-15 13:34:19.473,73210.923,-0.017,0.21,-0.978,-0.214,0.343,-0.029,0.587,-0.011,0.712,-0.017,-0.211,1.044
2024-10-15 13:34:19.483,73210.933,-0.017,0.209,-0.978,-0.122,-0.157,-0.084,-0.389,-0.248,0.693,-0.017,-0.21,1.052
2024-10-15 13:34:19.493,73210.943,-0.018,0.214,-0.977,-0.055,-0.412,0.017,-0.545,-0.279,0.575,-0.018,-0.216,1.059
2024-10-15 13:34:19.503,73210.953,-0.019,0.216,-0.976,-0.069,-0.318,0.251,0.169,-0.214,0.498,-0.02,-0.218,1.064
2024-10-15 13:34:19.513,73210.963,-0.02,0.213,-0.977,0.0,-0.099,0.13,0.532,-0.127,0.406,-0.02,-0.214,1.069
2024-10-15 13:34:19.523,73210.973,-0.02,0.207,-0.978,0.053,-0.167,0.011,0.506,-0.07,0.125,-0.021,-0.209,1.072
2024-10-15 13:34:19.533,73210.983,-0.021,0.203,-0.979,0.1,-0.542,-0.079,0.385,-0.022,-0.17,-0.021,-0.205,1.072
2024-10-15 13:34:19.543,73210.993,-0.022,0.2,-0.98,0.169,-0.775,-0.136,0.203,-0.022,-0.409,-0.022,-0.202,1.069
2024-10-15 13:34:19.553,73211.003,-0.023,0.2,-0.98,0.242,-0.761,-0.092,-0.164,-0.033,-0.57,-0.023,-0.201,1.065
2024-10-15 13:34:19.563,73211.013,-0.024,0.203,-0.979,0.258,-0.675,0.007,-0.486,0.0,-0.661,-0.025,-0.204,1.058
2024-10-15 13:34:19.573,73211.023,-0.025,0.208,-0.978,0.195,-0.477,0.048,-0.603,0.089,-0.648,-0.026,-0.21,1.051
2024-10-15 13:34:19.583,73211.033,-0.025,0.213,-0.977,0.092,-0.104,-0.017,-0.285,0.214,-0.628,-0.026,-0.215,1.045
2024-10-15 13:34:19.593,73211.043,-0.023,0.21,-0.977,-0.02,0.265,-0.051,0.96,0.427,-0.788,-0.024,-0.211,1.038
2024-10-15 13:34:19.603,73211.053,-0.021,0.197,-0.98,-0.039,0.505,-0.002,1.395,0.431,-0.663,-0.021,-0.198,1.031
2024-10-15 13:34:19.613,73211.063,-0.018,0.189,-0.982,0.124,0.411,-0.023,0.155,0.237,-0.551,-0.019,-0.19,1.025
2024-10-15 13:34:19.623,73211.073,-0.018,0.193,-0.981,0.107,-0.016,0.018,-1.017,0.033,-0.369,-0.018,-0.195,1.02
2024-10-15 13:34:19.633,73211.083,-0.019,0.204,-0.979,-0.119,0.019,0.065,-1.191,-0.093,0.167,-0.019,-0.206,1.019
2024-10-15 13:34:19.643,73211.093,-0.019,0.213,-0.977,-0.222,0.627,0.048,-0.433,-0.116,0.463,-0.019,-0.214,1.022
2024-10-15 13:34:19.653,73211.103,-0.018,0.212,-0.977,-0.31,1.007,0.023,0.609,0.008,0.67,-0.019,-0.213,1.028
2024-10-15 13:34:19.662,73211.113,-0.016,0.204,-0.979,-0.346,0.959,-0.081,0.92,0.081,0.797,-0.017,-0.205,1.036
2024-10-15 13:34:19.673,73211.123,-0.014,0.197,-0.98,-0.243,0.548,-0.165,0.358,-0.0,0.774,-0.015,-0.199,1.045
2024-10-15 13:34:19.683,73211.133,-0.014,0.199,-0.98,-0.137,-0.041,-0.151,-0.787,-0.287,0.816,-0.015,-0.201,1.053
2024-10-15 13:34:19.693,73211.143,-0.016,0.209,-0.978,-0.042,-0.296,0.054,-0.961,-0.341,0.787,-0.016,-0.21,1.061
2024-10-15 13:34:19.703,73211.153,-0.017,0.214,-0.977,-0.044,-0.11,0.448,-0.099,-0.327,0.791,-0.018,-0.216,1.069
2024-10-15 13:34:19.713,73211.163,-0.018,0.212,-0.977,0.028,0.155,0.355,0.508,-0.215,0.734,-0.019,-0.214,1.077
2024-10-15 13:34:19.723,73211.173,-0.019,0.206,-0.978,0.042,0.084,0.187,0.646,-0.141,0.478,-0.019,-0.208,1.083
2024-10-15 13:34:19.732,73211.183,-0.019,0.201,-0.979,0.057,-0.382,-0.023,0.531,-0.071,0.143,-0.02,-0.202,1.087
2024-10-15 13:34:19.742,73211.193,-0.02,0.196,-0.98,0.11,-0.787,-0.195,0.39,-0.005,-0.247,-0.02,-0.197,1.087
2024-10-15 13:34:19.753,73211.203,-0.021,0.193,-0.981,0.153,-0.938,-0.216,0.166,-0.032,-0.539,-0.021,-0.194,1.083
2024-10-15 13:34:19.763,73211.213,-0.023,0.194,-0.981,0.215,-1.003,-0.155,-0.407,-0.076,-0.715,-0.023,-0.195,1.076
2024-10-15 13:34:19.773,73211.223,-0.025,0.2,-0.98,0.258,-0.874,-0.002,-0.77,-0.046,-0.778,-0.025,-0.201,1.069
2024-10-15 13:34:19.782,73211.233,-0.026,0.207,-0.978,0.136,-0.523,0.064,-0.786,0.045,-0.698,-0.027,-0.209,1.061
2024-10-15 13:34:19.792,73211.243,-0.026,0.211,-0.977,0.023,-0.024,0.001,0.048,0.242,-0.797,-0.027,-0.213,1.054
2024-10-15 13:34:19.803,73211.253,-0.025,0.205,-0.978,-0.044,0.351,-0.004,1.0,0.343,-0.769,-0.026,-0.207,1.046
2024-10-15 13:34:19.813,73211.263,-0.023,0.197,-0.98,0.043,0.42,-0.042,0.57,0.323,-0.698,-0.024,-0.198,1.039
2024-10-15 13:34:19.823,73211.273,-0.022,0.196,-0.98,0.129,0.154,-0.064,-0.503,0.181,-0.621,-0.022,-0.198,1.032
2024-10-15 13:34:19.832,73211.283,-0.022,0.204,-0.979,-0.027,0.012,-0.019,-0.963,0.06,-0.297,-0.022,-0.205,1.027
2024-10-15 13:34:19.842,73211.293,-0.022,0.212,-0.977,-0.144,0.355,-0.044,-0.671,-0.047,0.159,-0.022,-0.214,1.026
2024-10-15 13:34:19.852,73211.303,-0.022,0.215,-0.976,-0.199,0.91,0.009,0.048,-0.065,0.492,-0.022,-0.217,1.03
2024-10-15 13:34:19.862,73211.313,-0.021,0.211,-0.977,-0.266,1.172,0.094,0.908,-0.014,0.736,-0.021,-0.212,1.037
2024-10-15 13:34:19.872,73211.322,-0.019,0.2,-0.98,-0.249,1.009,0.091,1.275,0.031,0.852,-0.019,-0.201,1.045
2024-10-15 13:34:19.882,73211.332,-0.017,0.189,-0.982,-0.17,0.566,-0.01,0.906,0.003,0.842,-0.017,-0.19,1.054
2024-10-15 13:34:19.892,73211.342,-0.017,0.185,-0.983,-0.117,-0.001,-0.058,-0.156,-0.23,0.838,-0.017,-0.186,1.063
2024-10-15 13:34:19.902,73211.352,-0.018,0.189,-0.982,-0.054,-0.337,0.005,-0.491,-0.286,0.76,-0.018,-0.19,1.072
2024-10-15 13:34:19.912,73211.362,-0.019,0.191,-0.981,-0.078,-0.322,0.266,0.133,-0.273,0.706,-0.019,-0.192,1.079
2024-10-15 13:34:19.922,73211.372,-0.02,0.188,-0.982,-0.026,-0.119,0.191,0.568,-0.177,0.61,-0.02,-0.189,1.086
2024-10-15 13:34:19.932,73211.382,-0.021,0.182,-0.983,-0.009,-0.172,0.074,0.54,-0.106,0.312,-0.021,-0.183,1.091
2024-10-15 13:34:19.942,73211.392,-0.021,0.178,-0.984,0.031,-0.612,-0.042,0.321,-0.058,-0.038,-0.021,-0.179,1.093
2024-10-15 13:34:19.952,73211.402,-0.022,0.175,-0.984,0.117,-0.975,-0.093,0.104,-0.053,-0.45,-0.022,-0.176,1.09
2024-10-15 13:34:19.962,73211.412,-0.024,0.177,-0.984,0.214,-1.079,-0.039,-0.447,-0.102,-0.678,-0.024,-0.178,1.085
2024-10-15 13:34:19.972,73211.422,-0.026,0.184,-0.982,0.254,-0.99,0.066,-1.11,-0.099,-0.804,-0.027,-0.185,1.077
2024-10-15 13:34:19.982,73211.432,-0.028,0.197,-0.98,0.179,-0.722,0.127,-1.429,-0.049,-0.783,-0.029,-0.198,1.068
2024-10-15 13:34:19.992,73211.442,-0.03,0.209,-0.977,0.059,-0.283,0.026,-0.906,0.102,-0.832,-0.031,-0.21,1.06
2024-10-15 13:34:20.003,73211.452,-0.029,0.21,-0.977,-0.036,0.235,-0.078,0.551,0.404,-0.928,-0.03,-0.212,1.051
2024-10-15 13:34:20.012,73211.462,-0.027,0.201,-0.979,-0.059,0.669,-0.126,1.012,0.48,-0.763,-0.027,-0.203,1.042
2024-10-15 13:34:20.022,73211.472,-0.024,0.196,-0.98,0.054,0.646,-0.193,0.001,0.359,-0.707,-0.024,-0.197,1.035
2024-10-15 13:34:20.032,73211.482,-0.023,0.2,-0.98,0.028,0.209,-0.09,-0.676,0.195,-0.546,-0.023,-0.201,1.029
2024-10-15 13:34:20.042,73211.492,-0.022,0.205,-0.978,-0.073,0.2,0.042,-0.399,0.064,-0.093,-0.022,-0.207,1.025
2024-10-15 13:34:20.052,73211.502,-0.022,0.209,-0.978,-0.108,0.754,0.096,-0.172,-0.033,0.411,-0.022,-0.21,1.027
2024-10-15 13:34:20.062,73211.512,-0.021,0.208,-0.978,-0.191,1.138,0.133,0.441,-0.005,0.668,-0.021,-0.209,1.033
2024-10-15 13:34:20.072,73211.522,-0.019,0.2,-0.98,-0.289,0.981,0.082,1.065,0.071,0.823,-0.019,-0.202,1.041
2024-10-15 13:34:20.082,73211.532,-0.016,0.19,-0.982,-0.222,0.658,-0.075,0.958,0.071,0.854,-0.017,-0.191,1.05
2024-10-15 13:34:20.092,73211.542,-0.015,0.186,-0.982,-0.122,0.158,-0.143,-0.181,-0.232,0.896,-0.016,-0.187,1.059
2024-10-15 13:34:20.102,73211.552,-0.016,0.191,-0.982,-0.033,-0.31,-0.042,-0.646,-0.281,0.759,-0.016,-0.192,1.068
2024-10-15 13:34:20.112,73211.562,-0.017,0.194,-0.981,-0.053,-0.424,0.307,0.079,-0.225,0.652,-0.018,-0.195,1.075
2024-10-15 13:34:20.122,73211.572,-0.018,0.19,-0.982,-0.018,-0.174,0.277,0.645,-0.135,0.533,-0.018,-0.191,1.081
2024-10-15 13:34:20.132,73211.582,-0.018,0.184,-0.983,-0.007,-0.188,0.103,0.544,-0.085,0.2,-0.018,-0.185,1.085
2024-10-15 13:34:20.141,73211.592,-0.019,0.181,-0.983,0.046,-0.706,-0.029,0.223,-0.062,-0.204,-0.019,-0.182,1.086
2024-10-15 13:34:20.152,73211.602,-0.02,0.179,-0.984,0.127,-1.104,-0.124,-0.041,-0.081,-0.556,-0.021,-0.18,1.082
2024-10-15 13:34:20.162,73211.612,-0.022,0.182,-0.983,0.213,-1.073,-0.109,-0.44,-0.118,-0.713,-0.023,-0.183,1.075
2024-10-15 13:34:20.172,73211.622,-0.025,0.188,-0.982,0.236,-0.807,0.006,-0.852,-0.109,-0.75,-0.025,-0.189,1.068
2024-10-15 13:34:20.182,73211.632,-0.027,0.198,-0.98,0.162,-0.474,0.052,-1.11,-0.021,-0.655,-0.028,-0.199,1.06
2024-10-15 13:34:20.192,73211.642,-0.028,0.206,-0.978,0.067,-0.044,-0.042,-0.469,0.162,-0.714,-0.028,-0.207,1.053
2024-10-15 13:34:20.202,73211.652,-0.026,0.204,-0.979,-0.012,0.365,-0.122,0.714,0.392,-0.751,-0.027,-0.206,1.046
2024-10-15 13:34:20.212,73211.662,-0.024,0.195,-0.98,0.006,0.582,-0.166,0.863,0.445,-0.706,-0.024,-0.197,1.039
2024-10-15 13:34:20.222,73211.672,-0.021,0.191,-0.981,0.085,0.42,-0.142,0.058,0.321,-0.689,-0.022,-0.192,1.032
2024-10-15 13:34:20.232,73211.682,-0.02,0.193,-0.981,0.013,0.117,0.024,-0.504,0.14,-0.422,-0.02,-0.194,1.027
2024-10-15 13:34:20.242,73211.692,-0.02,0.198,-0.98,-0.063,0.2,0.122,-0.441,-0.031,-0.003,-0.02,-0.199,1.024
2024-10-15 13:34:20.252,73211.702,-0.02,0.201,-0.979,-0.131,0.71,0.181,-0.102,-0.113,0.523,-0.021,-0.203,1.028
2024-10-15 13:34:20.262,73211.712,-0.02,0.198,-0.98,-0.227,1.124,0.208,0.802,-0.05,0.772,-0.02,-0.2,1.035
2024-10-15 13:34:20.272,73211.722,-0.018,0.187,-0.982,-0.262,1.023,0.076,1.349,0.06,0.863,-0.018,-0.188,1.043
2024-10-15 13:34:20.282,73211.732,-0.016,0.176,-0.984,-0.196,0.629,-0.151,0.991,0.059,0.827,-0.016,-0.176,1.052
2024-10-15 13:34:20.292,73211.742,-0.015,0.171,-0.985,-0.124,0.038,-0.223,-0.161,-0.232,0.812,-0.015,-0.172,1.061
2024-10-15 13:34:20.302,73211.752,-0.016,0.175,-0.984,-0.028,-0.425,-0.109,-0.5,-0.244,0.683,-0.016,-0.176,1.068
2024-10-15 13:34:20.312,73211.762,-0.017,0.176,-0.984,-0.029,-0.429,0.27,0.379,-0.176,0.576,-0.017,-0.177,1.075
2024-10-15 13:34:20.322,73211.772,-0.017,0.17,-0.985,-0.019,-0.104,0.256,0.933,-0.086,0.525,-0.018,-0.17,1.081
2024-10-15 13:34:20.332,73211.782,-0.017,0.161,-0.987,-0.027,-0.11,0.101,0.748,-0.029,0.238,-0.017,-0.162,1.085
2024-10-15 13:34:20.342,73211.792,-0.017,0.156,-0.988,0.027,-0.603,0.04,0.331,-0.033,-0.11,-0.018,-0.157,1.086
2024-10-15 13:34:20.352,73211.802,-0.018,0.154,-0.988,0.134,-0.997,0.008,-0.063,-0.053,-0.456,-0.018,-0.155,1.083
2024-10-15 13:34:20.361,73211.812,-0.02,0.157,-0.987,0.232,-1.012,0.014,-0.529,-0.094,-0.638,-0.02,-0.158,1.078
2024-10-15 13:34:20.371,73211.822,-0.022,0.164,-0.986,0.225,-0.844,0.033,-0.925,-0.082,-0.741,-0.022,-0.165,1.071
2024-10-15 13:34:20.381,73211.832,-0.024,0.174,-0.984,0.137,-0.547,0.001,-1.088,0.006,-0.705,-0.024,-0.175,1.063
2024-10-15 13:34:20.392,73211.842,-0.024,0.183,-0.983,0.044,-0.11,-0.087,-0.586,0.159,-0.735,-0.024,-0.184,1.056
2024-10-15 13:34:20.401,73211.852,-0.023,0.183,-0.983,-0.027,0.348,-0.093,0.651,0.364,-0.742,-0.023,-0.184,1.048
2024-10-15 13:34:20.411,73211.862,-0.02,0.174,-0.985,-0.015,0.712,0.01,0.88,0.345,-0.464,-0.021,-0.175,1.042
2024-10-15 13:34:20.421,73211.872,-0.018,0.17,-0.985,0.098,0.676,-0.017,-0.14,0.15,-0.237,-0.019,-0.171,1.039
2024-10-15 13:34:20.431,73211.882,-0.018,0.174,-0.985,0.003,0.338,-0.002,-0.483,-0.002,0.081,-0.018,-0.174,1.038
2024-10-15 13:34:20.441,73211.892,-0.017,0.176,-0.984,-0.125,0.462,0.017,0.103,-0.002,0.454,-0.018,-0.177,1.041
2024-10-15 13:34:20.451,73211.901,-0.016,0.171,-0.985,-0.169,0.978,-0.009,0.862,0.072,0.678,-0.016,-0.172,1.047
2024-10-15 13:34:20.461,73211.911,-0.014,0.162,-0.987,-0.246,0.976,-0.129,1.016,0.115,0.766,-0.014,-0.162,1.054
2024-10-15 13:34:20.471,73211.921,-0.012,0.153,-0.988,-0.212,0.463,-0.174,0.77,0.108,0.702,-0.012,-0.153,1.062
2024-10-15 13:34:20.481,73211.931,-0.011,0.149,-0.989,-0.083,-0.066,-0.08,0.044,-0.128,0.703,-0.011,-0.149,1.069
2024-10-15 13:34:20.491,73211.941,-0.011,0.151,-0.988,0.004,-0.341,0.027,-0.506,-0.189,0.618,-0.011,-0.152,1.076
2024-10-15 13:34:20.501,73211.951,-0.012,0.155,-0.988,-0.026,-0.386,0.316,-0.005,-0.164,0.517,-0.012,-0.155,1.082
2024-10-15 13:34:20.511,73211.961,-0.013,0.152,-0.988,-0.072,-0.233,0.329,0.552,-0.1,0.434,-0.013,-0.152,1.087
2024-10-15 13:34:20.522,73211.971,-0.013,0.146,-0.989,-0.049,-0.226,0.101,0.562,-0.036,0.146,-0.013,-0.146,1.09
2024-10-15 13:34:20.530,73211.981,-0.013,0.142,-0.99,0.004,-0.556,-0.023,0.292,-0.043,-0.214,-0.014,-0.142,1.09
2024-10-15 13:34:20.541,73211.991,-0.014,0.141,-0.99,0.075,-0.911,-0.131,-0.192,-0.061,-0.484,-0.015,-0.141,1.086
2024-10-15 13:34:20.551,73212.001,-0.016,0.145,-0.989,0.174,-0.918,-0.058,-0.596,-0.099,-0.664,-0.016,-0.145,1.081
2024-10-15 13:34:20.561,73212.011,-0.018,0.152,-0.988,0.198,-0.71,0.071,-0.788,-0.08,-0.709,-0.018,-0.152,1.073
2024-10-15 13:34:20.571,73212.021,-0.019,0.16,-0.987,0.15,-0.365,0.102,-0.885,0.028,-0.636,-0.02,-0.161,1.067
2024-10-15 13:34:20.581,73212.031,-0.019,0.167,-0.986,0.091,0.029,0.042,-0.355,0.227,-0.711,-0.019,-0.167,1.06
2024-10-15 13:34:20.591,73212.041,-0.017,0.165,-0.986,0.001,0.366,-0.014,0.54,0.348,-0.661,-0.018,-0.166,1.053
2024-10-15 13:34:20.601,73212.051,-0.015,0.16,-0.987,0.005,0.569,-0.047,0.345,0.289,-0.481,-0.015,-0.161,1.047
2024-10-15 13:34:20.611,73212.061,-0.014,0.16,-0.987,0.112,0.391,-0.07,-0.409,0.15,-0.382,-0.014,-0.161,1.043
2024-10-15 13:34:20.621,73212.071,-0.013,0.165,-0.986,0.029,0.165,-0.021,-0.475,0.061,-0.096,-0.013,-0.166,1.041
2024-10-15 13:34:20.631,73212.081,-0.012,0.169,-0.985,-0.08,0.435,-0.057,-0.219,0.027,0.295,-0.013,-0.17,1.042
2024-10-15 13:34:20.641,73212.091,-0.011,0.169,-0.986,-0.164,0.894,-0.059,0.408,0.047,0.503,-0.012,-0.169,1.046
2024-10-15 13:34:20.651,73212.101,-0.01,0.163,-0.987,-0.269,0.876,-0.087,0.746,0.085,0.616,-0.01,-0.163,1.052
2024-10-15 13:34:20.661,73212.111,-0.008,0.156,-0.988,-0.201,0.534,-0.119,0.541,0.087,0.598,-0.008,-0.157,1.059
2024-10-15 13:34:20.671,73212.121,-0.006,0.153,-0.988,-0.104,0.037,-0.061,0.113,0.006,0.521,-0.007,-0.153,1.064
2024-10-15 13:34:20.681,73212.131,-0.007,0.155,-0.988,-0.041,-0.337,0.007,-0.571,-0.17,0.503,-0.007,-0.156,1.07
2024-10-15 13:34:20.691,73212.141,-0.007,0.161,-0.987,0.024,-0.449,0.155,-0.554,-0.142,0.383,-0.007,-0.162,1.074
2024-10-15 13:34:20.701,73212.151,-0.008,0.164,-0.986,0.027,-0.347,0.369,-0.01,-0.113,0.268,-0.008,-0.165,1.078
2024-10-15 13:34:20.711,73212.161,-0.009,0.162,-0.987,0.07,-0.234,0.19,0.243,-0.043,0.104,-0.009,-0.163,1.08
2024-10-15 13:34:20.721,73212.171,-0.009,0.16,-0.987,0.095,-0.356,0.044,0.197,-0.026,-0.195,-0.009,-0.161,1.079
2024-10-15 13:34:20.731,73212.181,-0.01,0.16,-0.987,0.128,-0.614,-0.053,-0.098,-0.05,-0.307,-0.01,-0.161,1.077
2024-10-15 13:34:20.741,73212.191,-0.011,0.162,-0.987,0.186,-0.637,-0.075,-0.37,-0.037,-0.456,-0.011,-0.163,1.073
2024-10-15 13:34:20.751,73212.201,-0.012,0.167,-0.986,0.184,-0.496,-0.006,-0.509,-0.015,-0.447,-0.012,-0.167,1.069
2024-10-15 13:34:20.761,73212.211,-0.012,0.172,-0.985,0.12,-0.229,-0.018,-0.558,0.031,-0.384,-0.013,-0.173,1.064
2024-10-15 13:34:20.772,73212.221,-0.012,0.177,-0.984,0.081,0.082,-0.055,-0.438,0.076,-0.326,-0.013,-0.178,1.061
2024-10-15 13:34:20.781,73212.231,-0.012,0.178,-0.984,0.067,0.286,-0.043,0.242,0.199,-0.323,-0.012,-0.179,1.057
2024-10-15 13:34:20.791,73212.241,-0.01,0.174,-0.985,0.073,0.444,0.042,0.588,0.222,-0.151,-0.01,-0.174,1.055
2024-10-15 13:34:20.801,73212.251,-0.008,0.17,-0.985,0.149,0.446,0.059,0.14,0.15,-0.074,-0.009,-0.171,1.054
2024-10-15 13:34:20.811,73212.261,-0.007,0.17,-0.985,0.106,0.21,0.048,-0.22,0.067,0.016,-0.008,-0.171,1.054
2024-10-15 13:34:20.820,73212.271,-0.007,0.172,-0.985,-0.033,0.154,-0.019,-0.175,0.019,0.241,-0.007,-0.173,1.055
2024-10-15 13:34:20.831,73212.281,-0.006,0.173,-0.985,-0.144,0.408,-0.154,0.096,0.006,0.427,-0.006,-0.174,1.059
2024-10-15 13:34:20.841,73212.291,-0.005,0.171,-0.985,-0.255,0.599,-0.212,0.336,0.041,0.561,-0.005,-0.172,1.064
2024-10-15 13:34:20.851,73212.301,-0.004,0.167,-0.986,-0.267,0.484,-0.242,0.414,0.04,0.595,-0.004,-0.168,1.069
2024-10-15 13:34:20.861,73212.311,-0.003,0.164,-0.986,-0.182,0.213,-0.109,0.024,-0.108,0.701,-0.003,-0.165,1.076
2024-10-15 13:34:20.871,73212.321,-0.003,0.167,-0.986,-0.026,-0.031,0.121,-0.542,-0.185,0.736,-0.003,-0.168,1.084
2024-10-15 13:34:20.881,73212.331,-0.004,0.17,-0.985,0.151,-0.205,0.403,-0.028,-0.129,0.521,-0.004,-0.171,1.09
2024-10-15 13:34:20.890,73212.341,-0.004,0.168,-0.986,0.11,-0.142,0.438,0.405,-0.038,0.488,-0.004,-0.169,1.095
2024-10-15 13:34:20.901,73212.351,-0.003,0.164,-0.986,0.031,-0.164,0.111,0.333,0.029,0.212,-0.003,-0.165,1.099
2024-10-15 13:34:20.911,73212.361,-0.003,0.162,-0.987,-0.015,-0.472,-0.032,0.097,0.025,-0.072,-0.003,-0.163,1.099
2024-10-15 13:34:20.921,73212.371,-0.003,0.162,-0.987,-0.002,-0.815,-0.162,-0.043,0.001,-0.269,-0.003,-0.163,1.098
2024-10-15 13:34:20.931,73212.381,-0.004,0.163,-0.987,0.019,-0.798,-0.105,-0.24,-0.028,-0.433,-0.004,-0.164,1.094
2024-10-15 13:34:20.940,73212.391,-0.005,0.167,-0.986,0.02,-0.583,-0.001,-0.399,-0.054,-0.537,-0.005,-0.167,1.089
2024-10-15 13:34:20.950,73212.401,-0.006,0.17,-0.985,-0.005,-0.34,0.058,-0.226,-0.019,-0.55,-0.006,-0.171,1.083
2024-10-15 13:34:20.960,73212.411,-0.007,0.17,-0.985,-0.006,-0.085,0.095,0.219,0.097,-0.588,-0.007,-0.171,1.078
2024-10-15 13:34:20.970,73212.421,-0.006,0.167,-0.986,0.082,0.137,0.08,0.289,0.181,-0.571,-0.006,-0.168,1.072
2024-10-15 13:34:20.980,73212.431,-0.005,0.166,-0.986,0.122,0.192,-0.047,-0.074,0.176,-0.556,-0.006,-0.167,1.066
2024-10-15 13:34:20.990,73212.441,-0.005,0.168,-0.986,0.036,0.185,-0.118,-0.318,0.141,-0.396,-0.005,-0.169,1.061
2024-10-15 13:34:21.000,73212.451,-0.004,0.172,-0.985,-0.072,0.398,-0.204,-0.445,0.091,-0.051,-0.004,-0.173,1.059
2024-10-15 13:34:21.011,73212.461,-0.003,0.176,-0.984,-0.191,0.711,-0.258,-0.28,0.036,0.317,-0.003,-0.177,1.06
2024-10-15 13:34:21.021,73212.47,-0.002,0.175,-0.984,-0.268,0.932,-0.142,0.354,0.052,0.524,-0.002,-0.176,1.065
2024-10-15 13:34:21.031,73212.48,-0.0,0.169,-0.986,-0.239,0.879,0.0,0.843,0.061,0.671,-0.0,-0.17,1.071
2024-10-15 13:34:21.040,73212.49,0.001,0.161,-0.987,-0.154,0.616,0.14,0.689,-0.002,0.724,0.001,-0.162,1.078
2024-10-15 13:34:21.051,73212.5,0.001,0.159,-0.987,-0.065,0.132,0.216,-0.21,-0.277,0.793,0.001,-0.159,1.085
2024-10-15 13:34:21.060,73212.51,-0.0,0.163,-0.987,0.067,-0.331,0.313,-0.365,-0.184,0.525,-0.0,-0.163,1.092
2024-10-15 13:34:21.070,73212.52,-0.0,0.162,-0.987,0.1,-0.451,0.442,0.509,-0.028,0.317,-0.0,-0.163,1.096
2024-10-15 13:34:21.080,73212.53,0.0,0.155,-0.988,0.032,-0.296,0.123,0.683,0.068,0.167,0.0,-0.156,1.099
2024-10-15 13:34:21.090,73212.54,0.001,0.151,-0.989,-0.009,-0.45,-0.153,0.259,0.086,-0.229,0.001,-0.152,1.098
2024-10-15 13:34:21.100,73212.55,0.001,0.152,-0.988,0.017,-0.872,-0.167,-0.323,0.003,-0.372,0.001,-0.152,1.095
2024-10-15 13:34:21.111,73212.56,0.0,0.156,-0.988,0.061,-0.931,-0.109,-0.623,-0.04,-0.527,0.0,-0.157,1.09
2024-10-15 13:34:21.120,73212.57,-0.001,0.163,-0.987,0.081,-0.611,0.06,-0.627,-0.052,-0.537,-0.001,-0.163,1.085
2024-10-15 13:34:21.130,73212.58,-0.003,0.169,-0.986,0.047,-0.244,0.094,-0.618,-0.069,-0.447,-0.003,-0.17,1.08
2024-10-15 13:34:21.140,73212.59,-0.004,0.175,-0.985,-0.005,0.117,0.082,-0.603,-0.049,-0.308,-0.004,-0.176,1.076
2024-10-15 13:34:21.150,73212.6,-0.005,0.18,-0.984,-0.06,0.384,0.02,-0.437,0.025,-0.147,-0.005,-0.181,1.073
2024-10-15 13:34:21.160,73212.61,-0.004,0.183,-0.983,-0.131,0.567,-0.136,-0.158,0.137,0.018,-0.004,-0.184,1.072
2024-10-15 13:34:21.170,73212.62,-0.002,0.183,-0.983,-0.186,0.651,-0.241,0.087,0.272,0.139,-0.002,-0.184,1.073
2024-10-15 13:34:21.180,73212.63,0.002,0.182,-0.983,-0.19,0.552,-0.194,0.084,0.364,0.125,0.002,-0.183,1.074
2024-10-15 13:34:21.190,73212.64,0.006,0.182,-0.983,-0.159,0.246,-0.066,-0.122,0.393,0.102,0.006,-0.183,1.075
2024-10-15 13:34:21.200,73212.65,0.01,0.185,-0.983,-0.132,-0.019,0.037,-0.53,0.391,0.026,0.01,-0.186,1.076
2024-10-15 13:34:21.210,73212.66,0.013,0.193,-0.981,-0.122,-0.155,0.114,-1.072,0.393,-0.039,0.014,-0.194,1.076
2024-10-15 13:34:21.220,73212.67,0.017,0.207,-0.978,-0.137,-0.239,0.148,-1.835,0.436,-0.014,0.018,-0.208,1.076
2024-10-15 13:34:21.230,73212.68,0.022,0.228,-0.973,-0.144,-0.24,0.147,-2.432,0.425,0.016,0.022,-0.23,1.076
2024-10-15 13:34:21.240,73212.69,0.025,0.251,-0.968,-0.161,-0.154,0.062,-2.136,0.319,0.084,0.026,-0.253,1.077
2024-10-15 13:34:21.250,73212.7,0.028,0.266,-0.964,-0.148,0.065,-0.068,-1.004,0.204,0.163,0.029,-0.269,1.079
2024-10-15 13:34:21.260,73212.71,0.031,0.269,-0.963,-0.084,0.35,-0.102,0.227,0.191,0.219,0.032,-0.273,1.081
2024-10-15 13:34:21.270,73212.72,0.033,0.264,-0.964,-0.045,0.525,-0.002,0.786,0.106,0.32,0.034,-0.267,1.084
2024-10-15 13:34:21.280,73212.73,0.034,0.256,-0.966,0.008,0.396,0.079,0.721,-0.055,0.317,0.035,-0.259,1.087
2024-10-15 13:34:21.290,73212.74,0.033,0.25,-0.968,0.092,-0.006,0.12,0.662,-0.203,0.21,0.034,-0.252,1.089
2024-10-15 13:34:21.299,73212.75,0.031,0.242,-0.97,0.181,-0.26,0.154,0.845,-0.341,0.091,0.032,-0.245,1.091
2024-10-15 13:34:21.310,73212.76,0.027,0.233,-0.972,0.242,-0.264,0.153,1.003,-0.514,-0.033,0.028,-0.236,1.091
2024-10-15 13:34:21.319,73212.77,0.021,0.224,-0.974,0.256,-0.256,0.133,0.954,-0.755,-0.189,0.021,-0.226,1.089
2024-10-15 13:34:21.329,73212.78,0.012,0.216,-0.976,0.235,-0.339,0.137,0.616,-1.007,-0.268,0.012,-0.218,1.087
2024-10-15 13:34:21.339,73212.79,0.004,0.215,-0.977,0.193,-0.39,0.176,-0.527,-0.339,0.042,0.004,-0.216,1.085
2024-10-15 13:34:21.349,73212.8,0.002,0.225,-0.974,0.068,-0.36,0.192,-1.218,-0.262,-0.061,0.002,-0.227,1.085
2024-10-15 13:34:21.360,73212.81,-0.001,0.234,-0.972,-0.112,-0.169,-0.758,-0.62,-0.164,0.041,-0.001,-0.236,1.085
2024-10-15 13:34:21.370,73212.82,-0.001,0.236,-0.972,-0.228,0.307,-0.909,0.123,0.014,0.222,-0.001,-0.238,1.086
2024-10-15 13:34:21.380,73212.83,-0.001,0.234,-0.972,0.107,0.595,-0.35,0.265,-0.018,0.228,-0.001,-0.236,1.089
2024-10-15 13:34:21.389,73212.84,-0.001,0.231,-0.973,0.183,0.309,-0.044,0.327,-0.111,0.278,-0.001,-0.234,1.091
2024-10-15 13:34:21.400,73212.85,-0.001,0.227,-0.974,0.034,0.046,0.282,0.518,-0.135,0.278,-0.001,-0.229,1.094
2024-10-15 13:34:21.411,73212.86,-0.002,0.222,-0.975,0.2,-0.044,0.465,0.523,-0.074,0.076,-0.002,-0.224,1.096
2024-10-15 13:34:21.420,73212.87,-0.002,0.216,-0.976,0.244,-0.272,0.459,0.53,0.0,-0.103,-0.002,-0.218,1.096
2024-10-15 13:34:21.430,73212.88,-0.002,0.213,-0.977,0.176,-0.498,0.31,0.16,0.04,-0.195,-0.003,-0.215,1.094
2024-10-15 13:34:21.440,73212.89,-0.002,0.213,-0.977,0.125,-0.457,0.146,-0.221,0.091,-0.316,-0.002,-0.215,1.092
2024-10-15 13:34:21.450,73212.9,-0.002,0.216,-0.976,-0.033,-0.307,-0.029,-0.195,0.118,-0.301,-0.002,-0.217,1.089
2024-10-15 13:34:21.459,73212.91,-0.001,0.215,-0.977,-0.123,-0.025,-0.082,0.299,0.177,-0.304,-0.001,-0.217,1.085
2024-10-15 13:34:21.469,73212.92,-0.0,0.212,-0.977,-0.034,0.243,-0.06,0.38,0.144,-0.198,-0.0,-0.213,1.083
2024-10-15 13:34:21.480,73212.93,0.001,0.21,-0.978,0.051,0.345,-0.088,-0.01,0.079,-0.095,0.001,-0.211,1.081
2024-10-15 13:34:21.489,73212.94,0.001,0.211,-0.978,-0.049,0.317,-0.104,-0.223,0.014,0.192,0.001,-0.212,1.082
2024-10-15 13:34:21.500,73212.95,0.002,0.211,-0.977,-0.167,0.44,-0.144,0.119,-0.036,0.394,0.002,-0.213,1.085
2024-10-15 13:34:21.510,73212.96,0.002,0.208,-0.978,-0.238,0.628,-0.149,0.62,-0.031,0.567,0.002,-0.209,1.09
2024-10-15 13:34:21.520,73212.97,0.003,0.201,-0.98,-0.227,0.617,-0.166,0.77,-0.03,0.635,0.003,-0.202,1.096
2024-10-15 13:34:21.529,73212.98,0.004,0.194,-0.981,-0.159,0.282,-0.127,0.659,-0.069,0.582,0.004,-0.195,1.102
2024-10-15 13:34:21.540,73212.99,0.004,0.19,-0.982,-0.067,-0.094,-0.027,0.056,-0.282,0.619,0.004,-0.191,1.108
2024-10-15 13:34:21.550,73213.0,0.002,0.191,-0.982,0.045,-0.272,0.118,-0.26,-0.228,0.468,0.002,-0.192,1.114
2024-10-15 13:34:21.559,73213.01,0.001,0.192,-0.981,0.047,-0.346,0.353,0.203,-0.16,0.251,0.001,-0.193,1.118
2024-10-15 13:34:21.570,73213.02,0.0,0.188,-0.982,0.067,-0.34,0.283,0.471,-0.062,0.107,0.0,-0.189,1.119
2024-10-15 13:34:21.579,73213.03,-0.0,0.184,-0.983,0.109,-0.401,0.063,0.273,0.027,-0.229,-0.0,-0.185,1.119
2024-10-15 13:34:21.589,73213.04,-0.0,0.183,-0.983,0.127,-0.63,-0.001,-0.074,0.023,-0.395,-0.0,-0.184,1.116
2024-10-15 13:34:21.599,73213.049,-0.001,0.185,-0.983,0.16,-0.717,-0.014,-0.199,0.006,-0.534,-0.001,-0.186,1.111
2024-10-15 13:34:21.609,73213.059,-0.002,0.186,-0.982,0.148,-0.515,0.053,-0.083,0.019,-0.547,-0.002,-0.187,1.105
2024-10-15 13:34:21.619,73213.069,-0.003,0.186,-0.983,0.076,-0.175,0.029,0.168,0.043,-0.483,-0.003,-0.187,1.1
2024-10-15 13:34:21.629,73213.079,-0.003,0.181,-0.983,0.008,0.162,-0.016,0.923,0.154,-0.528,-0.003,-0.182,1.095
2024-10-15 13:34:21.639,73213.089,-0.002,0.169,-0.986,0.007,0.413,0.012,1.473,0.258,-0.417,-0.002,-0.169,1.09
2024-10-15 13:34:21.649,73213.099,0.0,0.157,-0.988,0.122,0.49,-0.028,0.742,0.243,-0.293,0.0,-0.158,1.087
2024-10-15 13:34:21.659,73213.109,0.002,0.155,-0.988,0.09,0.285,-0.143,-0.16,0.141,-0.261,0.002,-0.155,1.084
2024-10-15 13:34:21.669,73213.119,0.003,0.158,-0.987,-0.122,0.148,-0.17,-0.506,0.08,0.063,0.003,-0.159,1.083
2024-10-15 13:34:21.679,73213.129,0.004,0.164,-0.987,-0.187,0.394,-0.206,-0.612,0.021,0.297,0.004,-0.164,1.085
2024-10-15 13:34:21.689,73213.139,0.004,0.168,-0.986,-0.242,0.57,-0.165,-0.317,0.014,0.391,0.004,-0.169,1.088
2024-10-15 13:34:21.699,73213.149,0.005,0.17,-0.985,-0.294,0.478,-0.151,-0.033,0.024,0.479,0.005,-0.171,1.093
2024-10-15 13:34:21.709,73213.159,0.006,0.17,-0.985,-0.189,0.241,-0.06,0.012,-0.006,0.475,0.006,-0.171,1.097
2024-10-15 13:34:21.719,73213.169,0.006,0.171,-0.985,-0.09,-0.017,0.06,-0.376,-0.156,0.485,0.006,-0.172,1.102
2024-10-15 13:34:21.729,73213.179,0.005,0.178,-0.984,-0.029,-0.219,0.108,-0.956,-0.264,0.46,0.005,-0.179,1.107
2024-10-15 13:34:21.739,73213.189,0.003,0.186,-0.983,0.002,-0.3,0.256,-0.534,-0.252,0.342,0.003,-0.187,1.111
2024-10-15 13:34:21.749,73213.199,0.001,0.187,-0.982,-0.023,-0.212,0.322,0.376,-0.118,0.293,0.001,-0.188,1.114
2024-10-15 13:34:21.759,73213.209,0.001,0.181,-0.983,0.022,-0.066,0.112,0.547,-0.039,0.21,0.001,-0.182,1.117
2024-10-15 13:34:21.769,73213.219,0.001,0.177,-0.984,0.062,-0.226,0.018,0.266,-0.038,-0.115,0.001,-0.178,1.118
2024-10-15 13:34:21.780,73213.229,0.0,0.176,-0.984,0.129,-0.669,-0.029,0.004,-0.051,-0.336,0.0,-0.177,1.115
2024-10-15 13:34:21.789,73213.239,-0.001,0.177,-0.984,0.206,-0.767,-0.0,-0.123,-0.083,-0.447,-0.001,-0.178,1.111
2024-10-15 13:34:21.799,73213.249,-0.003,0.178,-0.984,0.215,-0.557,0.049,-0.2,-0.079,-0.494,-0.003,-0.179,1.107
2024-10-15 13:34:21.809,73213.259,-0.004,0.181,-0.984,0.158,-0.31,0.032,-0.212,-0.022,-0.479,-0.004,-0.182,1.102
2024-10-15 13:34:21.819,73213.269,-0.005,0.182,-0.983,0.081,-0.041,-0.049,-0.004,0.083,-0.398,-0.005,-0.183,1.097
2024-10-15 13:34:21.829,73213.279,-0.004,0.179,-0.984,0.018,0.267,-0.128,0.672,0.212,-0.463,-0.004,-0.18,1.093
2024-10-15 13:34:21.839,73213.289,-0.002,0.169,-0.986,-0.004,0.477,-0.134,1.099,0.325,-0.471,-0.002,-0.17,1.089
2024-10-15 13:34:21.849,73213.299,0.0,0.162,-0.987,0.077,0.427,-0.111,0.245,0.259,-0.398,0.0,-0.163,1.084
2024-10-15 13:34:21.859,73213.309,0.001,0.165,-0.986,0.089,0.12,-0.088,-0.748,0.108,-0.324,0.001,-0.166,1.081
2024-10-15 13:34:21.869,73213.319,0.002,0.174,-0.985,-0.081,0.0,0.007,-1.08,0.016,0.016,0.002,-0.175,1.079
2024-10-15 13:34:21.879,73213.329,0.002,0.184,-0.983,-0.174,0.367,0.024,-0.753,-0.018,0.267,0.002,-0.185,1.081
2024-10-15 13:34:21.889,73213.339,0.003,0.187,-0.982,-0.275,0.714,0.028,0.059,0.054,0.463,0.003,-0.188,1.085
2024-10-15 13:34:21.899,73213.349,0.004,0.183,-0.983,-0.347,0.775,0.014,0.615,0.056,0.65,0.004,-0.184,1.09
2024-10-15 13:34:21.909,73213.359,0.006,0.177,-0.984,-0.244,0.596,-0.014,0.599,0.005,0.692,0.006,-0.178,1.097
2024-10-15 13:34:21.919,73213.369,0.006,0.175,-0.985,-0.121,0.184,0.017,-0.214,-0.293,0.801,0.006,-0.176,1.105
2024-10-15 13:34:21.929,73213.379,0.005,0.179,-0.984,-0.023,-0.14,0.075,-0.428,-0.271,0.722,0.005,-0.179,1.113
2024-10-15 13:34:21.939,73213.389,0.004,0.179,-0.984,-0.05,-0.164,0.289,0.35,-0.214,0.646,0.004,-0.18,1.12
2024-10-15 13:34:21.949,73213.399,0.003,0.173,-0.985,-0.031,-0.004,0.207,0.727,-0.144,0.626,0.003,-0.174,1.126
2024-10-15 13:34:21.959,73213.409,0.003,0.167,-0.986,0.028,-0.077,0.027,0.54,-0.076,0.326,0.003,-0.168,1.131
2024-10-15 13:34:21.969,73213.419,0.002,0.162,-0.987,0.074,-0.543,-0.026,0.442,-0.048,-0.014,0.002,-0.163,1.133
2024-10-15 13:34:21.979,73213.429,0.002,0.158,-0.987,0.151,-0.909,-0.06,0.49,-0.028,-0.428,0.002,-0.158,1.131
2024-10-15 13:34:21.989,73213.439,0.0,0.155,-0.988,0.232,-0.967,-0.03,0.081,-0.066,-0.614,0.0,-0.155,1.125
2024-10-15 13:34:21.999,73213.449,-0.001,0.157,-0.988,0.267,-0.884,0.02,-0.584,-0.067,-0.751,-0.001,-0.158,1.118
2024-10-15 13:34:22.009,73213.459,-0.003,0.165,-0.986,0.168,-0.672,0.079,-0.939,-0.019,-0.684,-0.003,-0.166,1.111
2024-10-15 13:34:22.019,73213.469,-0.004,0.173,-0.985,0.017,-0.235,0.007,-0.579,0.08,-0.62,-0.004,-0.174,1.105
2024-10-15 13:34:22.029,73213.479,-0.003,0.172,-0.985,-0.054,0.249,-0.088,0.735,0.286,-0.765,-0.003,-0.173,1.098
2024-10-15 13:34:22.039,73213.489,-0.001,0.162,-0.987,-0.015,0.5,-0.128,1.12,0.321,-0.691,-0.001,-0.163,1.09
2024-10-15 13:34:22.049,73213.499,0.0,0.156,-0.988,0.157,0.38,-0.165,-0.005,0.206,-0.651,0.0,-0.157,1.083
2024-10-15 13:34:22.059,73213.509,0.001,0.162,-0.987,0.081,-0.017,-0.113,-1.012,0.071,-0.522,0.001,-0.162,1.077
2024-10-15 13:34:22.069,73213.519,0.0,0.172,-0.985,-0.101,-0.008,-0.044,-0.968,-0.036,-0.163,0.0,-0.173,1.074
2024-10-15 13:34:22.079,73213.529,-0.0,0.18,-0.984,-0.167,0.569,0.028,-0.502,-0.082,0.304,-0.0,-0.181,1.075
2024-10-15 13:34:22.089,73213.539,0.0,0.181,-0.984,-0.234,1.022,0.094,0.379,-0.024,0.533,0.0,-0.182,1.079
2024-10-15 13:34:22.098,73213.549,0.001,0.174,-0.985,-0.289,1.003,0.104,0.899,0.008,0.73,0.001,-0.175,1.086
2024-10-15 13:34:22.109,73213.559,0.002,0.166,-0.986,-0.219,0.764,-0.02,0.711,-0.002,0.765,0.003,-0.166,1.093
2024-10-15 13:34:22.119,73213.569,0.003,0.162,-0.987,-0.155,0.28,-0.102,-0.093,-0.179,0.782,0.003,-0.163,1.101
2024-10-15 13:34:22.129,73213.579,0.002,0.166,-0.986,-0.089,-0.13,-0.077,-0.493,-0.23,0.77,0.002,-0.166,1.109
2024-10-15 13:34:22.138,73213.589,0.001,0.168,-0.986,-0.086,-0.154,0.163,0.08,-0.234,0.756,0.001,-0.169,1.117
2024-10-15 13:34:22.148,73213.599,0.0,0.165,-0.986,-0.062,0.044,0.257,0.466,-0.196,0.819,0.0,-0.166,1.125
2024-10-15 13:34:22.158,73213.609,-0.0,0.161,-0.987,-0.009,0.053,0.184,0.366,-0.17,0.615,-0.0,-0.161,1.132
2024-10-15 13:34:22.168,73213.618,-0.001,0.157,-0.988,0.035,-0.342,0.124,0.361,-0.114,0.318,-0.001,-0.158,1.137
2024-10-15 13:34:22.180,73213.628,-0.002,0.153,-0.988,0.112,-0.747,0.042,0.517,-0.026,-0.046,-0.002,-0.153,1.138
2024-10-15 13:34:22.188,73213.638,-0.002,0.148,-0.989,0.213,-0.881,-0.003,0.402,-0.029,-0.417,-0.002,-0.148,1.136
2024-10-15 13:34:22.198,73213.648,-0.003,0.148,-0.989,0.261,-1.005,-0.039,-0.409,-0.097,-0.632,-0.003,-0.148,1.13
2024-10-15 13:34:22.208,73213.658,-0.005,0.155,-0.988,0.275,-1.061,-0.02,-1.121,-0.083,-0.803,-0.005,-0.156,1.123
2024-10-15 13:34:22.218,73213.668,-0.007,0.167,-0.986,0.147,-0.779,-0.007,-1.253,-0.005,-0.738,-0.007,-0.168,1.115
2024-10-15 13:34:22.228,73213.678,-0.008,0.177,-0.984,-0.002,-0.191,-0.107,-0.584,0.151,-0.74,-0.008,-0.178,1.108
2024-10-15 13:34:22.238,73213.688,-0.006,0.175,-0.985,-0.06,0.314,-0.155,1.011,0.418,-0.936,-0.006,-0.176,1.099
2024-10-15 13:34:22.248,73213.698,-0.004,0.163,-0.987,-0.047,0.54,-0.113,1.138,0.402,-0.773,-0.004,-0.164,1.091
2024-10-15 13:34:22.258,73213.708,-0.002,0.158,-0.987,0.14,0.39,-0.037,-0.277,0.182,-0.701,-0.002,-0.159,1.083
2024-10-15 13:34:22.268,73213.718,-0.002,0.167,-0.986,0.078,-0.087,0.094,-1.291,0.024,-0.46,-0.002,-0.168,1.077
2024-10-15 13:34:22.278,73213.728,-0.002,0.179,-0.984,-0.101,0.02,0.103,-0.953,-0.065,-0.016,-0.003,-0.18,1.075
2024-10-15 13:34:22.288,73213.738,-0.003,0.184,-0.983,-0.178,0.821,0.06,-0.044,-0.038,0.4,-0.003,-0.185,1.077
2024-10-15 13:34:22.298,73213.748,-0.002,0.18,-0.984,-0.26,1.328,0.005,0.88,0.039,0.632,-0.002,-0.181,1.083
2024-10-15 13:34:22.308,73213.758,0.0,0.169,-0.986,-0.286,1.137,-0.041,1.121,0.081,0.757,0.0,-0.17,1.09
2024-10-15 13:34:22.318,73213.768,0.002,0.16,-0.987,-0.187,0.623,-0.115,0.78,0.07,0.74,0.002,-0.16,1.097
2024-10-15 13:34:22.328,73213.778,0.003,0.157,-0.988,-0.105,0.054,-0.114,-0.351,-0.219,0.845,0.003,-0.158,1.105
2024-10-15 13:34:22.338,73213.788,0.002,0.165,-0.986,-0.038,-0.263,-0.055,-1.059,-0.253,0.859,0.002,-0.166,1.114
2024-10-15 13:34:22.348,73213.798,0.001,0.171,-0.985,-0.083,-0.218,0.287,-0.022,-0.228,0.783,0.001,-0.172,1.122
2024-10-15 13:34:22.358,73213.808,0.0,0.166,-0.986,-0.101,0.033,0.333,0.84,-0.164,0.824,0.0,-0.167,1.13
2024-10-15 13:34:22.368,73213.818,0.0,0.159,-0.987,0.017,0.12,0.093,0.541,-0.094,0.551,0.0,-0.16,1.138
2024-10-15 13:34:22.378,73213.828,-0.0,0.156,-0.988,0.051,-0.417,0.059,0.041,-0.08,0.154,-0.0,-0.157,1.141
2024-10-15 13:34:22.388,73213.838,-0.001,0.156,-0.988,0.089,-1.054,-0.067,-0.017,-0.014,-0.242,-0.001,-0.157,1.141
2024-10-15 13:34:22.398,73213.848,-0.002,0.156,-0.988,0.168,-1.062,-0.079,-0.012,-0.025,-0.545,-0.002,-0.157,1.137
2024-10-15 13:34:22.408,73213.858,-0.003,0.159,-0.987,0.213,-0.888,-0.035,-0.598,-0.055,-0.711,-0.003,-0.16,1.13
2024-10-15 13:34:22.418,73213.868,-0.005,0.168,-0.986,0.222,-0.82,0.068,-1.114,-0.022,-0.816,-0.005,-0.168,1.122
2024-10-15 13:34:22.428,73213.878,-0.006,0.179,-0.984,0.104,-0.565,0.092,-1.156,0.053,-0.732,-0.006,-0.18,1.114
2024-10-15 13:34:22.438,73213.888,-0.006,0.186,-0.983,-0.011,-0.063,-0.009,-0.114,0.263,-0.908,-0.006,-0.187,1.106
2024-10-15 13:34:22.448,73213.898,-0.005,0.182,-0.983,-0.055,0.315,-0.096,0.815,0.374,-0.866,-0.005,-0.183,1.097
2024-10-15 13:34:22.458,73213.908,-0.003,0.176,-0.984,0.061,0.413,-0.153,0.274,0.306,-0.775,-0.003,-0.176,1.089
2024-10-15 13:34:22.468,73213.918,-0.002,0.177,-0.984,0.151,0.161,-0.095,-0.579,0.177,-0.744,-0.002,-0.178,1.081
2024-10-15 13:34:22.478,73213.928,-0.001,0.184,-0.983,0.011,0.022,-0.006,-0.711,0.104,-0.373,-0.001,-0.185,1.075
2024-10-15 13:34:22.487,73213.938,-0.001,0.189,-0.982,-0.107,0.49,-0.011,-0.217,0.02,0.024,-0.001,-0.19,1.074
2024-10-15 13:34:22.497,73213.948,-0.001,0.19,-0.982,-0.196,1.039,0.002,0.161,-0.051,0.514,-0.001,-0.191,1.077
2024-10-15 13:34:22.508,73213.958,0.0,0.185,-0.983,-0.249,1.187,0.008,0.759,0.023,0.68,0.0,-0.186,1.083
2024-10-15 13:34:22.517,73213.968,0.002,0.175,-0.985,-0.251,0.934,0.023,1.157,0.049,0.813,0.002,-0.176,1.091
2024-10-15 13:34:22.527,73213.978,0.004,0.165,-0.986,-0.182,0.582,-0.027,0.811,-0.014,0.853,0.004,-0.166,1.099
2024-10-15 13:34:22.538,73213.988,0.004,0.164,-0.987,-0.082,0.1,-0.044,-0.539,-0.332,0.97,0.004,-0.164,1.109
2024-10-15 13:34:22.548,73213.998,0.002,0.17,-0.985,-0.023,-0.299,0.13,-0.504,-0.278,0.766,0.002,-0.171,1.118
2024-10-15 13:34:22.558,73214.008,0.001,0.168,-0.986,-0.098,-0.305,0.429,0.836,-0.179,0.688,0.001,-0.169,1.125
2024-10-15 13:34:22.568,73214.018,0.001,0.159,-0.987,-0.036,0.01,0.147,0.866,-0.141,0.62,0.001,-0.159,1.132
2024-10-15 13:34:22.578,73214.028,0.0,0.153,-0.988,0.021,-0.199,-0.021,0.203,-0.091,0.148,0.0,-0.154,1.136
2024-10-15 13:34:22.587,73214.038,-0.001,0.153,-0.988,0.041,-0.958,-0.064,-0.136,-0.052,-0.197,-0.001,-0.154,1.135
2024-10-15 13:34:22.597,73214.048,-0.002,0.154,-0.988,0.103,-1.164,-0.109,-0.123,-0.027,-0.49,-0.002,-0.155,1.132
2024-10-15 13:34:22.608,73214.058,-0.003,0.157,-0.988,0.171,-0.834,-0.065,-0.52,-0.052,-0.638,-0.003,-0.158,1.126
2024-10-15 13:34:22.618,73214.068,-0.004,0.165,-0.986,0.189,-0.664,0.042,-0.937,-0.056,-0.749,-0.005,-0.166,1.119
2024-10-15 13:34:22.628,73214.078,-0.006,0.174,-0.985,0.131,-0.492,0.104,-0.994,-0.009,-0.671,-0.006,-0.175,1.112
2024-10-15 13:34:22.638,73214.088,-0.007,0.182,-0.983,0.038,-0.052,0.047,-0.544,0.132,-0.604,-0.007,-0.184,1.105
2024-10-15 13:34:22.648,73214.098,-0.005,0.182,-0.983,-0.023,0.355,-0.032,0.681,0.379,-0.728,-0.005,-0.183,1.099
2024-10-15 13:34:22.657,73214.108,-0.003,0.173,-0.985,-0.054,0.516,-0.101,0.947,0.418,-0.659,-0.003,-0.174,1.092
2024-10-15 13:34:22.667,73214.118,-0.0,0.168,-0.986,0.054,0.384,-0.135,-0.002,0.266,-0.63,-0.0,-0.169,1.086
2024-10-15 13:34:22.678,73214.128,0.0,0.172,-0.985,0.069,0.022,0.023,-0.82,0.084,-0.424,0.0,-0.173,1.08
2024-10-15 13:34:22.688,73214.138,0.0,0.181,-0.983,-0.009,-0.006,0.107,-0.913,-0.042,-0.008,0.0,-0.182,1.078
2024-10-15 13:34:22.698,73214.148,-0.0,0.188,-0.982,-0.065,0.545,0.132,-0.312,-0.059,0.322,-0.0,-0.189,1.08
2024-10-15 13:34:22.707,73214.158,0.001,0.187,-0.982,-0.17,0.99,0.043,0.626,0.016,0.554,0.001,-0.188,1.085
2024-10-15 13:34:22.717,73214.168,0.002,0.178,-0.984,-0.257,0.967,-0.139,1.009,0.064,0.718,0.002,-0.179,1.091
2024-10-15 13:34:22.727,73214.178,0.004,0.169,-0.986,-0.228,0.677,-0.259,0.815,0.048,0.727,0.004,-0.17,1.099
2024-10-15 13:34:22.737,73214.188,0.005,0.165,-0.986,-0.132,0.134,-0.215,-0.126,-0.208,0.795,0.005,-0.166,1.107
2024-10-15 13:34:22.747,73214.197,0.004,0.169,-0.986,-0.013,-0.235,-0.026,-0.591,-0.245,0.719,0.004,-0.17,1.114
2024-10-15 13:34:22.757,73214.207,0.003,0.171,-0.985,-0.037,-0.285,0.347,0.196,-0.197,0.592,0.003,-0.172,1.121
2024-10-15 13:34:22.767,73214.217,0.002,0.167,-0.986,-0.051,-0.129,0.366,0.631,-0.163,0.58,0.002,-0.168,1.127
2024-10-15 13:34:22.777,73214.227,0.001,0.161,-0.987,0.024,-0.144,0.158,0.42,-0.084,0.218,0.001,-0.162,1.131
2024-10-15 13:34:22.788,73214.237,0.001,0.159,-0.987,0.055,-0.638,0.078,0.112,-0.033,-0.162,0.001,-0.16,1.131
2024-10-15 13:34:22.797,73214.247,-0.0,0.159,-0.987,0.11,-1.035,-0.07,-0.127,-0.009,-0.493,-0.0,-0.159,1.128
2024-10-15 13:34:22.807,73214.257,-0.001,0.162,-0.987,0.166,-0.984,-0.106,-0.62,-0.027,-0.675,-0.001,-0.163,1.122
2024-10-15 13:34:22.818,73214.267,-0.003,0.17,-0.985,0.161,-0.788,-0.032,-0.992,-0.02,-0.8,-0.003,-0.171,1.114
2024-10-15 13:34:22.827,73214.277,-0.004,0.181,-0.983,0.118,-0.557,0.037,-1.141,0.065,-0.773,-0.004,-0.182,1.106
2024-10-15 13:34:22.837,73214.287,-0.004,0.189,-0.982,0.071,-0.157,-0.006,-0.355,0.282,-0.933,-0.004,-0.19,1.098
2024-10-15 13:34:22.847,73214.297,-0.002,0.187,-0.982,-0.014,0.245,-0.086,0.741,0.42,-0.924,-0.002,-0.188,1.088
2024-10-15 13:34:22.857,73214.307,0.0,0.18,-0.984,0.003,0.434,-0.144,0.468,0.37,-0.807,0.0,-0.181,1.08
2024-10-15 13:34:22.867,73214.317,0.002,0.18,-0.984,0.122,0.221,-0.065,-0.343,0.242,-0.82,0.002,-0.18,1.071
2024-10-15 13:34:22.877,73214.327,0.002,0.185,-0.983,0.044,-0.016,0.073,-0.66,0.082,-0.474,0.002,-0.186,1.065
2024-10-15 13:34:22.887,73214.337,0.002,0.191,-0.982,-0.063,0.276,0.008,-0.653,-0.039,-0.056,0.002,-0.193,1.062
2024-10-15 13:34:22.897,73214.347,0.002,0.195,-0.981,-0.109,0.78,0.018,-0.207,-0.11,0.356,0.002,-0.197,1.064
2024-10-15 13:34:22.907,73214.357,0.002,0.194,-0.981,-0.139,1.003,0.014,0.5,-0.05,0.55,0.002,-0.195,1.069
2024-10-15 13:34:22.917,73214.367,0.003,0.186,-0.982,-0.167,0.978,-0.026,0.943,0.009,0.724,0.003,-0.187,1.075
2024-10-15 13:34:22.927,73214.377,0.004,0.177,-0.984,-0.198,0.732,-0.121,0.821,0.007,0.753,0.004,-0.178,1.083
2024-10-15 13:34:22.937,73214.387,0.005,0.173,-0.985,-0.146,0.218,-0.161,-0.013,-0.176,0.762,0.005,-0.174,1.091
2024-10-15 13:34:22.948,73214.397,0.004,0.177,-0.984,-0.048,-0.225,-0.062,-0.763,-0.272,0.727,0.004,-0.178,1.099
2024-10-15 13:34:22.957,73214.407,0.002,0.183,-0.983,-0.05,-0.313,0.238,-0.194,-0.269,0.606,0.002,-0.184,1.105
2024-10-15 13:34:22.967,73214.417,0.001,0.181,-0.984,-0.091,-0.119,0.366,0.511,-0.193,0.598,0.001,-0.182,1.111
2024-10-15 13:34:22.977,73214.427,0.0,0.176,-0.984,-0.008,0.011,0.176,0.377,-0.113,0.361,0.0,-0.177,1.116
2024-10-15 13:34:22.987,73214.437,-0.0,0.174,-0.985,0.026,-0.356,0.12,0.003,-0.073,0.023,-0.0,-0.175,1.118
2024-10-15 13:34:22.997,73214.447,-0.001,0.175,-0.985,0.061,-0.894,0.009,-0.095,-0.013,-0.368,-0.001,-0.176,1.117
2024-10-15 13:34:23.007,73214.457,-0.002,0.177,-0.984,0.123,-0.973,-0.023,-0.263,-0.017,-0.578,-0.002,-0.177,1.112
2024-10-15 13:34:23.017,73214.467,-0.003,0.181,-0.983,0.155,-0.787,-0.025,-0.636,-0.032,-0.731,-0.004,-0.182,1.105
2024-10-15 13:34:23.027,73214.477,-0.005,0.188,-0.982,0.127,-0.624,-0.001,-0.874,0.018,-0.767,-0.005,-0.19,1.097
2024-10-15 13:34:23.037,73214.487,-0.006,0.197,-0.98,0.039,-0.312,-0.002,-0.85,0.107,-0.665,-0.006,-0.198,1.09
2024-10-15 13:34:23.047,73214.497,-0.005,0.202,-0.979,-0.013,0.123,-0.057,0.008,0.298,-0.764,-0.005,-0.203,1.083
2024-10-15 13:34:23.057,73214.507,-0.004,0.198,-0.98,-0.029,0.421,-0.028,0.635,0.291,-0.612,-0.004,-0.199,1.076
2024-10-15 13:34:23.067,73214.517,-0.002,0.194,-0.981,0.101,0.508,-0.047,-0.091,0.161,-0.416,-0.003,-0.196,1.071
2024-10-15 13:34:23.077,73214.527,-0.002,0.199,-0.98,0.124,0.297,-0.052,-0.73,0.026,-0.269,-0.002,-0.2,1.067
2024-10-15 13:34:23.087,73214.537,-0.002,0.205,-0.979,-0.082,0.282,-0.063,-0.411,-0.026,0.183,-0.003,-0.206,1.067
2024-10-15 13:34:23.097,73214.547,-0.002,0.205,-0.979,-0.196,0.812,-0.094,0.407,0.026,0.45,-0.002,-0.206,1.07
2024-10-15 13:34:23.107,73214.557,-0.0,0.198,-0.98,-0.241,1.121,-0.072,1.0,0.055,0.674,-0.0,-0.199,1.076
2024-10-15 13:34:23.117,73214.567,0.002,0.187,-0.982,-0.235,0.84,-0.077,1.012,0.043,0.761,0.002,-0.188,1.084
2024-10-15 13:34:23.127,73214.577,0.003,0.18,-0.984,-0.087,0.319,0.013,0.415,-0.103,0.739,0.003,-0.181,1.091
2024-10-15 13:34:23.137,73214.587,0.002,0.179,-0.984,0.02,-0.172,0.092,-0.264,-0.204,0.627,0.002,-0.18,1.098
2024-10-15 13:34:23.147,73214.597,0.001,0.182,-0.983,0.0,-0.417,0.25,0.017,-0.224,0.477,0.001,-0.183,1.104
2024-10-15 13:34:23.157,73214.607,-0.0,0.178,-0.984,-0.063,-0.332,0.323,0.593,-0.183,0.431,-0.0,-0.179,1.108
2024-10-15 13:34:23.167,73214.617,-0.001,0.172,-0.985,-0.028,-0.167,0.118,0.555,-0.085,0.225,-0.001,-0.173,1.112
2024-10-15 13:34:23.176,73214.627,-0.001,0.169,-0.986,-0.013,-0.373,-0.005,0.143,-0.057,-0.009,-0.001,-0.17,1.113
2024-10-15 13:34:23.187,73214.637,-0.002,0.169,-0.986,0.02,-0.768,-0.102,-0.126,-0.032,-0.31,-0.002,-0.17,1.111
2024-10-15 13:34:23.196,73214.647,-0.003,0.171,-0.985,0.102,-0.854,-0.082,-0.31,-0.026,-0.483,-0.003,-0.172,1.107
2024-10-15 13:34:23.207,73214.657,-0.004,0.175,-0.984,0.169,-0.717,0.002,-0.605,-0.058,-0.604,-0.004,-0.176,1.101
2024-10-15 13:34:23.216,73214.667,-0.006,0.182,-0.983,0.196,-0.593,0.115,-0.798,-0.05,-0.667,-0.006,-0.183,1.095
2024-10-15 13:34:23.226,73214.677,-0.007,0.19,-0.982,0.171,-0.385,0.153,-0.802,0.037,-0.638,-0.008,-0.192,1.088
2024-10-15 13:34:23.236,73214.687,-0.007,0.196,-0.981,0.116,-0.027,0.057,-0.31,0.218,-0.651,-0.008,-0.197,1.082
2024-10-15 13:34:23.246,73214.697,-0.006,0.194,-0.981,0.006,0.307,-0.072,0.797,0.425,-0.768,-0.006,-0.195,1.074
2024-10-15 13:34:23.257,73214.707,-0.003,0.184,-0.983,-0.045,0.485,-0.137,1.034,0.458,-0.753,-0.003,-0.185,1.067
2024-10-15 13:34:23.267,73214.717,-0.0,0.179,-0.984,0.052,0.327,-0.195,-0.052,0.283,-0.721,-0.0,-0.18,1.059
2024-10-15 13:34:23.276,73214.727,0.0,0.184,-0.983,0.021,0.004,-0.13,-0.944,0.073,-0.454,0.0,-0.185,1.053
2024-10-15 13:34:23.286,73214.737,-0.0,0.194,-0.981,-0.114,0.098,-0.058,-0.922,-0.073,0.027,-0.0,-0.195,1.051
2024-10-15 13:34:23.297,73214.747,-0.001,0.2,-0.98,-0.185,0.74,-0.027,-0.21,-0.112,0.441,-0.001,-0.201,1.053
2024-10-15 13:34:23.306,73214.757,0.0,0.197,-0.98,-0.251,1.209,0.003,0.872,0.009,0.724,0.0,-0.198,1.059
2024-10-15 13:34:23.316,73214.766,0.002,0.185,-0.983,-0.228,1.096,0.05,1.436,0.037,0.882,0.002,-0.186,1.067
2024-10-15 13:34:23.326,73214.776,0.003,0.172,-0.985,-0.106,0.66,0.048,0.893,-0.098,0.91,0.003,-0.173,1.077
2024-10-15 13:34:23.336,73214.786,0.003,0.169,-0.986,-0.002,0.001,0.052,-0.099,-0.226,0.751,0.003,-0.17,1.085
2024-10-15 13:34:23.346,73214.796,0.002,0.171,-0.985,0.016,-0.513,0.204,-0.036,-0.229,0.52,0.002,-0.171,1.092
2024-10-15 13:34:23.357,73214.806,0.001,0.168,-0.986,-0.034,-0.579,0.258,0.584,-0.123,0.381,0.001,-0.169,1.096
2024-10-15 13:34:23.366,73214.816,0.0,0.162,-0.987,0.005,-0.359,0.082,0.488,-0.043,0.105,0.0,-0.163,1.099
2024-10-15 13:34:23.376,73214.826,-0.0,0.16,-0.987,0.066,-0.623,0.005,-0.057,-0.008,-0.359,-0.0,-0.16,1.097
2024-10-15 13:34:23.386,73214.836,-0.001,0.164,-0.987,0.131,-1.1,-0.054,-0.709,-0.012,-0.625,-0.001,-0.164,1.092
2024-10-15 13:34:23.396,73214.846,-0.003,0.172,-0.985,0.141,-1.028,-0.028,-1.067,-0.056,-0.704,-0.003,-0.173,1.085
2024-10-15 13:34:23.407,73214.856,-0.004,0.184,-0.983,0.062,-0.547,0.045,-1.315,-0.083,-0.533,-0.005,-0.185,1.079
2024-10-15 13:34:23.416,73214.866,-0.006,0.197,-0.98,-0.018,0.043,0.038,-1.18,-0.086,-0.242,-0.006,-0.198,1.075
2024-10-15 13:34:23.426,73214.876,-0.007,0.205,-0.979,-0.115,0.564,-0.033,-0.348,-0.023,0.078,-0.007,-0.206,1.074
2024-10-15 13:34:23.436,73214.886,-0.006,0.203,-0.979,-0.145,0.972,-0.089,0.549,0.064,0.341,-0.006,-0.205,1.076
2024-10-15 13:34:23.446,73214.896,-0.004,0.196,-0.981,-0.049,1.115,-0.104,0.77,0.091,0.43,-0.005,-0.197,1.08
2024-10-15 13:34:23.456,73214.906,-0.003,0.189,-0.982,0.029,0.678,-0.092,0.623,0.103,0.381,-0.003,-0.19,1.085
2024-10-15 13:34:23.467,73214.916,-0.001,0.184,-0.983,0.083,0.085,-0.036,0.462,0.097,0.241,-0.001,-0.185,1.088
2024-10-15 13:34:23.475,73214.926,-0.0,0.18,-0.984,0.115,-0.245,0.026,0.26,0.068,0.105,-0.0,-0.181,1.089
2024-10-15 13:34:23.485,73214.936,0.0,0.179,-0.984,0.083,-0.402,0.057,-0.046,0.008,-0.042,0.0,-0.18,1.09
2024-10-15 13:34:23.495,73214.946,-0.0,0.181,-0.983,0.034,-0.474,0.086,-0.302,-0.073,-0.096,-0.0,-0.182,1.089
2024-10-15 13:34:23.505,73214.956,-0.001,0.185,-0.983,-0.013,-0.402,0.08,-0.405,-0.113,-0.04,-0.001,-0.186,1.088
2024-10-15 13:34:23.516,73214.966,-0.002,0.188,-0.982,-0.09,-0.159,0.005,-0.173,-0.098,0.08,-0.002,-0.189,1.088
2024-10-15 13:34:23.526,73214.976,-0.002,0.188,-0.982,-0.139,0.129,-0.095,0.105,-0.027,0.196,-0.003,-0.189,1.09
2024-10-15 13:34:23.536,73214.986,-0.002,0.186,-0.983,-0.128,0.311,-0.157,0.199,-0.037,0.272,-0.002,-0.187,1.092
2024-10-15 13:34:23.546,73214.996,-0.002,0.184,-0.983,-0.057,0.305,-0.079,0.183,-0.061,0.327,-0.002,-0.185,1.095
2024-10-15 13:34:23.556,73215.006,-0.003,0.182,-0.983,0.023,0.232,0.108,0.313,-0.085,0.323,-0.003,-0.183,1.099
2024-10-15 13:34:23.566,73215.016,-0.003,0.178,-0.984,0.036,0.083,0.209,0.424,-0.046,0.227,-0.003,-0.179,1.101
2024-10-15 13:34:23.576,73215.026,-0.003,0.174,-0.985,0.053,-0.091,0.137,0.357,0.021,0.079,-0.003,-0.175,1.103
2024-10-15 13:34:23.587,73215.036,-0.002,0.172,-0.985,0.058,-0.29,0.085,0.171,0.051,-0.158,-0.002,-0.173,1.103
2024-10-15 13:34:23.596,73215.046,-0.002,0.172,-0.985,0.069,-0.499,0.048,-0.057,0.06,-0.294,-0.002,-0.172,1.1
2024-10-15 13:34:23.606,73215.056,-0.002,0.173,-0.985,0.091,-0.496,0.046,-0.326,0.035,-0.371,-0.002,-0.174,1.097
2024-10-15 13:34:23.616,73215.066,-0.003,0.178,-0.984,0.067,-0.362,0.059,-0.522,-0.001,-0.378,-0.003,-0.179,1.093
2024-10-15 13:34:23.626,73215.076,-0.003,0.183,-0.983,0.035,-0.141,0.072,-0.546,-0.035,-0.243,-0.003,-0.184,1.09
2024-10-15 13:34:23.636,73215.086,-0.004,0.188,-0.982,0.029,0.155,0.061,-0.419,-0.086,-0.113,-0.004,-0.189,1.088
2024-10-15 13:34:23.646,73215.096,-0.005,0.191,-0.982,-0.007,0.323,-0.05,-0.089,-0.066,-0.002,-0.005,-0.192,1.087
2024-10-15 13:34:23.656,73215.106,-0.006,0.189,-0.982,-0.091,0.413,-0.176,0.331,-0.022,0.079,-0.006,-0.19,1.088
2024-10-15 13:34:23.666,73215.116,-0.006,0.185,-0.983,-0.122,0.4,-0.222,0.512,-0.013,0.112,-0.006,-0.186,1.089
2024-10-15 13:34:23.676,73215.126,-0.005,0.18,-0.984,-0.063,0.222,-0.158,0.427,-0.018,0.074,-0.006,-0.181,1.09
2024-10-15 13:34:23.686,73215.136,-0.006,0.177,-0.984,-0.0,-0.035,-0.029,0.193,-0.021,0.025,-0.006,-0.178,1.09
2024-10-15 13:34:23.695,73215.146,-0.006,0.176,-0.984,0.014,-0.191,0.07,-0.048,-0.028,-0.025,-0.006,-0.177,1.09
2024-10-15 13:34:23.706,73215.156,-0.006,0.178,-0.984,0.011,-0.224,0.091,-0.259,0.035,-0.038,-0.006,-0.179,1.09
2024-10-15 13:34:23.716,73215.166,-0.005,0.181,-0.983,-0.029,-0.16,0.038,-0.416,0.098,-0.028,-0.005,-0.182,1.09
2024-10-15 13:34:23.726,73215.176,-0.004,0.186,-0.983,-0.106,-0.056,-0.024,-0.49,0.184,-0.042,-0.004,-0.187,1.089
2024-10-15 13:34:23.735,73215.186,-0.002,0.191,-0.982,-0.123,0.012,-0.037,-0.606,0.274,-0.073,-0.002,-0.192,1.089
2024-10-15 13:34:23.746,73215.196,0.001,0.198,-0.98,-0.112,-0.004,-0.003,-0.791,0.35,-0.113,0.001,-0.199,1.088
2024-10-15 13:34:23.755,73215.206,0.004,0.207,-0.978,-0.108,-0.066,0.05,-1.158,0.36,-0.155,0.004,-0.209,1.086
2024-10-15 13:34:23.766,73215.216,0.007,0.221,-0.975,-0.102,-0.109,0.061,-1.639,0.351,-0.188,0.008,-0.223,1.085
2024-10-15 13:34:23.776,73215.226,0.011,0.24,-0.971,-0.104,-0.117,0.119,-2.261,0.437,-0.178,0.011,-0.242,1.083
2024-10-15 13:34:23.786,73215.236,0.015,0.264,-0.964,-0.081,-0.141,0.134,-2.703,0.462,-0.228,0.015,-0.267,1.081
2024-10-15 13:34:23.796,73215.246,0.018,0.291,-0.957,-0.054,-0.141,-0.017,-2.897,0.461,-0.277,0.019,-0.295,1.079
2024-10-15 13:34:23.806,73215.256,0.022,0.319,-0.948,-0.051,-0.107,-0.105,-2.936,0.48,-0.316,0.023,-0.324,1.077
2024-10-15 13:34:23.816,73215.266,0.026,0.346,-0.938,-0.007,-0.064,-0.098,-2.859,0.516,-0.338,0.027,-0.353,1.075
2024-10-15 13:34:23.826,73215.276,0.029,0.372,-0.928,0.024,-0.03,-0.072,-2.574,0.543,-0.341,0.032,-0.381,1.072
2024-10-15 13:34:23.836,73215.286,0.033,0.393,-0.919,0.032,0.027,-0.031,-2.011,0.592,-0.34,0.036,-0.404,1.069
2024-10-15 13:34:23.846,73215.296,0.037,0.408,-0.912,0.039,0.119,0.013,-1.293,0.619,-0.314,0.041,-0.421,1.067
2024-10-15 13:34:23.856,73215.306,0.042,0.417,-0.908,0.04,0.205,0.041,-0.602,0.617,-0.297,0.046,-0.43,1.065
2024-10-15 13:34:23.865,73215.316,0.046,0.42,-0.906,0.052,0.204,0.055,-0.093,0.59,-0.294,0.051,-0.434,1.062
2024-10-15 13:34:23.875,73215.326,0.05,0.42,-0.906,0.069,0.148,0.067,0.196,0.517,-0.285,0.055,-0.433,1.059
2024-10-15 13:34:23.885,73215.336,0.053,0.418,-0.907,0.083,0.076,0.068,0.293,0.414,-0.26,0.058,-0.431,1.057
2024-10-15 13:34:23.895,73215.345,0.055,0.415,-0.908,0.094,0.02,0.051,0.231,0.287,-0.262,0.06,-0.428,1.054
2024-10-15 13:34:23.906,73215.355,0.056,0.414,-0.909,0.087,-0.021,0.07,0.095,0.118,-0.253,0.061,-0.427,1.052
2024-10-15 13:34:23.915,73215.365,0.055,0.414,-0.909,0.095,-0.058,0.109,-0.014,-0.055,-0.247,0.06,-0.426,1.049
2024-10-15 13:34:23.925,73215.375,0.053,0.414,-0.909,0.122,-0.085,0.115,-0.048,-0.176,-0.253,0.058,-0.427,1.047
2024-10-15 13:34:23.935,73215.385,0.05,0.415,-0.909,0.11,-0.077,0.083,-0.044,-0.242,-0.223,0.055,-0.428,1.045
2024-10-15 13:34:23.945,73215.395,0.047,0.415,-0.909,0.069,-0.036,0.093,0.015,-0.274,-0.183,0.051,-0.428,1.043
2024-10-15 13:34:23.955,73215.405,0.044,0.414,-0.909,0.057,-0.017,0.138,0.103,-0.271,-0.145,0.048,-0.427,1.042
2024-10-15 13:34:23.965,73215.415,0.041,0.413,-0.91,0.057,-0.016,0.143,0.234,-0.251,-0.109,0.045,-0.426,1.041
2024-10-15 13:34:23.976,73215.425,0.038,0.41,-0.911,0.032,0.017,0.099,0.429,-0.221,-0.069,0.042,-0.423,1.04
2024-10-15 13:34:23.985,73215.435,0.036,0.405,-0.913,0.003,0.092,0.033,0.591,-0.192,-0.005,0.04,-0.417,1.039
2024-10-15 13:34:23.995,73215.445,0.035,0.399,-0.916,-0.009,0.148,-0.0,0.713,-0.172,0.07,0.038,-0.411,1.04
2024-10-15 13:34:24.005,73215.455,0.034,0.393,-0.919,-0.005,0.142,-0.016,0.696,-0.153,0.163,0.036,-0.403,1.041
2024-10-15 13:34:24.023,73215.465,0.033,0.387,-0.922,0.005,0.151,-0.047,0.545,-0.147,0.188,0.036,-0.397,1.043
2024-10-15 13:34:24.028,73215.475,0.032,0.383,-0.923,0.004,0.107,-0.068,0.392,-0.162,0.25,0.035,-0.393,1.046
2024-10-15 13:34:24.035,73215.485,0.032,0.379,-0.925,0.014,0.092,-0.076,0.286,-0.185,0.322,0.034,-0.389,1.049
2024-10-15 13:34:24.045,73215.495,0.031,0.377,-0.926,0.04,0.128,-0.064,0.198,-0.195,0.371,0.034,-0.387,1.053
2024-10-15 13:34:24.055,73215.505,0.031,0.375,-0.927,0.059,0.089,-0.047,0.231,-0.186,0.365,0.033,-0.384,1.057
2024-10-15 13:34:24.065,73215.515,0.031,0.372,-0.928,0.059,0.05,-0.043,0.356,-0.131,0.354,0.033,-0.381,1.061
2024-10-15 13:34:24.075,73215.525,0.031,0.368,-0.929,0.037,0.067,-0.031,0.558,-0.043,0.33,0.034,-0.377,1.065
2024-10-15 13:34:24.085,73215.535,0.032,0.362,-0.932,0.008,0.058,-0.032,0.738,0.036,0.288,0.035,-0.37,1.068
2024-10-15 13:34:24.095,73215.545,0.034,0.354,-0.935,0.0,-0.007,-0.05,0.831,0.132,0.215,0.036,-0.362,1.071
2024-10-15 13:34:24.106,73215.555,0.036,0.347,-0.937,0.007,-0.082,-0.076,0.8,0.186,0.166,0.039,-0.354,1.072
2024-10-15 13:34:24.115,73215.565,0.038,0.34,-0.94,0.003,-0.144,-0.094,0.623,0.195,0.121,0.041,-0.347,1.074
2024-10-15 13:34:24.125,73215.575,0.041,0.335,-0.941,0.003,-0.157,-0.075,0.394,0.165,0.094,0.043,-0.342,1.075
2024-10-15 13:34:24.135,73215.585,0.042,0.332,-0.942,0.012,-0.147,-0.053,0.157,0.122,0.099,0.045,-0.339,1.076
2024-10-15 13:34:24.145,73215.595,0.043,0.332,-0.942,0.018,-0.137,-0.057,-0.031,0.041,0.109,0.046,-0.338,1.077
2024-10-15 13:34:24.155,73215.605,0.044,0.332,-0.942,0.006,-0.123,-0.043,-0.098,-0.042,0.145,0.046,-0.339,1.079
2024-10-15 13:34:24.165,73215.615,0.044,0.333,-0.942,0.004,-0.059,0.007,-0.032,-0.104,0.171,0.046,-0.339,1.081
2024-10-15 13:34:24.175,73215.625,0.043,0.333,-0.942,0.01,0.033,0.054,0.119,-0.14,0.199,0.046,-0.339,1.083
2024-10-15 13:34:24.185,73215.635,0.042,0.33,-0.943,-0.003,0.073,0.076,0.336,-0.182,0.21,0.045,-0.337,1.085
2024-10-15 13:34:24.195,73215.645,0.041,0.326,-0.944,-0.007,0.08,0.084,0.526,-0.211,0.238,0.043,-0.332,1.087
2024-10-15 13:34:24.205,73215.655,0.04,0.32,-0.946,0.003,0.086,0.091,0.662,-0.228,0.253,0.042,-0.326,1.09
2024-10-15 13:34:24.215,73215.665,0.038,0.314,-0.949,0.01,0.061,0.105,0.699,-0.251,0.267,0.04,-0.319,1.092
2024-10-15 13:34:24.225,73215.675,0.037,0.307,-0.951,0.025,0.032,0.116,0.737,-0.281,0.236,0.039,-0.312,1.095
2024-10-15 13:34:24.235,73215.685,0.035,0.299,-0.953,0.029,0.025,0.109,0.834,-0.288,0.193,0.036,-0.304,1.096
2024-10-15 13:34:24.244,73215.695,0.032,0.291,-0.956,0.025,0.027,0.085,0.94,-0.287,0.148,0.034,-0.295,1.098
2024-10-15 13:34:24.255,73215.705,0.03,0.281,-0.959,0.011,0.027,0.065,1.046,-0.291,0.083,0.031,-0.285,1.099
2024-10-15 13:34:24.265,73215.715,0.027,0.271,-0.962,0.003,0.006,0.044,1.142,-0.292,0.032,0.028,-0.274,1.099
2024-10-15 13:34:24.275,73215.725,0.024,0.26,-0.965,-0.011,-0.0,0.034,1.193,-0.319,-0.007,0.025,-0.263,1.099
2024-10-15 13:34:24.285,73215.735,0.021,0.248,-0.968,-0.023,0.006,0.043,1.151,-0.4,-0.027,0.022,-0.251,1.099
2024-10-15 13:34:24.295,73215.745,0.016,0.238,-0.971,-0.02,-0.007,0.036,0.958,-0.507,-0.032,0.017,-0.24,1.098
2024-10-15 13:34:24.305,73215.755,0.012,0.23,-0.973,-0.028,-0.015,0.014,0.519,-0.334,0.129,0.013,-0.232,1.098
2024-10-15 13:34:24.315,73215.765,0.011,0.228,-0.974,-0.076,-0.07,0.046,-0.098,-0.118,0.249,0.011,-0.23,1.1
2024-10-15 13:34:24.325,73215.775,0.01,0.231,-0.973,-0.14,-0.108,-0.251,-0.426,-0.066,0.197,0.011,-0.233,1.103
2024-10-15 13:34:24.334,73215.785,0.01,0.234,-0.972,-0.235,-0.062,-0.512,-0.211,-0.022,0.238,0.011,-0.236,1.105
2024-10-15 13:34:24.345,73215.795,0.011,0.235,-0.972,-0.181,0.096,-0.407,-0.113,0.01,0.248,0.011,-0.238,1.107
2024-10-15 13:34:24.355,73215.805,0.011,0.238,-0.971,-0.01,0.108,-0.247,-0.447,-0.045,0.226,0.012,-0.24,1.11
2024-10-15 13:34:24.365,73215.815,0.011,0.244,-0.97,0.04,-0.09,-0.1,-0.728,-0.078,0.193,0.012,-0.246,1.112
2024-10-15 13:34:24.375,73215.825,0.011,0.25,-0.968,0.041,-0.199,0.105,-0.569,-0.09,0.144,0.011,-0.253,1.114
2024-10-15 13:34:24.385,73215.835,0.01,0.254,-0.967,0.091,-0.141,0.27,-0.078,-0.061,0.004,0.011,-0.256,1.115
2024-10-15 13:34:24.394,73215.845,0.01,0.253,-0.968,0.159,-0.108,0.317,0.354,-0.011,-0.135,0.01,-0.255,1.114
2024-10-15 13:34:24.405,73215.855,0.009,0.248,-0.969,0.156,-0.157,0.312,0.621,0.008,-0.172,0.01,-0.25,1.112
2024-10-15 13:34:24.414,73215.865,0.009,0.242,-0.97,0.142,-0.18,0.252,0.584,0.002,-0.236,0.009,-0.244,1.11
2024-10-15 13:34:24.425,73215.875,0.008,0.237,-0.971,0.104,-0.15,0.181,0.403,0.015,-0.315,0.009,-0.239,1.107
2024-10-15 13:34:24.434,73215.885,0.008,0.233,-0.973,0.022,-0.086,0.099,0.541,0.085,-0.38,0.008,-0.235,1.103
2024-10-15 13:34:24.445,73215.895,0.008,0.227,-0.974,-0.034,0.034,0.007,0.658,0.09,-0.327,0.008,-0.229,1.099
2024-10-15 13:34:24.455,73215.905,0.008,0.222,-0.975,0.016,0.094,-0.108,0.305,0.055,-0.261,0.008,-0.224,1.096
2024-10-15 13:34:24.464,73215.915,0.008,0.221,-0.975,0.037,0.033,-0.162,-0.252,-0.007,-0.216,0.008,-0.223,1.094
2024-10-15 13:34:24.474,73215.924,0.007,0.226,-0.974,-0.066,0.011,-0.185,-0.532,-0.059,-0.094,0.007,-0.228,1.092
2024-10-15 13:34:24.484,73215.934,0.006,0.232,-0.973,-0.152,0.179,-0.216,-0.701,-0.077,0.145,0.007,-0.234,1.092
2024-10-15 13:34:24.494,73215.944,0.006,0.238,-0.971,-0.208,0.344,-0.161,-0.533,-0.06,0.228,0.006,-0.24,1.094
2024-10-15 13:34:24.505,73215.954,0.006,0.242,-0.97,-0.227,0.322,-0.073,-0.271,-0.041,0.342,0.007,-0.244,1.097
2024-10-15 13:34:24.514,73215.964,0.007,0.244,-0.97,-0.181,0.296,0.04,-0.135,-0.067,0.462,0.007,-0.246,1.101
2024-10-15 13:34:24.525,73215.974,0.007,0.245,-0.969,-0.116,0.211,0.173,-0.228,-0.168,0.541,0.007,-0.248,1.106
2024-10-15 13:34:24.534,73215.984,0.006,0.248,-0.969,-0.049,0.084,0.192,-0.451,-0.317,0.585,0.006,-0.251,1.112
2024-10-15 13:34:24.544,73215.994,0.004,0.252,-0.968,-0.041,0.016,0.169,-0.313,-0.319,0.599,0.005,-0.255,1.118
2024-10-15 13:34:24.554,73216.004,0.003,0.253,-0.967,-0.079,0.018,0.18,0.192,-0.287,0.546,0.003,-0.256,1.124
2024-10-15 13:34:24.564,73216.014,0.002,0.249,-0.968,-0.002,0.016,0.081,0.601,-0.201,0.462,0.002,-0.252,1.129
2024-10-15 13:34:24.574,73216.024,0.001,0.243,-0.97,0.051,-0.088,-0.001,0.715,-0.11,0.287,0.001,-0.245,1.133
2024-10-15 13:34:24.584,73216.034,0.001,0.236,-0.972,0.091,-0.265,-0.065,0.565,-0.002,0.047,0.001,-0.238,1.135
2024-10-15 13:34:24.594,73216.044,0.001,0.23,-0.973,0.124,-0.499,-0.115,0.516,0.082,-0.242,0.001,-0.232,1.133
2024-10-15 13:34:24.604,73216.054,0.001,0.227,-0.974,0.166,-0.629,-0.094,0.139,0.099,-0.372,0.001,-0.229,1.13
2024-10-15 13:34:24.615,73216.064,0.001,0.228,-0.974,0.22,-0.573,-0.007,-0.395,0.079,-0.487,0.001,-0.23,1.126
2024-10-15 13:34:24.624,73216.074,0.001,0.234,-0.972,0.177,-0.527,0.079,-0.745,0.069,-0.499,0.001,-0.236,1.121
2024-10-15 13:34:24.634,73216.084,0.0,0.242,-0.97,0.099,-0.302,0.069,-0.771,0.089,-0.448,0.0,-0.244,1.115
2024-10-15 13:34:24.644,73216.094,0.0,0.246,-0.969,0.008,0.021,-0.022,-0.103,0.186,-0.521,0.0,-0.249,1.11
2024-10-15 13:34:24.654,73216.104,0.001,0.244,-0.97,-0.052,0.213,-0.096,0.426,0.213,-0.46,0.001,-0.247,1.105
2024-10-15 13:34:24.664,73216.114,0.002,0.241,-0.97,0.059,0.254,-0.174,0.134,0.168,-0.442,0.002,-0.244,1.1
2024-10-15 13:34:24.674,73216.124,0.002,0.243,-0.97,0.097,0.105,-0.163,-0.378,0.078,-0.428,0.002,-0.245,1.096
2024-10-15 13:34:24.684,73216.134,0.002,0.247,-0.969,-0.009,0.054,-0.061,-0.588,0.001,-0.245,0.002,-0.25,1.092
2024-10-15 13:34:24.694,73216.144,0.001,0.253,-0.967,-0.064,0.272,0.017,-0.561,-0.114,0.027,0.001,-0.256,1.091
2024-10-15 13:34:24.704,73216.154,-0.0,0.258,-0.966,-0.144,0.504,0.085,-0.469,-0.16,0.355,-0.0,-0.261,1.093
2024-10-15 13:34:24.714,73216.164,-0.0,0.261,-0.965,-0.211,0.613,0.142,-0.002,-0.133,0.464,-0.0,-0.264,1.098
2024-10-15 13:34:24.724,73216.174,-0.0,0.259,-0.966,-0.248,0.583,0.127,0.448,-0.09,0.599,-0.0,-0.262,1.103
2024-10-15 13:34:24.734,73216.184,0.001,0.254,-0.967,-0.213,0.496,0.012,0.534,-0.055,0.624,0.001,-0.256,1.109
2024-10-15 13:34:24.744,73216.194,0.002,0.25,-0.968,-0.162,0.227,-0.067,0.213,-0.115,0.623,0.002,-0.252,1.116
2024-10-15 13:34:24.753,73216.204,0.001,0.251,-0.968,-0.086,-0.05,-0.097,-0.371,-0.243,0.632,0.001,-0.253,1.122
2024-10-15 13:34:24.764,73216.214,0.0,0.255,-0.967,-0.03,-0.184,0.015,-0.404,-0.253,0.533,0.0,-0.258,1.128
2024-10-15 13:34:24.774,73216.224,-0.001,0.256,-0.967,-0.038,-0.15,0.201,0.084,-0.188,0.492,-0.001,-0.259,1.133
2024-10-15 13:34:24.784,73216.234,-0.001,0.254,-0.967,0.05,-0.046,0.135,0.333,-0.124,0.382,-0.001,-0.257,1.138
2024-10-15 13:34:24.794,73216.244,-0.001,0.251,-0.968,0.087,-0.158,0.089,0.385,-0.035,0.119,-0.001,-0.253,1.14
2024-10-15 13:34:24.804,73216.254,-0.001,0.247,-0.969,0.101,-0.454,0.024,0.365,0.037,-0.151,-0.001,-0.25,1.14
2024-10-15 13:34:24.814,73216.264,-0.001,0.243,-0.97,0.129,-0.65,-0.024,0.341,0.067,-0.385,-0.001,-0.245,1.137
2024-10-15 13:34:24.824,73216.274,-0.002,0.242,-0.97,0.178,-0.689,-0.033,-0.207,0.031,-0.483,-0.002,-0.245,1.133
2024-10-15 13:34:24.834,73216.284,-0.003,0.247,-0.969,0.192,-0.638,0.013,-0.735,0.029,-0.6,-0.003,-0.249,1.127
