Date,TimeStamp,GravityX,GravityY,GravityZ,UserAccelerationX,UserAccelerationY,UserAccelerationZ,RotationRateX,RotationRateY,RotationRateZ,AttitudeRoll,AttitudePitch,AttitudeYaw
2024-10-15 13:35:11.912,73263.362,0.091,0.63,-0.772,0.021,0.024,0.01,-0.07,0.21,0.187,0.117,-0.681,0.977
2024-10-15 13:35:11.922,73263.372,0.094,0.629,-0.771,0.009,0.035,0.003,0.014,0.212,0.198,0.121,-0.681,0.98
2024-10-15 13:35:11.932,73263.382,0.096,0.629,-0.771,0.018,0.016,0.008,0.038,0.2,0.176,0.124,-0.68,0.982
2024-10-15 13:35:11.942,73263.392,0.099,0.629,-0.772,0.036,-0.007,0.012,0.025,0.181,0.163,0.127,-0.68,0.984
2024-10-15 13:35:11.952,73263.402,0.101,0.628,-0.771,0.028,-0.042,0.005,-0.015,0.133,0.15,0.13,-0.679,0.987
2024-10-15 13:35:11.962,73263.412,0.103,0.628,-0.771,0.03,-0.074,0.008,-0.02,0.102,0.133,0.132,-0.679,0.989
2024-10-15 13:35:11.972,73263.422,0.104,0.628,-0.771,0.024,-0.069,-0.004,-0.042,0.078,0.152,0.134,-0.679,0.991
2024-10-15 13:35:11.982,73263.432,0.106,0.629,-0.771,0.012,-0.037,-0.005,-0.043,0.077,0.147,0.136,-0.68,0.993
2024-10-15 13:35:11.992,73263.442,0.107,0.629,-0.77,0.016,-0.026,-0.01,-0.001,0.136,0.168,0.139,-0.68,0.996
2024-10-15 13:35:12.002,73263.452,0.109,0.628,-0.77,0.003,-0.032,-0.021,0.078,0.118,0.148,0.141,-0.679,0.998
2024-10-15 13:35:12.012,73263.462,0.111,0.627,-0.771,-0.013,-0.032,-0.008,0.127,0.069,0.124,0.143,-0.678,1.0
2024-10-15 13:35:12.022,73263.472,0.112,0.626,-0.771,-0.009,-0.023,0.005,0.059,0.021,0.084,0.144,-0.677,1.001
2024-10-15 13:35:12.032,73263.482,0.113,0.626,-0.771,0.004,-0.025,0.009,-0.071,0.028,0.047,0.145,-0.677,1.003
2024-10-15 13:35:12.042,73263.492,0.113,0.627,-0.771,-0.002,-0.055,-0.001,-0.205,0.022,0.039,0.146,-0.678,1.004
2024-10-15 13:35:12.052,73263.502,0.114,0.629,-0.769,-0.018,-0.05,-0.015,-0.328,0.032,0.025,0.147,-0.68,1.005
2024-10-15 13:35:12.062,73263.512,0.114,0.632,-0.767,-0.036,-0.002,-0.015,-0.411,0.047,0.045,0.148,-0.684,1.006
2024-10-15 13:35:12.071,73263.522,0.115,0.635,-0.764,-0.033,0.021,-0.013,-0.554,0.078,0.119,0.15,-0.688,1.009
2024-10-15 13:35:12.081,73263.532,0.117,0.639,-0.76,-0.008,0.011,-0.0,-0.715,0.127,0.08,0.152,-0.694,1.011
2024-10-15 13:35:12.092,73263.542,0.118,0.645,-0.755,-0.018,-0.035,-0.004,-0.903,0.172,0.098,0.156,-0.702,1.014
2024-10-15 13:35:12.102,73263.552,0.121,0.653,-0.748,-0.022,-0.053,-0.02,-1.097,0.23,0.117,0.16,-0.711,1.018
2024-10-15 13:35:12.111,73263.562,0.123,0.662,-0.74,-0.006,-0.061,-0.049,-1.322,0.262,0.133,0.165,-0.723,1.022
2024-10-15 13:35:12.122,73263.572,0.126,0.672,-0.73,-0.013,-0.061,-0.066,-1.576,0.291,0.159,0.171,-0.737,1.028
2024-10-15 13:35:12.132,73263.582,0.13,0.684,-0.718,-0.017,-0.068,-0.048,-1.832,0.354,0.141,0.179,-0.754,1.034
2024-10-15 13:35:12.141,73263.592,0.133,0.698,-0.704,-0.019,-0.075,-0.049,-2.079,0.388,0.116,0.187,-0.773,1.041
2024-10-15 13:35:12.151,73263.602,0.137,0.713,-0.688,-0.022,-0.042,-0.047,-2.275,0.392,0.087,0.196,-0.794,1.049
2024-10-15 13:35:12.161,73263.612,0.14,0.729,-0.67,-0.015,-0.025,-0.048,-2.431,0.4,0.02,0.205,-0.817,1.057
2024-10-15 13:35:12.171,73263.622,0.142,0.745,-0.652,-0.005,-0.046,-0.052,-2.482,0.393,-0.038,0.215,-0.841,1.065
2024-10-15 13:35:12.181,73263.632,0.144,0.761,-0.633,-0.0,-0.049,-0.062,-2.433,0.362,-0.055,0.224,-0.865,1.072
2024-10-15 13:35:12.191,73263.642,0.146,0.776,-0.614,0.001,-0.026,-0.058,-2.371,0.328,-0.051,0.234,-0.888,1.08
2024-10-15 13:35:12.201,73263.652,0.148,0.79,-0.595,0.011,-0.026,-0.051,-2.341,0.317,-0.054,0.243,-0.911,1.089
2024-10-15 13:35:12.211,73263.662,0.149,0.804,-0.576,0.018,-0.064,-0.048,-2.289,0.278,-0.067,0.253,-0.934,1.098
2024-10-15 13:35:12.221,73263.672,0.15,0.817,-0.557,0.012,-0.05,-0.032,-2.188,0.224,-0.049,0.263,-0.956,1.107
2024-10-15 13:35:12.232,73263.682,0.151,0.828,-0.539,0.003,-0.006,-0.004,-2.099,0.195,-0.03,0.272,-0.976,1.117
2024-10-15 13:35:12.241,73263.692,0.151,0.839,-0.522,0.014,-0.027,0.019,-2.012,0.179,-0.052,0.282,-0.996,1.127
2024-10-15 13:35:12.252,73263.702,0.152,0.849,-0.505,0.013,-0.044,0.026,-1.884,0.146,-0.07,0.292,-1.015,1.136
2024-10-15 13:35:12.261,73263.712,0.152,0.859,-0.49,0.008,0.003,0.038,-1.706,0.115,-0.1,0.3,-1.032,1.145
2024-10-15 13:35:12.271,73263.722,0.151,0.866,-0.476,0.02,0.039,0.041,-1.527,0.085,-0.119,0.307,-1.048,1.153
2024-10-15 13:35:12.281,73263.731,0.15,0.874,-0.463,0.034,0.028,0.038,-1.446,0.054,-0.146,0.314,-1.063,1.161
2024-10-15 13:35:12.291,73263.741,0.149,0.88,-0.45,0.033,-0.005,0.043,-1.379,-0.01,-0.177,0.319,-1.076,1.167
2024-10-15 13:35:12.301,73263.751,0.147,0.886,-0.439,0.021,-0.046,0.064,-1.258,-0.075,-0.174,0.324,-1.089,1.173
2024-10-15 13:35:12.311,73263.761,0.145,0.892,-0.429,0.031,-0.05,0.059,-1.103,-0.159,-0.181,0.326,-1.101,1.178
2024-10-15 13:35:12.322,73263.771,0.143,0.896,-0.42,0.036,0.011,0.03,-0.89,-0.267,-0.169,0.327,-1.111,1.182
2024-10-15 13:35:12.331,73263.781,0.14,0.9,-0.413,0.04,0.066,0.024,-0.655,-0.34,-0.166,0.326,-1.119,1.185
2024-10-15 13:35:12.341,73263.791,0.137,0.902,-0.409,0.059,0.082,0.023,-0.482,-0.372,-0.149,0.323,-1.125,1.186
2024-10-15 13:35:12.351,73263.801,0.134,0.904,-0.406,0.066,0.073,0.022,-0.337,-0.404,-0.172,0.319,-1.129,1.186
2024-10-15 13:35:12.361,73263.811,0.131,0.905,-0.404,0.072,0.048,0.033,-0.055,-0.411,-0.172,0.313,-1.132,1.184
2024-10-15 13:35:12.371,73263.821,0.128,0.905,-0.406,0.075,0.006,0.03,0.262,-0.401,-0.112,0.305,-1.131,1.181
2024-10-15 13:35:12.381,73263.831,0.125,0.903,-0.41,0.066,0.022,0.051,0.494,-0.425,-0.087,0.297,-1.128,1.176
2024-10-15 13:35:12.391,73263.841,0.123,0.901,-0.416,0.03,0.063,0.089,0.641,-0.439,-0.062,0.287,-1.123,1.172
2024-10-15 13:35:12.401,73263.851,0.121,0.898,-0.422,0.017,0.084,0.098,0.75,-0.431,-0.039,0.278,-1.116,1.167
2024-10-15 13:35:12.411,73263.861,0.118,0.895,-0.43,0.014,0.079,0.079,0.801,-0.431,-0.029,0.269,-1.109,1.161
2024-10-15 13:35:12.421,73263.871,0.116,0.892,-0.437,0.016,0.062,0.061,0.794,-0.421,0.009,0.26,-1.101,1.157
2024-10-15 13:35:12.431,73263.881,0.115,0.888,-0.445,0.013,0.045,0.048,0.841,-0.402,0.019,0.252,-1.093,1.153
2024-10-15 13:35:12.441,73263.891,0.113,0.884,-0.453,0.012,0.031,0.058,0.918,-0.386,0.028,0.245,-1.084,1.15
2024-10-15 13:35:12.451,73263.901,0.112,0.88,-0.462,0.027,0.041,0.069,1.005,-0.394,0.063,0.237,-1.075,1.146
2024-10-15 13:35:12.461,73263.911,0.111,0.875,-0.472,0.036,0.068,0.046,1.089,-0.432,0.076,0.23,-1.065,1.142
2024-10-15 13:35:12.471,73263.921,0.109,0.869,-0.483,0.028,0.1,0.016,1.242,-0.494,0.037,0.222,-1.053,1.138
2024-10-15 13:35:12.481,73263.931,0.106,0.863,-0.495,0.046,0.084,0.013,1.404,-0.597,0.02,0.212,-1.04,1.134
2024-10-15 13:35:12.491,73263.941,0.103,0.855,-0.508,0.071,0.045,0.046,1.553,-0.686,0.016,0.201,-1.026,1.128
2024-10-15 13:35:12.501,73263.951,0.1,0.847,-0.522,0.068,0.033,0.076,1.643,-0.725,0.042,0.189,-1.01,1.123
2024-10-15 13:35:12.511,73263.961,0.097,0.838,-0.537,0.06,-0.002,0.072,1.645,-0.758,0.076,0.178,-0.994,1.119
2024-10-15 13:35:12.521,73263.971,0.093,0.829,-0.552,0.048,-0.027,0.07,1.782,-0.749,0.039,0.167,-0.977,1.114
2024-10-15 13:35:12.531,73263.981,0.089,0.818,-0.568,0.022,-0.047,0.081,1.885,-0.764,0.056,0.156,-0.959,1.11
2024-10-15 13:35:12.541,73263.991,0.085,0.807,-0.584,0.046,-0.044,0.083,1.969,-0.906,0.038,0.144,-0.94,1.106
2024-10-15 13:35:12.551,73264.001,0.08,0.795,-0.601,0.061,-0.03,0.083,2.037,-0.794,0.029,0.133,-0.92,1.102
2024-10-15 13:35:12.561,73264.011,0.075,0.783,-0.617,0.079,-0.015,0.059,2.039,-0.749,-0.068,0.121,-0.899,1.098
2024-10-15 13:35:12.571,73264.021,0.07,0.77,-0.634,0.048,-0.025,0.063,2.152,-0.715,-0.13,0.11,-0.879,1.092
2024-10-15 13:35:12.581,73264.031,0.065,0.757,-0.651,0.044,-0.065,0.075,1.988,-0.738,-0.022,0.099,-0.858,1.088
2024-10-15 13:35:12.591,73264.041,0.059,0.744,-0.666,0.04,-0.012,0.041,1.922,-0.738,-0.1,0.089,-0.839,1.084
2024-10-15 13:35:12.601,73264.051,0.053,0.731,-0.68,0.012,-0.014,-0.022,1.917,-0.765,-0.136,0.078,-0.82,1.08
2024-10-15 13:35:12.611,73264.061,0.047,0.718,-0.694,0.029,-0.058,-0.024,1.794,-0.727,-0.114,0.068,-0.802,1.076
2024-10-15 13:35:12.621,73264.071,0.042,0.707,-0.706,0.024,-0.04,0.027,1.618,-0.67,-0.005,0.059,-0.785,1.073
2024-10-15 13:35:12.631,73264.081,0.037,0.696,-0.717,-0.004,-0.069,0.043,1.441,-0.639,0.01,0.052,-0.769,1.072
2024-10-15 13:35:12.641,73264.091,0.033,0.686,-0.727,-0.032,-0.112,0.034,1.353,-0.608,0.061,0.046,-0.756,1.071
2024-10-15 13:35:12.651,73264.101,0.029,0.675,-0.737,-0.053,-0.066,-0.002,1.452,-0.55,0.102,0.04,-0.742,1.071
2024-10-15 13:35:12.661,73264.111,0.026,0.664,-0.747,-0.059,0.033,-0.03,1.591,-0.483,0.139,0.035,-0.726,1.072
2024-10-15 13:35:12.671,73264.121,0.024,0.651,-0.758,-0.071,0.096,-0.031,1.807,-0.403,0.129,0.032,-0.709,1.072
2024-10-15 13:35:12.681,73264.131,0.022,0.637,-0.771,-0.073,0.093,-0.016,2.055,-0.368,0.122,0.029,-0.69,1.073
2024-10-15 13:35:12.691,73264.141,0.02,0.619,-0.785,-0.056,0.067,-0.004,2.396,-0.326,0.123,0.026,-0.668,1.073
2024-10-15 13:35:12.701,73264.151,0.018,0.599,-0.801,-0.036,0.065,0.002,2.84,-0.265,0.098,0.023,-0.642,1.073
2024-10-15 13:35:12.711,73264.161,0.017,0.573,-0.819,-0.053,0.113,-0.014,3.408,-0.244,0.088,0.021,-0.611,1.073
2024-10-15 13:35:12.721,73264.171,0.015,0.543,-0.839,-0.077,0.176,-0.015,3.888,-0.21,0.085,0.018,-0.574,1.073
2024-10-15 13:35:12.730,73264.181,0.014,0.509,-0.861,-0.081,0.198,0.001,4.171,-0.228,0.095,0.016,-0.534,1.072
2024-10-15 13:35:12.741,73264.191,0.012,0.472,-0.881,-0.091,0.152,0.012,4.236,-0.295,0.08,0.014,-0.492,1.072
2024-10-15 13:35:12.750,73264.201,0.01,0.435,-0.9,-0.085,0.087,0.011,4.1,-0.404,0.069,0.011,-0.45,1.072
2024-10-15 13:35:12.760,73264.211,0.006,0.399,-0.917,-0.075,0.047,0.006,3.696,-0.547,0.112,0.006,-0.411,1.072
2024-10-15 13:35:12.770,73264.221,0.001,0.369,-0.93,-0.076,-0.011,0.007,2.928,-0.498,0.113,0.001,-0.378,1.073
2024-10-15 13:35:12.780,73264.231,-0.003,0.345,-0.938,-0.096,-0.073,0.016,2.114,-0.476,0.057,-0.003,-0.353,1.073
2024-10-15 13:35:12.791,73264.241,-0.008,0.329,-0.944,-0.123,-0.068,-0.101,1.432,-0.486,0.045,-0.008,-0.335,1.073
2024-10-15 13:35:12.800,73264.251,-0.012,0.318,-0.948,-0.112,-0.008,-0.193,0.852,-0.471,0.087,-0.013,-0.324,1.074
2024-10-15 13:35:12.810,73264.261,-0.015,0.313,-0.95,-0.11,0.041,-0.168,0.123,-0.38,0.233,-0.016,-0.319,1.075
2024-10-15 13:35:12.820,73264.271,-0.018,0.316,-0.949,-0.106,-0.046,-0.098,-0.57,-0.358,0.306,-0.019,-0.321,1.077
2024-10-15 13:35:12.830,73264.281,-0.02,0.323,-0.946,-0.07,-0.152,0.005,-0.887,-0.339,0.354,-0.021,-0.329,1.08
2024-10-15 13:35:12.840,73264.291,-0.022,0.331,-0.943,-0.037,-0.092,0.066,-0.889,-0.39,0.431,-0.024,-0.338,1.084
2024-10-15 13:35:12.850,73264.301,-0.025,0.339,-0.941,-0.022,0.01,0.087,-0.575,-0.421,0.448,-0.026,-0.345,1.088
2024-10-15 13:35:12.860,73264.31,-0.027,0.342,-0.939,-0.014,0.07,0.086,-0.216,-0.457,0.494,-0.029,-0.349,1.093
2024-10-15 13:35:12.871,73264.32,-0.03,0.343,-0.939,-0.006,0.063,0.071,-0.019,-0.449,0.484,-0.032,-0.351,1.097
2024-10-15 13:35:12.880,73264.33,-0.032,0.343,-0.939,0.009,-0.013,0.046,0.077,-0.421,0.368,-0.034,-0.35,1.102
2024-10-15 13:35:12.890,73264.34,-0.035,0.342,-0.939,0.017,-0.109,0.014,0.209,-0.367,0.205,-0.037,-0.349,1.104
2024-10-15 13:35:12.900,73264.35,-0.038,0.339,-0.94,0.047,-0.167,-0.006,0.349,-0.306,0.05,-0.04,-0.346,1.105
2024-10-15 13:35:12.910,73264.36,-0.04,0.335,-0.941,0.092,-0.264,-0.031,0.485,-0.201,-0.06,-0.043,-0.342,1.105
2024-10-15 13:35:12.920,73264.37,-0.042,0.331,-0.943,0.115,-0.376,-0.007,0.536,-0.05,-0.196,-0.044,-0.337,1.104
2024-10-15 13:35:12.930,73264.38,-0.042,0.326,-0.945,0.135,-0.429,0.082,0.468,0.118,-0.356,-0.045,-0.332,1.1
2024-10-15 13:35:12.940,73264.39,-0.042,0.322,-0.946,0.136,-0.421,0.169,0.236,0.139,-0.423,-0.045,-0.328,1.096
2024-10-15 13:35:12.950,73264.4,-0.043,0.321,-0.946,0.139,-0.344,0.268,-0.158,0.093,-0.472,-0.045,-0.327,1.091
2024-10-15 13:35:12.960,73264.41,-0.043,0.324,-0.945,0.131,-0.2,0.276,-0.331,0.079,-0.483,-0.046,-0.33,1.085
2024-10-15 13:35:12.970,73264.42,-0.044,0.327,-0.944,0.044,-0.051,0.167,-0.306,0.109,-0.448,-0.047,-0.333,1.08
2024-10-15 13:35:12.980,73264.43,-0.044,0.33,-0.943,-0.037,0.114,0.032,-0.415,0.115,-0.305,-0.047,-0.336,1.075
2024-10-15 13:35:12.990,73264.44,-0.044,0.335,-0.941,-0.076,0.299,-0.178,-0.72,0.106,-0.158,-0.047,-0.342,1.072
2024-10-15 13:35:13.000,73264.45,-0.044,0.342,-0.939,-0.175,0.398,-0.258,-0.76,0.033,0.022,-0.046,-0.349,1.07
2024-10-15 13:35:13.010,73264.46,-0.043,0.348,-0.937,-0.235,0.5,-0.198,-0.296,-0.003,0.238,-0.046,-0.355,1.071
2024-10-15 13:35:13.020,73264.47,-0.042,0.348,-0.937,-0.203,0.657,-0.09,0.288,-0.028,0.429,-0.045,-0.355,1.074
2024-10-15 13:35:13.030,73264.48,-0.041,0.344,-0.938,-0.174,0.708,0.051,0.531,-0.093,0.601,-0.043,-0.351,1.08
2024-10-15 13:35:13.040,73264.49,-0.04,0.339,-0.94,-0.145,0.566,0.133,0.541,-0.194,0.717,-0.042,-0.346,1.087
2024-10-15 13:35:13.050,73264.5,-0.039,0.334,-0.942,-0.12,0.311,0.084,0.562,-0.259,0.739,-0.042,-0.341,1.094
2024-10-15 13:35:13.060,73264.51,-0.04,0.329,-0.943,-0.088,0.124,0.02,0.531,-0.344,0.708,-0.042,-0.335,1.102
2024-10-15 13:35:13.070,73264.52,-0.041,0.326,-0.945,-0.048,-0.026,-0.016,0.223,-0.377,0.65,-0.043,-0.332,1.109
2024-10-15 13:35:13.080,73264.53,-0.043,0.326,-0.944,0.01,-0.206,-0.051,-0.244,-0.379,0.517,-0.045,-0.332,1.114
2024-10-15 13:35:13.090,73264.54,-0.044,0.331,-0.943,0.005,-0.408,-0.15,-0.632,-0.285,0.395,-0.047,-0.337,1.119
2024-10-15 13:35:13.100,73264.55,-0.046,0.338,-0.94,-0.006,-0.504,-0.111,-0.855,-0.265,0.254,-0.049,-0.345,1.121
2024-10-15 13:35:13.110,73264.56,-0.048,0.345,-0.937,0.077,-0.552,-0.073,-0.732,-0.171,0.007,-0.051,-0.353,1.122
2024-10-15 13:35:13.120,73264.57,-0.049,0.35,-0.936,0.141,-0.615,-0.014,-0.229,-0.023,-0.216,-0.052,-0.357,1.12
2024-10-15 13:35:13.129,73264.58,-0.05,0.35,-0.935,0.149,-0.574,0.05,0.025,0.074,-0.352,-0.053,-0.358,1.117
2024-10-15 13:35:13.139,73264.59,-0.05,0.351,-0.935,0.205,-0.502,0.137,-0.256,0.104,-0.506,-0.054,-0.359,1.112
2024-10-15 13:35:13.149,73264.6,-0.051,0.355,-0.934,0.226,-0.54,0.192,-0.541,0.121,-0.599,-0.055,-0.362,1.105
2024-10-15 13:35:13.159,73264.61,-0.052,0.36,-0.932,0.124,-0.415,0.135,-0.601,0.155,-0.505,-0.056,-0.368,1.099
2024-10-15 13:35:13.169,73264.62,-0.052,0.365,-0.93,-0.017,-0.005,0.034,-0.453,0.18,-0.379,-0.056,-0.373,1.093
2024-10-15 13:35:13.179,73264.63,-0.051,0.366,-0.929,-0.091,0.304,-0.005,0.141,0.238,-0.418,-0.055,-0.375,1.088
2024-10-15 13:35:13.189,73264.64,-0.051,0.363,-0.931,-0.064,0.398,-0.009,0.431,0.249,-0.315,-0.054,-0.371,1.084
2024-10-15 13:35:13.200,73264.65,-0.049,0.36,-0.932,0.026,0.383,-0.063,0.077,0.203,-0.279,-0.053,-0.368,1.081
2024-10-15 13:35:13.210,73264.66,-0.049,0.361,-0.931,0.021,0.244,-0.076,-0.235,0.128,-0.191,-0.052,-0.369,1.078
2024-10-15 13:35:13.220,73264.67,-0.048,0.363,-0.93,-0.093,0.231,-0.049,-0.255,0.042,-0.014,-0.052,-0.372,1.077
2024-10-15 13:35:13.230,73264.68,-0.048,0.365,-0.93,-0.154,0.456,0.022,-0.062,-0.015,0.18,-0.051,-0.373,1.077
2024-10-15 13:35:13.240,73264.69,-0.047,0.364,-0.93,-0.211,0.58,0.097,0.234,-0.051,0.316,-0.051,-0.373,1.08
2024-10-15 13:35:13.250,73264.7,-0.047,0.361,-0.931,-0.245,0.55,0.119,0.467,-0.09,0.454,-0.05,-0.369,1.084
2024-10-15 13:35:13.260,73264.71,-0.046,0.356,-0.933,-0.246,0.494,0.102,0.5,-0.13,0.557,-0.049,-0.364,1.089
2024-10-15 13:35:13.269,73264.72,-0.045,0.352,-0.935,-0.198,0.312,0.044,0.461,-0.119,0.545,-0.048,-0.36,1.095
2024-10-15 13:35:13.279,73264.73,-0.044,0.348,-0.936,-0.101,0.075,0.008,0.485,-0.094,0.467,-0.047,-0.355,1.1
2024-10-15 13:35:13.289,73264.74,-0.044,0.344,-0.938,-0.001,-0.086,-0.05,0.225,-0.117,0.43,-0.046,-0.352,1.105
2024-10-15 13:35:13.300,73264.75,-0.044,0.345,-0.937,0.055,-0.22,-0.133,-0.326,-0.141,0.39,-0.046,-0.353,1.109
2024-10-15 13:35:13.309,73264.76,-0.044,0.35,-0.936,0.051,-0.404,-0.116,-0.551,-0.116,0.256,-0.047,-0.357,1.112
2024-10-15 13:35:13.320,73264.77,-0.044,0.355,-0.934,0.023,-0.486,-0.03,-0.619,-0.133,0.222,-0.047,-0.363,1.114
2024-10-15 13:35:13.329,73264.78,-0.045,0.361,-0.931,0.115,-0.432,0.025,-0.623,-0.093,0.009,-0.048,-0.37,1.115
2024-10-15 13:35:13.339,73264.79,-0.046,0.366,-0.93,0.166,-0.546,0.079,-0.343,-0.029,-0.184,-0.049,-0.375,1.113
2024-10-15 13:35:13.349,73264.8,-0.046,0.368,-0.929,0.16,-0.569,0.07,-0.207,0.049,-0.258,-0.05,-0.377,1.11
2024-10-15 13:35:13.359,73264.81,-0.047,0.371,-0.928,0.183,-0.45,0.067,-0.386,0.084,-0.355,-0.05,-0.38,1.106
2024-10-15 13:35:13.369,73264.82,-0.047,0.375,-0.926,0.157,-0.39,0.066,-0.524,0.106,-0.355,-0.051,-0.384,1.102
2024-10-15 13:35:13.380,73264.83,-0.047,0.379,-0.924,0.059,-0.222,-0.008,-0.469,0.088,-0.284,-0.051,-0.389,1.098
2024-10-15 13:35:13.389,73264.84,-0.048,0.383,-0.923,-0.012,0.096,-0.054,-0.307,0.112,-0.225,-0.051,-0.393,1.095
2024-10-15 13:35:13.399,73264.85,-0.047,0.385,-0.922,-0.012,0.286,-0.066,-0.159,0.137,-0.202,-0.051,-0.395,1.092
2024-10-15 13:35:13.409,73264.86,-0.047,0.385,-0.922,-0.0,0.335,-0.046,0.23,0.183,-0.252,-0.051,-0.395,1.089
2024-10-15 13:35:13.419,73264.87,-0.046,0.38,-0.924,0.005,0.338,0.02,0.593,0.227,-0.263,-0.049,-0.39,1.086
2024-10-15 13:35:13.429,73264.88,-0.045,0.376,-0.926,0.051,0.303,0.056,0.224,0.194,-0.257,-0.048,-0.386,1.084
2024-10-15 13:35:13.439,73264.889,-0.044,0.377,-0.925,0.074,0.147,0.055,-0.349,0.103,-0.207,-0.048,-0.386,1.081
2024-10-15 13:35:13.449,73264.899,-0.044,0.381,-0.924,-0.046,0.043,0.06,-0.531,0.028,0.033,-0.048,-0.391,1.079
2024-10-15 13:35:13.459,73264.909,-0.043,0.384,-0.922,-0.158,0.296,0.052,-0.147,0.007,0.262,-0.047,-0.395,1.08
2024-10-15 13:35:13.469,73264.919,-0.042,0.383,-0.923,-0.274,0.65,0.092,0.405,-0.044,0.499,-0.045,-0.393,1.084
2024-10-15 13:35:13.479,73264.929,-0.04,0.378,-0.925,-0.29,0.757,0.106,0.706,-0.122,0.66,-0.044,-0.388,1.09
2024-10-15 13:35:13.489,73264.939,-0.039,0.371,-0.928,-0.185,0.565,0.125,0.859,-0.136,0.663,-0.042,-0.38,1.098
2024-10-15 13:35:13.499,73264.949,-0.038,0.363,-0.931,-0.079,0.226,0.117,0.924,-0.13,0.56,-0.041,-0.372,1.104
2024-10-15 13:35:13.509,73264.959,-0.038,0.356,-0.934,-0.0,-0.056,0.033,0.586,-0.153,0.445,-0.04,-0.364,1.11
2024-10-15 13:35:13.519,73264.969,-0.038,0.354,-0.934,0.045,-0.307,-0.105,-0.248,-0.205,0.41,-0.04,-0.362,1.114
2024-10-15 13:35:13.529,73264.979,-0.038,0.358,-0.933,0.066,-0.606,-0.121,-0.466,-0.139,0.15,-0.041,-0.367,1.117
2024-10-15 13:35:13.539,73264.989,-0.039,0.362,-0.932,0.032,-0.684,-0.082,-0.223,-0.104,0.138,-0.042,-0.37,1.118
2024-10-15 13:35:13.549,73264.999,-0.04,0.364,-0.931,0.041,-0.431,-0.146,-0.243,-0.023,-0.064,-0.042,-0.372,1.118
2024-10-15 13:35:13.559,73265.009,-0.04,0.367,-0.93,0.091,-0.52,-0.112,-0.442,0.007,-0.247,-0.043,-0.375,1.116
2024-10-15 13:35:13.569,73265.019,-0.041,0.371,-0.928,0.114,-0.7,-0.084,-0.607,0.051,-0.359,-0.044,-0.38,1.112
2024-10-15 13:35:13.579,73265.029,-0.042,0.377,-0.925,0.136,-0.61,-0.001,-0.629,0.111,-0.412,-0.045,-0.387,1.107
2024-10-15 13:35:13.589,73265.039,-0.042,0.382,-0.923,0.093,-0.401,0.067,-0.589,0.136,-0.421,-0.046,-0.392,1.102
2024-10-15 13:35:13.599,73265.049,-0.043,0.387,-0.921,0.046,-0.155,0.055,-0.508,0.159,-0.406,-0.046,-0.398,1.097
2024-10-15 13:35:13.609,73265.059,-0.043,0.391,-0.919,-0.005,0.053,0.032,-0.351,0.179,-0.368,-0.046,-0.402,1.093
2024-10-15 13:35:13.619,73265.069,-0.042,0.392,-0.919,-0.024,0.226,0.017,0.232,0.276,-0.466,-0.046,-0.403,1.088
2024-10-15 13:35:13.629,73265.079,-0.041,0.387,-0.921,-0.017,0.314,0.034,0.752,0.354,-0.448,-0.044,-0.397,1.083
2024-10-15 13:35:13.639,73265.089,-0.04,0.381,-0.924,0.038,0.339,0.035,0.299,0.323,-0.482,-0.043,-0.391,1.078
2024-10-15 13:35:13.649,73265.099,-0.039,0.382,-0.924,0.11,0.136,-0.011,-0.374,0.229,-0.468,-0.042,-0.392,1.073
2024-10-15 13:35:13.659,73265.109,-0.039,0.386,-0.922,-0.035,0.015,-0.013,-0.605,0.066,-0.207,-0.042,-0.397,1.069
2024-10-15 13:35:13.669,73265.119,-0.039,0.392,-0.919,-0.169,0.402,-0.032,-0.564,-0.061,0.163,-0.042,-0.403,1.068
2024-10-15 13:35:13.679,73265.129,-0.039,0.394,-0.918,-0.262,0.793,0.058,0.169,-0.093,0.346,-0.042,-0.405,1.07
2024-10-15 13:35:13.689,73265.139,-0.038,0.39,-0.92,-0.335,0.914,0.171,0.83,-0.16,0.675,-0.041,-0.4,1.076
2024-10-15 13:35:13.699,73265.149,-0.037,0.381,-0.924,-0.263,0.953,0.188,0.937,-0.203,0.825,-0.04,-0.391,1.085
2024-10-15 13:35:13.709,73265.159,-0.035,0.374,-0.927,-0.141,0.595,0.219,0.736,-0.234,0.833,-0.038,-0.383,1.094
2024-10-15 13:35:13.719,73265.169,-0.035,0.371,-0.928,-0.032,0.068,0.176,-0.064,-0.375,0.896,-0.038,-0.38,1.103
2024-10-15 13:35:13.729,73265.179,-0.036,0.374,-0.927,0.041,-0.235,0.095,-0.304,-0.41,0.706,-0.039,-0.383,1.111
2024-10-15 13:35:13.739,73265.189,-0.037,0.376,-0.926,-0.074,-0.368,0.075,-0.043,-0.426,0.798,-0.04,-0.385,1.119
2024-10-15 13:35:13.749,73265.199,-0.038,0.376,-0.926,-0.041,-0.171,-0.001,-0.023,-0.335,0.604,-0.041,-0.386,1.126
2024-10-15 13:35:13.759,73265.209,-0.039,0.376,-0.926,0.028,-0.316,-0.043,0.06,-0.242,0.364,-0.042,-0.386,1.131
2024-10-15 13:35:13.769,73265.219,-0.04,0.375,-0.926,0.038,-0.652,-0.168,0.163,-0.104,0.04,-0.043,-0.385,1.134
2024-10-15 13:35:13.778,73265.229,-0.041,0.374,-0.927,0.137,-0.831,-0.311,0.139,0.056,-0.333,-0.044,-0.383,1.132
2024-10-15 13:35:13.789,73265.239,-0.041,0.375,-0.926,0.167,-0.948,-0.362,-0.409,0.128,-0.521,-0.045,-0.384,1.127
2024-10-15 13:35:13.799,73265.249,-0.042,0.381,-0.924,0.194,-0.96,-0.289,-0.958,0.187,-0.68,-0.046,-0.391,1.12
2024-10-15 13:35:13.809,73265.259,-0.043,0.391,-0.92,0.161,-0.809,-0.111,-1.166,0.227,-0.652,-0.047,-0.401,1.112
2024-10-15 13:35:13.819,73265.269,-0.043,0.401,-0.915,0.067,-0.377,-0.024,-1.152,0.248,-0.575,-0.047,-0.413,1.105
2024-10-15 13:35:13.829,73265.279,-0.043,0.408,-0.912,0.023,0.048,0.012,-0.337,0.307,-0.627,-0.047,-0.421,1.098
2024-10-15 13:35:13.838,73265.289,-0.042,0.405,-0.914,-0.013,0.274,0.052,1.042,0.517,-0.694,-0.046,-0.417,1.09
2024-10-15 13:35:13.848,73265.299,-0.04,0.393,-0.919,0.013,0.478,0.075,1.131,0.523,-0.668,-0.043,-0.404,1.083
2024-10-15 13:35:13.858,73265.309,-0.038,0.387,-0.921,0.155,0.286,0.022,0.21,0.474,-0.868,-0.041,-0.397,1.075
2024-10-15 13:35:13.868,73265.319,-0.037,0.388,-0.921,0.122,-0.297,0.039,-0.426,0.425,-0.871,-0.041,-0.398,1.065
2024-10-15 13:35:13.878,73265.329,-0.037,0.393,-0.919,0.04,-0.238,0.045,-0.684,0.336,-0.679,-0.04,-0.404,1.056
2024-10-15 13:35:13.889,73265.339,-0.037,0.399,-0.916,-0.074,0.329,0.005,-0.668,0.201,-0.407,-0.04,-0.41,1.05
2024-10-15 13:35:13.899,73265.349,-0.037,0.404,-0.914,-0.232,0.686,0.058,-0.448,-0.012,-0.042,-0.04,-0.416,1.047
2024-10-15 13:35:13.908,73265.359,-0.037,0.406,-0.913,-0.252,0.889,0.157,0.075,-0.131,0.291,-0.04,-0.418,1.048
2024-10-15 13:35:13.919,73265.369,-0.036,0.402,-0.915,-0.27,1.064,0.281,0.922,-0.155,0.581,-0.04,-0.414,1.053
2024-10-15 13:35:13.936,73265.379,-0.035,0.392,-0.919,-0.288,1.103,0.29,1.211,-0.211,0.856,-0.038,-0.403,1.062
2024-10-15 13:35:13.940,73265.389,-0.034,0.382,-0.924,-0.157,0.84,0.185,1.013,-0.252,0.891,-0.037,-0.392,1.071
2024-10-15 13:35:13.949,73265.399,-0.033,0.376,-0.926,-0.03,0.23,0.135,0.179,-0.406,0.961,-0.036,-0.385,1.081
2024-10-15 13:35:13.959,73265.409,-0.034,0.379,-0.925,0.074,-0.232,0.06,-0.616,-0.488,0.841,-0.036,-0.388,1.091
2024-10-15 13:35:13.968,73265.419,-0.035,0.383,-0.923,0.001,-0.412,0.102,-0.195,-0.492,0.856,-0.038,-0.393,1.1
2024-10-15 13:35:13.978,73265.429,-0.036,0.383,-0.923,-0.113,-0.214,0.083,0.317,-0.398,0.774,-0.039,-0.393,1.109
2024-10-15 13:35:13.988,73265.439,-0.037,0.38,-0.924,0.015,-0.027,-0.022,0.321,-0.303,0.551,-0.04,-0.389,1.116
2024-10-15 13:35:13.998,73265.449,-0.037,0.378,-0.925,0.017,-0.431,-0.131,0.117,-0.164,0.254,-0.04,-0.387,1.12
2024-10-15 13:35:14.008,73265.459,-0.038,0.377,-0.925,0.056,-0.805,-0.262,-0.033,-0.021,-0.061,-0.041,-0.387,1.121
2024-10-15 13:35:14.019,73265.468,-0.038,0.379,-0.925,0.101,-0.909,-0.321,-0.241,0.075,-0.364,-0.041,-0.388,1.119
2024-10-15 13:35:14.028,73265.478,-0.039,0.383,-0.923,0.146,-0.991,-0.319,-0.841,0.119,-0.537,-0.042,-0.393,1.113
2024-10-15 13:35:14.038,73265.488,-0.04,0.393,-0.918,0.191,-0.961,-0.233,-1.323,0.145,-0.679,-0.044,-0.404,1.106
2024-10-15 13:35:14.048,73265.498,-0.042,0.405,-0.913,0.118,-0.723,-0.134,-1.168,0.17,-0.682,-0.045,-0.417,1.098
2024-10-15 13:35:14.058,73265.508,-0.042,0.413,-0.91,0.004,-0.276,-0.106,-0.698,0.213,-0.554,-0.046,-0.426,1.091
2024-10-15 13:35:14.068,73265.518,-0.042,0.415,-0.909,-0.02,0.207,-0.04,0.263,0.31,-0.617,-0.047,-0.428,1.084
2024-10-15 13:35:14.078,73265.528,-0.041,0.407,-0.912,-0.01,0.428,0.072,1.336,0.469,-0.634,-0.045,-0.42,1.077
2024-10-15 13:35:14.088,73265.538,-0.04,0.396,-0.917,0.058,0.449,0.119,0.91,0.448,-0.638,-0.043,-0.407,1.071
2024-10-15 13:35:14.098,73265.548,-0.039,0.392,-0.919,0.217,0.151,0.085,0.049,0.396,-0.821,-0.042,-0.402,1.063
2024-10-15 13:35:14.108,73265.558,-0.038,0.393,-0.919,0.089,-0.268,0.118,-0.463,0.313,-0.689,-0.042,-0.404,1.055
2024-10-15 13:35:14.118,73265.568,-0.038,0.398,-0.916,-0.009,0.001,0.038,-0.62,0.223,-0.468,-0.042,-0.41,1.048
2024-10-15 13:35:14.128,73265.578,-0.038,0.403,-0.914,-0.157,0.529,0.044,-0.4,0.084,-0.16,-0.042,-0.415,1.044
2024-10-15 13:35:14.138,73265.588,-0.038,0.405,-0.913,-0.286,0.827,0.113,-0.085,-0.069,0.227,-0.041,-0.417,1.045
2024-10-15 13:35:14.148,73265.598,-0.037,0.404,-0.914,-0.274,0.99,0.226,0.543,-0.113,0.484,-0.041,-0.415,1.048
2024-10-15 13:35:14.158,73265.608,-0.036,0.396,-0.918,-0.296,1.052,0.324,1.087,-0.195,0.847,-0.039,-0.407,1.056
2024-10-15 13:35:14.168,73265.618,-0.034,0.386,-0.922,-0.253,1.004,0.277,1.149,-0.247,1.048,-0.037,-0.396,1.066
2024-10-15 13:35:14.178,73265.628,-0.033,0.378,-0.925,-0.058,0.59,0.236,0.402,-0.405,1.141,-0.036,-0.388,1.078
2024-10-15 13:35:14.188,73265.638,-0.033,0.38,-0.924,0.123,0.061,0.136,-0.622,-0.5,1.106,-0.036,-0.39,1.09
2024-10-15 13:35:14.198,73265.648,-0.034,0.385,-0.922,0.112,-0.274,0.146,-0.225,-0.505,1.013,-0.036,-0.395,1.101
2024-10-15 13:35:14.208,73265.658,-0.034,0.385,-0.922,-0.034,-0.204,0.122,0.25,-0.482,1.056,-0.037,-0.395,1.113
2024-10-15 13:35:14.218,73265.668,-0.034,0.383,-0.923,0.084,0.003,0.017,0.296,-0.337,0.723,-0.037,-0.393,1.122
2024-10-15 13:35:14.228,73265.678,-0.035,0.381,-0.924,0.067,-0.476,-0.116,0.15,-0.208,0.488,-0.038,-0.391,1.129
2024-10-15 13:35:14.238,73265.688,-0.035,0.38,-0.924,0.054,-0.874,-0.341,0.134,0.008,0.049,-0.037,-0.389,1.132
2024-10-15 13:35:14.248,73265.698,-0.034,0.379,-0.925,0.091,-1.042,-0.411,0.023,0.146,-0.34,-0.037,-0.388,1.13
2024-10-15 13:35:14.258,73265.708,-0.035,0.382,-0.923,0.133,-1.183,-0.432,-0.846,0.127,-0.532,-0.038,-0.392,1.125
2024-10-15 13:35:14.268,73265.718,-0.036,0.394,-0.918,0.189,-1.256,-0.36,-1.713,0.16,-0.782,-0.039,-0.405,1.117
2024-10-15 13:35:14.278,73265.728,-0.038,0.41,-0.911,0.096,-1.061,-0.223,-1.698,0.17,-0.781,-0.041,-0.422,1.108
2024-10-15 13:35:14.288,73265.738,-0.039,0.422,-0.906,-0.065,-0.419,-0.176,-0.918,0.213,-0.664,-0.043,-0.435,1.099
2024-10-15 13:35:14.298,73265.748,-0.039,0.423,-0.905,-0.133,0.275,-0.088,0.746,0.418,-0.802,-0.043,-0.436,1.091
2024-10-15 13:35:14.308,73265.758,-0.039,0.412,-0.91,-0.117,0.603,0.1,1.339,0.435,-0.656,-0.042,-0.424,1.083
2024-10-15 13:35:14.318,73265.768,-0.038,0.403,-0.914,0.053,0.509,0.161,0.426,0.383,-0.809,-0.041,-0.415,1.075
2024-10-15 13:35:14.328,73265.778,-0.038,0.403,-0.914,0.11,-0.086,0.144,-0.345,0.301,-0.767,-0.041,-0.415,1.066
2024-10-15 13:35:14.338,73265.788,-0.038,0.405,-0.914,-0.045,-0.225,0.167,-0.072,0.32,-0.645,-0.041,-0.417,1.059
2024-10-15 13:35:14.348,73265.798,-0.037,0.405,-0.914,-0.116,0.383,0.123,0.027,0.178,-0.254,-0.041,-0.417,1.054
2024-10-15 13:35:14.358,73265.808,-0.037,0.406,-0.913,-0.192,0.791,0.09,-0.215,-0.014,-0.031,-0.041,-0.418,1.052
2024-10-15 13:35:14.368,73265.818,-0.037,0.407,-0.913,-0.208,0.787,0.179,0.067,-0.13,0.334,-0.041,-0.419,1.053
2024-10-15 13:35:14.378,73265.828,-0.037,0.403,-0.915,-0.224,0.933,0.282,0.916,-0.157,0.6,-0.04,-0.414,1.059
2024-10-15 13:35:14.387,73265.838,-0.035,0.391,-0.919,-0.219,1.147,0.338,1.465,-0.208,0.886,-0.038,-0.402,1.067
2024-10-15 13:35:14.398,73265.848,-0.034,0.379,-0.925,-0.145,0.955,0.279,1.324,-0.252,0.97,-0.037,-0.388,1.078
2024-10-15 13:35:14.408,73265.858,-0.033,0.37,-0.928,-0.033,0.388,0.203,0.496,-0.408,1.015,-0.036,-0.379,1.089
2024-10-15 13:35:14.418,73265.868,-0.033,0.37,-0.929,0.001,-0.126,0.079,-0.204,-0.452,0.912,-0.036,-0.379,1.1
2024-10-15 13:35:14.428,73265.878,-0.034,0.37,-0.928,-0.034,-0.425,0.051,0.265,-0.387,0.8,-0.037,-0.379,1.109
2024-10-15 13:35:14.437,73265.888,-0.035,0.366,-0.93,-0.075,-0.396,-0.015,0.537,-0.305,0.635,-0.037,-0.375,1.117
2024-10-15 13:35:14.447,73265.898,-0.035,0.362,-0.931,0.07,-0.38,-0.112,0.262,-0.186,0.254,-0.038,-0.371,1.122
2024-10-15 13:35:14.458,73265.908,-0.036,0.361,-0.932,0.067,-0.88,-0.229,-0.003,-0.053,-0.051,-0.039,-0.37,1.123
2024-10-15 13:35:14.468,73265.918,-0.037,0.362,-0.931,0.054,-1.122,-0.343,-0.317,0.068,-0.369,-0.04,-0.371,1.12
2024-10-15 13:35:14.478,73265.928,-0.038,0.368,-0.929,0.124,-1.067,-0.352,-1.089,0.112,-0.557,-0.041,-0.377,1.115
2024-10-15 13:35:14.487,73265.938,-0.039,0.381,-0.924,0.154,-1.002,-0.238,-1.649,0.138,-0.697,-0.042,-0.391,1.108
2024-10-15 13:35:14.497,73265.948,-0.04,0.396,-0.917,0.091,-0.797,-0.106,-1.498,0.146,-0.721,-0.044,-0.407,1.099
2024-10-15 13:35:14.507,73265.958,-0.042,0.406,-0.913,0.034,-0.308,-0.073,-0.876,0.193,-0.645,-0.046,-0.418,1.091
2024-10-15 13:35:14.517,73265.968,-0.042,0.41,-0.911,-0.034,0.238,-0.023,0.145,0.291,-0.643,-0.046,-0.422,1.084
2024-10-15 13:35:14.527,73265.978,-0.041,0.403,-0.914,-0.083,0.561,0.058,1.126,0.432,-0.676,-0.045,-0.415,1.077
2024-10-15 13:35:14.538,73265.988,-0.04,0.394,-0.918,-0.019,0.571,0.112,0.636,0.375,-0.639,-0.044,-0.405,1.071
2024-10-15 13:35:14.547,73265.998,-0.04,0.392,-0.919,0.158,0.232,0.127,-0.238,0.32,-0.698,-0.043,-0.403,1.063
2024-10-15 13:35:14.557,73266.008,-0.04,0.396,-0.917,0.08,-0.108,0.212,-0.577,0.199,-0.513,-0.043,-0.407,1.056
2024-10-15 13:35:14.567,73266.018,-0.04,0.401,-0.915,-0.006,0.288,0.146,-0.426,0.077,-0.136,-0.043,-0.412,1.052
2024-10-15 13:35:14.577,73266.028,-0.039,0.403,-0.914,-0.15,0.881,0.104,0.051,-0.027,0.235,-0.043,-0.415,1.053
2024-10-15 13:35:14.587,73266.037,-0.038,0.399,-0.916,-0.274,1.174,0.154,0.898,-0.063,0.533,-0.041,-0.41,1.057
2024-10-15 13:35:14.597,73266.047,-0.036,0.388,-0.921,-0.315,1.204,0.191,1.341,-0.143,0.819,-0.039,-0.399,1.065
2024-10-15 13:35:14.607,73266.057,-0.035,0.377,-0.926,-0.189,0.937,0.234,1.116,-0.216,0.942,-0.037,-0.387,1.075
2024-10-15 13:35:14.617,73266.067,-0.033,0.37,-0.928,-0.059,0.333,0.223,0.392,-0.285,0.953,-0.036,-0.379,1.086
2024-10-15 13:35:14.627,73266.077,-0.033,0.372,-0.928,0.002,-0.214,0.109,-0.588,-0.388,0.948,-0.036,-0.381,1.096
2024-10-15 13:35:14.637,73266.087,-0.033,0.377,-0.926,-0.015,-0.467,0.042,-0.278,-0.343,0.777,-0.036,-0.387,1.105
2024-10-15 13:35:14.647,73266.097,-0.033,0.377,-0.926,-0.116,-0.383,0.053,0.257,-0.322,0.784,-0.036,-0.387,1.113
2024-10-15 13:35:14.657,73266.107,-0.034,0.376,-0.926,-0.011,-0.122,-0.006,0.026,-0.238,0.493,-0.036,-0.385,1.121
2024-10-15 13:35:14.667,73266.117,-0.034,0.376,-0.926,0.055,-0.575,-0.041,-0.099,-0.125,0.158,-0.037,-0.386,1.124
2024-10-15 13:35:14.677,73266.127,-0.035,0.377,-0.926,0.052,-1.007,-0.189,-0.075,0.041,-0.178,-0.037,-0.387,1.124
2024-10-15 13:35:14.687,73266.137,-0.035,0.379,-0.925,0.104,-0.993,-0.333,-0.502,0.101,-0.453,-0.038,-0.389,1.12
2024-10-15 13:35:14.697,73266.147,-0.036,0.387,-0.921,0.115,-1.04,-0.389,-1.212,0.133,-0.698,-0.039,-0.397,1.113
2024-10-15 13:35:14.707,73266.157,-0.038,0.399,-0.916,0.106,-1.036,-0.268,-1.283,0.184,-0.798,-0.041,-0.41,1.104
2024-10-15 13:35:14.717,73266.167,-0.039,0.409,-0.912,0.039,-0.646,-0.145,-0.963,0.237,-0.765,-0.043,-0.421,1.095
2024-10-15 13:35:14.727,73266.177,-0.04,0.415,-0.909,-0.005,-0.021,-0.061,-0.455,0.287,-0.691,-0.044,-0.428,1.086
2024-10-15 13:35:14.737,73266.187,-0.039,0.413,-0.91,-0.037,0.327,0.033,0.707,0.496,-0.843,-0.043,-0.426,1.078
2024-10-15 13:35:14.747,73266.197,-0.038,0.405,-0.914,0.008,0.453,0.097,0.875,0.493,-0.674,-0.041,-0.417,1.07
2024-10-15 13:35:14.757,73266.207,-0.036,0.399,-0.916,0.188,0.425,0.039,0.314,0.507,-0.875,-0.04,-0.411,1.062
2024-10-15 13:35:14.767,73266.217,-0.035,0.398,-0.917,0.169,0.009,0.094,-0.136,0.424,-0.739,-0.038,-0.41,1.053
2024-10-15 13:35:14.777,73266.227,-0.034,0.4,-0.916,0.055,0.097,0.063,-0.34,0.275,-0.482,-0.038,-0.412,1.046
2024-10-15 13:35:14.788,73266.237,-0.034,0.403,-0.915,-0.061,0.561,0.019,-0.204,0.098,-0.152,-0.037,-0.415,1.042
2024-10-15 13:35:14.797,73266.247,-0.034,0.404,-0.914,-0.221,0.886,0.096,0.054,-0.056,0.28,-0.037,-0.416,1.043
2024-10-15 13:35:14.807,73266.257,-0.033,0.401,-0.916,-0.252,1.081,0.215,0.704,-0.097,0.531,-0.036,-0.412,1.048
2024-10-15 13:35:14.817,73266.267,-0.031,0.392,-0.92,-0.267,1.068,0.308,1.234,-0.156,0.837,-0.034,-0.403,1.055
2024-10-15 13:35:14.827,73266.277,-0.029,0.381,-0.924,-0.186,0.918,0.293,1.02,-0.234,0.986,-0.032,-0.391,1.066
2024-10-15 13:35:14.837,73266.287,-0.028,0.375,-0.927,-0.052,0.428,0.214,0.338,-0.296,0.951,-0.03,-0.384,1.076
2024-10-15 13:35:14.847,73266.297,-0.028,0.377,-0.926,0.023,-0.149,0.076,-0.597,-0.407,0.983,-0.03,-0.387,1.087
2024-10-15 13:35:14.856,73266.307,-0.028,0.382,-0.924,-0.001,-0.404,0.019,-0.34,-0.418,0.841,-0.031,-0.392,1.096
2024-10-15 13:35:14.867,73266.317,-0.029,0.383,-0.923,-0.13,-0.326,0.067,0.19,-0.42,0.85,-0.032,-0.393,1.105
2024-10-15 13:35:14.877,73266.327,-0.03,0.382,-0.924,-0.057,-0.111,0.006,-0.004,-0.333,0.563,-0.032,-0.392,1.113
2024-10-15 13:35:14.887,73266.337,-0.031,0.383,-0.923,0.014,-0.546,-0.053,-0.041,-0.206,0.222,-0.034,-0.393,1.117
2024-10-15 13:35:14.897,73266.347,-0.032,0.383,-0.923,0.001,-0.95,-0.219,-0.032,-0.024,-0.095,-0.034,-0.393,1.118
2024-10-15 13:35:14.907,73266.357,-0.033,0.384,-0.923,0.067,-0.953,-0.37,-0.341,0.073,-0.403,-0.035,-0.394,1.115
2024-10-15 13:35:14.917,73266.367,-0.034,0.39,-0.92,0.102,-1.03,-0.398,-0.884,0.125,-0.661,-0.037,-0.4,1.109
2024-10-15 13:35:14.927,73266.377,-0.035,0.398,-0.917,0.13,-0.985,-0.263,-0.955,0.151,-0.736,-0.039,-0.409,1.101
2024-10-15 13:35:14.937,73266.387,-0.037,0.405,-0.913,0.051,-0.572,-0.134,-0.713,0.175,-0.67,-0.04,-0.418,1.093
2024-10-15 13:35:14.947,73266.397,-0.037,0.41,-0.911,-0.004,0.006,-0.052,-0.324,0.247,-0.603,-0.041,-0.423,1.086
2024-10-15 13:35:14.957,73266.407,-0.037,0.407,-0.913,-0.021,0.346,0.057,0.891,0.493,-0.792,-0.04,-0.42,1.078
2024-10-15 13:35:14.967,73266.417,-0.035,0.397,-0.917,-0.024,0.431,0.132,1.044,0.47,-0.641,-0.038,-0.408,1.071
2024-10-15 13:35:14.976,73266.427,-0.034,0.391,-0.92,0.109,0.325,0.05,0.182,0.437,-0.869,-0.037,-0.402,1.063
2024-10-15 13:35:14.987,73266.437,-0.034,0.393,-0.919,0.143,-0.197,0.081,-0.528,0.36,-0.808,-0.037,-0.404,1.054
2024-10-15 13:35:14.997,73266.447,-0.033,0.399,-0.917,0.045,-0.198,0.081,-0.723,0.301,-0.597,-0.036,-0.41,1.046
2024-10-15 13:35:15.006,73266.457,-0.033,0.404,-0.914,-0.048,0.428,0.015,-0.575,0.157,-0.253,-0.036,-0.416,1.041
2024-10-15 13:35:15.017,73266.467,-0.033,0.408,-0.912,-0.199,0.852,0.076,-0.249,0.01,0.132,-0.036,-0.42,1.04
2024-10-15 13:35:15.026,73266.477,-0.032,0.408,-0.913,-0.197,0.987,0.209,0.365,-0.074,0.391,-0.035,-0.42,1.043
2024-10-15 13:35:15.036,73266.487,-0.031,0.401,-0.915,-0.18,1.024,0.357,1.011,-0.147,0.726,-0.033,-0.413,1.049
2024-10-15 13:35:15.047,73266.497,-0.029,0.392,-0.92,-0.163,1.006,0.352,1.058,-0.225,0.922,-0.031,-0.403,1.059
2024-10-15 13:35:15.057,73266.507,-0.028,0.384,-0.923,-0.056,0.578,0.223,0.619,-0.248,0.888,-0.03,-0.394,1.069
2024-10-15 13:35:15.066,73266.517,-0.027,0.383,-0.923,0.039,-0.042,0.083,-0.323,-0.371,0.877,-0.03,-0.393,1.078
2024-10-15 13:35:15.076,73266.527,-0.028,0.387,-0.922,0.046,-0.383,-0.016,-0.205,-0.333,0.667,-0.03,-0.397,1.087
2024-10-15 13:35:15.086,73266.537,-0.028,0.386,-0.922,-0.107,-0.44,-0.024,0.332,-0.318,0.716,-0.03,-0.396,1.094
2024-10-15 13:35:15.096,73266.547,-0.028,0.384,-0.923,-0.102,-0.159,-0.116,0.073,-0.26,0.499,-0.03,-0.394,1.101
2024-10-15 13:35:15.106,73266.557,-0.029,0.385,-0.923,-0.005,-0.474,-0.115,-0.174,-0.191,0.163,-0.031,-0.395,1.104
2024-10-15 13:35:15.116,73266.567,-0.03,0.386,-0.922,0.025,-0.995,-0.169,-0.047,-0.019,-0.175,-0.033,-0.396,1.104
2024-10-15 13:35:15.126,73266.577,-0.031,0.387,-0.921,0.09,-0.973,-0.278,-0.395,0.035,-0.395,-0.034,-0.398,1.101
2024-10-15 13:35:15.136,73266.587,-0.033,0.394,-0.918,0.121,-0.905,-0.351,-1.1,0.076,-0.615,-0.035,-0.405,1.095
2024-10-15 13:35:15.146,73266.597,-0.034,0.405,-0.914,0.106,-0.929,-0.261,-1.223,0.112,-0.696,-0.038,-0.417,1.087
2024-10-15 13:35:15.156,73266.607,-0.036,0.414,-0.909,0.033,-0.588,-0.191,-0.828,0.169,-0.648,-0.039,-0.427,1.079
2024-10-15 13:35:15.166,73266.616,-0.037,0.419,-0.907,-0.025,0.022,-0.128,-0.313,0.222,-0.577,-0.04,-0.433,1.073
2024-10-15 13:35:15.176,73266.626,-0.036,0.417,-0.908,-0.064,0.384,-0.015,0.932,0.46,-0.754,-0.04,-0.43,1.065
2024-10-15 13:35:15.186,73266.636,-0.035,0.404,-0.914,-0.071,0.477,0.091,1.53,0.472,-0.615,-0.038,-0.416,1.058
2024-10-15 13:35:15.196,73266.646,-0.034,0.393,-0.919,0.06,0.437,0.087,0.847,0.433,-0.772,-0.036,-0.404,1.052
2024-10-15 13:35:15.206,73266.656,-0.033,0.389,-0.921,0.183,-0.056,0.202,0.103,0.345,-0.822,-0.036,-0.399,1.043
2024-10-15 13:35:15.216,73266.666,-0.033,0.389,-0.92,0.128,-0.329,0.246,-0.312,0.228,-0.623,-0.036,-0.4,1.035
2024-10-15 13:35:15.227,73266.676,-0.034,0.393,-0.919,0.066,0.172,0.134,-0.596,0.093,-0.316,-0.037,-0.404,1.029
2024-10-15 13:35:15.236,73266.686,-0.034,0.398,-0.917,-0.097,0.682,0.056,-0.428,-0.049,0.066,-0.037,-0.41,1.028
2024-10-15 13:35:15.247,73266.696,-0.034,0.399,-0.916,-0.231,1.004,0.102,0.406,-0.087,0.358,-0.037,-0.41,1.03
2024-10-15 13:35:15.256,73266.706,-0.033,0.391,-0.92,-0.257,1.226,0.211,1.175,-0.135,0.709,-0.036,-0.402,1.036
2024-10-15 13:35:15.267,73266.716,-0.031,0.38,-0.924,-0.204,1.181,0.226,1.177,-0.175,0.924,-0.033,-0.39,1.046
2024-10-15 13:35:15.276,73266.726,-0.029,0.371,-0.928,-0.097,0.726,0.182,0.803,-0.237,0.96,-0.032,-0.38,1.056
2024-10-15 13:35:15.286,73266.736,-0.029,0.368,-0.929,0.037,0.08,0.153,-0.162,-0.4,0.937,-0.031,-0.377,1.067
2024-10-15 13:35:15.296,73266.746,-0.029,0.372,-0.928,0.139,-0.322,0.074,-0.404,-0.358,0.75,-0.031,-0.381,1.076
2024-10-15 13:35:15.306,73266.756,-0.029,0.372,-0.928,-0.02,-0.452,0.1,0.27,-0.335,0.756,-0.032,-0.382,1.084
2024-10-15 13:35:15.316,73266.766,-0.03,0.37,-0.928,-0.119,-0.214,-0.011,0.163,-0.33,0.646,-0.032,-0.379,1.092
2024-10-15 13:35:15.326,73266.776,-0.031,0.371,-0.928,-0.023,-0.326,-0.087,-0.161,-0.253,0.318,-0.033,-0.38,1.097
2024-10-15 13:35:15.336,73266.786,-0.032,0.372,-0.928,-0.029,-0.912,-0.131,-0.016,-0.093,-0.014,-0.034,-0.381,1.098
2024-10-15 13:35:15.346,73266.796,-0.033,0.371,-0.928,0.022,-1.013,-0.278,-0.031,0.02,-0.353,-0.035,-0.38,1.096
2024-10-15 13:35:15.356,73266.806,-0.034,0.375,-0.926,0.044,-0.938,-0.394,-0.887,0.059,-0.561,-0.037,-0.384,1.091
2024-10-15 13:35:15.366,73266.816,-0.036,0.386,-0.922,0.078,-1.032,-0.336,-1.417,0.087,-0.749,-0.039,-0.396,1.084
2024-10-15 13:35:15.376,73266.826,-0.038,0.398,-0.917,0.032,-0.866,-0.195,-1.166,0.109,-0.701,-0.041,-0.409,1.075
2024-10-15 13:35:15.386,73266.836,-0.039,0.406,-0.913,-0.041,-0.221,-0.106,-0.686,0.109,-0.601,-0.043,-0.418,1.068
2024-10-15 13:35:15.396,73266.846,-0.041,0.41,-0.911,-0.048,0.311,-0.01,-0.142,0.16,-0.557,-0.045,-0.422,1.061
2024-10-15 13:35:15.406,73266.856,-0.041,0.406,-0.913,-0.04,0.47,0.108,0.981,0.344,-0.685,-0.045,-0.418,1.054
2024-10-15 13:35:15.416,73266.866,-0.04,0.395,-0.918,-0.017,0.544,0.188,1.104,0.36,-0.506,-0.044,-0.406,1.049
2024-10-15 13:35:15.427,73266.876,-0.039,0.388,-0.921,0.121,0.482,0.165,0.305,0.36,-0.627,-0.042,-0.399,1.043
2024-10-15 13:35:15.437,73266.886,-0.038,0.388,-0.921,0.132,0.047,0.195,-0.229,0.257,-0.504,-0.042,-0.398,1.036
2024-10-15 13:35:15.449,73266.896,-0.038,0.391,-0.92,0.004,0.071,0.146,-0.361,0.102,-0.156,-0.041,-0.401,1.033
2024-10-15 13:35:15.456,73266.906,-0.037,0.394,-0.918,-0.103,0.645,0.113,-0.174,0.013,0.192,-0.041,-0.405,1.033
2024-10-15 13:35:15.466,73266.916,-0.036,0.392,-0.919,-0.262,1.044,0.185,0.565,-0.035,0.546,-0.039,-0.403,1.037
2024-10-15 13:35:15.476,73266.926,-0.034,0.384,-0.923,-0.346,1.176,0.207,1.24,-0.115,0.853,-0.037,-0.394,1.045
2024-10-15 13:35:15.486,73266.936,-0.032,0.372,-0.928,-0.174,1.006,0.261,1.252,-0.158,0.928,-0.034,-0.381,1.055
2024-10-15 13:35:15.496,73266.946,-0.03,0.365,-0.931,0.041,0.384,0.27,0.338,-0.253,0.866,-0.032,-0.373,1.065
2024-10-15 13:35:15.506,73266.956,-0.03,0.365,-0.931,0.104,-0.293,0.159,-0.157,-0.236,0.643,-0.032,-0.373,1.073
2024-10-15 13:35:15.516,73266.966,-0.029,0.365,-0.931,0.014,-0.713,0.065,0.277,-0.138,0.472,-0.032,-0.373,1.079
2024-10-15 13:35:15.526,73266.976,-0.029,0.361,-0.932,0.014,-0.628,-0.066,0.463,0.024,0.173,-0.031,-0.369,1.083
2024-10-15 13:35:15.536,73266.986,-0.028,0.359,-0.933,0.068,-0.651,-0.209,-0.041,0.127,-0.215,-0.03,-0.367,1.083
2024-10-15 13:35:15.546,73266.996,-0.028,0.363,-0.931,0.028,-1.106,-0.316,-0.913,0.177,-0.477,-0.03,-0.372,1.079
2024-10-15 13:35:15.556,73267.006,-0.028,0.376,-0.926,0.036,-1.219,-0.35,-1.758,0.184,-0.628,-0.03,-0.385,1.072
2024-10-15 13:35:15.566,73267.016,-0.029,0.393,-0.919,0.006,-0.908,-0.263,-1.987,0.176,-0.658,-0.032,-0.404,1.065
2024-10-15 13:35:15.575,73267.026,-0.03,0.41,-0.912,-0.059,-0.469,-0.173,-1.714,0.187,-0.572,-0.033,-0.422,1.057
2024-10-15 13:35:15.586,73267.036,-0.03,0.424,-0.905,-0.101,0.086,-0.079,-1.551,0.165,-0.366,-0.033,-0.438,1.051
2024-10-15 13:35:15.595,73267.046,-0.03,0.439,-0.898,-0.106,0.488,0.044,-1.64,0.134,-0.233,-0.034,-0.454,1.048
2024-10-15 13:35:15.606,73267.056,-0.03,0.453,-0.891,-0.051,0.452,0.13,-1.579,0.155,-0.152,-0.033,-0.47,1.045
2024-10-15 13:35:15.615,73267.066,-0.029,0.466,-0.884,0.011,0.318,0.193,-1.403,0.189,-0.096,-0.033,-0.485,1.043
2024-10-15 13:35:15.626,73267.076,-0.027,0.478,-0.878,0.063,0.278,0.221,-1.304,0.256,-0.09,-0.031,-0.499,1.042
2024-10-15 13:35:15.636,73267.086,-0.025,0.489,-0.872,0.076,0.135,0.219,-1.304,0.332,-0.134,-0.029,-0.511,1.04
2024-10-15 13:35:15.646,73267.096,-0.023,0.501,-0.865,0.042,-0.02,0.186,-1.405,0.368,-0.174,-0.027,-0.525,1.038
2024-10-15 13:35:15.655,73267.106,-0.021,0.514,-0.858,-0.011,-0.122,0.134,-1.582,0.385,-0.237,-0.024,-0.54,1.035
2024-10-15 13:35:15.666,73267.116,-0.019,0.528,-0.849,-0.018,-0.208,0.103,-1.834,0.417,-0.278,-0.022,-0.557,1.032
2024-10-15 13:35:15.675,73267.126,-0.017,0.545,-0.838,-0.017,-0.217,0.073,-2.128,0.432,-0.298,-0.02,-0.576,1.028
2024-10-15 13:35:15.686,73267.136,-0.015,0.564,-0.826,-0.027,-0.171,0.044,-2.385,0.479,-0.316,-0.018,-0.599,1.024
2024-10-15 13:35:15.695,73267.146,-0.012,0.584,-0.812,-0.032,-0.088,0.003,-2.462,0.53,-0.295,-0.015,-0.623,1.02
2024-10-15 13:35:15.705,73267.156,-0.009,0.603,-0.798,-0.035,0.027,-0.07,-2.274,0.595,-0.192,-0.011,-0.647,1.016
2024-10-15 13:35:15.715,73267.166,-0.005,0.62,-0.785,-0.031,0.164,-0.157,-2.12,0.616,-0.106,-0.007,-0.669,1.014
2024-10-15 13:35:15.725,73267.176,-0.001,0.636,-0.772,0.008,0.206,-0.186,-1.983,0.586,-0.068,-0.001,-0.689,1.013
2024-10-15 13:35:15.735,73267.186,0.003,0.65,-0.76,0.054,0.154,-0.146,-1.785,0.542,-0.033,0.004,-0.708,1.013
2024-10-15 13:35:15.745,73267.195,0.007,0.663,-0.749,0.076,0.133,-0.113,-1.509,0.478,-0.007,0.009,-0.725,1.013
2024-10-15 13:35:15.755,73267.205,0.01,0.673,-0.74,0.095,0.143,-0.083,-1.193,0.384,0.007,0.013,-0.738,1.013
2024-10-15 13:35:15.765,73267.215,0.012,0.681,-0.733,0.102,0.136,-0.055,-0.914,0.276,0.028,0.017,-0.749,1.013
2024-10-15 13:35:15.775,73267.225,0.014,0.686,-0.727,0.106,0.113,-0.011,-0.684,0.17,0.015,0.019,-0.756,1.014
2024-10-15 13:35:15.785,73267.235,0.015,0.691,-0.723,0.095,0.073,0.017,-0.47,0.073,0.029,0.021,-0.762,1.015
2024-10-15 13:35:15.795,73267.245,0.016,0.693,-0.721,0.07,0.058,0.038,-0.269,0.008,0.039,0.022,-0.766,1.015
2024-10-15 13:35:15.805,73267.255,0.016,0.694,-0.719,0.06,0.042,0.063,-0.093,-0.031,0.048,0.022,-0.768,1.016
2024-10-15 13:35:15.815,73267.265,0.016,0.695,-0.719,0.047,0.013,0.069,0.038,-0.052,0.057,0.022,-0.768,1.017
2024-10-15 13:35:15.825,73267.275,0.016,0.694,-0.72,0.032,-0.001,0.065,0.131,-0.068,0.062,0.022,-0.767,1.018
2024-10-15 13:35:15.835,73267.285,0.016,0.693,-0.721,0.023,-0.012,0.045,0.183,-0.079,0.054,0.022,-0.765,1.019
2024-10-15 13:35:15.845,73267.295,0.015,0.691,-0.722,0.03,-0.026,0.022,0.247,-0.09,0.019,0.021,-0.763,1.019
2024-10-15 13:35:15.855,73267.305,0.015,0.689,-0.724,0.033,-0.028,0.011,0.296,-0.101,0.0,0.02,-0.761,1.02
2024-10-15 13:35:15.865,73267.315,0.014,0.687,-0.727,0.027,-0.016,0.003,0.348,-0.118,-0.026,0.019,-0.757,1.019
2024-10-15 13:35:15.875,73267.325,0.013,0.684,-0.729,0.024,-0.023,-0.003,0.398,-0.127,-0.05,0.017,-0.754,1.019
2024-10-15 13:35:15.885,73267.335,0.011,0.681,-0.732,0.025,-0.021,-0.005,0.45,-0.144,-0.055,0.016,-0.749,1.018
2024-10-15 13:35:15.895,73267.345,0.01,0.678,-0.735,0.026,-0.009,-0.009,0.476,-0.149,-0.043,0.014,-0.745,1.017
2024-10-15 13:35:15.905,73267.355,0.009,0.674,-0.738,0.025,-0.003,-0.004,0.462,-0.147,-0.038,0.012,-0.74,1.017
2024-10-15 13:35:15.915,73267.365,0.007,0.671,-0.741,0.023,0.005,-0.001,0.446,-0.142,-0.028,0.01,-0.736,1.016
2024-10-15 13:35:15.925,73267.375,0.006,0.668,-0.744,0.013,0.022,-0.0,0.46,-0.144,0.015,0.008,-0.731,1.016
2024-10-15 13:35:15.935,73267.385,0.005,0.664,-0.748,0.013,0.027,-0.005,0.556,-0.148,0.024,0.007,-0.726,1.016
2024-10-15 13:35:15.945,73267.395,0.004,0.659,-0.752,0.018,0.025,-0.005,0.701,-0.133,0.035,0.006,-0.72,1.016
2024-10-15 13:35:15.955,73267.405,0.004,0.653,-0.757,0.024,0.049,0.013,0.79,-0.143,0.096,0.005,-0.712,1.017
2024-10-15 13:35:15.965,73267.415,0.003,0.647,-0.762,0.022,0.061,-0.014,0.792,-0.161,0.125,0.004,-0.704,1.018
2024-10-15 13:35:15.975,73267.425,0.003,0.641,-0.767,0.015,0.002,-0.014,0.839,-0.213,0.111,0.004,-0.696,1.02
2024-10-15 13:35:15.985,73267.435,0.002,0.634,-0.773,0.036,-0.03,-0.0,0.941,-0.261,0.113,0.002,-0.687,1.021
2024-10-15 13:35:15.995,73267.445,0.0,0.626,-0.779,0.022,0.017,0.007,1.111,-0.289,0.111,0.0,-0.677,1.023
2024-10-15 13:35:16.005,73267.455,-0.001,0.617,-0.787,0.008,0.077,0.022,1.263,-0.3,0.087,-0.002,-0.665,1.024
2024-10-15 13:35:16.015,73267.465,-0.003,0.607,-0.795,0.004,0.09,0.05,1.325,-0.242,0.08,-0.004,-0.652,1.025
2024-10-15 13:35:16.025,73267.475,-0.004,0.597,-0.803,-0.013,0.078,0.099,1.272,-0.19,0.121,-0.005,-0.639,1.026
2024-10-15 13:35:16.035,73267.485,-0.005,0.587,-0.81,-0.021,0.037,0.157,1.154,-0.175,0.158,-0.006,-0.627,1.027
2024-10-15 13:35:16.045,73267.495,-0.005,0.578,-0.816,-0.01,-0.009,0.172,1.022,-0.169,0.143,-0.007,-0.616,1.029
2024-10-15 13:35:16.055,73267.505,-0.006,0.57,-0.822,-0.011,-0.005,0.113,1.026,-0.203,0.112,-0.007,-0.606,1.031
2024-10-15 13:35:16.065,73267.515,-0.008,0.561,-0.828,-0.036,0.032,0.042,1.177,-0.308,0.067,-0.009,-0.595,1.032
2024-10-15 13:35:16.075,73267.525,-0.01,0.55,-0.835,-0.063,0.069,-0.025,1.465,-0.422,0.073,-0.012,-0.582,1.033
2024-10-15 13:35:16.085,73267.535,-0.013,0.537,-0.844,-0.089,0.103,-0.032,1.641,-0.338,0.197,-0.016,-0.567,1.034
2024-10-15 13:35:16.095,73267.545,-0.013,0.524,-0.852,-0.112,0.17,0.048,1.367,-0.137,0.36,-0.016,-0.551,1.038
2024-10-15 13:35:16.105,73267.555,-0.013,0.515,-0.857,-0.2,0.228,-0.034,0.773,-0.28,0.431,-0.015,-0.541,1.042
2024-10-15 13:35:16.115,73267.565,-0.014,0.509,-0.86,-0.238,0.185,-0.212,0.581,-0.33,0.472,-0.016,-0.534,1.048
2024-10-15 13:35:16.125,73267.575,-0.014,0.505,-0.863,-0.153,0.042,-0.115,0.473,-0.376,0.533,-0.016,-0.529,1.053
2024-10-15 13:35:16.135,73267.585,-0.015,0.502,-0.865,-0.043,0.091,-0.086,0.204,-0.468,0.596,-0.017,-0.526,1.06
2024-10-15 13:35:16.145,73267.595,-0.016,0.501,-0.865,-0.036,0.065,-0.133,0.179,-0.491,0.537,-0.019,-0.524,1.066
2024-10-15 13:35:16.154,73267.605,-0.018,0.499,-0.867,-0.057,-0.079,-0.091,0.316,-0.44,0.428,-0.021,-0.522,1.072
2024-10-15 13:35:16.165,73267.615,-0.02,0.496,-0.868,0.003,-0.059,-0.068,0.364,-0.36,0.306,-0.023,-0.519,1.076
2024-10-15 13:35:16.174,73267.625,-0.021,0.492,-0.87,0.069,-0.194,-0.038,0.438,-0.228,0.063,-0.024,-0.515,1.078
2024-10-15 13:35:16.184,73267.635,-0.023,0.489,-0.872,0.099,-0.478,-0.009,0.384,-0.064,-0.121,-0.026,-0.511,1.078
2024-10-15 13:35:16.195,73267.645,-0.024,0.485,-0.874,0.144,-0.581,0.05,0.461,0.063,-0.194,-0.027,-0.506,1.076
2024-10-15 13:35:16.205,73267.655,-0.023,0.481,-0.876,0.191,-0.584,0.099,0.346,0.233,-0.235,-0.027,-0.502,1.074
2024-10-15 13:35:16.215,73267.665,-0.022,0.479,-0.877,0.213,-0.546,0.211,0.003,0.3,-0.355,-0.025,-0.5,1.07
2024-10-15 13:35:16.224,73267.675,-0.022,0.48,-0.877,0.163,-0.492,0.258,-0.237,0.274,-0.45,-0.025,-0.501,1.065
2024-10-15 13:35:16.234,73267.685,-0.021,0.481,-0.876,0.089,-0.217,0.1,0.185,0.308,-0.475,-0.024,-0.502,1.06
2024-10-15 13:35:16.244,73267.695,-0.021,0.475,-0.88,-0.041,0.15,-0.083,1.104,0.353,-0.454,-0.024,-0.495,1.055
2024-10-15 13:35:16.254,73267.705,-0.019,0.466,-0.885,-0.059,0.468,-0.183,0.851,0.285,-0.255,-0.022,-0.484,1.051
2024-10-15 13:35:16.264,73267.715,-0.019,0.462,-0.887,0.105,0.379,-0.244,0.009,0.167,-0.401,-0.021,-0.48,1.047
2024-10-15 13:35:16.275,73267.725,-0.02,0.463,-0.886,-0.018,-0.025,-0.153,-0.143,0.013,-0.206,-0.022,-0.481,1.043
2024-10-15 13:35:16.285,73267.735,-0.02,0.464,-0.886,-0.161,0.275,-0.067,0.032,-0.059,0.007,-0.023,-0.482,1.042
2024-10-15 13:35:16.295,73267.745,-0.021,0.463,-0.886,-0.101,0.643,0.004,0.042,-0.153,0.206,-0.023,-0.482,1.043
2024-10-15 13:35:16.305,73267.755,-0.021,0.462,-0.887,-0.179,0.555,0.142,0.326,-0.248,0.348,-0.024,-0.48,1.046
2024-10-15 13:35:16.315,73267.765,-0.022,0.458,-0.889,-0.23,0.416,0.229,0.615,-0.318,0.483,-0.025,-0.476,1.051
2024-10-15 13:35:16.325,73267.774,-0.022,0.451,-0.892,-0.165,0.479,0.242,0.899,-0.359,0.587,-0.025,-0.468,1.057
2024-10-15 13:35:16.334,73267.784,-0.023,0.442,-0.897,-0.192,0.399,0.162,1.122,-0.396,0.651,-0.026,-0.458,1.064
2024-10-15 13:35:16.343,73267.794,-0.024,0.432,-0.902,-0.172,0.258,0.039,1.168,-0.406,0.622,-0.026,-0.447,1.071
2024-10-15 13:35:16.354,73267.804,-0.025,0.425,-0.905,-0.086,0.101,-0.094,0.318,-0.508,0.725,-0.028,-0.439,1.079
2024-10-15 13:35:16.364,73267.814,-0.027,0.425,-0.905,-0.011,-0.152,-0.12,-0.159,-0.482,0.484,-0.03,-0.439,1.085
2024-10-15 13:35:16.374,73267.824,-0.029,0.426,-0.904,-0.045,-0.359,-0.065,-0.022,-0.453,0.564,-0.032,-0.44,1.091
2024-10-15 13:35:16.384,73267.834,-0.031,0.426,-0.904,-0.005,-0.3,-0.081,-0.101,-0.407,0.425,-0.034,-0.441,1.097
2024-10-15 13:35:16.394,73267.844,-0.033,0.428,-0.903,0.148,-0.392,-0.037,-0.209,-0.314,0.114,-0.036,-0.442,1.099
2024-10-15 13:35:16.404,73267.854,-0.035,0.429,-0.902,0.138,-0.643,-0.009,-0.055,-0.151,-0.148,-0.039,-0.444,1.099
2024-10-15 13:35:16.414,73267.864,-0.037,0.429,-0.903,0.144,-0.719,-0.034,0.136,0.043,-0.301,-0.041,-0.443,1.097
2024-10-15 13:35:16.424,73267.874,-0.037,0.428,-0.903,0.178,-0.647,-0.031,-0.215,0.162,-0.399,-0.041,-0.443,1.093
2024-10-15 13:35:16.434,73267.884,-0.038,0.432,-0.901,0.183,-0.617,0.061,-0.715,0.2,-0.576,-0.042,-0.447,1.087
2024-10-15 13:35:16.444,73267.894,-0.038,0.44,-0.897,0.094,-0.571,0.097,-0.965,0.204,-0.542,-0.043,-0.456,1.08
2024-10-15 13:35:16.454,73267.904,-0.039,0.448,-0.893,-0.005,-0.2,0.027,-0.859,0.18,-0.459,-0.043,-0.465,1.074
2024-10-15 13:35:16.464,73267.914,-0.039,0.451,-0.891,-0.035,0.158,-0.022,0.158,0.341,-0.614,-0.044,-0.468,1.068
2024-10-15 13:35:16.474,73267.924,-0.038,0.447,-0.894,-0.033,0.331,-0.028,0.722,0.386,-0.467,-0.043,-0.463,1.062
2024-10-15 13:35:16.484,73267.934,-0.037,0.442,-0.896,0.083,0.412,-0.08,0.225,0.368,-0.591,-0.042,-0.458,1.056
2024-10-15 13:35:16.494,73267.944,-0.037,0.443,-0.896,0.124,0.116,-0.047,-0.497,0.266,-0.585,-0.041,-0.459,1.049
2024-10-15 13:35:16.504,73267.954,-0.037,0.448,-0.893,-0.011,-0.044,-0.011,-0.699,0.242,-0.468,-0.042,-0.465,1.043
2024-10-15 13:35:16.515,73267.964,-0.037,0.453,-0.891,-0.088,0.287,-0.006,-0.426,0.212,-0.302,-0.042,-0.471,1.038
2024-10-15 13:35:16.524,73267.974,-0.036,0.456,-0.889,-0.2,0.633,0.055,-0.231,0.093,-0.009,-0.041,-0.474,1.036
2024-10-15 13:35:16.534,73267.984,-0.036,0.458,-0.888,-0.215,0.738,0.169,-0.138,-0.049,0.163,-0.04,-0.475,1.037
2024-10-15 13:35:16.544,73267.994,-0.036,0.458,-0.888,-0.209,0.632,0.286,0.082,-0.17,0.338,-0.04,-0.476,1.039
2024-10-15 13:35:16.554,73268.004,-0.036,0.456,-0.889,-0.216,0.609,0.274,0.39,-0.245,0.531,-0.04,-0.474,1.044
2024-10-15 13:35:16.564,73268.014,-0.035,0.452,-0.891,-0.167,0.584,0.13,0.52,-0.292,0.646,-0.04,-0.469,1.051
2024-10-15 13:35:16.574,73268.024,-0.035,0.448,-0.893,-0.097,0.35,-0.051,0.491,-0.304,0.636,-0.039,-0.464,1.058
2024-10-15 13:35:16.584,73268.034,-0.036,0.447,-0.894,-0.056,0.066,-0.225,-0.432,-0.509,0.786,-0.04,-0.464,1.066
2024-10-15 13:35:16.594,73268.044,-0.037,0.454,-0.89,-0.031,-0.109,-0.26,-0.929,-0.53,0.618,-0.042,-0.471,1.073
2024-10-15 13:35:16.604,73268.054,-0.039,0.462,-0.886,-0.119,-0.326,-0.049,-0.729,-0.6,0.765,-0.044,-0.48,1.081
2024-10-15 13:35:16.614,73268.064,-0.041,0.469,-0.882,-0.067,-0.267,0.051,-0.779,-0.615,0.701,-0.046,-0.488,1.089
2024-10-15 13:35:16.624,73268.074,-0.043,0.476,-0.879,0.146,-0.384,0.129,-0.712,-0.487,0.343,-0.049,-0.496,1.094
2024-10-15 13:35:16.634,73268.084,-0.046,0.478,-0.877,0.142,-0.774,0.117,0.141,-0.24,0.022,-0.052,-0.499,1.096
2024-10-15 13:35:16.644,73268.094,-0.047,0.474,-0.879,0.121,-0.784,-0.035,0.74,-0.007,-0.244,-0.054,-0.494,1.095
2024-10-15 13:35:16.654,73268.104,-0.048,0.471,-0.881,0.169,-0.671,-0.192,-0.038,0.143,-0.351,-0.054,-0.49,1.092
2024-10-15 13:35:16.664,73268.114,-0.049,0.475,-0.879,0.232,-0.913,-0.167,-0.853,0.241,-0.647,-0.055,-0.495,1.086
2024-10-15 13:35:16.674,73268.124,-0.049,0.482,-0.875,0.141,-0.994,-0.065,-0.859,0.289,-0.628,-0.056,-0.503,1.078
2024-10-15 13:35:16.683,73268.134,-0.049,0.487,-0.872,0.01,-0.437,-0.083,-0.372,0.343,-0.527,-0.057,-0.509,1.071
2024-10-15 13:35:16.694,73268.144,-0.049,0.485,-0.873,-0.02,0.188,-0.07,1.082,0.545,-0.664,-0.056,-0.506,1.064
2024-10-15 13:35:16.704,73268.154,-0.047,0.469,-0.882,-0.065,0.504,-0.005,2.131,0.645,-0.571,-0.053,-0.489,1.058
2024-10-15 13:35:16.714,73268.164,-0.044,0.453,-0.89,0.064,0.558,-0.032,1.302,0.594,-0.637,-0.049,-0.47,1.052
2024-10-15 13:35:16.723,73268.174,-0.042,0.447,-0.894,0.246,0.025,-0.063,0.127,0.586,-0.892,-0.047,-0.463,1.044
2024-10-15 13:35:16.733,73268.184,-0.041,0.447,-0.894,0.061,-0.421,0.02,-0.231,0.527,-0.775,-0.046,-0.464,1.034
2024-10-15 13:35:16.743,73268.194,-0.04,0.45,-0.892,-0.017,0.056,0.001,-0.379,0.365,-0.564,-0.045,-0.466,1.026
2024-10-15 13:35:16.753,73268.204,-0.04,0.454,-0.89,-0.073,0.523,-0.018,-0.779,0.096,-0.267,-0.045,-0.472,1.021
2024-10-15 13:35:16.764,73268.214,-0.04,0.462,-0.886,-0.196,0.68,0.086,-0.748,-0.121,0.083,-0.045,-0.48,1.019
2024-10-15 13:35:16.774,73268.224,-0.041,0.463,-0.885,-0.303,0.911,0.201,0.498,-0.19,0.356,-0.046,-0.481,1.021
2024-10-15 13:35:16.783,73268.234,-0.04,0.454,-0.89,-0.393,1.162,0.303,1.534,-0.288,0.712,-0.045,-0.471,1.028
2024-10-15 13:35:16.794,73268.244,-0.04,0.44,-0.897,-0.282,1.163,0.319,1.622,-0.31,0.822,-0.044,-0.455,1.037
2024-10-15 13:35:16.804,73268.254,-0.039,0.427,-0.903,-0.154,0.59,0.263,1.22,-0.318,0.835,-0.043,-0.441,1.047
2024-10-15 13:35:16.814,73268.264,-0.039,0.421,-0.906,-0.068,-0.019,0.134,0.068,-0.494,0.923,-0.043,-0.435,1.057
2024-10-15 13:35:16.823,73268.274,-0.04,0.424,-0.905,0.029,-0.284,0.02,-0.446,-0.516,0.748,-0.044,-0.438,1.067
2024-10-15 13:35:16.834,73268.284,-0.041,0.426,-0.904,-0.08,-0.396,0.043,0.208,-0.531,0.86,-0.045,-0.44,1.075
2024-10-15 13:35:16.843,73268.294,-0.042,0.422,-0.906,-0.144,-0.07,-0.052,0.475,-0.547,0.92,-0.046,-0.436,1.085
2024-10-15 13:35:16.853,73268.304,-0.043,0.42,-0.907,0.001,0.028,-0.094,0.182,-0.495,0.697,-0.048,-0.433,1.095
2024-10-15 13:35:16.863,73268.314,-0.045,0.418,-0.907,0.017,-0.463,-0.106,0.185,-0.353,0.468,-0.049,-0.432,1.101
2024-10-15 13:35:16.873,73268.324,-0.046,0.416,-0.908,0.098,-0.748,-0.172,0.303,-0.156,0.162,-0.05,-0.429,1.105
2024-10-15 13:35:16.883,73268.334,-0.046,0.414,-0.909,0.242,-0.849,-0.241,0.192,0.035,-0.265,-0.051,-0.427,1.104
2024-10-15 13:35:16.894,73268.344,-0.047,0.415,-0.909,0.272,-1.024,-0.237,-0.521,0.097,-0.45,-0.052,-0.428,1.1
2024-10-15 13:35:16.903,73268.353,-0.048,0.423,-0.905,0.289,-1.097,-0.179,-1.332,0.177,-0.667,-0.053,-0.437,1.094
2024-10-15 13:35:16.913,73268.363,-0.049,0.436,-0.899,0.203,-0.968,-0.11,-1.475,0.246,-0.74,-0.055,-0.451,1.085
2024-10-15 13:35:16.923,73268.373,-0.05,0.447,-0.893,0.003,-0.455,-0.135,-0.946,0.277,-0.627,-0.056,-0.463,1.077
2024-10-15 13:35:16.933,73268.383,-0.05,0.448,-0.893,-0.076,0.13,-0.139,0.772,0.537,-0.821,-0.056,-0.464,1.069
2024-10-15 13:35:16.943,73268.393,-0.048,0.434,-0.9,-0.063,0.451,-0.018,1.937,0.683,-0.74,-0.053,-0.449,1.06
2024-10-15 13:35:16.953,73268.403,-0.045,0.42,-0.906,0.074,0.538,0.001,0.916,0.616,-0.791,-0.05,-0.434,1.053
2024-10-15 13:35:16.964,73268.413,-0.044,0.418,-0.908,0.233,0.033,0.048,-0.361,0.629,-1.032,-0.048,-0.431,1.043
2024-10-15 13:35:16.973,73268.423,-0.042,0.422,-0.906,0.053,-0.457,0.184,-0.644,0.549,-0.848,-0.047,-0.436,1.032
2024-10-15 13:35:16.983,73268.433,-0.041,0.428,-0.903,-0.04,0.085,0.125,-0.777,0.366,-0.502,-0.045,-0.442,1.024
2024-10-15 13:35:16.993,73268.443,-0.04,0.435,-0.899,-0.153,0.704,0.166,-0.783,0.046,-0.161,-0.045,-0.45,1.02
2024-10-15 13:35:17.003,73268.453,-0.041,0.441,-0.897,-0.275,0.897,0.242,-0.305,-0.187,0.27,-0.046,-0.456,1.02
2024-10-15 13:35:17.013,73268.463,-0.041,0.438,-0.898,-0.334,1.133,0.27,1.003,-0.188,0.544,-0.045,-0.453,1.025
2024-10-15 13:35:17.023,73268.473,-0.04,0.425,-0.904,-0.409,1.359,0.275,1.659,-0.308,0.903,-0.044,-0.439,1.034
2024-10-15 13:35:17.033,73268.483,-0.039,0.412,-0.91,-0.301,1.164,0.149,1.205,-0.398,1.01,-0.043,-0.425,1.045
2024-10-15 13:35:17.043,73268.493,-0.039,0.407,-0.913,-0.125,0.443,0.08,-0.048,-0.62,1.093,-0.043,-0.419,1.056
2024-10-15 13:35:17.053,73268.503,-0.041,0.413,-0.91,-0.002,-0.201,-0.047,-1.109,-0.663,1.056,-0.045,-0.426,1.068
2024-10-15 13:35:17.063,73268.513,-0.042,0.421,-0.906,-0.009,-0.347,0.05,-0.458,-0.655,1.023,-0.047,-0.435,1.078
2024-10-15 13:35:17.073,73268.523,-0.044,0.424,-0.904,-0.148,-0.045,0.123,-0.202,-0.754,1.281,-0.048,-0.438,1.091
2024-10-15 13:35:17.083,73268.533,-0.046,0.428,-0.903,0.052,0.119,0.126,-0.453,-0.663,0.901,-0.051,-0.442,1.103
2024-10-15 13:35:17.093,73268.543,-0.048,0.431,-0.901,0.087,-0.49,0.185,-0.032,-0.459,0.559,-0.053,-0.445,1.111
2024-10-15 13:35:17.103,73268.553,-0.049,0.428,-0.902,0.082,-0.844,-0.055,0.619,-0.135,0.198,-0.054,-0.443,1.115
2024-10-15 13:35:17.113,73268.563,-0.049,0.422,-0.905,0.17,-0.829,-0.367,0.739,0.119,-0.251,-0.054,-0.435,1.116
2024-10-15 13:35:17.123,73268.573,-0.049,0.419,-0.907,0.15,-1.078,-0.48,-0.324,0.181,-0.491,-0.054,-0.433,1.111
2024-10-15 13:35:17.133,73268.583,-0.05,0.427,-0.903,0.217,-1.397,-0.408,-1.401,0.246,-0.837,-0.055,-0.441,1.104
2024-10-15 13:35:17.143,73268.593,-0.051,0.44,-0.897,0.182,-1.323,-0.217,-1.405,0.319,-0.85,-0.057,-0.455,1.093
2024-10-15 13:35:17.153,73268.603,-0.052,0.45,-0.892,-0.017,-0.575,-0.179,-0.879,0.322,-0.681,-0.058,-0.467,1.084
2024-10-15 13:35:17.163,73268.613,-0.051,0.451,-0.891,-0.101,0.256,-0.123,0.619,0.56,-0.887,-0.058,-0.468,1.075
2024-10-15 13:35:17.173,73268.623,-0.05,0.442,-0.896,-0.115,0.492,0.007,1.037,0.553,-0.702,-0.056,-0.458,1.066
2024-10-15 13:35:17.183,73268.633,-0.049,0.435,-0.899,0.065,0.416,-0.026,0.359,0.553,-0.927,-0.054,-0.45,1.058
2024-10-15 13:35:17.193,73268.643,-0.048,0.434,-0.9,0.114,-0.033,0.092,-0.11,0.534,-0.943,-0.053,-0.449,1.047
2024-10-15 13:35:17.203,73268.653,-0.047,0.435,-0.899,-0.004,-0.114,0.18,-0.254,0.479,-0.77,-0.052,-0.45,1.037
2024-10-15 13:35:17.213,73268.663,-0.046,0.439,-0.898,-0.014,0.317,0.075,-0.518,0.364,-0.572,-0.051,-0.454,1.029
2024-10-15 13:35:17.223,73268.673,-0.046,0.444,-0.895,-0.137,0.555,0.078,-0.68,0.138,-0.288,-0.051,-0.46,1.024
2024-10-15 13:35:17.233,73268.683,-0.046,0.449,-0.892,-0.227,0.688,0.157,-0.43,-0.073,0.068,-0.052,-0.465,1.022
2024-10-15 13:35:17.243,73268.693,-0.046,0.449,-0.892,-0.205,0.9,0.289,0.412,-0.085,0.265,-0.052,-0.466,1.024
2024-10-15 13:35:17.253,73268.703,-0.045,0.442,-0.896,-0.199,0.995,0.363,1.088,-0.133,0.539,-0.05,-0.458,1.029
2024-10-15 13:35:17.263,73268.713,-0.044,0.433,-0.901,-0.192,0.939,0.261,1.037,-0.176,0.684,-0.049,-0.447,1.037
2024-10-15 13:35:17.273,73268.723,-0.043,0.425,-0.904,-0.127,0.559,0.141,0.804,-0.195,0.681,-0.047,-0.439,1.045
2024-10-15 13:35:17.283,73268.733,-0.042,0.42,-0.907,-0.072,0.115,0.019,0.195,-0.331,0.793,-0.046,-0.433,1.053
2024-10-15 13:35:17.293,73268.743,-0.042,0.423,-0.905,-0.054,-0.047,-0.141,-0.674,-0.482,0.866,-0.046,-0.437,1.062
2024-10-15 13:35:17.302,73268.753,-0.043,0.429,-0.902,-0.132,-0.161,-0.046,-0.49,-0.593,0.914,-0.048,-0.443,1.071
2024-10-15 13:35:17.313,73268.763,-0.045,0.43,-0.902,-0.176,-0.183,0.092,0.374,-0.566,0.865,-0.049,-0.444,1.081
2024-10-15 13:35:17.323,73268.773,-0.046,0.425,-0.904,0.02,-0.03,0.113,0.585,-0.476,0.682,-0.051,-0.439,1.09
2024-10-15 13:35:17.332,73268.783,-0.048,0.422,-0.905,0.126,-0.35,0.007,0.142,-0.354,0.348,-0.052,-0.436,1.096
2024-10-15 13:35:17.342,73268.793,-0.049,0.422,-0.905,0.171,-0.951,-0.176,-0.015,-0.169,-0.036,-0.054,-0.436,1.098
2024-10-15 13:35:17.353,73268.803,-0.051,0.422,-0.905,0.195,-1.208,-0.316,-0.049,-0.052,-0.364,-0.056,-0.435,1.096
2024-10-15 13:35:17.361,73268.813,-0.053,0.425,-0.904,0.25,-1.131,-0.375,-0.765,0.007,-0.591,-0.059,-0.439,1.09
2024-10-15 13:35:17.372,73268.823,-0.056,0.434,-0.899,0.28,-1.131,-0.314,-1.172,0.139,-0.855,-0.062,-0.449,1.081
2024-10-15 13:35:17.382,73268.833,-0.058,0.443,-0.895,0.154,-0.98,-0.261,-0.836,0.217,-0.808,-0.065,-0.459,1.071
2024-10-15 13:35:17.392,73268.843,-0.059,0.446,-0.893,-0.006,-0.264,-0.204,0.094,0.305,-0.737,-0.066,-0.462,1.063
2024-10-15 13:35:17.402,73268.853,-0.059,0.435,-0.899,-0.075,0.44,-0.036,2.212,0.658,-1.068,-0.065,-0.45,1.054
2024-10-15 13:35:17.412,73268.863,-0.057,0.414,-0.908,-0.075,0.688,0.071,1.907,0.554,-0.742,-0.062,-0.427,1.045
2024-10-15 13:35:17.422,73268.873,-0.055,0.404,-0.913,0.18,0.468,-0.045,0.138,0.537,-1.101,-0.061,-0.416,1.036
2024-10-15 13:35:17.432,73268.883,-0.056,0.407,-0.912,0.145,-0.352,0.05,-0.669,0.386,-0.975,-0.061,-0.419,1.024
2024-10-15 13:35:17.442,73268.893,-0.056,0.413,-0.909,-0.074,-0.212,0.027,-0.69,0.218,-0.539,-0.061,-0.426,1.015
2024-10-15 13:35:17.452,73268.903,-0.056,0.418,-0.907,-0.146,0.793,0.041,-0.516,0.013,-0.178,-0.062,-0.432,1.011
2024-10-15 13:35:17.462,73268.913,-0.057,0.422,-0.905,-0.232,1.112,0.213,-0.164,-0.111,0.141,-0.063,-0.435,1.01
2024-10-15 13:35:17.472,73268.923,-0.057,0.42,-0.906,-0.236,1.008,0.388,0.538,-0.17,0.42,-0.063,-0.434,1.014
2024-10-15 13:35:17.482,73268.932,-0.057,0.413,-0.909,-0.275,1.119,0.521,1.1,-0.251,0.746,-0.062,-0.425,1.021
2024-10-15 13:35:17.491,73268.942,-0.056,0.403,-0.914,-0.232,1.032,0.423,1.1,-0.26,0.891,-0.061,-0.415,1.031
2024-10-15 13:35:17.501,73268.952,-0.054,0.395,-0.917,-0.122,0.451,0.229,0.673,-0.257,0.882,-0.059,-0.406,1.041
2024-10-15 13:35:17.512,73268.962,-0.054,0.395,-0.917,-0.073,-0.051,0.06,-0.611,-0.423,0.987,-0.059,-0.406,1.051
2024-10-15 13:35:17.522,73268.972,-0.055,0.403,-0.914,-0.046,-0.303,0.024,-0.775,-0.457,0.813,-0.06,-0.415,1.06
2024-10-15 13:35:17.532,73268.982,-0.055,0.407,-0.912,-0.185,-0.371,0.157,0.162,-0.428,0.906,-0.06,-0.419,1.07
2024-10-15 13:35:17.542,73268.992,-0.055,0.404,-0.913,-0.104,0.015,0.114,0.417,-0.327,0.73,-0.06,-0.416,1.079
2024-10-15 13:35:17.552,73269.002,-0.055,0.402,-0.914,0.063,-0.177,0.023,-0.043,-0.222,0.382,-0.061,-0.414,1.085
2024-10-15 13:35:17.562,73269.012,-0.056,0.403,-0.913,0.1,-0.91,-0.165,-0.108,-0.033,0.001,-0.061,-0.415,1.087
2024-10-15 13:35:17.572,73269.022,-0.056,0.404,-0.913,0.107,-1.147,-0.379,-0.085,0.081,-0.285,-0.061,-0.416,1.086
2024-10-15 13:35:17.582,73269.032,-0.057,0.407,-0.911,0.149,-0.993,-0.502,-0.754,0.111,-0.485,-0.062,-0.42,1.082
2024-10-15 13:35:17.592,73269.042,-0.058,0.416,-0.907,0.179,-1.011,-0.41,-1.218,0.164,-0.693,-0.064,-0.43,1.074
2024-10-15 13:35:17.603,73269.052,-0.059,0.427,-0.902,0.105,-0.871,-0.217,-1.153,0.169,-0.656,-0.066,-0.441,1.066
2024-10-15 13:35:17.612,73269.062,-0.06,0.435,-0.898,0.043,-0.311,-0.126,-0.811,0.192,-0.618,-0.067,-0.451,1.058
2024-10-15 13:35:17.622,73269.072,-0.061,0.44,-0.896,0.019,0.129,-0.036,-0.234,0.255,-0.58,-0.068,-0.456,1.052
2024-10-15 13:35:17.631,73269.082,-0.061,0.435,-0.898,-0.017,0.355,0.069,1.379,0.53,-0.822,-0.067,-0.45,1.044
2024-10-15 13:35:17.642,73269.092,-0.059,0.419,-0.906,-0.01,0.496,0.141,1.779,0.581,-0.691,-0.065,-0.432,1.037
2024-10-15 13:35:17.652,73269.102,-0.057,0.41,-0.91,0.147,0.408,0.013,-0.219,0.417,-0.762,-0.063,-0.423,1.03
2024-10-15 13:35:17.662,73269.112,-0.057,0.419,-0.906,0.238,-0.265,-0.017,-1.608,0.32,-0.884,-0.063,-0.433,1.02
2024-10-15 13:35:17.672,73269.122,-0.058,0.432,-0.9,-0.034,-0.459,0.112,-1.226,0.197,-0.484,-0.064,-0.447,1.011
2024-10-15 13:35:17.682,73269.132,-0.058,0.439,-0.897,-0.184,0.684,0.108,-0.319,0.068,0.029,-0.064,-0.454,1.008
2024-10-15 13:35:17.692,73269.142,-0.057,0.439,-0.897,-0.271,1.434,0.139,0.362,-0.003,0.36,-0.063,-0.454,1.01
2024-10-15 13:35:17.702,73269.152,-0.055,0.433,-0.9,-0.342,1.36,0.324,0.977,-0.134,0.65,-0.061,-0.448,1.016
2024-10-15 13:35:17.712,73269.162,-0.053,0.423,-0.905,-0.26,1.117,0.447,1.285,-0.273,0.976,-0.059,-0.437,1.027
2024-10-15 13:35:17.722,73269.172,-0.052,0.412,-0.91,-0.102,0.789,0.423,1.12,-0.308,1.046,-0.057,-0.425,1.039
2024-10-15 13:35:17.732,73269.182,-0.051,0.408,-0.912,0.008,0.177,0.256,-0.196,-0.538,1.116,-0.056,-0.42,1.051
2024-10-15 13:35:17.742,73269.192,-0.052,0.414,-0.909,0.064,-0.313,0.052,-0.76,-0.536,0.904,-0.057,-0.427,1.062
2024-10-15 13:35:17.752,73269.202,-0.052,0.417,-0.908,-0.082,-0.494,0.101,0.312,-0.443,0.97,-0.058,-0.43,1.072
2024-10-15 13:35:17.762,73269.212,-0.052,0.411,-0.91,-0.16,-0.056,0.002,0.863,-0.366,0.851,-0.057,-0.423,1.083
2024-10-15 13:35:17.772,73269.222,-0.052,0.407,-0.912,0.005,-0.02,-0.096,0.056,-0.295,0.517,-0.057,-0.419,1.091
2024-10-15 13:35:17.782,73269.232,-0.053,0.408,-0.911,0.092,-0.945,-0.186,-0.21,-0.099,0.01,-0.058,-0.42,1.094
2024-10-15 13:35:17.792,73269.242,-0.054,0.409,-0.911,0.086,-1.405,-0.355,-0.017,0.068,-0.309,-0.059,-0.422,1.092
2024-10-15 13:35:17.802,73269.252,-0.055,0.412,-0.91,0.108,-1.098,-0.526,-0.743,0.103,-0.531,-0.06,-0.425,1.087
2024-10-15 13:35:17.812,73269.262,-0.056,0.422,-0.905,0.16,-1.051,-0.502,-1.527,0.153,-0.816,-0.062,-0.436,1.079
2024-10-15 13:35:17.822,73269.272,-0.058,0.435,-0.898,0.117,-1.077,-0.248,-1.341,0.173,-0.817,-0.065,-0.45,1.069
2024-10-15 13:35:17.832,73269.282,-0.06,0.444,-0.894,0.019,-0.447,-0.097,-0.719,0.19,-0.691,-0.067,-0.46,1.06
2024-10-15 13:35:17.842,73269.292,-0.061,0.446,-0.893,0.002,0.282,0.006,0.293,0.332,-0.707,-0.068,-0.462,1.052
2024-10-15 13:35:17.852,73269.302,-0.061,0.438,-0.897,-0.049,0.585,0.09,1.199,0.412,-0.68,-0.067,-0.454,1.044
2024-10-15 13:35:17.862,73269.312,-0.06,0.429,-0.901,-0.035,0.611,0.072,0.637,0.401,-0.625,-0.066,-0.443,1.038
2024-10-15 13:35:17.872,73269.322,-0.059,0.426,-0.903,0.135,0.292,0.048,-0.023,0.424,-0.754,-0.065,-0.44,1.031
2024-10-15 13:35:17.882,73269.332,-0.058,0.426,-0.903,0.038,-0.09,0.17,-0.099,0.378,-0.614,-0.064,-0.441,1.023
2024-10-15 13:35:17.891,73269.342,-0.057,0.428,-0.902,-0.003,0.229,0.159,-0.318,0.227,-0.334,-0.063,-0.442,1.017
2024-10-15 13:35:17.902,73269.352,-0.057,0.431,-0.9,-0.059,0.59,0.169,-0.43,0.059,-0.094,-0.063,-0.446,1.015
2024-10-15 13:35:17.912,73269.362,-0.057,0.434,-0.899,-0.173,0.679,0.248,0.042,-0.029,0.199,-0.063,-0.449,1.015
2024-10-15 13:35:17.922,73269.372,-0.056,0.43,-0.901,-0.221,0.915,0.291,0.89,-0.074,0.463,-0.062,-0.444,1.019
2024-10-15 13:35:17.932,73269.382,-0.054,0.42,-0.906,-0.243,1.069,0.282,1.328,-0.17,0.746,-0.06,-0.433,1.027
2024-10-15 13:35:17.942,73269.392,-0.053,0.408,-0.911,-0.195,0.868,0.215,1.174,-0.216,0.856,-0.058,-0.421,1.036
2024-10-15 13:35:17.951,73269.402,-0.051,0.4,-0.915,-0.096,0.336,0.147,0.757,-0.265,0.87,-0.056,-0.411,1.046
2024-10-15 13:35:17.961,73269.412,-0.051,0.398,-0.916,-0.044,-0.114,-0.001,-0.339,-0.403,0.953,-0.056,-0.41,1.056
2024-10-15 13:35:17.971,73269.422,-0.051,0.404,-0.913,-0.035,-0.341,-0.088,-0.531,-0.425,0.774,-0.056,-0.416,1.066
2024-10-15 13:35:17.981,73269.432,-0.052,0.406,-0.912,-0.143,-0.444,0.002,0.093,-0.45,0.84,-0.057,-0.418,1.074
2024-10-15 13:35:17.991,73269.442,-0.053,0.405,-0.913,-0.084,-0.206,-0.01,0.11,-0.37,0.594,-0.058,-0.417,1.083
2024-10-15 13:35:18.001,73269.452,-0.054,0.405,-0.913,0.081,-0.423,-0.011,-0.011,-0.207,0.204,-0.059,-0.417,1.087
2024-10-15 13:35:18.011,73269.462,-0.055,0.405,-0.913,0.082,-0.937,-0.184,-0.016,-0.03,-0.082,-0.06,-0.417,1.087
2024-10-15 13:35:18.020,73269.472,-0.055,0.406,-0.912,0.111,-1.011,-0.335,-0.245,0.05,-0.403,-0.061,-0.418,1.085
2024-10-15 13:35:18.030,73269.482,-0.057,0.41,-0.91,0.172,-1.017,-0.319,-0.738,0.089,-0.652,-0.062,-0.422,1.079
2024-10-15 13:35:18.041,73269.492,-0.059,0.417,-0.907,0.233,-1.058,-0.204,-0.827,0.13,-0.833,-0.065,-0.43,1.07
2024-10-15 13:35:18.051,73269.501,-0.061,0.423,-0.904,0.185,-0.766,-0.152,-0.617,0.216,-0.831,-0.067,-0.437,1.06
2024-10-15 13:35:18.061,73269.511,-0.062,0.426,-0.902,0.084,-0.188,-0.144,-0.146,0.307,-0.809,-0.069,-0.44,1.051
2024-10-15 13:35:18.071,73269.521,-0.062,0.42,-0.905,0.002,0.284,-0.094,1.431,0.614,-1.045,-0.068,-0.434,1.041
2024-10-15 13:35:18.081,73269.531,-0.06,0.403,-0.913,-0.038,0.577,-0.005,1.827,0.691,-0.877,-0.065,-0.415,1.032
2024-10-15 13:35:18.091,73269.541,-0.057,0.391,-0.919,0.146,0.578,-0.041,0.748,0.7,-1.092,-0.062,-0.401,1.023
2024-10-15 13:35:18.101,73269.551,-0.056,0.388,-0.92,0.194,-0.061,0.071,-0.127,0.633,-1.124,-0.06,-0.398,1.011
2024-10-15 13:35:18.111,73269.561,-0.054,0.39,-0.919,0.025,-0.24,0.119,-0.516,0.458,-0.77,-0.059,-0.401,1.0
2024-10-15 13:35:18.121,73269.571,-0.053,0.396,-0.917,-0.126,0.45,0.076,-0.84,0.227,-0.314,-0.058,-0.407,0.994
2024-10-15 13:35:18.131,73269.581,-0.053,0.405,-0.913,-0.306,0.912,0.148,-1.03,-0.02,0.179,-0.057,-0.417,0.992
2024-10-15 13:35:18.141,73269.591,-0.052,0.411,-0.91,-0.375,1.072,0.279,-0.118,-0.107,0.562,-0.057,-0.423,0.996
2024-10-15 13:35:18.151,73269.601,-0.05,0.406,-0.912,-0.413,1.286,0.406,1.154,-0.179,1.001,-0.054,-0.418,1.005
2024-10-15 13:35:18.161,73269.611,-0.047,0.395,-0.917,-0.308,1.361,0.367,1.106,-0.296,1.285,-0.052,-0.407,1.018
2024-10-15 13:35:18.171,73269.621,-0.046,0.392,-0.919,-0.084,0.786,0.27,-0.271,-0.498,1.222,-0.05,-0.403,1.033
2024-10-15 13:35:18.181,73269.631,-0.046,0.397,-0.917,0.03,-0.188,0.198,-0.531,-0.501,0.968,-0.05,-0.408,1.045
2024-10-15 13:35:18.191,73269.641,-0.047,0.398,-0.916,-0.028,-0.596,0.263,0.513,-0.392,0.845,-0.051,-0.409,1.054
2024-10-15 13:35:18.201,73269.651,-0.046,0.392,-0.919,0.009,-0.233,0.147,0.671,-0.198,0.61,-0.05,-0.403,1.063
2024-10-15 13:35:18.211,73269.661,-0.046,0.387,-0.921,0.103,-0.428,-0.117,0.347,-0.002,0.118,-0.05,-0.398,1.067
2024-10-15 13:35:18.221,73269.671,-0.045,0.385,-0.922,0.021,-1.158,-0.381,0.098,0.136,-0.152,-0.049,-0.396,1.067
2024-10-15 13:35:18.231,73269.681,-0.045,0.386,-0.922,0.018,-1.176,-0.471,-0.347,0.193,-0.416,-0.049,-0.396,1.064
2024-10-15 13:35:18.241,73269.691,-0.045,0.392,-0.919,0.093,-0.973,-0.417,-1.099,0.18,-0.56,-0.049,-0.403,1.058
2024-10-15 13:35:18.251,73269.701,-0.046,0.404,-0.914,0.098,-0.873,-0.249,-1.423,0.144,-0.58,-0.05,-0.416,1.051
2024-10-15 13:35:18.261,73269.711,-0.047,0.416,-0.908,0.029,-0.483,-0.098,-1.143,0.095,-0.49,-0.052,-0.429,1.045
2024-10-15 13:35:18.271,73269.721,-0.048,0.423,-0.905,-0.004,0.072,-0.056,-0.578,0.107,-0.397,-0.053,-0.437,1.039
2024-10-15 13:35:18.281,73269.731,-0.048,0.426,-0.903,-0.038,0.437,-0.007,-0.172,0.103,-0.235,-0.054,-0.44,1.036
2024-10-15 13:35:18.291,73269.741,-0.048,0.426,-0.903,-0.045,0.557,0.05,0.121,0.13,-0.176,-0.053,-0.44,1.033
2024-10-15 13:35:18.301,73269.751,-0.048,0.424,-0.904,-0.012,0.445,0.098,0.279,0.169,-0.107,-0.053,-0.438,1.032
2024-10-15 13:35:18.311,73269.761,-0.046,0.421,-0.906,0.033,0.346,0.132,0.386,0.255,-0.059,-0.051,-0.435,1.031
2024-10-15 13:35:18.321,73269.771,-0.043,0.417,-0.908,0.021,0.286,0.157,0.688,0.402,-0.084,-0.048,-0.43,1.031
2024-10-15 13:35:18.331,73269.781,-0.04,0.41,-0.911,-0.051,0.169,0.142,0.674,0.438,-0.033,-0.044,-0.423,1.031
2024-10-15 13:35:18.341,73269.791,-0.036,0.406,-0.913,-0.047,0.021,0.079,0.252,0.458,-0.094,-0.039,-0.418,1.03
2024-10-15 13:35:18.351,73269.801,-0.032,0.405,-0.914,-0.039,-0.207,0.099,-0.106,0.44,-0.129,-0.035,-0.417,1.029
2024-10-15 13:35:18.361,73269.811,-0.029,0.407,-0.913,-0.087,-0.301,0.097,-0.261,0.427,-0.148,-0.031,-0.419,1.028
2024-10-15 13:35:18.372,73269.821,-0.025,0.409,-0.912,-0.065,-0.185,0.08,-0.299,0.453,-0.159,-0.028,-0.422,1.026
2024-10-15 13:35:18.381,73269.831,-0.022,0.412,-0.911,-0.055,-0.04,0.032,-0.329,0.457,-0.161,-0.024,-0.425,1.024
2024-10-15 13:35:18.391,73269.841,-0.018,0.415,-0.91,-0.039,0.02,-0.027,-0.32,0.443,-0.161,-0.02,-0.428,1.022
2024-10-15 13:35:18.400,73269.851,-0.015,0.418,-0.908,-0.013,0.054,-0.051,-0.294,0.425,-0.144,-0.017,-0.431,1.021
2024-10-15 13:35:18.411,73269.861,-0.012,0.42,-0.907,0.017,0.083,-0.037,-0.261,0.403,-0.146,-0.013,-0.434,1.019
2024-10-15 13:35:18.421,73269.871,-0.009,0.423,-0.906,0.029,0.088,-0.019,-0.223,0.365,-0.121,-0.01,-0.436,1.017
2024-10-15 13:35:18.430,73269.881,-0.006,0.425,-0.905,0.027,0.093,-0.018,-0.213,0.333,-0.11,-0.007,-0.439,1.016
2024-10-15 13:35:18.440,73269.891,-0.004,0.427,-0.904,0.033,0.071,-0.001,-0.232,0.297,-0.081,-0.004,-0.441,1.015
2024-10-15 13:35:18.450,73269.901,-0.002,0.429,-0.903,0.036,0.041,0.022,-0.275,0.262,-0.045,-0.002,-0.443,1.015
2024-10-15 13:35:18.461,73269.911,0.0,0.431,-0.902,0.036,0.028,0.037,-0.29,0.24,-0.012,0.0,-0.446,1.014
2024-10-15 13:35:18.471,73269.921,0.002,0.434,-0.901,0.041,0.023,0.042,-0.323,0.214,0.005,0.003,-0.449,1.014
2024-10-15 13:35:18.481,73269.931,0.004,0.437,-0.899,0.051,0.034,0.031,-0.331,0.183,0.04,0.005,-0.452,1.015
2024-10-15 13:35:18.490,73269.941,0.006,0.44,-0.898,0.045,0.031,0.024,-0.309,0.166,0.066,0.007,-0.456,1.016
2024-10-15 13:35:18.501,73269.951,0.008,0.443,-0.897,0.043,0.032,0.009,-0.292,0.13,0.109,0.009,-0.459,1.017
2024-10-15 13:35:18.511,73269.961,0.009,0.445,-0.895,0.043,0.052,-0.005,-0.289,0.102,0.146,0.011,-0.462,1.018
2024-10-15 13:35:18.520,73269.971,0.011,0.448,-0.894,0.038,0.039,-0.018,-0.288,0.067,0.178,0.012,-0.464,1.02
2024-10-15 13:35:18.530,73269.981,0.012,0.45,-0.893,0.038,0.037,-0.026,-0.27,0.026,0.214,0.014,-0.467,1.023
2024-10-15 13:35:18.540,73269.991,0.013,0.453,-0.892,0.041,0.037,-0.026,-0.268,-0.012,0.227,0.015,-0.47,1.025
2024-10-15 13:35:18.550,73270.001,0.014,0.455,-0.89,0.044,0.028,-0.027,-0.325,-0.049,0.254,0.016,-0.473,1.028
2024-10-15 13:35:18.560,73270.011,0.015,0.458,-0.889,0.049,0.005,-0.001,-0.359,-0.084,0.267,0.017,-0.476,1.031
2024-10-15 13:35:18.570,73270.021,0.015,0.461,-0.887,0.062,-0.018,0.026,-0.374,-0.116,0.28,0.017,-0.48,1.034
2024-10-15 13:35:18.580,73270.031,0.015,0.465,-0.885,0.07,-0.015,0.027,-0.388,-0.147,0.269,0.017,-0.483,1.038
2024-10-15 13:35:18.590,73270.041,0.015,0.468,-0.884,0.075,-0.008,0.032,-0.342,-0.162,0.238,0.017,-0.487,1.041
2024-10-15 13:35:18.600,73270.051,0.014,0.471,-0.882,0.074,-0.011,0.03,-0.252,-0.177,0.191,0.016,-0.49,1.043
2024-10-15 13:35:18.611,73270.061,0.014,0.472,-0.881,0.064,-0.033,0.011,-0.157,-0.211,0.16,0.015,-0.492,1.045
2024-10-15 13:35:18.620,73270.071,0.012,0.473,-0.881,0.036,-0.056,-0.005,-0.021,-0.234,0.119,0.014,-0.493,1.047
2024-10-15 13:35:18.630,73270.08,0.011,0.473,-0.881,0.011,-0.052,-0.013,0.097,-0.243,0.073,0.012,-0.492,1.048
2024-10-15 13:35:18.640,73270.09,0.009,0.472,-0.882,0.004,-0.072,-0.005,0.13,-0.238,0.043,0.01,-0.491,1.049
2024-10-15 13:35:18.650,73270.1,0.007,0.47,-0.882,-0.004,-0.093,0.023,0.171,-0.233,-0.002,0.008,-0.49,1.049
2024-10-15 13:35:18.660,73270.11,0.005,0.469,-0.883,-0.014,-0.113,0.047,0.233,-0.206,-0.047,0.005,-0.488,1.048
2024-10-15 13:35:18.670,73270.12,0.003,0.466,-0.885,-0.016,-0.111,0.039,0.336,-0.192,-0.082,0.003,-0.485,1.048
2024-10-15 13:35:18.680,73270.13,0.001,0.463,-0.886,-0.017,-0.091,0.034,0.367,-0.195,-0.107,0.001,-0.481,1.046
2024-10-15 13:35:18.690,73270.14,-0.002,0.46,-0.888,-0.006,-0.084,0.043,0.343,-0.224,-0.156,-0.002,-0.478,1.045
2024-10-15 13:35:18.700,73270.15,-0.005,0.457,-0.889,-0.005,-0.095,0.032,0.264,-0.31,-0.173,-0.006,-0.475,1.043
2024-10-15 13:35:18.710,73270.16,-0.008,0.456,-0.89,-0.024,-0.07,-0.015,-0.078,-0.14,-0.026,-0.009,-0.473,1.041
2024-10-15 13:35:18.720,73270.17,-0.008,0.459,-0.889,-0.071,-0.014,-0.023,-0.367,-0.043,-0.038,-0.009,-0.476,1.041
2024-10-15 13:35:18.730,73270.18,-0.009,0.46,-0.888,-0.198,0.118,-0.268,0.008,-0.116,0.072,-0.01,-0.478,1.041
2024-10-15 13:35:18.740,73270.19,-0.01,0.459,-0.888,-0.279,0.347,-0.421,0.17,-0.189,0.291,-0.011,-0.477,1.043
2024-10-15 13:35:18.750,73270.2,-0.01,0.458,-0.889,-0.152,0.395,-0.195,-0.005,-0.24,0.319,-0.011,-0.476,1.046
2024-10-15 13:35:18.760,73270.21,-0.011,0.458,-0.889,-0.071,0.225,-0.01,0.043,-0.325,0.387,-0.012,-0.476,1.05
2024-10-15 13:35:18.770,73270.22,-0.012,0.458,-0.889,-0.075,0.199,0.043,-0.007,-0.515,0.589,-0.014,-0.476,1.056
2024-10-15 13:35:18.780,73270.23,-0.015,0.459,-0.888,-0.004,0.232,0.056,-0.178,-0.624,0.687,-0.017,-0.477,1.063
2024-10-15 13:35:18.790,73270.24,-0.017,0.46,-0.888,0.023,0.118,0.111,-0.039,-0.645,0.632,-0.019,-0.478,1.07
2024-10-15 13:35:18.800,73270.25,-0.02,0.459,-0.888,-0.028,0.016,0.095,0.323,-0.592,0.635,-0.022,-0.477,1.077
2024-10-15 13:35:18.810,73270.26,-0.022,0.455,-0.89,-0.011,0.034,0.008,0.553,-0.461,0.484,-0.025,-0.473,1.084
2024-10-15 13:35:18.820,73270.27,-0.024,0.45,-0.893,0.06,-0.12,-0.026,0.535,-0.353,0.262,-0.027,-0.467,1.088
2024-10-15 13:35:18.830,73270.28,-0.026,0.446,-0.894,0.115,-0.418,-0.068,0.293,-0.216,0.03,-0.029,-0.463,1.09
2024-10-15 13:35:18.840,73270.29,-0.028,0.444,-0.896,0.162,-0.643,-0.067,0.139,-0.056,-0.243,-0.031,-0.46,1.089
2024-10-15 13:35:18.850,73270.3,-0.029,0.444,-0.895,0.19,-0.72,-0.053,-0.223,0.059,-0.298,-0.032,-0.46,1.086
2024-10-15 13:35:18.860,73270.31,-0.029,0.448,-0.893,0.21,-0.618,-0.016,-0.652,0.192,-0.396,-0.033,-0.465,1.082
2024-10-15 13:35:18.870,73270.32,-0.029,0.455,-0.89,0.14,-0.514,0.074,-0.845,0.263,-0.432,-0.033,-0.472,1.077
2024-10-15 13:35:18.880,73270.33,-0.029,0.462,-0.886,0.039,-0.288,0.109,-0.717,0.242,-0.394,-0.032,-0.48,1.072
2024-10-15 13:35:18.890,73270.34,-0.028,0.464,-0.885,0.006,0.031,0.086,0.253,0.398,-0.52,-0.032,-0.483,1.067
2024-10-15 13:35:18.900,73270.35,-0.027,0.458,-0.888,-0.038,0.261,0.083,0.9,0.393,-0.449,-0.03,-0.476,1.061
2024-10-15 13:35:18.910,73270.36,-0.025,0.453,-0.891,0.014,0.401,-0.04,0.253,0.334,-0.343,-0.028,-0.47,1.058
2024-10-15 13:35:18.920,73270.37,-0.024,0.453,-0.891,0.096,0.165,-0.098,-0.378,0.311,-0.485,-0.027,-0.471,1.053
2024-10-15 13:35:18.930,73270.38,-0.024,0.456,-0.89,-0.03,-0.071,-0.016,-0.215,0.252,-0.326,-0.027,-0.474,1.048
2024-10-15 13:35:18.940,73270.39,-0.023,0.457,-0.889,-0.08,0.305,-0.01,0.008,0.164,-0.131,-0.026,-0.475,1.045
2024-10-15 13:35:18.950,73270.4,-0.022,0.458,-0.889,-0.083,0.608,0.034,-0.165,0.015,0.066,-0.025,-0.475,1.045
2024-10-15 13:35:18.960,73270.41,-0.022,0.459,-0.888,-0.144,0.512,0.119,-0.045,-0.092,0.225,-0.025,-0.477,1.046
2024-10-15 13:35:18.970,73270.42,-0.022,0.457,-0.889,-0.219,0.444,0.172,0.457,-0.175,0.401,-0.024,-0.475,1.05
2024-10-15 13:35:18.980,73270.43,-0.021,0.451,-0.892,-0.221,0.576,0.158,0.819,-0.225,0.531,-0.024,-0.468,1.055
2024-10-15 13:35:18.990,73270.44,-0.021,0.444,-0.896,-0.157,0.509,0.109,0.931,-0.245,0.577,-0.023,-0.46,1.062
2024-10-15 13:35:19.000,73270.45,-0.021,0.435,-0.9,-0.125,0.252,0.046,0.927,-0.251,0.616,-0.023,-0.45,1.069
2024-10-15 13:35:19.011,73270.46,-0.02,0.428,-0.904,-0.095,0.077,-0.056,0.734,-0.283,0.592,-0.022,-0.442,1.076
2024-10-15 13:35:19.020,73270.47,-0.021,0.425,-0.905,-0.027,-0.101,-0.105,-0.107,-0.406,0.683,-0.023,-0.439,1.083
2024-10-15 13:35:19.029,73270.48,-0.022,0.428,-0.904,0.032,-0.302,-0.058,-0.268,-0.408,0.467,-0.024,-0.442,1.089
2024-10-15 13:35:19.040,73270.49,-0.024,0.428,-0.903,-0.046,-0.426,-0.005,0.062,-0.427,0.512,-0.026,-0.443,1.094
2024-10-15 13:35:19.049,73270.5,-0.026,0.428,-0.904,-0.016,-0.273,-0.065,0.107,-0.361,0.292,-0.028,-0.442,1.099
2024-10-15 13:35:19.060,73270.51,-0.028,0.428,-0.903,0.088,-0.382,-0.076,-0.14,-0.303,0.115,-0.031,-0.442,1.101
2024-10-15 13:35:19.069,73270.52,-0.03,0.429,-0.903,0.081,-0.705,-0.118,-0.186,-0.193,-0.155,-0.033,-0.444,1.101
2024-10-15 13:35:19.080,73270.53,-0.032,0.431,-0.902,0.119,-0.792,-0.129,-0.282,-0.146,-0.262,-0.036,-0.446,1.099
2024-10-15 13:35:19.089,73270.54,-0.035,0.435,-0.9,0.183,-0.651,-0.092,-0.676,-0.07,-0.374,-0.039,-0.451,1.095
2024-10-15 13:35:19.099,73270.55,-0.037,0.443,-0.896,0.199,-0.599,-0.031,-0.944,0.007,-0.474,-0.041,-0.459,1.09
2024-10-15 13:35:19.110,73270.56,-0.039,0.451,-0.892,0.081,-0.415,-0.025,-0.951,0.043,-0.409,-0.043,-0.468,1.084
2024-10-15 13:35:19.119,73270.57,-0.04,0.459,-0.888,-0.013,-0.0,-0.049,-0.691,0.079,-0.357,-0.045,-0.476,1.08
2024-10-15 13:35:19.129,73270.58,-0.041,0.46,-0.887,-0.06,0.301,-0.037,0.377,0.236,-0.479,-0.046,-0.478,1.075
2024-10-15 13:35:19.140,73270.59,-0.04,0.453,-0.891,-0.084,0.474,0.048,1.072,0.294,-0.45,-0.045,-0.47,1.07
2024-10-15 13:35:19.149,73270.6,-0.04,0.446,-0.894,-0.001,0.495,0.049,0.339,0.204,-0.482,-0.045,-0.462,1.065
2024-10-15 13:35:19.159,73270.61,-0.041,0.447,-0.893,0.124,0.068,0.014,-0.679,0.085,-0.496,-0.046,-0.464,1.059
2024-10-15 13:35:19.170,73270.62,-0.042,0.454,-0.89,0.008,-0.23,0.094,-0.743,0.013,-0.304,-0.048,-0.472,1.054
2024-10-15 13:35:19.179,73270.63,-0.043,0.459,-0.887,-0.069,0.307,0.146,-0.268,-0.043,0.041,-0.048,-0.477,1.053
2024-10-15 13:35:19.190,73270.64,-0.043,0.459,-0.888,-0.15,0.877,0.201,0.334,-0.056,0.184,-0.048,-0.476,1.054
2024-10-15 13:35:19.199,73270.65,-0.043,0.454,-0.89,-0.195,0.881,0.265,0.718,-0.137,0.39,-0.048,-0.471,1.057
2024-10-15 13:35:19.209,73270.659,-0.042,0.447,-0.894,-0.158,0.725,0.283,0.84,-0.186,0.525,-0.047,-0.463,1.063
2024-10-15 13:35:19.219,73270.669,-0.041,0.44,-0.897,-0.117,0.497,0.236,0.891,-0.229,0.598,-0.046,-0.455,1.07
2024-10-15 13:35:19.229,73270.679,-0.041,0.432,-0.901,-0.088,0.221,0.132,0.859,-0.212,0.54,-0.045,-0.447,1.077
2024-10-15 13:35:19.239,73270.689,-0.041,0.426,-0.904,-0.031,-0.014,-0.034,0.447,-0.26,0.484,-0.045,-0.44,1.083
2024-10-15 13:35:19.249,73270.699,-0.041,0.426,-0.904,-0.018,-0.255,-0.202,-0.428,-0.325,0.499,-0.046,-0.44,1.088
2024-10-15 13:35:19.259,73270.709,-0.042,0.431,-0.902,-0.019,-0.473,-0.212,-0.425,-0.319,0.376,-0.047,-0.445,1.093
2024-10-15 13:35:19.269,73270.719,-0.044,0.433,-0.9,-0.09,-0.45,-0.121,-0.036,-0.368,0.449,-0.049,-0.448,1.097
2024-10-15 13:35:19.279,73270.729,-0.045,0.433,-0.9,0.0,-0.189,-0.104,-0.033,-0.307,0.241,-0.05,-0.448,1.101
2024-10-15 13:35:19.289,73270.739,-0.047,0.434,-0.899,0.066,-0.333,-0.093,-0.259,-0.267,0.07,-0.053,-0.449,1.103
2024-10-15 13:35:19.299,73270.749,-0.049,0.437,-0.898,0.053,-0.667,-0.152,-0.298,-0.162,-0.159,-0.055,-0.452,1.102
2024-10-15 13:35:19.310,73270.759,-0.052,0.44,-0.896,0.088,-0.709,-0.174,-0.419,-0.114,-0.297,-0.058,-0.456,1.099
2024-10-15 13:35:19.319,73270.769,-0.054,0.445,-0.894,0.117,-0.614,-0.147,-0.78,-0.054,-0.417,-0.06,-0.461,1.095
2024-10-15 13:35:19.329,73270.779,-0.056,0.452,-0.89,0.108,-0.588,-0.043,-0.836,0.049,-0.52,-0.063,-0.47,1.089
2024-10-15 13:35:19.339,73270.789,-0.058,0.459,-0.887,0.026,-0.374,0.049,-0.604,0.092,-0.47,-0.065,-0.476,1.083
2024-10-15 13:35:19.349,73270.799,-0.059,0.463,-0.884,-0.018,0.01,0.07,-0.421,0.13,-0.39,-0.066,-0.481,1.078
2024-10-15 13:35:19.359,73270.809,-0.059,0.466,-0.883,-0.011,0.278,0.109,-0.296,0.194,-0.35,-0.067,-0.485,1.074
2024-10-15 13:35:19.369,73270.819,-0.058,0.465,-0.883,0.024,0.348,0.148,0.424,0.423,-0.517,-0.066,-0.484,1.069
2024-10-15 13:35:19.379,73270.829,-0.057,0.459,-0.886,0.034,0.368,0.176,0.725,0.465,-0.424,-0.064,-0.477,1.064
2024-10-15 13:35:19.389,73270.839,-0.055,0.455,-0.889,0.089,0.359,0.085,0.115,0.463,-0.507,-0.061,-0.472,1.06
2024-10-15 13:35:19.399,73270.849,-0.053,0.457,-0.888,0.142,0.018,0.081,-0.535,0.414,-0.475,-0.06,-0.475,1.054
2024-10-15 13:35:19.409,73270.859,-0.051,0.462,-0.886,0.011,-0.044,0.136,-0.551,0.302,-0.244,-0.058,-0.48,1.049
2024-10-15 13:35:19.419,73270.869,-0.05,0.465,-0.884,-0.114,0.455,0.161,-0.173,0.175,0.054,-0.056,-0.484,1.048
2024-10-15 13:35:19.429,73270.879,-0.048,0.464,-0.884,-0.221,0.825,0.217,0.375,0.074,0.248,-0.054,-0.483,1.05
2024-10-15 13:35:19.439,73270.889,-0.046,0.459,-0.887,-0.246,0.869,0.256,0.838,-0.036,0.472,-0.052,-0.477,1.054
2024-10-15 13:35:19.449,73270.899,-0.044,0.451,-0.892,-0.174,0.765,0.212,1.013,-0.114,0.629,-0.05,-0.467,1.061
2024-10-15 13:35:19.459,73270.909,-0.043,0.442,-0.896,-0.107,0.465,0.108,1.004,-0.126,0.62,-0.047,-0.458,1.069
2024-10-15 13:35:19.469,73270.919,-0.041,0.433,-0.9,-0.043,0.12,-0.03,0.934,-0.123,0.515,-0.046,-0.448,1.076
2024-10-15 13:35:19.479,73270.929,-0.041,0.429,-0.903,-0.005,-0.186,-0.24,-0.025,-0.276,0.544,-0.045,-0.443,1.082
2024-10-15 13:35:19.489,73270.939,-0.041,0.434,-0.9,0.018,-0.437,-0.358,-0.878,-0.286,0.392,-0.046,-0.449,1.087
2024-10-15 13:35:19.499,73270.949,-0.042,0.441,-0.897,-0.03,-0.649,-0.202,-0.601,-0.34,0.48,-0.047,-0.457,1.091
2024-10-15 13:35:19.509,73270.959,-0.043,0.444,-0.895,-0.104,-0.416,-0.107,-0.153,-0.315,0.413,-0.048,-0.46,1.096
2024-10-15 13:35:19.519,73270.969,-0.044,0.445,-0.894,0.006,-0.134,-0.032,-0.037,-0.271,0.258,-0.049,-0.461,1.099
2024-10-15 13:35:19.529,73270.979,-0.045,0.445,-0.894,0.013,-0.389,-0.03,0.001,-0.196,0.073,-0.051,-0.462,1.101
2024-10-15 13:35:19.539,73270.989,-0.047,0.445,-0.894,0.082,-0.645,-0.034,0.037,-0.049,-0.247,-0.052,-0.461,1.1
2024-10-15 13:35:19.549,73270.999,-0.048,0.446,-0.894,0.171,-0.746,-0.101,-0.456,0.039,-0.418,-0.054,-0.463,1.096
2024-10-15 13:35:19.559,73271.009,-0.05,0.453,-0.89,0.201,-0.773,-0.155,-0.935,0.113,-0.585,-0.056,-0.47,1.09
2024-10-15 13:35:19.569,73271.019,-0.051,0.461,-0.886,0.103,-0.661,-0.146,-0.97,0.153,-0.561,-0.058,-0.479,1.083
2024-10-15 13:35:19.579,73271.029,-0.052,0.468,-0.882,-0.003,-0.259,-0.17,-0.678,0.221,-0.527,-0.059,-0.487,1.077
2024-10-15 13:35:19.589,73271.039,-0.053,0.471,-0.88,-0.017,0.144,-0.096,-0.053,0.325,-0.545,-0.06,-0.491,1.07
2024-10-15 13:35:19.599,73271.049,-0.051,0.466,-0.884,-0.027,0.368,0.039,1.257,0.592,-0.774,-0.058,-0.484,1.063
2024-10-15 13:35:19.609,73271.059,-0.049,0.454,-0.89,-0.038,0.439,0.119,1.137,0.607,-0.663,-0.055,-0.471,1.056
2024-10-15 13:35:19.618,73271.069,-0.048,0.448,-0.893,0.12,0.198,0.062,0.061,0.568,-0.886,-0.053,-0.464,1.048
2024-10-15 13:35:19.629,73271.079,-0.047,0.45,-0.892,0.116,-0.378,0.128,-0.602,0.495,-0.798,-0.052,-0.467,1.038
2024-10-15 13:35:19.639,73271.089,-0.046,0.456,-0.889,0.003,-0.22,0.181,-0.58,0.375,-0.49,-0.051,-0.473,1.03
2024-10-15 13:35:19.649,73271.099,-0.045,0.46,-0.887,-0.11,0.533,0.207,-0.355,0.153,-0.083,-0.05,-0.478,1.027
2024-10-15 13:35:19.658,73271.109,-0.044,0.462,-0.886,-0.219,0.966,0.284,0.062,-0.042,0.248,-0.049,-0.48,1.028
2024-10-15 13:35:19.668,73271.119,-0.043,0.458,-0.888,-0.279,1.121,0.327,0.929,-0.158,0.555,-0.048,-0.475,1.032
2024-10-15 13:35:19.679,73271.129,-0.041,0.447,-0.894,-0.27,1.17,0.24,1.475,-0.209,0.792,-0.046,-0.463,1.041
2024-10-15 13:35:19.688,73271.139,-0.04,0.434,-0.9,-0.122,0.907,0.103,1.428,-0.191,0.793,-0.044,-0.449,1.05
2024-10-15 13:35:19.698,73271.149,-0.038,0.423,-0.905,0.021,0.263,0.024,0.977,-0.164,0.633,-0.042,-0.437,1.059
2024-10-15 13:35:19.709,73271.159,-0.038,0.419,-0.907,0.108,-0.304,-0.113,-0.055,-0.205,0.549,-0.041,-0.432,1.066
2024-10-15 13:35:19.719,73271.169,-0.038,0.422,-0.906,0.088,-0.599,-0.205,-0.475,-0.252,0.408,-0.042,-0.436,1.071
2024-10-15 13:35:19.728,73271.179,-0.038,0.425,-0.904,-0.082,-0.607,-0.138,-0.158,-0.287,0.489,-0.042,-0.439,1.076
2024-10-15 13:35:19.738,73271.189,-0.039,0.425,-0.904,-0.133,-0.257,-0.071,0.155,-0.273,0.407,-0.043,-0.439,1.081
2024-10-15 13:35:19.748,73271.199,-0.04,0.424,-0.905,-0.069,-0.196,0.008,0.137,-0.237,0.27,-0.044,-0.438,1.085
2024-10-15 13:35:19.758,73271.209,-0.041,0.423,-0.905,-0.031,-0.459,-0.014,0.108,-0.176,0.103,-0.045,-0.437,1.087
2024-10-15 13:35:19.768,73271.219,-0.042,0.422,-0.905,0.027,-0.609,-0.078,0.04,-0.093,-0.096,-0.046,-0.436,1.087
2024-10-15 13:35:19.779,73271.229,-0.043,0.423,-0.905,0.103,-0.71,-0.152,-0.334,-0.057,-0.307,-0.048,-0.437,1.085
2024-10-15 13:35:19.789,73271.238,-0.045,0.429,-0.902,0.179,-0.812,-0.182,-0.855,0.02,-0.48,-0.05,-0.443,1.08
2024-10-15 13:35:19.798,73271.248,-0.047,0.438,-0.898,0.167,-0.746,-0.189,-1.124,0.08,-0.554,-0.052,-0.453,1.074
2024-10-15 13:35:19.808,73271.258,-0.049,0.447,-0.893,0.063,-0.488,-0.18,-1.01,0.141,-0.583,-0.054,-0.463,1.067
2024-10-15 13:35:19.818,73271.268,-0.05,0.454,-0.89,0.024,-0.133,-0.136,-0.619,0.206,-0.558,-0.056,-0.471,1.06
2024-10-15 13:35:19.828,73271.278,-0.05,0.455,-0.889,0.008,0.224,-0.021,0.452,0.42,-0.662,-0.056,-0.472,1.053
2024-10-15 13:35:19.838,73271.288,-0.048,0.446,-0.894,-0.013,0.496,0.118,1.262,0.49,-0.578,-0.054,-0.462,1.047
2024-10-15 13:35:19.848,73271.298,-0.047,0.437,-0.898,0.052,0.516,0.134,0.693,0.506,-0.665,-0.052,-0.452,1.041
2024-10-15 13:35:19.858,73271.308,-0.045,0.435,-0.899,0.186,0.069,0.114,-0.266,0.453,-0.713,-0.05,-0.45,1.033
2024-10-15 13:35:19.868,73271.318,-0.044,0.438,-0.898,0.035,-0.213,0.142,-0.534,0.396,-0.568,-0.049,-0.454,1.025
2024-10-15 13:35:19.878,73271.328,-0.043,0.442,-0.896,-0.081,0.227,0.115,-0.366,0.265,-0.27,-0.048,-0.458,1.02
2024-10-15 13:35:19.888,73271.338,-0.042,0.445,-0.895,-0.204,0.747,0.161,-0.237,0.037,0.118,-0.047,-0.461,1.02
2024-10-15 13:35:19.898,73271.348,-0.041,0.445,-0.895,-0.23,0.923,0.264,0.217,-0.057,0.32,-0.046,-0.461,1.022
2024-10-15 13:35:19.908,73271.358,-0.04,0.44,-0.897,-0.213,0.895,0.351,0.865,-0.156,0.645,-0.045,-0.456,1.027
2024-10-15 13:35:19.918,73271.368,-0.039,0.432,-0.901,-0.166,0.917,0.294,1.015,-0.216,0.84,-0.043,-0.447,1.036
2024-10-15 13:35:19.928,73271.378,-0.037,0.423,-0.905,-0.043,0.634,0.163,0.911,-0.212,0.845,-0.041,-0.437,1.046
2024-10-15 13:35:19.938,73271.388,-0.036,0.419,-0.907,0.003,0.118,0.032,0.072,-0.373,0.899,-0.039,-0.432,1.056
2024-10-15 13:35:19.948,73271.398,-0.036,0.421,-0.907,0.039,-0.191,-0.096,-0.308,-0.388,0.714,-0.039,-0.434,1.065
2024-10-15 13:35:19.958,73271.408,-0.036,0.422,-0.906,-0.063,-0.411,-0.013,0.026,-0.426,0.77,-0.04,-0.436,1.073
2024-10-15 13:35:19.968,73271.418,-0.037,0.422,-0.906,-0.111,-0.3,-0.035,0.013,-0.38,0.61,-0.041,-0.436,1.081
2024-10-15 13:35:19.978,73271.428,-0.038,0.423,-0.906,-0.003,-0.38,-0.097,-0.079,-0.259,0.327,-0.042,-0.436,1.086
2024-10-15 13:35:19.988,73271.438,-0.039,0.423,-0.905,-0.018,-0.788,-0.218,-0.039,-0.11,0.051,-0.043,-0.437,1.088
2024-10-15 13:35:19.998,73271.448,-0.04,0.424,-0.905,0.031,-0.917,-0.339,-0.127,0.025,-0.334,-0.044,-0.437,1.086
2024-10-15 13:35:20.008,73271.458,-0.041,0.428,-0.903,0.112,-1.006,-0.375,-0.828,0.083,-0.531,-0.045,-0.442,1.081
2024-10-15 13:35:20.018,73271.468,-0.043,0.437,-0.898,0.182,-1.029,-0.296,-1.297,0.133,-0.683,-0.048,-0.453,1.074
2024-10-15 13:35:20.028,73271.478,-0.044,0.448,-0.893,0.111,-0.787,-0.181,-1.201,0.157,-0.622,-0.05,-0.465,1.066
2024-10-15 13:35:20.038,73271.488,-0.046,0.457,-0.888,-0.0,-0.208,-0.154,-0.808,0.162,-0.518,-0.051,-0.475,1.059
2024-10-15 13:35:20.048,73271.498,-0.046,0.461,-0.886,-0.017,0.329,-0.079,-0.025,0.244,-0.476,-0.052,-0.479,1.054
2024-10-15 13:35:20.058,73271.508,-0.045,0.455,-0.889,-0.02,0.555,0.076,1.284,0.459,-0.657,-0.051,-0.473,1.047
2024-10-15 13:35:20.068,73271.518,-0.044,0.443,-0.895,-0.014,0.577,0.163,1.105,0.419,-0.513,-0.049,-0.459,1.042
2024-10-15 13:35:20.078,73271.528,-0.043,0.437,-0.898,0.132,0.294,0.136,0.143,0.406,-0.755,-0.048,-0.453,1.035
2024-10-15 13:35:20.088,73271.538,-0.043,0.439,-0.897,0.108,-0.29,0.196,-0.582,0.302,-0.611,-0.048,-0.455,1.027
2024-10-15 13:35:20.098,73271.548,-0.043,0.445,-0.894,0.019,-0.131,0.15,-0.676,0.196,-0.352,-0.048,-0.461,1.022
2024-10-15 13:35:20.108,73271.558,-0.042,0.449,-0.892,-0.093,0.568,0.147,-0.347,0.041,0.066,-0.047,-0.466,1.02
2024-10-15 13:35:20.118,73271.568,-0.042,0.45,-0.892,-0.215,1.057,0.226,0.309,-0.073,0.358,-0.047,-0.466,1.022
2024-10-15 13:35:20.128,73271.578,-0.04,0.443,-0.895,-0.244,1.2,0.342,1.143,-0.166,0.662,-0.045,-0.459,1.028
2024-10-15 13:35:20.138,73271.588,-0.039,0.432,-0.901,-0.188,1.079,0.32,1.456,-0.235,0.837,-0.043,-0.446,1.038
2024-10-15 13:35:20.148,73271.598,-0.037,0.42,-0.907,-0.055,0.67,0.208,1.258,-0.237,0.813,-0.041,-0.433,1.048
2024-10-15 13:35:20.158,73271.608,-0.037,0.411,-0.911,0.033,-0.0,0.093,0.525,-0.258,0.615,-0.04,-0.424,1.056
2024-10-15 13:35:20.168,73271.618,-0.037,0.411,-0.911,0.091,-0.549,-0.08,-0.363,-0.245,0.485,-0.04,-0.424,1.062
2024-10-15 13:35:20.178,73271.628,-0.037,0.415,-0.909,0.008,-0.831,-0.116,-0.23,-0.177,0.27,-0.041,-0.427,1.066
2024-10-15 13:35:20.188,73271.638,-0.037,0.415,-0.909,-0.062,-0.829,-0.087,0.047,-0.009,0.036,-0.041,-0.428,1.068
2024-10-15 13:35:20.197,73271.648,-0.037,0.416,-0.909,0.052,-0.699,-0.162,-0.383,0.132,-0.303,-0.041,-0.429,1.066
2024-10-15 13:35:20.208,73271.658,-0.037,0.424,-0.905,0.049,-0.983,-0.277,-1.53,0.202,-0.432,-0.041,-0.438,1.062
2024-10-15 13:35:20.218,73271.668,-0.038,0.442,-0.896,0.014,-1.057,-0.296,-2.289,0.223,-0.505,-0.042,-0.458,1.056
2024-10-15 13:35:20.227,73271.678,-0.037,0.463,-0.886,-0.082,-0.652,-0.219,-2.354,0.264,-0.37,-0.042,-0.481,1.05
2024-10-15 13:35:20.237,73271.688,-0.036,0.483,-0.875,-0.189,-0.023,-0.136,-2.428,0.222,-0.147,-0.042,-0.505,1.046
2024-10-15 13:35:20.248,73271.698,-0.035,0.505,-0.862,-0.171,0.381,0.02,-2.591,0.218,-0.107,-0.041,-0.53,1.044
2024-10-15 13:35:20.257,73271.708,-0.034,0.527,-0.849,-0.08,0.223,0.166,-2.465,0.283,-0.099,-0.04,-0.555,1.041
2024-10-15 13:35:20.267,73271.718,-0.031,0.546,-0.837,-0.02,0.059,0.216,-2.147,0.331,-0.061,-0.038,-0.578,1.039
2024-10-15 13:35:20.277,73271.728,-0.029,0.563,-0.826,-0.027,0.192,0.182,-1.718,0.349,-0.004,-0.035,-0.597,1.038
2024-10-15 13:35:20.287,73271.738,-0.026,0.575,-0.818,-0.078,0.193,0.187,-1.326,0.406,0.042,-0.031,-0.613,1.038
2024-10-15 13:35:20.297,73271.748,-0.022,0.585,-0.811,-0.034,0.118,0.234,-1.13,0.485,0.052,-0.027,-0.625,1.038
2024-10-15 13:35:20.308,73271.758,-0.018,0.594,-0.805,0.006,0.07,0.197,-1.048,0.48,0.007,-0.022,-0.636,1.039
2024-10-15 13:35:20.317,73271.768,-0.014,0.602,-0.799,-0.01,0.025,0.059,-0.954,0.419,-0.003,-0.017,-0.646,1.038
2024-10-15 13:35:20.327,73271.778,-0.011,0.609,-0.793,0.002,-0.002,-0.028,-0.858,0.359,-0.012,-0.014,-0.655,1.038
2024-10-15 13:35:20.338,73271.788,-0.008,0.615,-0.788,0.043,0.017,-0.066,-0.835,0.306,-0.034,-0.011,-0.663,1.038
2024-10-15 13:35:20.347,73271.798,-0.006,0.622,-0.783,0.044,0.076,-0.049,-0.803,0.269,-0.047,-0.008,-0.671,1.038
2024-10-15 13:35:20.357,73271.808,-0.005,0.628,-0.778,0.054,0.097,-0.054,-0.719,0.229,-0.074,-0.006,-0.679,1.037
2024-10-15 13:35:20.367,73271.817,-0.004,0.633,-0.774,0.082,0.106,-0.1,-0.585,0.184,-0.042,-0.005,-0.685,1.036
2024-10-15 13:35:20.377,73271.827,-0.002,0.637,-0.771,0.109,0.118,-0.105,-0.307,0.184,-0.02,-0.003,-0.69,1.036
2024-10-15 13:35:20.387,73271.837,-0.001,0.638,-0.77,0.125,0.131,-0.051,-0.014,0.205,0.016,-0.001,-0.692,1.036
2024-10-15 13:35:20.397,73271.847,0.001,0.637,-0.771,0.121,0.166,0.01,0.166,0.183,0.039,0.001,-0.691,1.037
2024-10-15 13:35:20.407,73271.857,0.002,0.636,-0.772,0.111,0.132,0.023,0.179,0.121,0.032,0.003,-0.689,1.037
2024-10-15 13:35:20.418,73271.867,0.003,0.634,-0.773,0.09,0.049,0.023,0.229,0.024,0.079,0.004,-0.687,1.038
2024-10-15 13:35:20.427,73271.877,0.004,0.632,-0.775,0.07,0.032,0.051,0.399,-0.057,0.121,0.005,-0.684,1.04
2024-10-15 13:35:20.437,73271.887,0.004,0.628,-0.778,0.065,0.094,0.054,0.594,-0.13,0.139,0.005,-0.679,1.041
2024-10-15 13:35:20.447,73271.897,0.003,0.623,-0.782,0.061,0.13,0.036,0.691,-0.19,0.162,0.004,-0.672,1.044
2024-10-15 13:35:20.457,73271.907,0.003,0.617,-0.787,0.048,0.101,0.029,0.716,-0.214,0.165,0.004,-0.665,1.046
2024-10-15 13:35:20.467,73271.917,0.002,0.612,-0.791,0.046,0.07,0.033,0.698,-0.214,0.188,0.003,-0.658,1.048
2024-10-15 13:35:20.477,73271.927,0.002,0.606,-0.795,0.035,0.054,0.028,0.663,-0.181,0.207,0.002,-0.651,1.051
2024-10-15 13:35:20.487,73271.937,0.002,0.601,-0.799,0.022,0.032,0.028,0.644,-0.134,0.225,0.002,-0.645,1.053
2024-10-15 13:35:20.497,73271.947,0.002,0.596,-0.803,0.017,0.007,0.039,0.681,-0.097,0.236,0.003,-0.638,1.056
2024-10-15 13:35:20.507,73271.957,0.003,0.59,-0.807,0.023,0.002,0.027,0.763,-0.076,0.233,0.004,-0.631,1.059
2024-10-15 13:35:20.517,73271.967,0.004,0.583,-0.812,0.025,0.011,0.014,0.939,-0.081,0.212,0.005,-0.623,1.062
2024-10-15 13:35:20.527,73271.977,0.004,0.575,-0.818,0.024,0.024,0.012,1.152,-0.094,0.191,0.005,-0.612,1.065
2024-10-15 13:35:20.537,73271.987,0.004,0.564,-0.826,0.021,0.029,0.021,1.336,-0.1,0.165,0.005,-0.6,1.067
2024-10-15 13:35:20.547,73271.997,0.004,0.553,-0.833,0.015,0.023,0.037,1.429,-0.131,0.128,0.005,-0.586,1.069
2024-10-15 13:35:20.557,73272.007,0.004,0.541,-0.841,0.021,-0.006,0.052,1.415,-0.167,0.104,0.004,-0.571,1.07
2024-10-15 13:35:20.567,73272.017,0.002,0.529,-0.848,0.03,-0.05,0.056,1.326,-0.22,0.052,0.003,-0.558,1.071
2024-10-15 13:35:20.577,73272.027,0.0,0.519,-0.855,0.022,-0.086,0.059,1.173,-0.268,-0.003,0.0,-0.545,1.071
2024-10-15 13:35:20.587,73272.037,-0.002,0.509,-0.861,0.012,-0.115,0.072,1.019,-0.317,-0.038,-0.003,-0.534,1.071
2024-10-15 13:35:20.597,73272.047,-0.005,0.501,-0.865,0.006,-0.133,0.094,0.916,-0.351,-0.121,-0.006,-0.525,1.07
2024-10-15 13:35:20.607,73272.057,-0.009,0.493,-0.87,-0.006,-0.123,0.08,0.935,-0.365,-0.202,-0.011,-0.516,1.068
2024-10-15 13:35:20.617,73272.067,-0.011,0.485,-0.874,-0.035,-0.073,0.068,0.821,0.061,0.073,-0.013,-0.506,1.067
2024-10-15 13:35:20.627,73272.077,-0.011,0.479,-0.878,-0.078,0.049,-0.012,0.514,-0.033,-0.019,-0.012,-0.5,1.068
2024-10-15 13:35:20.637,73272.087,-0.011,0.475,-0.88,-0.248,0.302,-0.473,0.309,-0.112,0.19,-0.012,-0.495,1.069
2024-10-15 13:35:20.647,73272.097,-0.011,0.475,-0.88,-0.35,0.253,-0.353,-0.14,-0.2,0.258,-0.013,-0.495,1.071
2024-10-15 13:35:20.657,73272.107,-0.012,0.477,-0.879,-0.126,0.072,-0.06,-0.281,-0.297,0.315,-0.014,-0.497,1.074
2024-10-15 13:35:20.667,73272.117,-0.013,0.478,-0.878,-0.122,0.107,-0.025,-0.031,-0.403,0.499,-0.015,-0.499,1.079
2024-10-15 13:35:20.677,73272.127,-0.015,0.479,-0.878,-0.106,0.227,0.064,-0.106,-0.555,0.668,-0.017,-0.499,1.085
2024-10-15 13:35:20.687,73272.137,-0.017,0.48,-0.877,0.046,0.178,0.098,0.006,-0.534,0.557,-0.019,-0.5,1.092
2024-10-15 13:35:20.697,73272.147,-0.018,0.478,-0.878,0.039,0.007,0.103,0.366,-0.452,0.55,-0.021,-0.498,1.098
2024-10-15 13:35:20.707,73272.157,-0.02,0.474,-0.88,0.033,-0.003,0.01,0.564,-0.386,0.46,-0.022,-0.494,1.104
2024-10-15 13:35:20.717,73272.167,-0.021,0.469,-0.883,0.122,-0.141,-0.038,0.599,-0.247,0.161,-0.024,-0.488,1.108
2024-10-15 13:35:20.727,73272.177,-0.022,0.463,-0.886,0.127,-0.448,-0.028,0.627,-0.109,-0.146,-0.025,-0.482,1.108
2024-10-15 13:35:20.737,73272.187,-0.024,0.457,-0.889,0.11,-0.62,-0.049,0.751,0.014,-0.269,-0.027,-0.474,1.106
2024-10-15 13:35:20.747,73272.197,-0.025,0.452,-0.892,0.147,-0.644,-0.057,0.256,0.149,-0.347,-0.027,-0.469,1.103
2024-10-15 13:35:20.757,73272.207,-0.025,0.453,-0.891,0.173,-0.577,0.05,-0.439,0.241,-0.503,-0.028,-0.47,1.098
2024-10-15 13:35:20.767,73272.217,-0.025,0.458,-0.889,0.075,-0.521,0.088,-0.688,0.239,-0.489,-0.028,-0.475,1.092
2024-10-15 13:35:20.776,73272.227,-0.025,0.463,-0.886,-0.022,-0.218,0.014,-0.375,0.23,-0.35,-0.028,-0.481,1.087
2024-10-15 13:35:20.787,73272.237,-0.024,0.462,-0.887,-0.07,0.27,-0.042,0.629,0.263,-0.408,-0.027,-0.48,1.083
2024-10-15 13:35:20.797,73272.247,-0.023,0.454,-0.891,-0.065,0.544,-0.054,0.891,0.23,-0.234,-0.026,-0.471,1.079
2024-10-15 13:35:20.807,73272.257,-0.023,0.449,-0.893,0.043,0.525,-0.056,0.251,0.152,-0.238,-0.025,-0.466,1.077
2024-10-15 13:35:20.816,73272.267,-0.023,0.449,-0.893,0.049,0.188,-0.031,-0.087,0.059,-0.15,-0.025,-0.465,1.074
2024-10-15 13:35:20.826,73272.277,-0.022,0.45,-0.893,-0.122,0.179,0.022,-0.159,-0.016,0.12,-0.025,-0.467,1.074
2024-10-15 13:35:20.836,73272.287,-0.022,0.451,-0.892,-0.104,0.519,0.077,0.007,-0.042,0.25,-0.025,-0.468,1.076
2024-10-15 13:35:20.846,73272.297,-0.021,0.449,-0.893,-0.145,0.502,0.149,0.341,-0.08,0.397,-0.024,-0.466,1.08
2024-10-15 13:35:20.856,73272.307,-0.02,0.445,-0.895,-0.167,0.471,0.206,0.697,-0.162,0.506,-0.022,-0.461,1.085
2024-10-15 13:35:20.867,73272.317,-0.019,0.438,-0.899,-0.137,0.397,0.19,0.809,-0.236,0.573,-0.022,-0.453,1.091
2024-10-15 13:35:20.876,73272.327,-0.019,0.431,-0.902,-0.096,0.241,0.125,0.841,-0.254,0.575,-0.021,-0.445,1.098
2024-10-15 13:35:20.886,73272.337,-0.019,0.423,-0.906,-0.077,0.05,0.018,0.924,-0.205,0.501,-0.021,-0.437,1.104
2024-10-15 13:35:20.896,73272.347,-0.019,0.415,-0.909,-0.02,-0.136,-0.103,0.637,-0.172,0.449,-0.021,-0.428,1.11
2024-10-15 13:35:20.906,73272.357,-0.019,0.414,-0.91,0.077,-0.349,-0.18,-0.261,-0.211,0.369,-0.021,-0.427,1.114
2024-10-15 13:35:20.916,73272.367,-0.02,0.418,-0.908,0.12,-0.646,-0.133,-0.57,-0.125,0.043,-0.021,-0.431,1.116
2024-10-15 13:35:20.926,73272.377,-0.021,0.423,-0.906,0.06,-0.82,-0.063,-0.455,-0.091,-0.074,-0.023,-0.436,1.116
2024-10-15 13:35:20.937,73272.387,-0.022,0.426,-0.905,0.086,-0.631,-0.089,-0.357,-0.033,-0.269,-0.024,-0.44,1.114
2024-10-15 13:35:20.946,73272.396,-0.023,0.43,-0.903,0.112,-0.587,-0.122,-0.579,-0.022,-0.328,-0.026,-0.444,1.11
2024-10-15 13:35:20.956,73272.406,-0.025,0.435,-0.9,0.055,-0.54,-0.084,-0.564,0.037,-0.388,-0.028,-0.45,1.106
2024-10-15 13:35:20.966,73272.416,-0.026,0.439,-0.898,0.014,-0.354,-0.005,-0.406,0.05,-0.326,-0.029,-0.455,1.102
2024-10-15 13:35:20.976,73272.426,-0.027,0.443,-0.896,0.024,-0.049,0.026,-0.409,0.028,-0.255,-0.03,-0.459,1.099
2024-10-15 13:35:20.986,73272.436,-0.028,0.446,-0.894,0.043,0.142,0.06,-0.426,0.018,-0.246,-0.031,-0.463,1.096
2024-10-15 13:35:20.996,73272.446,-0.029,0.447,-0.894,0.048,0.153,0.069,0.388,0.181,-0.449,-0.032,-0.463,1.092
2024-10-15 13:35:21.006,73272.456,-0.029,0.441,-0.897,0.045,0.221,0.052,0.732,0.295,-0.381,-0.032,-0.457,1.087
2024-10-15 13:35:21.016,73272.466,-0.028,0.437,-0.899,0.092,0.282,-0.028,0.102,0.332,-0.604,-0.031,-0.452,1.082
2024-10-15 13:35:21.026,73272.476,-0.028,0.438,-0.898,0.105,-0.088,-0.069,-0.362,0.336,-0.714,-0.031,-0.454,1.074
2024-10-15 13:35:21.036,73272.486,-0.028,0.441,-0.897,-0.038,-0.242,0.013,-0.306,0.307,-0.633,-0.031,-0.457,1.066
2024-10-15 13:35:21.046,73272.496,-0.028,0.445,-0.895,-0.075,0.218,0.033,-0.47,0.164,-0.342,-0.031,-0.461,1.061
2024-10-15 13:35:21.056,73272.506,-0.028,0.449,-0.893,-0.168,0.531,0.093,-0.473,-0.053,-0.073,-0.032,-0.465,1.058
2024-10-15 13:35:21.067,73272.516,-0.029,0.451,-0.892,-0.225,0.623,0.217,0.078,-0.171,0.226,-0.032,-0.468,1.059
2024-10-15 13:35:21.076,73272.526,-0.029,0.447,-0.894,-0.255,0.879,0.284,0.938,-0.261,0.49,-0.033,-0.463,1.063
2024-10-15 13:35:21.086,73272.536,-0.029,0.436,-0.899,-0.296,1.057,0.236,1.286,-0.319,0.715,-0.032,-0.452,1.07
2024-10-15 13:35:21.096,73272.546,-0.029,0.425,-0.905,-0.22,0.798,0.113,1.208,-0.339,0.735,-0.032,-0.439,1.078
2024-10-15 13:35:21.106,73272.556,-0.029,0.416,-0.909,-0.125,0.244,0.018,0.704,-0.398,0.796,-0.032,-0.429,1.087
2024-10-15 13:35:21.116,73272.566,-0.03,0.415,-0.909,-0.022,-0.136,-0.091,-0.221,-0.502,0.751,-0.033,-0.428,1.096
2024-10-15 13:35:21.126,73272.576,-0.032,0.417,-0.908,0.01,-0.428,-0.067,-0.123,-0.462,0.569,-0.035,-0.43,1.102
2024-10-15 13:35:21.136,73272.586,-0.034,0.417,-0.908,-0.09,-0.517,0.017,0.265,-0.481,0.593,-0.037,-0.43,1.109
2024-10-15 13:35:21.146,73272.596,-0.036,0.415,-0.909,0.031,-0.28,-0.064,0.171,-0.369,0.332,-0.039,-0.428,1.114
2024-10-15 13:35:21.156,73272.606,-0.038,0.414,-0.909,0.069,-0.508,-0.114,-0.049,-0.25,0.079,-0.041,-0.427,1.116
2024-10-15 13:35:21.166,73272.616,-0.04,0.415,-0.909,0.086,-0.851,-0.191,-0.173,-0.123,-0.223,-0.044,-0.428,1.116
2024-10-15 13:35:21.176,73272.626,-0.041,0.418,-0.907,0.14,-0.874,-0.206,-0.503,-0.023,-0.378,-0.046,-0.431,1.112
2024-10-15 13:35:21.187,73272.636,-0.043,0.425,-0.904,0.178,-0.782,-0.175,-0.902,0.061,-0.513,-0.048,-0.438,1.107
2024-10-15 13:35:21.196,73272.646,-0.045,0.433,-0.9,0.133,-0.686,-0.107,-0.949,0.121,-0.562,-0.05,-0.448,1.1
2024-10-15 13:35:21.206,73272.656,-0.046,0.44,-0.897,0.04,-0.373,-0.048,-0.762,0.147,-0.52,-0.051,-0.456,1.094
2024-10-15 13:35:21.216,73272.666,-0.047,0.446,-0.894,0.022,0.016,-0.016,-0.515,0.177,-0.454,-0.052,-0.462,1.088
2024-10-15 13:35:21.226,73272.676,-0.047,0.448,-0.893,0.013,0.272,0.054,0.058,0.256,-0.487,-0.052,-0.465,1.083
2024-10-15 13:35:21.235,73272.686,-0.046,0.443,-0.895,0.038,0.389,0.124,0.882,0.429,-0.564,-0.051,-0.459,1.077
2024-10-15 13:35:21.246,73272.696,-0.044,0.437,-0.898,0.078,0.416,0.102,0.339,0.39,-0.474,-0.049,-0.453,1.072
2024-10-15 13:35:21.255,73272.706,-0.043,0.437,-0.898,0.189,0.173,0.065,-0.359,0.401,-0.65,-0.048,-0.453,1.065
2024-10-15 13:35:21.265,73272.716,-0.043,0.441,-0.897,0.071,-0.189,0.15,-0.455,0.368,-0.566,-0.047,-0.457,1.058
2024-10-15 13:35:21.275,73272.726,-0.042,0.445,-0.895,-0.033,0.14,0.129,-0.486,0.258,-0.306,-0.047,-0.461,1.053
2024-10-15 13:35:21.286,73272.736,-0.041,0.449,-0.892,-0.158,0.612,0.098,-0.459,0.107,0.007,-0.046,-0.466,1.051
2024-10-15 13:35:21.295,73272.746,-0.04,0.451,-0.892,-0.293,0.746,0.163,0.222,0.008,0.208,-0.045,-0.467,1.052
2024-10-15 13:35:21.306,73272.756,-0.039,0.445,-0.894,-0.32,0.832,0.226,0.885,-0.082,0.488,-0.043,-0.462,1.056
2024-10-15 13:35:21.316,73272.766,-0.037,0.438,-0.898,-0.225,0.889,0.207,0.855,-0.164,0.651,-0.041,-0.453,1.063
2024-10-15 13:35:21.326,73272.776,-0.036,0.431,-0.901,-0.114,0.533,0.149,0.605,-0.2,0.696,-0.04,-0.446,1.071
2024-10-15 13:35:21.336,73272.786,-0.035,0.428,-0.903,-0.031,0.029,0.065,0.162,-0.309,0.714,-0.039,-0.442,1.079
2024-10-15 13:35:21.346,73272.796,-0.035,0.43,-0.902,0.03,-0.187,-0.065,-0.435,-0.367,0.68,-0.039,-0.444,1.087
2024-10-15 13:35:21.355,73272.806,-0.036,0.433,-0.901,-0.013,-0.316,-0.028,-0.082,-0.367,0.559,-0.04,-0.447,1.093
2024-10-15 13:35:21.365,73272.816,-0.037,0.432,-0.901,-0.114,-0.324,-0.011,0.277,-0.361,0.563,-0.041,-0.446,1.1
2024-10-15 13:35:21.375,73272.826,-0.038,0.43,-0.902,-0.009,-0.164,-0.097,0.035,-0.32,0.376,-0.042,-0.445,1.105
2024-10-15 13:35:21.386,73272.836,-0.039,0.431,-0.901,0.004,-0.494,-0.183,-0.166,-0.234,0.146,-0.043,-0.446,1.108
2024-10-15 13:35:21.395,73272.846,-0.041,0.432,-0.901,0.025,-0.829,-0.238,-0.069,-0.08,-0.149,-0.045,-0.447,1.108
2024-10-15 13:35:21.406,73272.856,-0.042,0.434,-0.9,0.145,-0.858,-0.241,-0.323,0.014,-0.391,-0.047,-0.448,1.104
2024-10-15 13:35:21.416,73272.866,-0.044,0.439,-0.897,0.24,-0.862,-0.242,-1.006,0.09,-0.566,-0.049,-0.455,1.098
2024-10-15 13:35:21.425,73272.876,-0.045,0.45,-0.892,0.211,-0.835,-0.152,-1.269,0.129,-0.629,-0.051,-0.466,1.091
2024-10-15 13:35:21.435,73272.886,-0.047,0.459,-0.887,0.085,-0.558,-0.09,-0.96,0.175,-0.577,-0.053,-0.477,1.083
2024-10-15 13:35:21.445,73272.896,-0.048,0.465,-0.884,0.02,-0.0,-0.06,-0.406,0.186,-0.445,-0.054,-0.484,1.077
2024-10-15 13:35:21.455,73272.906,-0.048,0.464,-0.884,-0.016,0.445,0.001,0.612,0.346,-0.557,-0.054,-0.483,1.072
2024-10-15 13:35:21.465,73272.916,-0.047,0.456,-0.889,-0.014,0.56,0.088,1.036,0.383,-0.458,-0.053,-0.473,1.066
2024-10-15 13:35:21.475,73272.926,-0.046,0.45,-0.892,0.079,0.442,0.065,0.192,0.379,-0.579,-0.051,-0.467,1.061
2024-10-15 13:35:21.485,73272.936,-0.045,0.451,-0.891,0.197,-0.029,0.074,-0.364,0.4,-0.695,-0.051,-0.468,1.054
2024-10-15 13:35:21.495,73272.946,-0.044,0.453,-0.89,0.036,-0.243,0.162,-0.204,0.423,-0.577,-0.05,-0.47,1.047
2024-10-15 13:35:21.505,73272.956,-0.043,0.455,-0.89,-0.028,0.269,0.136,-0.173,0.305,-0.352,-0.049,-0.472,1.041
2024-10-15 13:35:21.515,73272.966,-0.042,0.457,-0.889,-0.13,0.609,0.14,-0.311,0.099,-0.071,-0.048,-0.474,1.038
2024-10-15 13:35:21.525,73272.975,-0.042,0.458,-0.888,-0.229,0.617,0.189,0.077,-0.051,0.203,-0.047,-0.476,1.039
2024-10-15 13:35:21.535,73272.985,-0.041,0.454,-0.89,-0.272,0.807,0.288,0.835,-0.137,0.521,-0.046,-0.471,1.043
2024-10-15 13:35:21.545,73272.995,-0.04,0.445,-0.895,-0.271,1.038,0.296,1.213,-0.216,0.794,-0.044,-0.461,1.051
2024-10-15 13:35:21.555,73273.005,-0.038,0.435,-0.9,-0.209,0.838,0.141,1.043,-0.246,0.93,-0.042,-0.45,1.061
2024-10-15 13:35:21.565,73273.015,-0.037,0.428,-0.903,-0.109,0.347,0.09,0.389,-0.384,0.98,-0.04,-0.442,1.072
2024-10-15 13:35:21.576,73273.025,-0.036,0.43,-0.902,0.012,-0.096,0.028,-0.521,-0.496,0.956,-0.04,-0.444,1.083
2024-10-15 13:35:21.585,73273.035,-0.037,0.434,-0.9,-0.017,-0.405,0.094,-0.152,-0.506,0.842,-0.041,-0.449,1.092
2024-10-15 13:35:21.595,73273.045,-0.038,0.433,-0.901,-0.141,-0.361,0.114,0.298,-0.464,0.825,-0.042,-0.448,1.102
2024-10-15 13:35:21.605,73273.055,-0.039,0.431,-0.902,0.01,-0.152,-0.042,0.208,-0.328,0.508,-0.043,-0.446,1.109
2024-10-15 13:35:21.615,73273.065,-0.039,0.43,-0.902,0.015,-0.577,-0.183,0.118,-0.151,0.203,-0.044,-0.444,1.113
2024-10-15 13:35:21.625,73273.075,-0.04,0.429,-0.902,0.045,-0.975,-0.353,0.011,0.054,-0.221,-0.044,-0.444,1.113
2024-10-15 13:35:21.635,73273.085,-0.04,0.431,-0.901,0.16,-1.099,-0.435,-0.581,0.168,-0.511,-0.045,-0.446,1.109
2024-10-15 13:35:21.645,73273.095,-0.041,0.441,-0.897,0.249,-1.202,-0.396,-1.476,0.259,-0.77,-0.046,-0.456,1.101
2024-10-15 13:35:21.655,73273.105,-0.042,0.456,-0.889,0.24,-1.122,-0.274,-1.905,0.299,-0.829,-0.047,-0.473,1.091
2024-10-15 13:35:21.665,73273.115,-0.043,0.471,-0.881,0.07,-0.666,-0.232,-1.465,0.34,-0.751,-0.049,-0.49,1.081
2024-10-15 13:35:21.675,73273.125,-0.043,0.476,-0.878,-0.032,0.016,-0.19,0.35,0.621,-0.88,-0.049,-0.496,1.072
2024-10-15 13:35:21.685,73273.135,-0.041,0.466,-0.884,-0.082,0.585,-0.021,1.469,0.64,-0.728,-0.047,-0.485,1.063
2024-10-15 13:35:21.695,73273.145,-0.039,0.457,-0.889,0.03,0.702,0.045,0.53,0.572,-0.9,-0.044,-0.474,1.055
2024-10-15 13:35:21.705,73273.155,-0.04,0.457,-0.888,0.208,-0.063,0.152,-0.684,0.383,-0.947,-0.044,-0.475,1.044
2024-10-15 13:35:21.715,73273.165,-0.041,0.464,-0.885,0.069,-0.456,0.207,-0.841,0.252,-0.644,-0.046,-0.483,1.035
2024-10-15 13:35:21.725,73273.175,-0.041,0.469,-0.882,-0.035,0.31,0.158,-0.346,0.113,-0.288,-0.046,-0.489,1.029
2024-10-15 13:35:21.735,73273.185,-0.041,0.47,-0.882,-0.177,1.095,0.193,0.226,-0.094,0.134,-0.047,-0.489,1.028
2024-10-15 13:35:21.745,73273.195,-0.041,0.466,-0.884,-0.245,1.314,0.277,0.705,-0.196,0.416,-0.047,-0.485,1.032
2024-10-15 13:35:21.755,73273.205,-0.041,0.457,-0.888,-0.223,1.207,0.411,1.299,-0.275,0.648,-0.046,-0.475,1.038
2024-10-15 13:35:21.765,73273.215,-0.04,0.445,-0.895,-0.189,0.988,0.377,1.476,-0.32,0.843,-0.045,-0.461,1.048
2024-10-15 13:35:21.775,73273.225,-0.039,0.433,-0.9,-0.081,0.632,0.232,1.123,-0.333,0.822,-0.044,-0.448,1.058
2024-10-15 13:35:21.785,73273.235,-0.039,0.426,-0.904,-0.008,0.036,0.134,0.617,-0.34,0.674,-0.043,-0.44,1.066
2024-10-15 13:35:21.795,73273.245,-0.04,0.424,-0.905,0.041,-0.402,-0.021,-0.201,-0.38,0.667,-0.044,-0.438,1.074
2024-10-15 13:35:21.805,73273.255,-0.041,0.426,-0.904,-0.001,-0.505,-0.07,-0.023,-0.36,0.502,-0.045,-0.44,1.08
2024-10-15 13:35:21.815,73273.265,-0.042,0.424,-0.905,-0.144,-0.444,-0.024,0.451,-0.311,0.517,-0.046,-0.438,1.086
2024-10-15 13:35:21.825,73273.275,-0.042,0.421,-0.906,-0.067,-0.246,-0.114,0.323,-0.214,0.291,-0.047,-0.434,1.091
2024-10-15 13:35:21.835,73273.285,-0.043,0.419,-0.907,0.002,-0.51,-0.169,0.022,-0.128,0.074,-0.047,-0.433,1.093
2024-10-15 13:35:21.845,73273.295,-0.044,0.42,-0.907,0.012,-0.836,-0.249,-0.187,-0.016,-0.213,-0.048,-0.433,1.092
2024-10-15 13:35:21.855,73273.305,-0.045,0.423,-0.905,0.091,-0.837,-0.278,-0.706,0.051,-0.363,-0.05,-0.437,1.088
2024-10-15 13:35:21.865,73273.315,-0.046,0.432,-0.901,0.115,-0.769,-0.214,-1.177,0.09,-0.449,-0.051,-0.447,1.083
2024-10-15 13:35:21.875,73273.325,-0.047,0.442,-0.896,0.074,-0.653,-0.078,-1.104,0.121,-0.497,-0.053,-0.458,1.077
2024-10-15 13:35:21.885,73273.335,-0.048,0.45,-0.892,0.051,-0.344,-0.022,-0.653,0.167,-0.494,-0.054,-0.467,1.071
2024-10-15 13:35:21.895,73273.345,-0.049,0.454,-0.89,0.016,0.051,-0.007,-0.347,0.185,-0.416,-0.055,-0.471,1.066
2024-10-15 13:35:21.905,73273.355,-0.049,0.456,-0.889,-0.022,0.309,0.023,-0.105,0.222,-0.395,-0.055,-0.474,1.061
2024-10-15 13:35:21.915,73273.365,-0.048,0.453,-0.89,-0.03,0.354,0.074,0.758,0.393,-0.563,-0.054,-0.47,1.056
2024-10-15 13:35:21.925,73273.375,-0.047,0.446,-0.894,-0.026,0.352,0.087,0.497,0.392,-0.41,-0.052,-0.463,1.051
2024-10-15 13:35:21.935,73273.385,-0.045,0.445,-0.894,0.086,0.224,0.027,-0.279,0.366,-0.585,-0.051,-0.461,1.045
2024-10-15 13:35:21.944,73273.395,-0.045,0.449,-0.892,0.046,-0.148,0.118,-0.668,0.244,-0.406,-0.05,-0.466,1.04
2024-10-15 13:35:21.956,73273.405,-0.045,0.455,-0.889,-0.017,0.026,0.159,-0.54,0.135,-0.156,-0.05,-0.473,1.036
2024-10-15 13:35:21.965,73273.415,-0.044,0.459,-0.887,-0.077,0.585,0.193,-0.215,0.039,0.136,-0.049,-0.477,1.036
2024-10-15 13:35:21.974,73273.425,-0.043,0.458,-0.888,-0.177,0.901,0.236,0.451,0.006,0.337,-0.048,-0.476,1.039
2024-10-15 13:35:21.984,73273.435,-0.041,0.452,-0.891,-0.203,0.932,0.236,0.862,-0.114,0.614,-0.046,-0.469,1.044
2024-10-15 13:35:21.994,73273.445,-0.039,0.445,-0.895,-0.147,0.836,0.201,0.882,-0.185,0.706,-0.044,-0.461,1.053
2024-10-15 13:35:22.005,73273.455,-0.038,0.437,-0.899,-0.052,0.389,0.164,0.795,-0.201,0.698,-0.042,-0.452,1.061
2024-10-15 13:35:22.014,73273.465,-0.037,0.434,-0.9,0.015,-0.048,0.086,0.003,-0.334,0.714,-0.041,-0.449,1.069
2024-10-15 13:35:22.024,73273.475,-0.037,0.435,-0.899,0.045,-0.307,-0.006,-0.21,-0.318,0.521,-0.042,-0.45,1.076
2024-10-15 13:35:22.034,73273.485,-0.038,0.435,-0.9,-0.081,-0.509,-0.023,0.357,-0.284,0.525,-0.042,-0.45,1.082
2024-10-15 13:35:22.044,73273.495,-0.038,0.431,-0.902,-0.105,-0.309,-0.149,0.46,-0.22,0.328,-0.042,-0.446,1.087
2024-10-15 13:35:22.054,73273.505,-0.039,0.428,-0.903,-0.003,-0.339,-0.225,0.109,-0.131,0.097,-0.043,-0.443,1.09
2024-10-15 13:35:22.064,73273.515,-0.04,0.429,-0.903,0.011,-0.799,-0.27,-0.176,-0.033,-0.183,-0.044,-0.443,1.089
2024-10-15 13:35:22.074,73273.525,-0.041,0.432,-0.901,0.076,-0.943,-0.317,-0.557,0.052,-0.387,-0.046,-0.447,1.086
2024-10-15 13:35:22.085,73273.535,-0.042,0.439,-0.898,0.143,-0.837,-0.296,-1.009,0.14,-0.544,-0.047,-0.454,1.08
2024-10-15 13:35:22.095,73273.544,-0.043,0.448,-0.893,0.112,-0.713,-0.182,-1.163,0.157,-0.604,-0.049,-0.465,1.073
2024-10-15 13:35:22.105,73273.554,-0.045,0.458,-0.888,0.044,-0.424,-0.073,-0.896,0.167,-0.585,-0.05,-0.475,1.066
2024-10-15 13:35:22.114,73273.564,-0.046,0.463,-0.885,0.023,-0.006,0.016,-0.475,0.167,-0.469,-0.051,-0.482,1.06
2024-10-15 13:35:22.124,73273.574,-0.046,0.465,-0.884,0.012,0.371,0.089,0.078,0.231,-0.404,-0.052,-0.484,1.055
2024-10-15 13:35:22.134,73273.584,-0.045,0.461,-0.886,0.011,0.589,0.164,0.837,0.344,-0.462,-0.051,-0.479,1.05
2024-10-15 13:35:22.144,73273.594,-0.044,0.454,-0.89,0.028,0.601,0.18,0.402,0.304,-0.313,-0.049,-0.472,1.047
2024-10-15 13:35:22.154,73273.604,-0.043,0.454,-0.89,0.144,0.343,0.122,-0.328,0.264,-0.396,-0.048,-0.471,1.043
2024-10-15 13:35:22.164,73273.614,-0.043,0.457,-0.889,0.091,0.004,0.195,-0.341,0.192,-0.216,-0.048,-0.474,1.039
2024-10-15 13:35:22.174,73273.624,-0.042,0.458,-0.888,-0.001,0.269,0.178,-0.018,0.13,-0.021,-0.047,-0.476,1.038
2024-10-15 13:35:22.184,73273.634,-0.041,0.457,-0.889,-0.11,0.704,0.157,0.41,0.039,0.214,-0.046,-0.474,1.039
2024-10-15 13:35:22.194,73273.644,-0.039,0.451,-0.892,-0.256,0.78,0.172,0.862,-0.062,0.447,-0.044,-0.468,1.043
2024-10-15 13:35:22.204,73273.654,-0.038,0.443,-0.896,-0.245,0.698,0.208,1.088,-0.169,0.617,-0.042,-0.458,1.05
2024-10-15 13:35:22.214,73273.664,-0.037,0.433,-0.901,-0.154,0.49,0.183,1.054,-0.234,0.662,-0.041,-0.448,1.058
2024-10-15 13:35:22.224,73273.674,-0.036,0.425,-0.905,-0.064,0.132,0.074,0.871,-0.233,0.565,-0.04,-0.439,1.065
2024-10-15 13:35:22.234,73273.684,-0.036,0.419,-0.907,0.001,-0.237,-0.076,0.428,-0.217,0.449,-0.04,-0.432,1.071
2024-10-15 13:35:22.244,73273.694,-0.036,0.418,-0.908,0.043,-0.51,-0.212,-0.252,-0.197,0.332,-0.04,-0.431,1.076
2024-10-15 13:35:22.254,73273.704,-0.037,0.421,-0.906,0.024,-0.72,-0.226,-0.249,-0.14,0.132,-0.041,-0.434,1.078
2024-10-15 13:35:22.264,73273.714,-0.038,0.423,-0.905,-0.052,-0.715,-0.235,-0.224,-0.083,0.005,-0.042,-0.437,1.079
2024-10-15 13:35:22.274,73273.724,-0.039,0.426,-0.904,-0.015,-0.586,-0.246,-0.416,-0.003,-0.239,-0.043,-0.44,1.078
2024-10-15 13:35:22.284,73273.734,-0.04,0.431,-0.902,0.045,-0.693,-0.182,-0.563,0.06,-0.413,-0.044,-0.445,1.074
2024-10-15 13:35:22.294,73273.744,-0.041,0.436,-0.899,0.059,-0.638,-0.096,-0.612,0.085,-0.428,-0.045,-0.451,1.069
2024-10-15 13:35:22.304,73273.754,-0.042,0.441,-0.896,0.039,-0.323,0.002,-0.691,0.084,-0.411,-0.047,-0.457,1.064
2024-10-15 13:35:22.314,73273.764,-0.043,0.447,-0.893,0.03,-0.045,0.059,-0.657,0.074,-0.346,-0.048,-0.464,1.059
2024-10-15 13:35:22.324,73273.774,-0.044,0.452,-0.891,-0.011,0.192,0.068,-0.477,0.072,-0.209,-0.049,-0.469,1.056
2024-10-15 13:35:22.334,73273.784,-0.044,0.455,-0.889,-0.051,0.479,0.054,-0.139,0.055,-0.038,-0.049,-0.473,1.055
2024-10-15 13:35:22.344,73273.794,-0.043,0.454,-0.89,-0.076,0.693,0.096,0.378,0.117,0.075,-0.048,-0.471,1.055
2024-10-15 13:35:22.354,73273.804,-0.041,0.449,-0.893,-0.029,0.681,0.166,0.779,0.161,0.118,-0.046,-0.466,1.056
2024-10-15 13:35:22.364,73273.814,-0.039,0.443,-0.896,0.019,0.493,0.146,0.488,0.151,0.223,-0.043,-0.459,1.059
2024-10-15 13:35:22.374,73273.824,-0.036,0.441,-0.897,0.016,0.125,0.127,0.132,0.207,0.109,-0.041,-0.456,1.061
2024-10-15 13:35:22.384,73273.834,-0.034,0.44,-0.897,0.011,-0.247,0.176,-0.029,0.232,0.095,-0.038,-0.456,1.062
2024-10-15 13:35:22.394,73273.844,-0.031,0.441,-0.897,-0.001,-0.308,0.134,-0.166,0.29,0.053,-0.035,-0.457,1.063
2024-10-15 13:35:22.404,73273.854,-0.028,0.443,-0.896,-0.027,-0.263,0.111,-0.318,0.343,-0.011,-0.032,-0.459,1.064
2024-10-15 13:35:22.414,73273.864,-0.025,0.447,-0.894,-0.05,-0.271,0.086,-0.416,0.388,-0.061,-0.028,-0.463,1.063
2024-10-15 13:35:22.424,73273.874,-0.022,0.451,-0.892,-0.06,-0.219,0.065,-0.451,0.44,-0.073,-0.025,-0.467,1.062
2024-10-15 13:35:22.434,73273.884,-0.018,0.455,-0.89,-0.047,-0.098,0.049,-0.512,0.476,-0.093,-0.02,-0.472,1.061
2024-10-15 13:35:22.443,73273.894,-0.014,0.46,-0.888,-0.04,-0.047,0.036,-0.668,0.478,-0.051,-0.016,-0.478,1.061
2024-10-15 13:35:22.453,73273.904,-0.01,0.467,-0.884,-0.027,-0.06,0.023,-0.858,0.479,-0.004,-0.012,-0.486,1.06
2024-10-15 13:35:22.463,73273.914,-0.006,0.475,-0.88,0.007,-0.04,0.001,-0.962,0.479,0.014,-0.007,-0.495,1.06
2024-10-15 13:35:22.474,73273.924,-0.002,0.484,-0.875,0.022,0.008,-0.053,-1.108,0.469,0.025,-0.002,-0.505,1.061
2024-10-15 13:35:22.484,73273.934,0.002,0.494,-0.869,0.018,0.05,-0.094,-1.288,0.429,-0.002,0.003,-0.517,1.061
2024-10-15 13:35:22.493,73273.944,0.006,0.506,-0.863,0.009,-0.014,-0.105,-1.427,0.379,0.013,0.007,-0.53,1.061
2024-10-15 13:35:22.504,73273.954,0.009,0.518,-0.855,0.015,-0.025,-0.106,-1.474,0.335,-0.006,0.01,-0.545,1.062
2024-10-15 13:35:22.513,73273.964,0.011,0.53,-0.848,0.017,-0.029,-0.089,-1.373,0.282,-0.042,0.013,-0.559,1.062
2024-10-15 13:35:22.523,73273.974,0.013,0.541,-0.841,0.022,-0.033,-0.076,-1.194,0.228,-0.068,0.016,-0.572,1.061
2024-10-15 13:35:22.534,73273.984,0.014,0.55,-0.835,0.036,-0.016,-0.064,-0.995,0.176,-0.086,0.017,-0.583,1.061
2024-10-15 13:35:22.544,73273.994,0.015,0.558,-0.83,0.053,-0.026,-0.05,-0.848,0.136,-0.093,0.018,-0.592,1.06
2024-10-15 13:35:22.554,73274.004,0.016,0.565,-0.825,0.065,-0.033,-0.038,-0.812,0.111,-0.129,0.019,-0.6,1.059
2024-10-15 13:35:22.564,73274.014,0.016,0.571,-0.821,0.067,-0.04,-0.03,-0.695,0.11,-0.143,0.019,-0.608,1.058
2024-10-15 13:35:22.573,73274.024,0.016,0.576,-0.817,0.061,-0.003,-0.039,-0.504,0.108,-0.088,0.02,-0.614,1.057
2024-10-15 13:35:22.584,73274.034,0.016,0.58,-0.814,0.067,0.105,-0.055,-0.491,0.117,-0.094,0.02,-0.619,1.056
2024-10-15 13:35:22.594,73274.044,0.017,0.584,-0.812,0.038,0.106,-0.059,-0.457,0.114,-0.043,0.021,-0.624,1.056
2024-10-15 13:35:22.603,73274.054,0.018,0.587,-0.809,0.013,0.078,-0.051,-0.323,0.087,0.003,0.022,-0.628,1.056
2024-10-15 13:35:22.613,73274.064,0.019,0.589,-0.808,0.021,0.139,-0.041,-0.185,0.064,0.068,0.023,-0.63,1.056
2024-10-15 13:35:22.623,73274.074,0.019,0.59,-0.807,0.025,0.14,-0.019,-0.026,0.049,0.071,0.024,-0.631,1.057
2024-10-15 13:35:22.633,73274.084,0.02,0.59,-0.807,0.033,0.082,0.008,0.057,0.031,0.065,0.025,-0.631,1.058
2024-10-15 13:35:22.643,73274.094,0.021,0.589,-0.808,0.039,0.066,0.036,0.116,-0.011,0.072,0.025,-0.63,1.059
