Date,TimeStamp,GravityX,GravityY,GravityZ,UserAccelerationX,UserAccelerationY,UserAccelerationZ,RotationRateX,RotationRateY,RotationRateZ,AttitudeRoll,AttitudePitch,AttitudeYaw
2024-10-15 13:29:41.301,72932.751,0.178,0.342,-0.923,-0.162,-0.207,-0.122,0.066,0.095,0.446,0.191,-0.349,1.013
2024-10-15 13:29:41.311,72932.761,0.181,0.342,-0.922,-0.104,-0.267,-0.205,-0.195,0.258,0.444,0.194,-0.349,1.018
2024-10-15 13:29:41.321,72932.771,0.185,0.347,-0.919,-0.088,-0.281,-0.301,-1.255,0.268,0.519,0.199,-0.354,1.024
2024-10-15 13:29:41.331,72932.781,0.19,0.362,-0.913,-0.097,-0.488,-0.334,-2.101,0.279,0.547,0.205,-0.37,1.034
2024-10-15 13:29:41.341,72932.791,0.193,0.378,-0.906,-0.028,-0.67,-0.117,-1.545,0.027,0.355,0.209,-0.388,1.043
2024-10-15 13:29:41.352,72932.801,0.194,0.388,-0.901,0.113,-0.512,-0.088,-0.736,0.048,0.129,0.212,-0.398,1.048
2024-10-15 13:29:41.361,72932.811,0.194,0.392,-0.899,0.238,-0.24,0.054,-0.181,0.037,-0.359,0.213,-0.403,1.048
2024-10-15 13:29:41.371,72932.821,0.192,0.394,-0.899,0.277,-0.407,0.161,-0.123,-0.241,-0.388,0.21,-0.405,1.044
2024-10-15 13:29:41.381,72932.831,0.186,0.397,-0.899,0.395,-0.639,0.195,-0.221,-0.576,-0.608,0.204,-0.408,1.039
2024-10-15 13:29:41.391,72932.841,0.178,0.399,-0.9,0.419,-0.421,0.227,-0.039,-0.604,-0.668,0.195,-0.41,1.032
2024-10-15 13:29:41.401,72932.851,0.172,0.399,-0.901,0.193,0.164,0.15,0.255,-0.316,-0.433,0.188,-0.411,1.026
2024-10-15 13:29:41.411,72932.861,0.168,0.394,-0.903,-0.065,0.572,0.086,1.074,0.098,-0.536,0.184,-0.405,1.02
2024-10-15 13:29:41.421,72932.871,0.169,0.383,-0.908,-0.187,0.7,0.097,1.383,0.546,-0.593,0.184,-0.393,1.011
2024-10-15 13:29:41.431,72932.881,0.171,0.376,-0.911,-0.124,0.402,0.062,0.288,-0.017,-0.198,0.185,-0.385,1.005
2024-10-15 13:29:41.441,72932.891,0.168,0.376,-0.911,0.11,-0.331,0.148,-0.167,-0.352,-0.354,0.182,-0.386,1.003
2024-10-15 13:29:41.451,72932.901,0.164,0.377,-0.912,0.144,-0.152,0.214,0.151,-0.215,-0.332,0.178,-0.387,0.999
2024-10-15 13:29:41.461,72932.911,0.162,0.375,-0.913,-0.119,0.491,0.078,0.337,-0.068,-0.06,0.175,-0.384,0.996
2024-10-15 13:29:41.471,72932.921,0.162,0.371,-0.914,-0.33,0.549,0.001,0.45,0.144,0.121,0.175,-0.381,0.996
2024-10-15 13:29:41.481,72932.931,0.164,0.367,-0.915,-0.409,0.401,-0.018,0.349,0.113,0.322,0.178,-0.376,0.998
2024-10-15 13:29:41.491,72932.941,0.166,0.363,-0.917,-0.336,0.225,-0.003,0.481,0.121,0.271,0.179,-0.372,1.0
2024-10-15 13:29:41.500,72932.951,0.169,0.358,-0.918,-0.237,0.144,0.017,0.535,0.136,0.305,0.182,-0.366,1.002
2024-10-15 13:29:41.511,72932.96,0.171,0.353,-0.92,-0.193,0.033,-0.06,0.284,0.083,0.356,0.184,-0.361,1.005
2024-10-15 13:29:41.521,72932.97,0.173,0.351,-0.92,-0.148,-0.165,-0.135,0.11,0.092,0.319,0.185,-0.359,1.008
2024-10-15 13:29:41.531,72932.98,0.176,0.351,-0.92,-0.128,-0.211,-0.246,-0.45,0.273,0.466,0.189,-0.359,1.012
2024-10-15 13:29:41.541,72932.99,0.18,0.36,-0.916,-0.112,-0.254,-0.389,-1.532,0.267,0.579,0.194,-0.368,1.02
2024-10-15 13:29:41.551,72933.0,0.185,0.374,-0.909,-0.101,-0.496,-0.321,-1.7,0.311,0.413,0.2,-0.383,1.029
2024-10-15 13:29:41.561,72933.01,0.188,0.386,-0.903,0.002,-0.469,-0.092,-0.977,0.176,0.394,0.206,-0.396,1.036
2024-10-15 13:29:41.571,72933.02,0.191,0.391,-0.9,0.165,-0.262,-0.089,-0.401,0.104,0.162,0.209,-0.402,1.04
2024-10-15 13:29:41.581,72933.03,0.191,0.394,-0.899,0.323,-0.295,0.056,-0.14,0.019,-0.25,0.21,-0.404,1.04
2024-10-15 13:29:41.591,72933.04,0.189,0.395,-0.899,0.376,-0.474,0.147,-0.076,-0.251,-0.308,0.207,-0.406,1.038
2024-10-15 13:29:41.601,72933.05,0.184,0.396,-0.9,0.46,-0.586,0.168,0.052,-0.489,-0.462,0.202,-0.407,1.034
2024-10-15 13:29:41.611,72933.06,0.178,0.396,-0.901,0.445,-0.309,0.114,0.05,-0.474,-0.587,0.195,-0.407,1.028
2024-10-15 13:29:41.620,72933.07,0.173,0.397,-0.902,0.207,0.132,0.02,0.086,-0.2,-0.471,0.189,-0.408,1.022
2024-10-15 13:29:41.630,72933.08,0.17,0.394,-0.903,-0.06,0.347,-0.013,0.842,0.128,-0.474,0.186,-0.405,1.016
2024-10-15 13:29:41.641,72933.09,0.171,0.384,-0.907,-0.134,0.478,0.11,1.389,0.53,-0.65,0.186,-0.394,1.008
2024-10-15 13:29:41.651,72933.1,0.172,0.376,-0.91,-0.041,0.307,0.103,0.299,0.003,-0.335,0.187,-0.386,1.001
2024-10-15 13:29:41.661,72933.11,0.169,0.378,-0.91,0.146,-0.394,0.12,-0.208,-0.31,-0.454,0.183,-0.387,0.997
2024-10-15 13:29:41.671,72933.12,0.165,0.378,-0.911,0.141,-0.364,0.197,0.309,-0.069,-0.582,0.179,-0.388,0.991
2024-10-15 13:29:41.681,72933.13,0.163,0.375,-0.913,-0.092,0.245,0.15,0.535,0.078,-0.546,0.177,-0.384,0.984
2024-10-15 13:29:41.691,72933.14,0.162,0.372,-0.914,-0.182,0.107,0.096,0.206,0.133,-0.527,0.176,-0.381,0.978
2024-10-15 13:29:41.701,72933.15,0.162,0.375,-0.913,-0.173,-0.241,0.056,-0.697,0.222,-0.43,0.176,-0.384,0.973
2024-10-15 13:29:41.710,72933.16,0.162,0.385,-0.908,-0.17,-0.295,-0.051,-1.398,0.189,-0.422,0.177,-0.396,0.971
2024-10-15 13:29:41.721,72933.17,0.164,0.397,-0.903,-0.21,-0.125,-0.303,-1.089,0.627,-0.391,0.18,-0.409,0.969
2024-10-15 13:29:41.731,72933.18,0.17,0.407,-0.897,-0.3,0.318,-0.527,-0.963,0.989,-0.197,0.188,-0.419,0.967
2024-10-15 13:29:41.741,72933.19,0.178,0.416,-0.892,-0.32,0.273,-0.423,-1.163,0.898,-0.092,0.197,-0.43,0.968
2024-10-15 13:29:41.751,72933.2,0.186,0.428,-0.885,-0.191,-0.077,-0.143,-1.348,0.751,0.122,0.207,-0.442,0.971
2024-10-15 13:29:41.761,72933.21,0.192,0.439,-0.878,-0.069,-0.075,0.065,-1.204,0.61,0.075,0.215,-0.454,0.975
2024-10-15 13:29:41.771,72933.22,0.198,0.449,-0.872,-0.044,0.009,0.086,-1.11,0.618,0.078,0.223,-0.465,0.979
2024-10-15 13:29:41.780,72933.23,0.204,0.458,-0.865,-0.109,0.058,0.071,-1.073,0.625,0.118,0.231,-0.476,0.983
2024-10-15 13:29:41.791,72933.24,0.209,0.467,-0.859,-0.126,0.025,0.088,-0.991,0.531,0.089,0.239,-0.486,0.987
2024-10-15 13:29:41.800,72933.25,0.213,0.474,-0.854,-0.08,0.012,0.105,-0.855,0.418,0.039,0.245,-0.494,0.99
2024-10-15 13:29:41.810,72933.26,0.217,0.481,-0.85,-0.036,0.023,0.106,-0.6,0.328,0.019,0.25,-0.501,0.992
2024-10-15 13:29:41.821,72933.27,0.219,0.484,-0.847,-0.023,0.046,0.093,-0.257,0.242,0.014,0.253,-0.506,0.993
2024-10-15 13:29:41.831,72933.28,0.221,0.485,-0.846,-0.02,0.104,0.062,0.072,0.163,0.026,0.255,-0.506,0.994
2024-10-15 13:29:41.840,72933.29,0.222,0.483,-0.847,-0.02,0.165,0.042,0.277,0.115,0.058,0.257,-0.504,0.994
2024-10-15 13:29:41.850,72933.3,0.223,0.48,-0.848,-0.017,0.137,0.062,0.338,0.074,0.081,0.258,-0.501,0.994
2024-10-15 13:29:41.861,72933.31,0.224,0.478,-0.849,-0.002,0.037,0.097,0.269,-0.003,0.107,0.258,-0.498,0.994
2024-10-15 13:29:41.870,72933.32,0.225,0.475,-0.851,0.028,-0.036,0.111,0.235,-0.071,0.156,0.258,-0.495,0.995
2024-10-15 13:29:41.880,72933.33,0.225,0.473,-0.852,0.057,-0.041,0.087,0.221,-0.136,0.248,0.258,-0.493,0.996
2024-10-15 13:29:41.891,72933.34,0.225,0.471,-0.853,0.077,-0.01,0.046,0.201,-0.169,0.245,0.257,-0.49,0.998
2024-10-15 13:29:41.900,72933.35,0.224,0.468,-0.855,0.072,-0.017,0.022,0.276,-0.18,0.287,0.256,-0.487,1.0
2024-10-15 13:29:41.910,72933.36,0.224,0.464,-0.857,0.081,-0.035,-0.003,0.566,-0.228,0.366,0.256,-0.482,1.003
2024-10-15 13:29:41.920,72933.37,0.224,0.457,-0.861,0.1,0.046,-0.058,0.755,-0.17,0.363,0.255,-0.475,1.005
2024-10-15 13:29:41.931,72933.38,0.224,0.45,-0.864,0.055,0.107,-0.083,0.647,-0.124,0.318,0.254,-0.467,1.007
2024-10-15 13:29:41.940,72933.39,0.225,0.445,-0.867,0.038,0.014,-0.069,0.449,-0.107,0.313,0.254,-0.461,1.008
2024-10-15 13:29:41.950,72933.4,0.225,0.441,-0.869,0.05,-0.081,-0.069,0.299,-0.122,0.377,0.254,-0.456,1.011
2024-10-15 13:29:41.960,72933.41,0.226,0.438,-0.87,0.064,-0.068,-0.068,0.196,-0.121,0.394,0.254,-0.453,1.015
2024-10-15 13:29:41.970,72933.42,0.226,0.436,-0.871,0.07,-0.053,-0.044,0.073,-0.135,0.384,0.254,-0.451,1.018
2024-10-15 13:29:41.980,72933.43,0.227,0.434,-0.872,0.07,-0.089,-0.012,0.034,-0.159,0.354,0.254,-0.449,1.022
2024-10-15 13:29:41.990,72933.44,0.227,0.433,-0.872,0.08,-0.117,0.019,0.083,-0.192,0.3,0.254,-0.448,1.026
2024-10-15 13:29:42.000,72933.45,0.226,0.431,-0.874,0.079,-0.106,0.042,0.321,-0.233,0.217,0.253,-0.445,1.028
2024-10-15 13:29:42.010,72933.46,0.225,0.426,-0.876,0.072,-0.077,0.056,0.719,-0.228,0.097,0.251,-0.44,1.028
2024-10-15 13:29:42.020,72933.47,0.223,0.417,-0.881,0.069,-0.027,0.092,1.3,-0.266,-0.023,0.247,-0.43,1.026
2024-10-15 13:29:42.030,72933.48,0.22,0.404,-0.888,0.072,0.028,0.121,1.744,-0.288,-0.163,0.243,-0.415,1.021
2024-10-15 13:29:42.040,72933.49,0.216,0.387,-0.896,0.081,0.047,0.16,2.124,-0.321,-0.301,0.237,-0.397,1.013
2024-10-15 13:29:42.050,72933.5,0.212,0.368,-0.905,0.073,-0.025,0.195,2.151,-0.425,-0.251,0.23,-0.377,1.005
2024-10-15 13:29:42.060,72933.51,0.206,0.352,-0.913,0.089,-0.144,0.186,1.291,-0.494,-0.093,0.222,-0.36,0.999
2024-10-15 13:29:42.070,72933.52,0.202,0.348,-0.915,0.071,-0.318,0.127,-0.184,-0.367,-0.128,0.217,-0.356,0.997
2024-10-15 13:29:42.080,72933.53,0.198,0.35,-0.915,-0.085,-0.446,-0.325,-0.001,-0.322,-0.047,0.213,-0.358,0.996
2024-10-15 13:29:42.090,72933.539,0.197,0.347,-0.917,-0.283,0.08,-0.552,0.556,-0.004,0.01,0.211,-0.355,0.995
2024-10-15 13:29:42.100,72933.549,0.198,0.342,-0.918,-0.343,0.489,-0.391,0.375,0.236,0.246,0.213,-0.35,0.995
2024-10-15 13:29:42.110,72933.559,0.201,0.34,-0.919,-0.305,0.079,-0.242,-0.03,0.141,0.264,0.215,-0.347,0.998
2024-10-15 13:29:42.120,72933.569,0.202,0.341,-0.918,-0.121,-0.216,-0.044,-0.28,-0.019,0.233,0.217,-0.348,1.001
2024-10-15 13:29:42.130,72933.579,0.203,0.343,-0.917,0.019,-0.099,0.056,-0.225,-0.09,0.28,0.217,-0.35,1.004
2024-10-15 13:29:42.140,72933.589,0.203,0.345,-0.917,0.036,-0.056,0.031,-0.201,-0.003,0.295,0.218,-0.352,1.007
2024-10-15 13:29:42.150,72933.599,0.205,0.346,-0.915,-0.036,-0.126,-0.023,-0.368,0.107,0.321,0.22,-0.354,1.011
2024-10-15 13:29:42.160,72933.609,0.207,0.351,-0.913,-0.052,-0.219,-0.086,-0.751,0.203,0.336,0.223,-0.358,1.016
2024-10-15 13:29:42.170,72933.619,0.21,0.358,-0.91,0.01,-0.327,-0.139,-0.991,0.233,0.249,0.227,-0.366,1.021
2024-10-15 13:29:42.180,72933.629,0.213,0.366,-0.906,0.068,-0.336,-0.172,-0.881,0.168,0.146,0.231,-0.375,1.025
2024-10-15 13:29:42.190,72933.639,0.215,0.373,-0.903,0.11,-0.269,-0.189,-0.6,0.112,0.047,0.233,-0.382,1.028
2024-10-15 13:29:42.200,72933.649,0.216,0.376,-0.901,0.137,-0.153,-0.057,-0.123,0.144,0.011,0.235,-0.386,1.029
2024-10-15 13:29:42.210,72933.659,0.217,0.375,-0.901,0.148,-0.032,0.117,0.418,0.126,-0.121,0.236,-0.385,1.029
2024-10-15 13:29:42.220,72933.669,0.217,0.371,-0.903,0.168,0.038,0.231,0.629,-0.016,-0.18,0.236,-0.38,1.025
2024-10-15 13:29:42.230,72933.679,0.215,0.366,-0.905,0.216,0.028,0.343,0.35,-0.201,-0.186,0.233,-0.375,1.022
2024-10-15 13:29:42.240,72933.689,0.212,0.365,-0.907,0.223,-0.043,0.388,0.058,-0.384,-0.201,0.229,-0.374,1.02
2024-10-15 13:29:42.250,72933.699,0.207,0.365,-0.908,0.143,-0.005,0.32,0.203,-0.383,-0.283,0.224,-0.373,1.017
2024-10-15 13:29:42.259,72933.709,0.204,0.361,-0.91,-0.012,0.213,0.226,0.855,-0.132,-0.354,0.22,-0.369,1.012
2024-10-15 13:29:42.269,72933.719,0.202,0.353,-0.914,-0.135,0.382,0.13,0.848,-0.058,-0.181,0.218,-0.361,1.007
2024-10-15 13:29:42.279,72933.729,0.2,0.348,-0.916,-0.139,0.259,-0.067,0.309,-0.219,-0.034,0.215,-0.355,1.005
2024-10-15 13:29:42.289,72933.739,0.198,0.346,-0.917,-0.128,0.057,-0.141,0.275,-0.157,-0.069,0.213,-0.353,1.004
2024-10-15 13:29:42.299,72933.749,0.198,0.342,-0.919,-0.227,0.253,-0.187,0.412,0.034,0.043,0.212,-0.349,1.003
2024-10-15 13:29:42.309,72933.759,0.199,0.339,-0.92,-0.327,0.368,-0.187,0.224,0.079,0.322,0.213,-0.346,1.004
2024-10-15 13:29:42.319,72933.769,0.201,0.337,-0.92,-0.305,0.049,-0.103,0.139,0.066,0.264,0.215,-0.343,1.007
2024-10-15 13:29:42.329,72933.779,0.202,0.335,-0.92,-0.24,-0.056,-0.046,0.121,0.039,0.339,0.216,-0.342,1.01
2024-10-15 13:29:42.339,72933.789,0.204,0.334,-0.92,-0.187,0.029,-0.086,-0.012,0.098,0.474,0.218,-0.34,1.014
2024-10-15 13:29:42.349,72933.799,0.207,0.335,-0.919,-0.155,-0.103,-0.183,-0.665,0.175,0.608,0.222,-0.342,1.02
2024-10-15 13:29:42.359,72933.809,0.211,0.346,-0.914,-0.14,-0.319,-0.346,-1.947,0.204,0.759,0.227,-0.353,1.03
2024-10-15 13:29:42.370,72933.819,0.215,0.364,-0.906,-0.082,-0.472,-0.321,-2.145,0.159,0.511,0.233,-0.372,1.042
2024-10-15 13:29:42.380,72933.829,0.218,0.378,-0.9,0.001,-0.361,-0.239,-1.208,0.088,0.558,0.238,-0.388,1.052
2024-10-15 13:29:42.389,72933.839,0.221,0.384,-0.896,0.125,-0.143,-0.296,-0.415,0.14,0.382,0.242,-0.394,1.059
2024-10-15 13:29:42.399,72933.849,0.223,0.386,-0.895,0.243,-0.142,-0.068,-0.266,0.116,-0.054,0.244,-0.397,1.062
2024-10-15 13:29:42.409,72933.859,0.222,0.388,-0.895,0.293,-0.499,0.115,0.021,-0.175,-0.29,0.243,-0.398,1.06
2024-10-15 13:29:42.419,72933.869,0.218,0.388,-0.896,0.399,-0.742,0.247,0.098,-0.363,-0.43,0.239,-0.398,1.056
2024-10-15 13:29:42.429,72933.879,0.213,0.388,-0.897,0.422,-0.524,0.265,0.032,-0.438,-0.483,0.233,-0.399,1.051
2024-10-15 13:29:42.439,72933.889,0.207,0.389,-0.897,0.25,-0.159,0.162,-0.133,-0.328,-0.404,0.227,-0.4,1.046
2024-10-15 13:29:42.449,72933.899,0.204,0.391,-0.897,0.014,0.207,0.049,-0.044,-0.077,-0.264,0.224,-0.402,1.043
2024-10-15 13:29:42.459,72933.909,0.204,0.39,-0.898,-0.144,0.447,0.067,0.545,0.16,-0.286,0.223,-0.4,1.04
2024-10-15 13:29:42.469,72933.919,0.205,0.383,-0.901,-0.14,0.532,0.196,0.996,0.323,-0.409,0.223,-0.393,1.034
2024-10-15 13:29:42.479,72933.929,0.205,0.377,-0.903,-0.045,0.311,0.22,0.441,0.055,-0.227,0.223,-0.386,1.028
2024-10-15 13:29:42.489,72933.939,0.203,0.376,-0.904,0.063,-0.199,0.231,-0.19,-0.242,-0.234,0.221,-0.386,1.026
2024-10-15 13:29:42.500,72933.949,0.2,0.378,-0.904,0.07,-0.28,0.279,-0.04,-0.214,-0.316,0.218,-0.388,1.023
2024-10-15 13:29:42.509,72933.959,0.198,0.378,-0.904,-0.102,0.143,0.195,0.218,-0.121,-0.256,0.215,-0.388,1.02
2024-10-15 13:29:42.519,72933.969,0.196,0.376,-0.906,-0.251,0.351,0.056,0.236,-0.045,-0.067,0.213,-0.386,1.018
2024-10-15 13:29:42.529,72933.979,0.196,0.375,-0.906,-0.323,0.284,-0.095,0.071,0.056,0.166,0.213,-0.384,1.018
2024-10-15 13:29:42.539,72933.989,0.198,0.374,-0.906,-0.368,0.21,-0.201,0.045,0.109,0.199,0.215,-0.383,1.02
2024-10-15 13:29:42.549,72933.999,0.2,0.373,-0.906,-0.352,0.176,-0.186,0.15,0.213,0.285,0.217,-0.382,1.022
2024-10-15 13:29:42.559,72934.009,0.203,0.371,-0.906,-0.249,0.158,-0.181,0.022,0.185,0.348,0.221,-0.38,1.025
2024-10-15 13:29:42.569,72934.019,0.206,0.371,-0.906,-0.135,-0.014,-0.208,-0.139,0.158,0.306,0.224,-0.38,1.029
2024-10-15 13:29:42.579,72934.029,0.209,0.373,-0.904,-0.053,-0.177,-0.263,-0.572,0.254,0.37,0.227,-0.382,1.033
2024-10-15 13:29:42.589,72934.039,0.213,0.381,-0.9,-0.009,-0.222,-0.389,-1.427,0.267,0.409,0.232,-0.391,1.04
2024-10-15 13:29:42.600,72934.049,0.217,0.394,-0.893,-0.012,-0.376,-0.342,-1.535,0.236,0.365,0.238,-0.405,1.048
2024-10-15 13:29:42.609,72934.059,0.22,0.405,-0.888,0.023,-0.461,-0.145,-0.942,0.149,0.295,0.243,-0.417,1.055
2024-10-15 13:29:42.619,72934.069,0.222,0.41,-0.885,0.144,-0.285,-0.047,-0.427,0.137,0.071,0.246,-0.422,1.058
2024-10-15 13:29:42.629,72934.079,0.222,0.413,-0.883,0.253,-0.266,0.122,-0.105,-0.009,-0.283,0.246,-0.425,1.058
2024-10-15 13:29:42.639,72934.089,0.22,0.414,-0.883,0.33,-0.545,0.234,0.012,-0.185,-0.383,0.244,-0.427,1.054
2024-10-15 13:29:42.649,72934.099,0.215,0.414,-0.884,0.437,-0.689,0.289,0.059,-0.459,-0.516,0.239,-0.427,1.049
2024-10-15 13:29:42.659,72934.109,0.208,0.415,-0.886,0.432,-0.442,0.225,0.028,-0.519,-0.662,0.231,-0.428,1.043
2024-10-15 13:29:42.669,72934.119,0.202,0.415,-0.887,0.201,0.083,0.085,0.305,-0.295,-0.591,0.224,-0.428,1.036
2024-10-15 13:29:42.679,72934.128,0.199,0.41,-0.89,-0.094,0.437,0.042,1.152,0.28,-0.684,0.22,-0.423,1.027
2024-10-15 13:29:42.689,72934.138,0.2,0.4,-0.894,-0.21,0.551,0.091,1.186,0.462,-0.546,0.22,-0.412,1.018
2024-10-15 13:29:42.699,72934.148,0.2,0.394,-0.897,-0.102,0.181,0.078,0.357,-0.061,-0.357,0.22,-0.405,1.011
2024-10-15 13:29:42.709,72934.158,0.197,0.393,-0.898,0.146,-0.287,0.192,0.146,-0.278,-0.506,0.216,-0.404,1.006
2024-10-15 13:29:42.719,72934.168,0.193,0.392,-0.899,0.09,0.115,0.177,0.28,-0.184,-0.338,0.211,-0.403,1.001
2024-10-15 13:29:42.729,72934.178,0.191,0.39,-0.901,-0.171,0.627,0.051,0.266,-0.023,0.082,0.209,-0.4,0.999
2024-10-15 13:29:42.738,72934.188,0.193,0.387,-0.902,-0.34,0.571,-0.065,0.223,0.129,0.29,0.211,-0.398,1.0
2024-10-15 13:29:42.749,72934.198,0.195,0.384,-0.902,-0.417,0.381,-0.137,0.243,0.161,0.352,0.213,-0.395,1.003
2024-10-15 13:29:42.759,72934.208,0.198,0.381,-0.903,-0.353,0.21,-0.107,0.272,0.188,0.392,0.216,-0.391,1.007
2024-10-15 13:29:42.768,72934.218,0.201,0.378,-0.903,-0.218,0.041,-0.11,0.173,0.143,0.391,0.219,-0.388,1.01
2024-10-15 13:29:42.779,72934.228,0.204,0.377,-0.904,-0.151,-0.092,-0.138,0.025,0.118,0.34,0.222,-0.386,1.014
2024-10-15 13:29:42.789,72934.238,0.207,0.377,-0.903,-0.115,-0.216,-0.204,-0.315,0.253,0.413,0.225,-0.387,1.018
2024-10-15 13:29:42.798,72934.248,0.21,0.383,-0.9,-0.08,-0.276,-0.298,-1.217,0.172,0.515,0.23,-0.393,1.025
2024-10-15 13:29:42.808,72934.258,0.214,0.395,-0.894,-0.061,-0.331,-0.32,-1.549,0.102,0.483,0.235,-0.406,1.034
2024-10-15 13:29:42.818,72934.268,0.216,0.405,-0.888,-0.035,-0.338,-0.127,-0.879,0.112,0.435,0.239,-0.417,1.042
2024-10-15 13:29:42.829,72934.278,0.219,0.409,-0.886,0.065,-0.147,-0.094,-0.225,0.209,0.251,0.243,-0.421,1.047
2024-10-15 13:29:42.838,72934.288,0.221,0.41,-0.885,0.181,-0.146,-0.008,-0.215,0.121,-0.041,0.245,-0.423,1.049
2024-10-15 13:29:42.849,72934.298,0.22,0.412,-0.884,0.292,-0.557,0.077,-0.108,-0.136,-0.284,0.244,-0.424,1.047
2024-10-15 13:29:42.859,72934.308,0.217,0.413,-0.885,0.415,-0.788,0.189,0.092,-0.303,-0.467,0.24,-0.425,1.043
2024-10-15 13:29:42.869,72934.318,0.211,0.413,-0.886,0.46,-0.631,0.264,0.075,-0.498,-0.616,0.234,-0.426,1.037
2024-10-15 13:29:42.879,72934.328,0.204,0.414,-0.887,0.349,-0.281,0.204,0.075,-0.435,-0.642,0.226,-0.427,1.03
2024-10-15 13:29:42.889,72934.338,0.199,0.412,-0.889,0.064,0.198,0.075,0.776,-0.082,-0.607,0.22,-0.424,1.023
2024-10-15 13:29:42.899,72934.348,0.198,0.402,-0.894,-0.14,0.559,0.11,1.498,0.513,-0.695,0.218,-0.414,1.013
2024-10-15 13:29:42.909,72934.358,0.2,0.392,-0.898,-0.147,0.527,0.117,0.932,0.221,-0.393,0.219,-0.403,1.004
2024-10-15 13:29:42.918,72934.368,0.198,0.388,-0.9,0.068,-0.116,0.166,0.235,-0.31,-0.467,0.216,-0.398,0.998
2024-10-15 13:29:42.929,72934.378,0.192,0.387,-0.902,0.223,-0.261,0.249,0.243,-0.383,-0.541,0.21,-0.397,0.992
2024-10-15 13:29:42.938,72934.388,0.188,0.385,-0.903,0.021,0.384,0.092,0.267,-0.278,-0.248,0.205,-0.396,0.987
2024-10-15 13:29:42.949,72934.398,0.186,0.383,-0.905,-0.243,0.648,-0.113,0.187,0.042,0.161,0.203,-0.394,0.986
2024-10-15 13:29:42.958,72934.408,0.189,0.381,-0.905,-0.447,0.548,-0.237,0.228,0.217,0.395,0.206,-0.391,0.989
2024-10-15 13:29:42.968,72934.418,0.193,0.378,-0.905,-0.482,0.367,-0.215,0.225,0.217,0.433,0.21,-0.388,0.993
2024-10-15 13:29:42.978,72934.428,0.196,0.375,-0.906,-0.311,0.134,-0.114,0.168,0.177,0.417,0.213,-0.385,0.997
2024-10-15 13:29:42.988,72934.438,0.199,0.374,-0.906,-0.165,-0.042,-0.121,-0.035,0.102,0.391,0.216,-0.383,1.001
2024-10-15 13:29:42.998,72934.448,0.201,0.375,-0.905,-0.113,-0.178,-0.165,-0.284,0.133,0.428,0.219,-0.384,1.006
2024-10-15 13:29:43.008,72934.458,0.205,0.379,-0.902,-0.107,-0.259,-0.237,-1.046,0.26,0.568,0.224,-0.389,1.012
2024-10-15 13:29:43.018,72934.468,0.21,0.392,-0.895,-0.095,-0.315,-0.345,-2.15,0.283,0.727,0.23,-0.403,1.023
2024-10-15 13:29:43.028,72934.478,0.214,0.409,-0.887,-0.065,-0.485,-0.213,-1.815,0.174,0.48,0.237,-0.422,1.035
2024-10-15 13:29:43.038,72934.488,0.218,0.42,-0.881,0.024,-0.413,-0.094,-0.693,0.235,0.339,0.242,-0.433,1.043
2024-10-15 13:29:43.048,72934.498,0.221,0.423,-0.879,0.197,-0.107,-0.014,-0.325,0.217,-0.065,0.246,-0.437,1.045
2024-10-15 13:29:43.058,72934.508,0.22,0.425,-0.878,0.34,-0.352,0.142,-0.046,-0.174,-0.258,0.246,-0.439,1.044
2024-10-15 13:29:43.068,72934.518,0.216,0.425,-0.879,0.456,-0.76,0.239,0.261,-0.464,-0.448,0.241,-0.439,1.04
2024-10-15 13:29:43.078,72934.528,0.209,0.423,-0.882,0.496,-0.464,0.267,0.282,-0.567,-0.575,0.233,-0.437,1.033
2024-10-15 13:29:43.088,72934.538,0.202,0.423,-0.883,0.271,-0.051,0.197,0.096,-0.44,-0.518,0.225,-0.436,1.027
2024-10-15 13:29:43.098,72934.548,0.197,0.421,-0.885,-0.018,0.193,0.115,0.537,-0.182,-0.419,0.219,-0.435,1.022
2024-10-15 13:29:43.108,72934.558,0.196,0.414,-0.889,-0.186,0.431,0.182,1.338,0.367,-0.553,0.217,-0.426,1.014
2024-10-15 13:29:43.118,72934.568,0.197,0.404,-0.893,-0.144,0.474,0.233,0.79,0.118,-0.284,0.217,-0.416,1.007
2024-10-15 13:29:43.128,72934.578,0.194,0.401,-0.895,0.036,-0.108,0.212,0.183,-0.383,-0.34,0.214,-0.413,1.003
2024-10-15 13:29:43.139,72934.588,0.189,0.4,-0.897,0.164,-0.328,0.282,0.325,-0.416,-0.453,0.207,-0.411,0.998
2024-10-15 13:29:43.148,72934.598,0.184,0.397,-0.899,-0.025,0.315,0.036,0.357,-0.314,-0.228,0.202,-0.409,0.993
2024-10-15 13:29:43.158,72934.608,0.183,0.395,-0.9,-0.295,0.593,-0.234,0.317,0.133,0.067,0.2,-0.406,0.992
2024-10-15 13:29:43.168,72934.618,0.186,0.391,-0.901,-0.533,0.489,-0.341,0.359,0.41,0.287,0.204,-0.402,0.993
2024-10-15 13:29:43.178,72934.628,0.192,0.388,-0.902,-0.555,0.336,-0.278,0.234,0.384,0.439,0.209,-0.398,0.996
2024-10-15 13:29:43.188,72934.638,0.196,0.386,-0.902,-0.287,0.034,-0.118,0.075,0.287,0.299,0.214,-0.396,1.0
2024-10-15 13:29:43.198,72934.648,0.199,0.385,-0.901,-0.069,-0.155,-0.077,-0.004,0.148,0.257,0.217,-0.395,1.002
2024-10-15 13:29:43.208,72934.658,0.201,0.385,-0.901,0.004,-0.222,-0.123,-0.155,0.19,0.215,0.22,-0.395,1.005
2024-10-15 13:29:43.218,72934.668,0.204,0.387,-0.899,-0.001,-0.245,-0.191,-0.522,0.339,0.19,0.224,-0.398,1.008
2024-10-15 13:29:43.228,72934.678,0.208,0.395,-0.895,-0.027,-0.313,-0.244,-1.189,0.278,0.242,0.228,-0.406,1.012
2024-10-15 13:29:43.238,72934.688,0.212,0.406,-0.889,-0.01,-0.375,-0.225,-1.399,0.357,0.207,0.234,-0.418,1.018
2024-10-15 13:29:43.248,72934.698,0.216,0.417,-0.883,0.002,-0.344,-0.07,-1.253,0.387,0.245,0.24,-0.43,1.024
2024-10-15 13:29:43.258,72934.707,0.22,0.427,-0.877,0.05,-0.241,0.026,-1.218,0.183,0.188,0.245,-0.442,1.03
2024-10-15 13:29:43.268,72934.717,0.22,0.439,-0.871,0.173,-0.308,0.134,-1.377,-0.077,0.04,0.248,-0.454,1.034
2024-10-15 13:29:43.278,72934.727,0.219,0.451,-0.865,0.22,-0.365,0.186,-1.487,-0.222,-0.105,0.248,-0.468,1.038
2024-10-15 13:29:43.289,72934.737,0.216,0.465,-0.859,0.161,-0.34,0.196,-1.586,-0.214,-0.115,0.247,-0.483,1.041
2024-10-15 13:29:43.298,72934.747,0.214,0.478,-0.852,0.045,-0.263,0.156,-1.488,-0.048,-0.196,0.246,-0.498,1.043
2024-10-15 13:29:43.308,72934.757,0.214,0.491,-0.844,-0.052,-0.132,0.113,-1.451,0.343,-0.319,0.249,-0.513,1.045
2024-10-15 13:29:43.318,72934.767,0.217,0.504,-0.836,-0.127,-0.003,-0.057,-1.505,0.589,-0.281,0.254,-0.528,1.045
2024-10-15 13:29:43.328,72934.777,0.221,0.516,-0.827,-0.147,0.046,-0.218,-1.302,0.77,-0.248,0.261,-0.543,1.047
2024-10-15 13:29:43.338,72934.787,0.226,0.526,-0.82,-0.078,0.105,-0.069,-0.72,0.869,-0.455,0.269,-0.553,1.046
2024-10-15 13:29:43.348,72934.797,0.231,0.529,-0.816,-0.027,0.278,0.054,0.027,0.943,-0.536,0.275,-0.558,1.041
2024-10-15 13:29:43.358,72934.807,0.235,0.529,-0.815,-0.032,0.356,0.056,0.361,0.838,-0.546,0.281,-0.557,1.034
2024-10-15 13:29:43.368,72934.817,0.238,0.526,-0.816,-0.011,0.156,0.079,0.534,0.593,-0.432,0.284,-0.554,1.027
2024-10-15 13:29:43.378,72934.827,0.24,0.523,-0.818,0.012,0.061,0.116,0.535,0.439,-0.447,0.286,-0.55,1.021
2024-10-15 13:29:43.388,72934.837,0.242,0.52,-0.819,-0.016,0.091,0.11,0.379,0.326,-0.278,0.287,-0.547,1.015
2024-10-15 13:29:43.398,72934.847,0.243,0.518,-0.82,-0.095,0.091,0.078,0.344,0.248,0.005,0.288,-0.544,1.012
2024-10-15 13:29:43.408,72934.857,0.245,0.515,-0.821,-0.11,0.176,0.03,0.187,0.125,0.07,0.29,-0.542,1.012
2024-10-15 13:29:43.418,72934.867,0.246,0.514,-0.822,-0.096,0.291,0.019,0.196,-0.074,0.12,0.29,-0.539,1.012
2024-10-15 13:29:43.428,72934.877,0.245,0.512,-0.823,-0.035,0.225,0.078,0.2,-0.188,0.27,0.29,-0.537,1.014
2024-10-15 13:29:43.438,72934.887,0.245,0.509,-0.826,0.054,0.178,0.097,0.337,-0.368,0.309,0.288,-0.534,1.016
2024-10-15 13:29:43.448,72934.897,0.243,0.505,-0.828,0.079,0.14,0.07,0.338,-0.366,0.349,0.286,-0.529,1.019
2024-10-15 13:29:43.458,72934.907,0.242,0.502,-0.83,0.035,0.089,0.068,0.183,-0.318,0.375,0.284,-0.526,1.022
2024-10-15 13:29:43.468,72934.917,0.241,0.5,-0.832,0.015,-0.034,0.085,-0.019,-0.296,0.355,0.283,-0.524,1.026
2024-10-15 13:29:43.478,72934.927,0.241,0.5,-0.832,0.03,-0.156,0.062,-0.109,-0.289,0.386,0.282,-0.524,1.03
2024-10-15 13:29:43.487,72934.937,0.24,0.5,-0.832,0.046,-0.16,0.013,-0.04,-0.272,0.375,0.281,-0.523,1.035
2024-10-15 13:29:43.498,72934.947,0.24,0.498,-0.833,0.046,-0.083,-0.047,0.159,-0.249,0.323,0.281,-0.522,1.038
2024-10-15 13:29:43.507,72934.957,0.24,0.495,-0.835,0.033,-0.042,-0.08,0.409,-0.233,0.31,0.279,-0.518,1.041
2024-10-15 13:29:43.517,72934.967,0.239,0.49,-0.838,0.035,-0.054,-0.079,0.614,-0.225,0.263,0.278,-0.513,1.042
2024-10-15 13:29:43.528,72934.977,0.238,0.484,-0.842,0.042,-0.077,-0.048,0.702,-0.21,0.217,0.276,-0.506,1.043
2024-10-15 13:29:43.538,72934.987,0.238,0.478,-0.846,0.045,-0.118,-0.024,0.688,-0.219,0.212,0.274,-0.498,1.043
2024-10-15 13:29:43.547,72934.997,0.237,0.472,-0.849,0.06,-0.178,-0.016,0.614,-0.25,0.181,0.272,-0.491,1.043
2024-10-15 13:29:43.557,72935.007,0.235,0.467,-0.853,0.081,-0.22,-0.02,0.515,-0.257,0.121,0.269,-0.486,1.043
2024-10-15 13:29:43.567,72935.017,0.233,0.462,-0.855,0.084,-0.226,-0.04,0.396,-0.265,0.094,0.266,-0.481,1.043
2024-10-15 13:29:43.577,72935.027,0.231,0.46,-0.857,0.075,-0.221,-0.054,0.165,-0.245,-0.01,0.264,-0.478,1.043
2024-10-15 13:29:43.588,72935.037,0.229,0.459,-0.858,0.06,-0.215,-0.052,0.085,-0.266,-0.074,0.261,-0.477,1.042
2024-10-15 13:29:43.598,72935.047,0.226,0.457,-0.86,0.049,-0.206,-0.062,0.469,-0.284,-0.143,0.257,-0.475,1.04
2024-10-15 13:29:43.607,72935.057,0.223,0.451,-0.864,0.056,-0.095,-0.075,1.047,-0.243,-0.197,0.253,-0.468,1.036
2024-10-15 13:29:43.617,72935.067,0.22,0.44,-0.87,0.044,0.095,-0.038,1.524,-0.23,-0.278,0.248,-0.456,1.03
2024-10-15 13:29:43.627,72935.077,0.217,0.427,-0.878,0.022,0.17,0.04,1.764,-0.233,-0.326,0.242,-0.441,1.022
2024-10-15 13:29:43.637,72935.087,0.213,0.412,-0.886,0.018,0.121,0.114,1.605,-0.407,-0.225,0.236,-0.425,1.014
2024-10-15 13:29:43.647,72935.097,0.209,0.401,-0.892,0.036,0.043,0.169,0.692,-0.441,0.071,0.23,-0.413,1.011
2024-10-15 13:29:43.657,72935.107,0.205,0.396,-0.895,0.032,-0.059,0.12,0.35,-0.396,0.19,0.225,-0.407,1.01
2024-10-15 13:29:43.667,72935.117,0.203,0.391,-0.898,-0.119,0.077,-0.256,0.788,-0.191,0.138,0.223,-0.402,1.011
2024-10-15 13:29:43.677,72935.127,0.203,0.384,-0.901,-0.258,0.459,-0.258,0.527,-0.017,0.28,0.222,-0.394,1.011
2024-10-15 13:29:43.687,72935.137,0.204,0.381,-0.902,-0.284,0.293,-0.224,0.054,0.014,0.122,0.222,-0.391,1.013
2024-10-15 13:29:43.697,72935.147,0.204,0.381,-0.902,-0.228,-0.105,-0.134,-0.112,0.018,0.168,0.223,-0.391,1.014
2024-10-15 13:29:43.707,72935.157,0.206,0.383,-0.901,-0.134,-0.239,-0.115,-0.345,0.057,0.422,0.225,-0.393,1.018
2024-10-15 13:29:43.717,72935.167,0.208,0.387,-0.898,-0.032,-0.183,-0.185,-0.889,-0.006,0.483,0.228,-0.398,1.024
2024-10-15 13:29:43.727,72935.177,0.21,0.397,-0.893,-0.019,-0.345,-0.215,-1.54,0.097,0.462,0.231,-0.408,1.032
2024-10-15 13:29:43.737,72935.187,0.213,0.41,-0.887,-0.039,-0.448,-0.136,-1.526,0.159,0.34,0.236,-0.423,1.041
2024-10-15 13:29:43.747,72935.197,0.216,0.42,-0.881,-0.023,-0.308,-0.114,-0.767,0.186,0.285,0.24,-0.434,1.047
2024-10-15 13:29:43.757,72935.207,0.219,0.424,-0.879,0.007,-0.094,-0.069,-0.268,0.202,0.186,0.244,-0.437,1.051
2024-10-15 13:29:43.767,72935.217,0.22,0.424,-0.878,0.09,0.008,0.106,0.07,0.099,-0.05,0.246,-0.438,1.052
2024-10-15 13:29:43.777,72935.227,0.221,0.423,-0.879,0.171,-0.169,0.207,0.264,-0.011,-0.002,0.246,-0.437,1.051
2024-10-15 13:29:43.787,72935.237,0.22,0.42,-0.88,0.259,-0.243,0.255,0.352,-0.134,-0.09,0.245,-0.434,1.05
2024-10-15 13:29:43.797,72935.247,0.218,0.418,-0.882,0.264,-0.167,0.264,0.191,-0.234,-0.168,0.242,-0.431,1.047
2024-10-15 13:29:43.807,72935.257,0.214,0.417,-0.883,0.184,-0.184,0.229,0.046,-0.296,-0.205,0.238,-0.431,1.045
2024-10-15 13:29:43.817,72935.267,0.211,0.418,-0.884,0.096,-0.127,0.158,0.041,-0.3,-0.203,0.234,-0.431,1.043
2024-10-15 13:29:43.827,72935.277,0.208,0.416,-0.885,-0.008,0.059,0.081,0.425,-0.132,-0.352,0.231,-0.429,1.039
2024-10-15 13:29:43.837,72935.286,0.206,0.411,-0.888,-0.105,0.213,0.091,0.816,0.141,-0.397,0.228,-0.424,1.034
2024-10-15 13:29:43.847,72935.296,0.206,0.405,-0.891,-0.132,0.241,0.055,0.635,0.045,-0.21,0.227,-0.417,1.029
2024-10-15 13:29:43.857,72935.306,0.204,0.402,-0.893,-0.062,0.042,0.013,0.36,-0.203,-0.286,0.225,-0.413,1.025
2024-10-15 13:29:43.867,72935.316,0.201,0.397,-0.896,-0.041,0.044,-0.006,0.806,-0.189,-0.095,0.221,-0.408,1.021
2024-10-15 13:29:43.877,72935.326,0.201,0.39,-0.899,-0.152,0.389,-0.133,0.693,-0.017,0.191,0.22,-0.4,1.02
2024-10-15 13:29:43.887,72935.336,0.202,0.384,-0.901,-0.266,0.552,-0.211,0.537,0.048,0.128,0.22,-0.394,1.02
2024-10-15 13:29:43.897,72935.346,0.203,0.379,-0.903,-0.352,0.284,-0.196,0.447,0.136,0.133,0.221,-0.389,1.02
2024-10-15 13:29:43.908,72935.356,0.205,0.375,-0.904,-0.299,0.137,-0.177,0.338,0.148,0.327,0.223,-0.385,1.021
2024-10-15 13:29:43.917,72935.366,0.207,0.373,-0.905,-0.13,0.042,-0.166,0.111,0.07,0.369,0.225,-0.382,1.025
2024-10-15 13:29:43.927,72935.376,0.209,0.372,-0.904,-0.017,-0.18,-0.16,-0.331,0.062,0.395,0.227,-0.382,1.029
2024-10-15 13:29:43.937,72935.386,0.211,0.378,-0.901,0.003,-0.364,-0.271,-1.121,0.073,0.449,0.23,-0.388,1.035
2024-10-15 13:29:43.947,72935.396,0.214,0.39,-0.896,-0.017,-0.512,-0.327,-1.71,0.193,0.336,0.235,-0.401,1.043
2024-10-15 13:29:43.957,72935.406,0.217,0.405,-0.888,-0.066,-0.549,-0.242,-1.701,0.284,0.282,0.24,-0.417,1.051
2024-10-15 13:29:43.967,72935.416,0.221,0.418,-0.881,-0.038,-0.414,-0.22,-1.283,0.273,0.248,0.246,-0.431,1.057
2024-10-15 13:29:43.977,72935.426,0.224,0.427,-0.876,0.103,-0.355,-0.121,-0.921,0.249,0.002,0.25,-0.441,1.062
2024-10-15 13:29:43.987,72935.436,0.225,0.433,-0.873,0.233,-0.297,0.08,-0.393,0.096,-0.164,0.252,-0.448,1.063
2024-10-15 13:29:43.997,72935.446,0.225,0.435,-0.872,0.309,-0.25,0.274,-0.021,-0.019,-0.192,0.252,-0.45,1.061
2024-10-15 13:29:44.007,72935.456,0.222,0.435,-0.872,0.354,-0.2,0.403,0.018,-0.269,-0.266,0.25,-0.45,1.059
2024-10-15 13:29:44.017,72935.466,0.218,0.436,-0.873,0.341,-0.199,0.416,0.103,-0.462,-0.371,0.244,-0.451,1.055
2024-10-15 13:29:44.027,72935.476,0.212,0.435,-0.875,0.238,0.016,0.315,0.375,-0.377,-0.42,0.238,-0.45,1.05
2024-10-15 13:29:44.037,72935.486,0.208,0.43,-0.879,0.021,0.347,0.18,0.96,-0.016,-0.504,0.233,-0.444,1.044
2024-10-15 13:29:44.047,72935.496,0.208,0.421,-0.883,-0.18,0.5,0.134,1.256,0.398,-0.482,0.231,-0.434,1.035
2024-10-15 13:29:44.056,72935.506,0.209,0.413,-0.886,-0.195,0.266,0.117,0.556,0.102,-0.179,0.232,-0.426,1.029
2024-10-15 13:29:44.067,72935.516,0.208,0.411,-0.888,-0.015,-0.244,0.102,0.116,-0.232,-0.273,0.23,-0.423,1.027
2024-10-15 13:29:44.076,72935.526,0.204,0.41,-0.889,0.067,-0.109,0.115,0.399,-0.243,-0.325,0.225,-0.422,1.022
2024-10-15 13:29:44.087,72935.536,0.202,0.405,-0.891,-0.126,0.454,-0.022,0.529,-0.01,0.006,0.223,-0.417,1.02
2024-10-15 13:29:44.096,72935.546,0.203,0.401,-0.893,-0.322,0.616,-0.148,0.469,0.08,0.137,0.223,-0.412,1.019
2024-10-15 13:29:44.106,72935.556,0.205,0.397,-0.895,-0.407,0.396,-0.18,0.392,0.166,0.314,0.225,-0.408,1.02
2024-10-15 13:29:44.116,72935.566,0.208,0.392,-0.896,-0.32,0.203,-0.154,0.409,0.102,0.352,0.228,-0.403,1.023
2024-10-15 13:29:44.126,72935.576,0.21,0.388,-0.898,-0.171,0.09,-0.112,0.368,0.068,0.353,0.229,-0.398,1.026
2024-10-15 13:29:44.136,72935.586,0.211,0.385,-0.898,-0.087,-0.054,-0.101,0.156,0.021,0.368,0.231,-0.395,1.029
2024-10-15 13:29:44.146,72935.596,0.213,0.384,-0.899,-0.035,-0.298,-0.157,-0.08,0.067,0.364,0.233,-0.394,1.033
2024-10-15 13:29:44.156,72935.606,0.216,0.386,-0.897,-0.013,-0.422,-0.275,-0.703,0.135,0.393,0.236,-0.396,1.038
2024-10-15 13:29:44.167,72935.616,0.219,0.395,-0.892,-0.022,-0.427,-0.414,-1.477,0.211,0.329,0.24,-0.406,1.044
2024-10-15 13:29:44.176,72935.626,0.222,0.408,-0.886,-0.054,-0.52,-0.307,-1.396,0.21,0.223,0.245,-0.42,1.051
2024-10-15 13:29:44.187,72935.636,0.224,0.417,-0.881,0.014,-0.48,-0.158,-0.767,0.253,0.185,0.25,-0.43,1.056
2024-10-15 13:29:44.196,72935.646,0.227,0.422,-0.878,0.177,-0.266,-0.02,-0.301,0.173,-0.132,0.253,-0.435,1.058
2024-10-15 13:29:44.206,72935.656,0.227,0.424,-0.877,0.298,-0.261,0.148,-0.094,0.031,-0.238,0.253,-0.438,1.057
2024-10-15 13:29:44.216,72935.666,0.225,0.425,-0.877,0.388,-0.402,0.287,0.004,-0.19,-0.384,0.251,-0.439,1.054
2024-10-15 13:29:44.227,72935.676,0.22,0.426,-0.877,0.417,-0.378,0.37,-0.058,-0.405,-0.501,0.246,-0.44,1.049
2024-10-15 13:29:44.236,72935.686,0.214,0.427,-0.878,0.327,-0.185,0.323,0.038,-0.434,-0.522,0.239,-0.441,1.043
2024-10-15 13:29:44.246,72935.696,0.209,0.426,-0.88,0.112,0.166,0.195,0.517,-0.202,-0.485,0.233,-0.44,1.037
2024-10-15 13:29:44.256,72935.706,0.208,0.419,-0.884,-0.135,0.458,0.168,1.264,0.367,-0.612,0.231,-0.433,1.029
2024-10-15 13:29:44.266,72935.716,0.209,0.411,-0.887,-0.218,0.455,0.168,0.717,0.296,-0.321,0.231,-0.423,1.021
2024-10-15 13:29:44.276,72935.726,0.208,0.409,-0.888,-0.076,-0.117,0.075,-0.109,-0.256,-0.22,0.23,-0.421,1.018
2024-10-15 13:29:44.286,72935.736,0.204,0.41,-0.889,0.121,-0.386,0.115,0.008,-0.291,-0.468,0.226,-0.423,1.014
2024-10-15 13:29:44.297,72935.746,0.201,0.41,-0.89,-0.049,0.308,-0.015,0.276,-0.095,-0.155,0.222,-0.422,1.011
2024-10-15 13:29:44.306,72935.756,0.201,0.407,-0.891,-0.306,0.68,-0.18,0.264,0.12,0.178,0.222,-0.419,1.01
2024-10-15 13:29:44.316,72935.766,0.203,0.404,-0.892,-0.418,0.542,-0.235,0.274,0.144,0.237,0.224,-0.416,1.012
2024-10-15 13:29:44.326,72935.776,0.206,0.401,-0.893,-0.395,0.37,-0.184,0.287,0.158,0.43,0.227,-0.413,1.015
2024-10-15 13:29:44.337,72935.786,0.208,0.398,-0.894,-0.232,0.172,-0.095,0.333,0.074,0.384,0.229,-0.409,1.018
2024-10-15 13:29:44.346,72935.796,0.211,0.394,-0.895,-0.107,0.031,-0.093,0.201,0.048,0.411,0.231,-0.405,1.022
2024-10-15 13:29:44.356,72935.806,0.213,0.392,-0.895,-0.072,-0.106,-0.143,0.019,0.098,0.404,0.233,-0.403,1.026
2024-10-15 13:29:44.366,72935.816,0.216,0.393,-0.894,-0.059,-0.248,-0.226,-0.432,0.187,0.479,0.237,-0.404,1.031
2024-10-15 13:29:44.376,72935.826,0.219,0.399,-0.89,-0.051,-0.259,-0.356,-1.168,0.243,0.419,0.242,-0.411,1.038
2024-10-15 13:29:44.386,72935.836,0.224,0.41,-0.884,-0.089,-0.294,-0.343,-1.337,0.276,0.445,0.248,-0.422,1.046
2024-10-15 13:29:44.396,72935.846,0.228,0.419,-0.879,-0.096,-0.333,-0.174,-0.814,0.315,0.414,0.254,-0.432,1.053
2024-10-15 13:29:44.406,72935.856,0.232,0.422,-0.876,0.047,-0.201,-0.015,-0.288,0.284,0.207,0.259,-0.436,1.058
2024-10-15 13:29:44.416,72935.866,0.234,0.425,-0.875,0.22,-0.293,0.186,-0.221,0.126,-0.12,0.262,-0.438,1.06
2024-10-15 13:29:44.426,72935.875,0.233,0.427,-0.874,0.362,-0.578,0.314,-0.212,-0.185,-0.351,0.26,-0.441,1.057
2024-10-15 13:29:44.436,72935.885,0.229,0.429,-0.874,0.422,-0.734,0.393,-0.086,-0.382,-0.49,0.256,-0.444,1.053
2024-10-15 13:29:44.446,72935.895,0.223,0.431,-0.874,0.359,-0.543,0.373,-0.078,-0.436,-0.548,0.249,-0.446,1.048
2024-10-15 13:29:44.456,72935.905,0.217,0.432,-0.875,0.164,-0.178,0.274,0.074,-0.418,-0.484,0.243,-0.447,1.042
2024-10-15 13:29:44.466,72935.915,0.212,0.43,-0.877,-0.035,0.234,0.098,0.675,-0.085,-0.454,0.237,-0.445,1.037
2024-10-15 13:29:44.476,72935.925,0.211,0.422,-0.882,-0.207,0.594,0.095,1.376,0.379,-0.506,0.235,-0.435,1.028
2024-10-15 13:29:44.486,72935.935,0.212,0.412,-0.886,-0.172,0.526,0.159,0.854,0.13,-0.253,0.235,-0.425,1.021
2024-10-15 13:29:44.496,72935.945,0.21,0.409,-0.888,0.06,-0.065,0.107,0.097,-0.401,-0.207,0.232,-0.421,1.018
2024-10-15 13:29:44.506,72935.955,0.205,0.408,-0.889,0.179,-0.276,0.098,0.149,-0.454,-0.325,0.227,-0.421,1.015
2024-10-15 13:29:44.516,72935.965,0.201,0.406,-0.891,-0.053,0.302,-0.09,0.439,-0.132,-0.085,0.222,-0.418,1.012
2024-10-15 13:29:44.526,72935.975,0.202,0.403,-0.893,-0.352,0.656,-0.281,0.334,0.191,0.134,0.223,-0.414,1.011
2024-10-15 13:29:44.536,72935.985,0.205,0.4,-0.894,-0.502,0.463,-0.303,0.239,0.238,0.27,0.225,-0.411,1.013
2024-10-15 13:29:44.546,72935.995,0.208,0.397,-0.894,-0.377,0.166,-0.216,0.178,0.187,0.366,0.229,-0.408,1.016
2024-10-15 13:29:44.556,72936.005,0.211,0.395,-0.894,-0.131,0.067,-0.135,0.127,0.126,0.277,0.231,-0.406,1.018
2024-10-15 13:29:44.565,72936.015,0.213,0.394,-0.894,-0.034,-0.02,-0.154,0.053,0.158,0.305,0.234,-0.404,1.021
2024-10-15 13:29:44.575,72936.025,0.216,0.393,-0.894,-0.027,-0.139,-0.208,-0.167,0.229,0.34,0.237,-0.404,1.025
2024-10-15 13:29:44.585,72936.035,0.22,0.397,-0.891,-0.017,-0.217,-0.315,-0.911,0.318,0.316,0.242,-0.408,1.03
2024-10-15 13:29:44.595,72936.045,0.224,0.407,-0.885,-0.035,-0.259,-0.401,-1.419,0.393,0.356,0.248,-0.419,1.036
2024-10-15 13:29:44.605,72936.055,0.229,0.418,-0.879,-0.059,-0.428,-0.242,-1.101,0.356,0.353,0.255,-0.431,1.044
2024-10-15 13:29:44.615,72936.065,0.233,0.424,-0.875,0.041,-0.37,-0.026,-0.444,0.265,0.167,0.26,-0.438,1.049
2024-10-15 13:29:44.626,72936.075,0.235,0.426,-0.874,0.229,-0.285,0.223,-0.134,0.053,-0.129,0.263,-0.441,1.05
2024-10-15 13:29:44.636,72936.085,0.233,0.428,-0.873,0.37,-0.452,0.401,-0.079,-0.214,-0.204,0.261,-0.442,1.048
2024-10-15 13:29:44.646,72936.095,0.229,0.429,-0.874,0.443,-0.594,0.455,-0.08,-0.442,-0.299,0.257,-0.443,1.046
2024-10-15 13:29:44.655,72936.105,0.224,0.43,-0.875,0.38,-0.43,0.338,-0.086,-0.49,-0.438,0.25,-0.445,1.042
2024-10-15 13:29:44.666,72936.115,0.218,0.432,-0.875,0.16,-0.024,0.147,-0.094,-0.285,-0.388,0.244,-0.447,1.038
2024-10-15 13:29:44.676,72936.125,0.215,0.433,-0.875,-0.095,0.291,-0.009,0.243,-0.11,-0.193,0.241,-0.447,1.035
2024-10-15 13:29:44.686,72936.135,0.215,0.427,-0.878,-0.181,0.394,0.047,1.072,0.237,-0.271,0.24,-0.441,1.031
2024-10-15 13:29:44.696,72936.145,0.216,0.418,-0.882,-0.064,0.449,0.228,0.948,0.163,-0.294,0.24,-0.432,1.025
2024-10-15 13:29:44.705,72936.155,0.214,0.414,-0.885,0.084,0.096,0.202,0.217,-0.334,-0.156,0.237,-0.426,1.021
2024-10-15 13:29:44.715,72936.165,0.209,0.413,-0.886,0.149,-0.344,0.156,0.051,-0.474,-0.352,0.232,-0.426,1.018
2024-10-15 13:29:44.725,72936.175,0.205,0.413,-0.888,-0.05,0.065,-0.046,0.26,-0.184,-0.21,0.227,-0.425,1.014
2024-10-15 13:29:44.735,72936.185,0.205,0.411,-0.889,-0.378,0.529,-0.31,0.228,0.233,0.085,0.227,-0.423,1.013
2024-10-15 13:29:44.745,72936.195,0.208,0.409,-0.889,-0.557,0.415,-0.442,0.107,0.357,0.235,0.23,-0.421,1.014
2024-10-15 13:29:44.755,72936.205,0.213,0.408,-0.888,-0.449,0.132,-0.352,0.007,0.364,0.23,0.235,-0.42,1.017
2024-10-15 13:29:44.765,72936.215,0.216,0.408,-0.887,-0.148,-0.061,-0.196,-0.116,0.16,0.178,0.239,-0.42,1.019
2024-10-15 13:29:44.775,72936.225,0.218,0.409,-0.886,0.048,-0.239,-0.125,-0.207,0.161,0.12,0.241,-0.421,1.021
2024-10-15 13:29:44.785,72936.235,0.22,0.411,-0.885,0.06,-0.266,-0.129,-0.369,0.215,0.104,0.244,-0.424,1.023
2024-10-15 13:29:44.795,72936.245,0.222,0.415,-0.882,0.033,-0.287,-0.129,-0.604,0.234,0.08,0.247,-0.428,1.025
2024-10-15 13:29:44.806,72936.255,0.224,0.422,-0.879,0.06,-0.322,-0.099,-0.912,0.195,-0.003,0.25,-0.435,1.028
2024-10-15 13:29:44.815,72936.265,0.226,0.43,-0.874,0.052,-0.276,-0.071,-1.047,0.232,0.015,0.253,-0.445,1.031
2024-10-15 13:29:44.825,72936.275,0.228,0.44,-0.868,0.002,-0.254,0.022,-1.263,0.247,-0.009,0.257,-0.456,1.034
2024-10-15 13:29:44.835,72936.285,0.23,0.452,-0.862,-0.034,-0.241,0.104,-1.489,0.204,-0.057,0.261,-0.469,1.037
2024-10-15 13:29:44.845,72936.295,0.231,0.466,-0.854,-0.025,-0.296,0.164,-1.586,0.176,-0.141,0.264,-0.484,1.041
2024-10-15 13:29:44.855,72936.305,0.232,0.48,-0.846,-0.03,-0.308,0.188,-1.619,0.302,-0.215,0.268,-0.5,1.044
2024-10-15 13:29:44.865,72936.315,0.234,0.494,-0.837,-0.061,-0.231,0.166,-1.731,0.489,-0.247,0.273,-0.517,1.046
2024-10-15 13:29:44.875,72936.325,0.238,0.509,-0.827,-0.104,-0.151,-0.004,-1.467,0.694,-0.249,0.28,-0.533,1.049
2024-10-15 13:29:44.885,72936.335,0.243,0.519,-0.819,-0.147,0.103,-0.126,-0.912,0.86,-0.214,0.289,-0.546,1.05
2024-10-15 13:29:44.895,72936.345,0.249,0.525,-0.814,-0.142,0.342,-0.029,-0.459,0.837,-0.187,0.297,-0.553,1.05
2024-10-15 13:29:44.905,72936.355,0.254,0.528,-0.81,-0.077,0.335,0.015,-0.136,0.673,-0.169,0.304,-0.556,1.049
2024-10-15 13:29:44.915,72936.365,0.258,0.528,-0.809,-0.007,0.352,-0.0,0.191,0.488,-0.121,0.309,-0.556,1.047
2024-10-15 13:29:44.925,72936.375,0.261,0.526,-0.81,0.045,0.364,0.065,0.385,0.27,-0.141,0.312,-0.554,1.045
2024-10-15 13:29:44.935,72936.385,0.262,0.523,-0.811,0.07,0.309,0.143,0.379,0.109,-0.074,0.312,-0.55,1.042
2024-10-15 13:29:44.945,72936.395,0.262,0.521,-0.813,0.062,0.21,0.161,0.22,-0.002,0.06,0.312,-0.547,1.041
2024-10-15 13:29:44.955,72936.405,0.262,0.519,-0.813,0.046,0.111,0.153,0.034,-0.111,0.197,0.312,-0.546,1.042
2024-10-15 13:29:44.965,72936.415,0.262,0.519,-0.814,0.043,0.065,0.145,-0.02,-0.203,0.279,0.312,-0.545,1.044
2024-10-15 13:29:44.975,72936.425,0.262,0.518,-0.815,0.058,0.077,0.136,0.063,-0.26,0.294,0.311,-0.544,1.048
2024-10-15 13:29:44.985,72936.435,0.261,0.516,-0.816,0.078,0.062,0.153,0.171,-0.325,0.314,0.31,-0.542,1.051
2024-10-15 13:29:44.995,72936.445,0.26,0.513,-0.818,0.095,-0.019,0.139,0.292,-0.388,0.311,0.307,-0.539,1.053
2024-10-15 13:29:45.005,72936.454,0.258,0.509,-0.821,0.095,-0.071,0.082,0.475,-0.413,0.279,0.304,-0.534,1.055
2024-10-15 13:29:45.015,72936.464,0.256,0.504,-0.825,0.066,-0.079,0.041,0.741,-0.415,0.223,0.301,-0.528,1.056
2024-10-15 13:29:45.025,72936.474,0.254,0.496,-0.83,0.052,-0.099,0.015,0.968,-0.362,0.158,0.296,-0.519,1.055
2024-10-15 13:29:45.035,72936.484,0.252,0.487,-0.836,0.045,-0.15,-0.002,1.16,-0.326,0.18,0.292,-0.508,1.053
2024-10-15 13:29:45.045,72936.494,0.25,0.476,-0.843,0.055,-0.199,-0.036,1.393,-0.316,0.088,0.288,-0.496,1.051
2024-10-15 13:29:45.055,72936.504,0.247,0.464,-0.851,0.072,-0.194,-0.079,1.394,-0.3,-0.042,0.283,-0.482,1.047
2024-10-15 13:29:45.065,72936.514,0.244,0.452,-0.858,0.052,-0.195,-0.087,1.482,-0.321,-0.153,0.277,-0.469,1.041
2024-10-15 13:29:45.075,72936.524,0.241,0.439,-0.865,0.032,-0.239,-0.074,1.536,-0.255,-0.087,0.271,-0.455,1.035
2024-10-15 13:29:45.085,72936.534,0.238,0.426,-0.873,0.02,-0.188,-0.06,1.595,-0.246,-0.126,0.267,-0.44,1.029
2024-10-15 13:29:45.095,72936.544,0.235,0.412,-0.88,0.016,-0.116,-0.053,1.698,-0.339,-0.185,0.261,-0.425,1.023
2024-10-15 13:29:45.105,72936.554,0.231,0.398,-0.888,0.042,-0.003,-0.041,1.524,-0.39,-0.133,0.255,-0.409,1.017
2024-10-15 13:29:45.114,72936.564,0.228,0.389,-0.893,0.037,0.089,-0.036,0.452,-0.313,0.08,0.25,-0.399,1.014
2024-10-15 13:29:45.125,72936.574,0.225,0.385,-0.895,-0.042,0.006,-0.179,0.284,-0.415,0.212,0.246,-0.396,1.014
2024-10-15 13:29:45.134,72936.584,0.223,0.38,-0.898,-0.152,0.186,-0.325,0.749,-0.183,0.121,0.243,-0.39,1.015
2024-10-15 13:29:45.145,72936.594,0.223,0.373,-0.901,-0.221,0.527,-0.185,0.685,-0.055,0.374,0.243,-0.382,1.015
2024-10-15 13:29:45.155,72936.604,0.224,0.367,-0.903,-0.203,0.333,-0.129,0.445,-0.091,0.409,0.243,-0.376,1.018
2024-10-15 13:29:45.165,72936.614,0.224,0.363,-0.904,-0.1,0.063,-0.017,0.2,-0.106,0.498,0.243,-0.372,1.022
2024-10-15 13:29:45.174,72936.624,0.226,0.362,-0.904,-0.057,-0.035,-0.042,-0.351,-0.082,0.647,0.244,-0.371,1.028
2024-10-15 13:29:45.185,72936.634,0.227,0.367,-0.902,-0.05,-0.168,-0.128,-0.939,-0.073,0.614,0.247,-0.376,1.036
2024-10-15 13:29:45.195,72936.644,0.228,0.374,-0.899,-0.077,-0.4,-0.088,-0.857,-0.102,0.45,0.249,-0.384,1.044
2024-10-15 13:29:45.204,72936.654,0.229,0.378,-0.897,-0.011,-0.413,-0.025,-0.009,-0.078,0.245,0.25,-0.387,1.049
2024-10-15 13:29:45.214,72936.664,0.229,0.374,-0.899,0.083,-0.277,0.022,0.673,-0.01,-0.028,0.249,-0.383,1.049
2024-10-15 13:29:45.225,72936.674,0.228,0.366,-0.902,0.149,-0.356,0.115,0.992,-0.043,-0.263,0.247,-0.375,1.045
2024-10-15 13:29:45.234,72936.684,0.226,0.359,-0.905,0.242,-0.629,0.217,0.52,-0.257,-0.215,0.245,-0.368,1.041
2024-10-15 13:29:45.244,72936.694,0.221,0.358,-0.907,0.356,-0.751,0.276,-0.038,-0.544,-0.32,0.239,-0.366,1.037
2024-10-15 13:29:45.254,72936.704,0.214,0.359,-0.908,0.323,-0.541,0.248,-0.071,-0.667,-0.388,0.232,-0.368,1.034
2024-10-15 13:29:45.264,72936.714,0.208,0.36,-0.91,0.126,0.021,0.069,0.233,-0.455,-0.316,0.225,-0.368,1.03
2024-10-15 13:29:45.275,72936.724,0.205,0.355,-0.912,-0.113,0.443,-0.004,0.94,0.089,-0.358,0.221,-0.363,1.025
2024-10-15 13:29:45.284,72936.734,0.206,0.346,-0.915,-0.186,0.513,0.128,1.079,0.269,-0.372,0.221,-0.353,1.019
2024-10-15 13:29:45.294,72936.744,0.206,0.34,-0.918,-0.048,0.27,0.057,0.298,-0.203,-0.114,0.22,-0.347,1.015
2024-10-15 13:29:45.304,72936.754,0.201,0.34,-0.919,0.119,-0.14,0.01,-0.141,-0.507,-0.344,0.216,-0.347,1.012
2024-10-15 13:29:45.315,72936.764,0.196,0.341,-0.919,0.006,0.087,-0.045,0.172,-0.238,-0.158,0.211,-0.348,1.009
2024-10-15 13:29:45.324,72936.774,0.196,0.339,-0.92,-0.297,0.594,-0.17,0.227,0.099,0.118,0.21,-0.346,1.009
2024-10-15 13:29:45.334,72936.784,0.198,0.337,-0.92,-0.484,0.566,-0.22,0.109,0.235,0.278,0.212,-0.343,1.01
2024-10-15 13:29:45.344,72936.794,0.202,0.336,-0.92,-0.471,0.239,-0.17,0.033,0.216,0.35,0.216,-0.342,1.014
2024-10-15 13:29:45.354,72936.804,0.204,0.335,-0.92,-0.282,0.116,-0.156,-0.009,0.172,0.342,0.219,-0.341,1.017
2024-10-15 13:29:45.364,72936.814,0.207,0.335,-0.919,-0.137,0.031,-0.171,-0.276,0.233,0.432,0.222,-0.342,1.021
2024-10-15 13:29:45.374,72936.824,0.211,0.341,-0.916,-0.102,-0.179,-0.23,-1.347,0.18,0.617,0.227,-0.348,1.029
2024-10-15 13:29:45.385,72936.834,0.215,0.357,-0.909,-0.089,-0.388,-0.323,-2.243,0.115,0.713,0.232,-0.365,1.04
2024-10-15 13:29:45.394,72936.844,0.218,0.373,-0.902,-0.069,-0.435,-0.15,-1.635,0.091,0.611,0.238,-0.383,1.052
2024-10-15 13:29:45.405,72936.854,0.222,0.382,-0.897,0.013,-0.127,-0.102,-0.571,0.216,0.543,0.242,-0.392,1.061
2024-10-15 13:29:45.415,72936.864,0.225,0.383,-0.896,0.143,0.16,-0.063,-0.019,0.227,0.279,0.247,-0.393,1.066
2024-10-15 13:29:45.424,72936.874,0.228,0.382,-0.896,0.258,-0.169,0.063,0.095,0.039,0.139,0.249,-0.392,1.068
2024-10-15 13:29:45.434,72936.884,0.227,0.381,-0.896,0.387,-0.564,0.187,0.234,-0.204,-0.249,0.248,-0.391,1.067
2024-10-15 13:29:45.445,72936.894,0.223,0.38,-0.898,0.454,-0.637,0.331,0.176,-0.362,-0.359,0.243,-0.39,1.063
2024-10-15 13:29:45.454,72936.904,0.217,0.38,-0.899,0.406,-0.628,0.391,0.06,-0.649,-0.486,0.236,-0.389,1.059
2024-10-15 13:29:45.466,72936.914,0.208,0.38,-0.901,0.263,-0.534,0.355,0.059,-0.717,-0.516,0.227,-0.39,1.053
2024-10-15 13:29:45.473,72936.924,0.201,0.378,-0.904,0.061,-0.104,0.195,0.755,-0.458,-0.522,0.218,-0.388,1.047
2024-10-15 13:29:45.484,72936.934,0.198,0.367,-0.909,-0.133,0.389,0.173,1.767,0.338,-0.635,0.214,-0.376,1.038
2024-10-15 13:29:45.493,72936.944,0.2,0.353,-0.914,-0.185,0.564,0.246,1.474,0.302,-0.402,0.215,-0.361,1.028
2024-10-15 13:29:45.504,72936.954,0.198,0.345,-0.917,-0.003,-0.001,0.12,0.264,-0.475,-0.309,0.212,-0.353,1.023
2024-10-15 13:29:45.514,72936.964,0.19,0.346,-0.919,0.207,-0.361,0.068,-0.004,-0.636,-0.681,0.204,-0.353,1.017
2024-10-15 13:29:45.524,72936.974,0.185,0.345,-0.92,-0.054,0.357,-0.117,0.389,-0.139,-0.126,0.198,-0.352,1.012
2024-10-15 13:29:45.534,72936.984,0.186,0.342,-0.921,-0.438,0.789,-0.347,0.146,0.299,0.262,0.2,-0.349,1.013
2024-10-15 13:29:45.544,72936.994,0.191,0.341,-0.92,-0.64,0.578,-0.376,-0.052,0.375,0.369,0.204,-0.348,1.016
2024-10-15 13:29:45.554,72937.004,0.195,0.342,-0.919,-0.532,0.144,-0.27,-0.229,0.27,0.441,0.209,-0.349,1.021
2024-10-15 13:29:45.564,72937.014,0.198,0.343,-0.918,-0.214,-0.111,-0.22,-0.232,0.171,0.275,0.213,-0.35,1.025
2024-10-15 13:29:45.574,72937.024,0.201,0.346,-0.916,-0.068,-0.244,-0.23,-0.645,0.238,0.237,0.216,-0.354,1.029
2024-10-15 13:29:45.584,72937.033,0.204,0.356,-0.912,-0.055,-0.399,-0.291,-1.6,0.145,0.401,0.22,-0.364,1.034
2024-10-15 13:29:45.594,72937.043,0.207,0.371,-0.905,-0.053,-0.491,-0.303,-1.883,0.234,0.261,0.224,-0.381,1.042
2024-10-15 13:29:45.604,72937.053,0.211,0.386,-0.898,-0.052,-0.262,-0.225,-1.516,0.541,0.357,0.231,-0.397,1.049
2024-10-15 13:29:45.614,72937.063,0.218,0.397,-0.891,-0.067,0.035,-0.287,-1.178,0.565,0.424,0.24,-0.409,1.057
2024-10-15 13:29:45.624,72937.073,0.224,0.405,-0.887,0.07,0.01,-0.207,-0.653,0.358,0.289,0.247,-0.417,1.063
2024-10-15 13:29:45.634,72937.083,0.227,0.408,-0.884,0.262,-0.117,-0.031,-0.126,0.206,0.14,0.251,-0.42,1.067
2024-10-15 13:29:45.644,72937.093,0.228,0.408,-0.884,0.406,-0.084,0.251,0.144,-0.093,-0.118,0.252,-0.42,1.067
2024-10-15 13:29:45.654,72937.103,0.225,0.406,-0.886,0.417,-0.232,0.446,0.409,-0.286,-0.262,0.249,-0.418,1.064
2024-10-15 13:29:45.664,72937.113,0.221,0.402,-0.889,0.368,-0.354,0.552,0.499,-0.435,-0.414,0.243,-0.414,1.059
2024-10-15 13:29:45.674,72937.123,0.214,0.4,-0.891,0.246,-0.329,0.518,0.318,-0.627,-0.457,0.236,-0.411,1.053
2024-10-15 13:29:45.684,72937.133,0.206,0.397,-0.894,0.096,-0.252,0.399,0.527,-0.591,-0.554,0.227,-0.409,1.047
2024-10-15 13:29:45.694,72937.143,0.202,0.39,-0.898,-0.12,0.073,0.28,1.328,0.078,-0.611,0.221,-0.401,1.039
2024-10-15 13:29:45.704,72937.153,0.202,0.379,-0.903,-0.283,0.355,0.237,1.16,0.282,-0.407,0.22,-0.389,1.03
2024-10-15 13:29:45.714,72937.163,0.201,0.374,-0.905,-0.219,0.083,0.065,0.177,-0.18,-0.239,0.219,-0.383,1.025
2024-10-15 13:29:45.724,72937.173,0.197,0.376,-0.906,-0.026,-0.272,-0.034,-0.273,-0.377,-0.432,0.214,-0.385,1.022
2024-10-15 13:29:45.734,72937.183,0.195,0.377,-0.905,-0.101,0.163,-0.211,-0.082,0.129,-0.013,0.212,-0.387,1.02
2024-10-15 13:29:45.744,72937.193,0.197,0.377,-0.905,-0.363,0.756,-0.372,0.111,0.328,0.171,0.215,-0.387,1.021
2024-10-15 13:29:45.754,72937.203,0.202,0.375,-0.905,-0.477,0.656,-0.33,0.375,0.439,0.331,0.219,-0.384,1.023
2024-10-15 13:29:45.764,72937.213,0.207,0.37,-0.906,-0.284,0.305,-0.234,0.391,0.325,0.233,0.224,-0.379,1.025
2024-10-15 13:29:45.774,72937.223,0.209,0.367,-0.906,-0.05,0.047,-0.208,0.105,0.148,0.244,0.227,-0.376,1.027
2024-10-15 13:29:45.784,72937.233,0.212,0.367,-0.906,0.03,-0.253,-0.254,-0.169,0.15,0.219,0.229,-0.376,1.029
2024-10-15 13:29:45.793,72937.243,0.214,0.371,-0.904,0.012,-0.405,-0.343,-0.802,0.19,0.242,0.233,-0.38,1.033
2024-10-15 13:29:45.804,72937.253,0.217,0.381,-0.899,-0.05,-0.385,-0.451,-1.397,0.279,0.233,0.237,-0.39,1.038
2024-10-15 13:29:45.814,72937.263,0.221,0.393,-0.893,-0.105,-0.369,-0.348,-1.324,0.361,0.252,0.243,-0.404,1.044
2024-10-15 13:29:45.824,72937.273,0.225,0.401,-0.888,-0.1,-0.269,-0.168,-0.67,0.353,0.346,0.248,-0.413,1.05
2024-10-15 13:29:45.834,72937.283,0.229,0.403,-0.886,0.064,-0.1,0.074,-0.072,0.185,0.152,0.253,-0.415,1.054
2024-10-15 13:29:45.844,72937.293,0.229,0.403,-0.886,0.277,-0.11,0.357,0.127,-0.107,-0.09,0.253,-0.415,1.054
2024-10-15 13:29:45.853,72937.303,0.226,0.402,-0.887,0.412,-0.27,0.518,0.157,-0.38,-0.178,0.25,-0.414,1.052
2024-10-15 13:29:45.863,72937.313,0.222,0.401,-0.889,0.423,-0.405,0.55,0.164,-0.534,-0.249,0.244,-0.413,1.05
2024-10-15 13:29:45.873,72937.323,0.215,0.4,-0.891,0.325,-0.359,0.437,0.261,-0.624,-0.411,0.237,-0.411,1.046
2024-10-15 13:29:45.883,72937.333,0.208,0.398,-0.893,0.162,-0.159,0.211,0.396,-0.456,-0.482,0.229,-0.409,1.04
2024-10-15 13:29:45.893,72937.343,0.204,0.394,-0.896,-0.029,0.126,-0.006,0.852,-0.115,-0.457,0.223,-0.404,1.033
2024-10-15 13:29:45.903,72937.353,0.203,0.385,-0.9,-0.166,0.335,-0.018,1.239,0.383,-0.5,0.222,-0.395,1.026
2024-10-15 13:29:45.913,72937.363,0.204,0.376,-0.904,-0.171,0.319,0.011,0.734,0.139,-0.315,0.222,-0.386,1.019
2024-10-15 13:29:45.923,72937.373,0.202,0.372,-0.906,-0.01,-0.124,0.064,0.403,-0.189,-0.436,0.22,-0.381,1.014
2024-10-15 13:29:45.933,72937.383,0.199,0.37,-0.908,0.09,-0.181,0.13,0.371,-0.164,-0.466,0.216,-0.379,1.008
2024-10-15 13:29:45.943,72937.393,0.197,0.368,-0.909,-0.095,0.273,-0.011,0.207,-0.046,-0.134,0.213,-0.377,1.004
2024-10-15 13:29:45.953,72937.403,0.197,0.366,-0.909,-0.29,0.333,-0.155,-0.009,0.093,0.221,0.214,-0.375,1.005
2024-10-15 13:29:45.963,72937.413,0.199,0.366,-0.909,-0.399,0.288,-0.284,0.11,0.2,0.198,0.216,-0.374,1.007
2024-10-15 13:29:45.973,72937.423,0.203,0.364,-0.909,-0.385,0.291,-0.305,0.099,0.328,0.296,0.219,-0.373,1.009
2024-10-15 13:29:45.983,72937.433,0.206,0.364,-0.908,-0.216,0.086,-0.302,-0.15,0.186,0.296,0.223,-0.372,1.012
2024-10-15 13:29:45.993,72937.443,0.209,0.365,-0.907,-0.052,-0.194,-0.266,-0.284,0.226,0.233,0.226,-0.374,1.015
2024-10-15 13:29:46.004,72937.453,0.212,0.369,-0.905,0.015,-0.261,-0.281,-0.865,0.276,0.251,0.23,-0.378,1.019
2024-10-15 13:29:46.013,72937.463,0.216,0.38,-0.899,-0.009,-0.292,-0.375,-1.557,0.379,0.198,0.236,-0.39,1.025
2024-10-15 13:29:46.023,72937.473,0.221,0.394,-0.892,-0.104,-0.326,-0.324,-1.633,0.48,0.32,0.243,-0.405,1.031
2024-10-15 13:29:46.033,72937.483,0.226,0.405,-0.886,-0.132,-0.235,-0.175,-0.987,0.401,0.408,0.25,-0.417,1.039
2024-10-15 13:29:46.043,72937.493,0.231,0.411,-0.882,0.004,-0.023,0.023,-0.37,0.338,0.199,0.256,-0.423,1.044
2024-10-15 13:29:46.053,72937.503,0.233,0.412,-0.881,0.208,0.007,0.29,-0.116,0.064,0.055,0.259,-0.425,1.046
2024-10-15 13:29:46.063,72937.513,0.232,0.413,-0.881,0.35,-0.264,0.453,0.046,-0.19,-0.152,0.258,-0.425,1.046
2024-10-15 13:29:46.073,72937.523,0.229,0.412,-0.882,0.409,-0.419,0.55,0.15,-0.345,-0.226,0.254,-0.425,1.043
2024-10-15 13:29:46.084,72937.533,0.224,0.411,-0.883,0.366,-0.381,0.515,0.167,-0.56,-0.253,0.249,-0.424,1.04
2024-10-15 13:29:46.093,72937.543,0.218,0.41,-0.885,0.262,-0.287,0.331,0.221,-0.539,-0.363,0.241,-0.423,1.036
2024-10-15 13:29:46.103,72937.553,0.213,0.408,-0.888,0.064,0.018,0.09,0.504,-0.378,-0.308,0.235,-0.421,1.032
2024-10-15 13:29:46.113,72937.563,0.21,0.4,-0.892,-0.139,0.266,0.035,1.409,0.152,-0.33,0.232,-0.412,1.026
2024-10-15 13:29:46.123,72937.573,0.211,0.388,-0.897,-0.14,0.371,0.216,1.422,0.258,-0.36,0.231,-0.398,1.019
2024-10-15 13:29:46.133,72937.583,0.21,0.38,-0.901,0.019,0.119,0.203,0.473,-0.361,-0.253,0.229,-0.39,1.013
2024-10-15 13:29:46.143,72937.593,0.204,0.379,-0.903,0.178,-0.362,0.084,-0.036,-0.59,-0.372,0.222,-0.389,1.01
2024-10-15 13:29:46.153,72937.603,0.199,0.379,-0.904,0.003,0.009,-0.17,0.195,-0.172,-0.15,0.217,-0.389,1.006
2024-10-15 13:29:46.163,72937.612,0.2,0.377,-0.904,-0.412,0.602,-0.441,0.257,0.337,0.164,0.218,-0.386,1.006
2024-10-15 13:29:46.173,72937.622,0.205,0.375,-0.904,-0.619,0.536,-0.532,0.103,0.432,0.317,0.223,-0.384,1.008
2024-10-15 13:29:46.183,72937.632,0.209,0.374,-0.904,-0.436,0.072,-0.426,-0.139,0.277,0.317,0.228,-0.383,1.012
2024-10-15 13:29:46.193,72937.642,0.212,0.376,-0.902,-0.077,-0.219,-0.315,-0.281,0.199,0.134,0.231,-0.385,1.015
2024-10-15 13:29:46.203,72937.652,0.214,0.379,-0.9,0.063,-0.283,-0.273,-0.568,0.264,0.072,0.234,-0.389,1.017
2024-10-15 13:29:46.213,72937.662,0.218,0.386,-0.896,0.043,-0.314,-0.252,-1.094,0.355,0.081,0.238,-0.396,1.019
2024-10-15 13:29:46.223,72937.672,0.221,0.398,-0.89,0.031,-0.355,-0.248,-1.594,0.354,0.095,0.243,-0.409,1.024
2024-10-15 13:29:46.233,72937.682,0.225,0.412,-0.883,0.019,-0.296,-0.161,-1.641,0.448,0.059,0.249,-0.425,1.029
2024-10-15 13:29:46.243,72937.692,0.229,0.426,-0.875,-0.022,-0.172,0.009,-1.564,0.374,0.148,0.256,-0.44,1.035
2024-10-15 13:29:46.253,72937.702,0.232,0.44,-0.868,0.005,-0.135,0.167,-1.574,0.157,0.079,0.261,-0.455,1.04
2024-10-15 13:29:46.263,72937.712,0.232,0.453,-0.861,0.077,-0.239,0.314,-1.481,-0.026,0.032,0.264,-0.47,1.045
2024-10-15 13:29:46.273,72937.722,0.232,0.465,-0.854,0.072,-0.238,0.368,-1.402,-0.102,-0.027,0.265,-0.484,1.05
2024-10-15 13:29:46.283,72937.732,0.231,0.476,-0.849,0.004,-0.174,0.357,-1.164,-0.067,-0.041,0.266,-0.496,1.053
2024-10-15 13:29:46.293,72937.742,0.231,0.485,-0.844,-0.045,-0.121,0.311,-0.892,0.124,-0.148,0.267,-0.506,1.055
2024-10-15 13:29:46.303,72937.752,0.232,0.492,-0.839,-0.072,-0.004,0.161,-0.732,0.377,-0.194,0.27,-0.515,1.056
2024-10-15 13:29:46.312,72937.762,0.235,0.498,-0.835,-0.122,0.133,-0.04,-0.55,0.539,-0.188,0.274,-0.521,1.055
2024-10-15 13:29:46.322,72937.772,0.239,0.502,-0.831,-0.112,0.205,-0.023,-0.209,0.643,-0.225,0.279,-0.526,1.054
2024-10-15 13:29:46.333,72937.782,0.243,0.502,-0.83,-0.051,0.236,0.064,0.202,0.677,-0.252,0.285,-0.526,1.052
2024-10-15 13:29:46.343,72937.792,0.247,0.5,-0.83,-0.013,0.25,0.073,0.523,0.669,-0.208,0.29,-0.524,1.048
2024-10-15 13:29:46.352,72937.802,0.252,0.495,-0.831,0.006,0.243,0.028,0.636,0.565,-0.071,0.294,-0.518,1.044
2024-10-15 13:29:46.362,72937.812,0.255,0.491,-0.833,0.029,0.171,-0.04,0.463,0.272,0.01,0.297,-0.513,1.042
2024-10-15 13:29:46.373,72937.822,0.257,0.488,-0.834,0.067,0.073,-0.053,0.268,0.085,0.086,0.299,-0.509,1.042
2024-10-15 13:29:46.383,72937.832,0.258,0.486,-0.835,0.062,0.074,-0.006,0.134,-0.055,0.148,0.299,-0.507,1.042
2024-10-15 13:29:46.392,72937.842,0.258,0.484,-0.836,0.034,0.136,0.025,0.109,-0.156,0.329,0.299,-0.505,1.044
2024-10-15 13:29:46.403,72937.852,0.258,0.482,-0.837,0.031,0.188,0.032,0.174,-0.285,0.418,0.299,-0.503,1.048
2024-10-15 13:29:46.412,72937.862,0.257,0.479,-0.839,0.058,0.172,0.041,0.265,-0.408,0.413,0.297,-0.5,1.052
2024-10-15 13:29:46.422,72937.872,0.255,0.475,-0.842,0.072,0.081,0.058,0.363,-0.48,0.407,0.294,-0.495,1.055
2024-10-15 13:29:46.433,72937.882,0.253,0.471,-0.845,0.07,0.036,0.081,0.518,-0.483,0.365,0.291,-0.49,1.058
2024-10-15 13:29:46.443,72937.892,0.251,0.465,-0.849,0.04,-0.031,0.066,0.677,-0.428,0.31,0.287,-0.483,1.06
2024-10-15 13:29:46.452,72937.902,0.248,0.458,-0.854,0.015,-0.117,0.045,0.832,-0.381,0.219,0.283,-0.475,1.06
2024-10-15 13:29:46.462,72937.912,0.246,0.45,-0.859,0.011,-0.168,0.039,0.991,-0.316,0.159,0.279,-0.466,1.059
2024-10-15 13:29:46.473,72937.922,0.244,0.44,-0.864,0.011,-0.193,-0.001,1.121,-0.274,0.09,0.276,-0.456,1.058
2024-10-15 13:29:46.483,72937.932,0.242,0.43,-0.87,0.014,-0.179,-0.036,1.113,-0.272,0.027,0.272,-0.445,1.055
2024-10-15 13:29:46.493,72937.942,0.24,0.421,-0.875,0.006,-0.178,-0.035,1.0,-0.344,0.006,0.267,-0.434,1.052
2024-10-15 13:29:46.502,72937.952,0.236,0.413,-0.88,0.011,-0.202,0.015,0.816,-0.439,0.106,0.263,-0.426,1.05
2024-10-15 13:29:46.512,72937.962,0.232,0.405,-0.884,0.027,-0.166,0.059,0.823,-0.737,0.121,0.257,-0.417,1.049
2024-10-15 13:29:46.522,72937.972,0.228,0.398,-0.888,0.025,-0.02,0.033,0.473,-0.195,0.105,0.252,-0.41,1.048
2024-10-15 13:29:46.532,72937.982,0.227,0.396,-0.89,-0.109,0.054,-0.15,0.173,-0.12,-0.029,0.25,-0.407,1.048
2024-10-15 13:29:46.542,72937.992,0.228,0.393,-0.891,-0.306,0.039,-0.731,0.367,0.093,0.446,0.25,-0.404,1.049
2024-10-15 13:29:46.552,72938.002,0.231,0.39,-0.891,-0.22,0.165,-0.474,-0.04,0.235,0.316,0.254,-0.401,1.053
2024-10-15 13:29:46.562,72938.012,0.234,0.392,-0.89,-0.044,-0.036,-0.283,-0.618,0.081,0.361,0.257,-0.403,1.057
2024-10-15 13:29:46.572,72938.022,0.236,0.398,-0.886,0.002,-0.255,-0.317,-0.927,0.026,0.462,0.26,-0.41,1.064
2024-10-15 13:29:46.582,72938.032,0.237,0.404,-0.883,-0.005,-0.197,-0.117,-0.553,0.018,0.32,0.263,-0.416,1.07
2024-10-15 13:29:46.592,72938.042,0.239,0.405,-0.882,-0.006,-0.182,0.051,0.149,-0.008,0.242,0.264,-0.417,1.073
2024-10-15 13:29:46.603,72938.052,0.239,0.401,-0.884,0.069,-0.126,0.218,0.602,-0.096,0.056,0.264,-0.413,1.074
2024-10-15 13:29:46.613,72938.062,0.237,0.395,-0.888,0.191,-0.201,0.376,0.95,-0.224,-0.136,0.261,-0.406,1.071
2024-10-15 13:29:46.622,72938.072,0.234,0.387,-0.892,0.292,-0.394,0.455,0.709,-0.41,-0.126,0.257,-0.398,1.067
2024-10-15 13:29:46.632,72938.082,0.228,0.384,-0.895,0.318,-0.464,0.423,0.177,-0.662,-0.233,0.25,-0.394,1.064
2024-10-15 13:29:46.642,72938.092,0.221,0.384,-0.896,0.229,-0.427,0.31,-0.098,-0.667,-0.237,0.242,-0.394,1.062
2024-10-15 13:29:46.651,72938.102,0.215,0.383,-0.898,0.077,-0.136,0.116,0.459,-0.486,-0.284,0.235,-0.393,1.059
2024-10-15 13:29:46.661,72938.112,0.212,0.376,-0.902,-0.058,0.257,-0.022,1.259,0.151,-0.387,0.231,-0.386,1.053
2024-10-15 13:29:46.672,72938.122,0.213,0.365,-0.906,-0.172,0.517,-0.012,1.346,0.386,-0.372,0.231,-0.373,1.045
2024-10-15 13:29:46.682,72938.132,0.214,0.356,-0.91,-0.096,0.173,-0.065,0.582,-0.077,-0.181,0.231,-0.364,1.04
2024-10-15 13:29:46.692,72938.142,0.211,0.353,-0.911,0.093,-0.256,0.012,0.372,-0.341,-0.465,0.227,-0.361,1.036
2024-10-15 13:29:46.702,72938.152,0.207,0.35,-0.914,0.051,0.033,0.046,0.589,-0.227,-0.372,0.222,-0.357,1.03
2024-10-15 13:29:46.712,72938.162,0.205,0.344,-0.916,-0.169,0.456,-0.073,0.567,-0.025,0.087,0.22,-0.352,1.027
2024-10-15 13:29:46.723,72938.172,0.205,0.341,-0.917,-0.324,0.46,-0.194,0.229,0.014,0.156,0.22,-0.348,1.028
2024-10-15 13:29:46.732,72938.182,0.207,0.338,-0.918,-0.413,0.254,-0.252,0.187,0.182,0.188,0.222,-0.345,1.029
2024-10-15 13:29:46.742,72938.192,0.21,0.337,-0.918,-0.35,0.142,-0.274,-0.003,0.182,0.339,0.224,-0.344,1.032
2024-10-15 13:29:46.752,72938.201,0.212,0.337,-0.917,-0.191,-0.007,-0.29,-0.21,0.14,0.272,0.227,-0.344,1.035
2024-10-15 13:29:46.762,72938.211,0.215,0.341,-0.915,-0.086,-0.279,-0.303,-0.804,0.211,0.411,0.23,-0.348,1.04
2024-10-15 13:29:46.772,72938.221,0.218,0.352,-0.91,-0.045,-0.439,-0.411,-1.943,0.099,0.516,0.235,-0.36,1.048
2024-10-15 13:29:46.782,72938.231,0.22,0.37,-0.903,-0.044,-0.561,-0.353,-1.987,0.13,0.238,0.239,-0.379,1.057
2024-10-15 13:29:46.792,72938.241,0.223,0.383,-0.896,-0.048,-0.419,-0.215,-1.057,0.256,0.253,0.244,-0.393,1.063
2024-10-15 13:29:46.802,72938.251,0.226,0.389,-0.893,0.031,-0.1,-0.163,-0.407,0.341,0.165,0.248,-0.4,1.068
2024-10-15 13:29:46.812,72938.261,0.229,0.391,-0.891,0.171,-0.037,0.087,-0.079,0.209,-0.002,0.252,-0.402,1.069
2024-10-15 13:29:46.822,72938.271,0.23,0.391,-0.891,0.292,-0.28,0.309,0.038,-0.032,-0.062,0.253,-0.402,1.069
2024-10-15 13:29:46.831,72938.281,0.228,0.391,-0.892,0.438,-0.371,0.452,0.056,-0.278,-0.26,0.25,-0.402,1.067
2024-10-15 13:29:46.842,72938.291,0.223,0.392,-0.893,0.429,-0.33,0.472,-0.016,-0.462,-0.355,0.245,-0.402,1.064
2024-10-15 13:29:46.852,72938.301,0.218,0.393,-0.893,0.297,-0.244,0.374,-0.093,-0.475,-0.427,0.239,-0.404,1.06
2024-10-15 13:29:46.862,72938.311,0.212,0.394,-0.894,0.081,-0.04,0.209,0.122,-0.381,-0.326,0.233,-0.405,1.056
2024-10-15 13:29:46.871,72938.321,0.209,0.39,-0.897,-0.115,0.183,0.11,1.084,0.05,-0.446,0.229,-0.401,1.05
2024-10-15 13:29:46.882,72938.331,0.21,0.378,-0.902,-0.185,0.418,0.208,1.586,0.489,-0.602,0.229,-0.388,1.041
2024-10-15 13:29:46.892,72938.341,0.211,0.368,-0.906,-0.156,0.286,0.173,0.906,0.124,-0.453,0.229,-0.377,1.033
2024-10-15 13:29:46.901,72938.351,0.208,0.364,-0.908,-0.005,-0.341,0.127,0.246,-0.264,-0.579,0.226,-0.372,1.026
2024-10-15 13:29:46.911,72938.361,0.203,0.365,-0.909,0.049,-0.341,0.04,-0.127,-0.311,-0.458,0.22,-0.373,1.02
2024-10-15 13:29:46.921,72938.371,0.2,0.367,-0.909,-0.173,0.248,-0.204,-0.044,-0.124,-0.038,0.217,-0.375,1.018
2024-10-15 13:29:46.931,72938.381,0.202,0.366,-0.909,-0.419,0.593,-0.295,0.162,0.269,0.182,0.219,-0.374,1.019
2024-10-15 13:29:46.942,72938.391,0.206,0.363,-0.909,-0.535,0.713,-0.311,0.369,0.439,0.308,0.223,-0.371,1.021
2024-10-15 13:29:46.951,72938.401,0.211,0.36,-0.909,-0.388,0.449,-0.244,0.118,0.282,0.371,0.228,-0.368,1.024
2024-10-15 13:29:46.961,72938.411,0.214,0.359,-0.909,-0.098,0.001,-0.209,-0.068,0.11,0.313,0.231,-0.367,1.027
2024-10-15 13:29:46.971,72938.421,0.216,0.36,-0.908,0.044,-0.25,-0.246,-0.401,0.197,0.326,0.234,-0.368,1.031
2024-10-15 13:29:46.982,72938.431,0.219,0.367,-0.904,0.033,-0.334,-0.388,-1.294,0.187,0.356,0.237,-0.375,1.037
2024-10-15 13:29:46.991,72938.441,0.222,0.381,-0.898,-0.065,-0.429,-0.455,-1.862,0.345,0.321,0.243,-0.39,1.044
2024-10-15 13:29:47.002,72938.451,0.227,0.395,-0.89,-0.132,-0.436,-0.277,-1.501,0.347,0.404,0.25,-0.406,1.053
2024-10-15 13:29:47.011,72938.461,0.232,0.405,-0.885,-0.06,-0.244,-0.174,-0.801,0.388,0.315,0.256,-0.417,1.06
2024-10-15 13:29:47.021,72938.471,0.236,0.408,-0.882,0.131,-0.061,0.058,-0.21,0.272,0.112,0.261,-0.421,1.063
2024-10-15 13:29:47.031,72938.481,0.237,0.409,-0.881,0.294,-0.157,0.28,-0.002,-0.02,-0.075,0.263,-0.422,1.064
2024-10-15 13:29:47.042,72938.491,0.235,0.409,-0.882,0.435,-0.342,0.421,0.047,-0.26,-0.21,0.26,-0.422,1.062
2024-10-15 13:29:47.051,72938.501,0.231,0.409,-0.883,0.448,-0.393,0.498,0.049,-0.406,-0.288,0.256,-0.422,1.059
2024-10-15 13:29:47.061,72938.511,0.226,0.41,-0.884,0.333,-0.324,0.462,0.053,-0.479,-0.297,0.25,-0.422,1.056
2024-10-15 13:29:47.071,72938.521,0.22,0.41,-0.885,0.18,-0.15,0.318,0.099,-0.474,-0.387,0.244,-0.422,1.052
2024-10-15 13:29:47.082,72938.531,0.215,0.407,-0.888,-0.013,0.119,0.117,0.868,-0.178,-0.385,0.238,-0.419,1.047
2024-10-15 13:29:47.091,72938.541,0.214,0.396,-0.893,-0.169,0.38,0.162,1.626,0.35,-0.514,0.236,-0.407,1.039
2024-10-15 13:29:47.101,72938.551,0.215,0.384,-0.898,-0.142,0.355,0.266,1.129,0.127,-0.419,0.235,-0.395,1.03
2024-10-15 13:29:47.112,72938.561,0.212,0.38,-0.9,0.011,-0.244,0.215,0.096,-0.455,-0.392,0.231,-0.39,1.025
2024-10-15 13:29:47.121,72938.571,0.205,0.382,-0.901,0.129,-0.495,0.09,-0.26,-0.6,-0.493,0.224,-0.392,1.02
2024-10-15 13:29:47.131,72938.581,0.2,0.384,-0.901,-0.111,0.157,-0.185,0.12,-0.133,-0.173,0.219,-0.394,1.017
2024-10-15 13:29:47.141,72938.591,0.202,0.381,-0.902,-0.471,0.718,-0.39,0.325,0.373,0.225,0.22,-0.391,1.017
2024-10-15 13:29:47.151,72938.601,0.207,0.378,-0.903,-0.628,0.726,-0.44,0.345,0.422,0.341,0.225,-0.387,1.019
2024-10-15 13:29:47.161,72938.611,0.211,0.374,-0.903,-0.432,0.329,-0.268,0.244,0.329,0.279,0.23,-0.384,1.021
2024-10-15 13:29:47.171,72938.621,0.214,0.373,-0.903,-0.09,-0.017,-0.157,0.005,0.044,0.294,0.233,-0.382,1.024
2024-10-15 13:29:47.181,72938.631,0.215,0.372,-0.903,0.063,-0.22,-0.167,-0.129,0.065,0.259,0.234,-0.382,1.027
2024-10-15 13:29:47.191,72938.641,0.218,0.375,-0.901,0.037,-0.266,-0.274,-0.618,0.268,0.247,0.237,-0.384,1.031
2024-10-15 13:29:47.201,72938.651,0.221,0.384,-0.897,-0.062,-0.274,-0.439,-1.364,0.269,0.266,0.242,-0.394,1.036
2024-10-15 13:29:47.211,72938.661,0.226,0.396,-0.89,-0.109,-0.379,-0.47,-1.562,0.487,0.277,0.248,-0.408,1.043
2024-10-15 13:29:47.221,72938.671,0.232,0.408,-0.883,-0.095,-0.255,-0.304,-1.074,0.474,0.409,0.256,-0.42,1.05
2024-10-15 13:29:47.231,72938.681,0.237,0.414,-0.879,0.005,-0.025,-0.119,-0.514,0.442,0.282,0.264,-0.426,1.056
2024-10-15 13:29:47.242,72938.691,0.241,0.416,-0.877,0.213,-0.0,0.178,-0.118,0.166,0.15,0.268,-0.429,1.059
2024-10-15 13:29:47.251,72938.701,0.241,0.416,-0.877,0.39,-0.199,0.414,0.015,-0.19,-0.052,0.268,-0.429,1.06
2024-10-15 13:29:47.261,72938.711,0.238,0.416,-0.878,0.491,-0.37,0.533,0.114,-0.331,-0.148,0.265,-0.429,1.059
2024-10-15 13:29:47.271,72938.721,0.234,0.415,-0.879,0.421,-0.352,0.536,0.203,-0.483,-0.153,0.26,-0.428,1.057
2024-10-15 13:29:47.281,72938.731,0.229,0.413,-0.882,0.232,-0.242,0.406,0.388,-0.503,-0.25,0.254,-0.425,1.054
2024-10-15 13:29:47.291,72938.741,0.224,0.409,-0.885,0.04,0.005,0.217,0.706,-0.395,-0.235,0.248,-0.421,1.05
2024-10-15 13:29:47.301,72938.751,0.221,0.4,-0.89,-0.122,0.25,0.115,1.466,0.063,-0.302,0.244,-0.411,1.044
2024-10-15 13:29:47.311,72938.761,0.221,0.387,-0.895,-0.147,0.351,0.224,1.407,0.164,-0.367,0.242,-0.397,1.036
2024-10-15 13:29:47.321,72938.771,0.22,0.379,-0.899,-0.039,0.104,0.193,0.532,-0.297,-0.265,0.24,-0.389,1.031
2024-10-15 13:29:47.331,72938.78,0.215,0.377,-0.901,0.093,-0.338,0.109,0.193,-0.465,-0.372,0.234,-0.386,1.027
2024-10-15 13:29:47.341,72938.79,0.21,0.375,-0.903,-0.046,-0.024,-0.05,0.406,-0.129,-0.275,0.229,-0.384,1.022
2024-10-15 13:29:47.351,72938.8,0.211,0.372,-0.904,-0.384,0.57,-0.266,0.381,0.237,0.07,0.229,-0.381,1.02
2024-10-15 13:29:47.361,72938.81,0.214,0.369,-0.905,-0.565,0.471,-0.391,0.248,0.28,0.207,0.232,-0.377,1.021
2024-10-15 13:29:47.371,72938.82,0.217,0.366,-0.905,-0.476,0.156,-0.351,0.293,0.369,0.155,0.236,-0.374,1.022
2024-10-15 13:29:47.381,72938.83,0.221,0.364,-0.905,-0.268,0.058,-0.251,0.032,0.301,0.294,0.24,-0.372,1.024
2024-10-15 13:29:47.390,72938.84,0.224,0.364,-0.904,-0.101,-0.262,-0.191,-0.289,0.139,0.226,0.243,-0.373,1.027
2024-10-15 13:29:47.401,72938.85,0.227,0.369,-0.901,0.004,-0.472,-0.201,-0.973,0.175,0.173,0.246,-0.378,1.031
2024-10-15 13:29:47.411,72938.86,0.229,0.38,-0.896,-0.013,-0.308,-0.328,-1.349,0.143,0.277,0.25,-0.389,1.036
2024-10-15 13:29:47.421,72938.87,0.232,0.39,-0.891,-0.037,-0.308,-0.313,-1.035,0.281,0.203,0.254,-0.401,1.042
2024-10-15 13:29:47.431,72938.88,0.235,0.397,-0.887,0.002,-0.127,-0.228,-0.601,0.302,0.22,0.259,-0.408,1.047
2024-10-15 13:29:47.441,72938.89,0.238,0.401,-0.885,0.111,0.038,-0.083,-0.371,0.211,0.065,0.263,-0.412,1.049
2024-10-15 13:29:47.450,72938.9,0.239,0.403,-0.883,0.279,-0.13,0.105,-0.305,0.014,0.009,0.265,-0.415,1.051
2024-10-15 13:29:47.460,72938.91,0.239,0.406,-0.882,0.36,-0.235,0.194,-0.262,-0.125,-0.072,0.264,-0.418,1.051
2024-10-15 13:29:47.470,72938.92,0.237,0.408,-0.882,0.34,-0.207,0.271,-0.189,-0.177,-0.057,0.263,-0.42,1.051
2024-10-15 13:29:47.481,72938.93,0.235,0.41,-0.881,0.258,-0.15,0.264,-0.188,-0.183,-0.029,0.261,-0.422,1.051
2024-10-15 13:29:47.491,72938.94,0.233,0.412,-0.881,0.149,-0.097,0.157,-0.26,-0.138,-0.07,0.259,-0.425,1.051
2024-10-15 13:29:47.501,72938.95,0.232,0.415,-0.88,0.026,-0.04,0.017,-0.361,-0.062,-0.092,0.258,-0.428,1.051
2024-10-15 13:29:47.510,72938.96,0.232,0.419,-0.878,-0.085,-0.023,-0.082,-0.434,0.063,-0.117,0.258,-0.432,1.051
2024-10-15 13:29:47.520,72938.97,0.232,0.423,-0.876,-0.133,-0.023,-0.096,-0.33,0.206,-0.167,0.259,-0.436,1.051
2024-10-15 13:29:47.530,72938.98,0.234,0.424,-0.875,-0.134,-0.07,-0.035,0.313,0.467,-0.506,0.261,-0.437,1.048
2024-10-15 13:29:47.540,72938.99,0.237,0.421,-0.875,-0.118,-0.056,0.015,0.412,0.857,-0.704,0.265,-0.435,1.04
2024-10-15 13:29:47.550,72939.0,0.242,0.423,-0.873,-0.121,-0.263,-0.003,-0.431,0.795,-0.589,0.27,-0.436,1.033
2024-10-15 13:29:47.561,72939.01,0.246,0.43,-0.869,-0.015,-0.749,-0.054,-0.788,0.869,-0.555,0.276,-0.444,1.029
2024-10-15 13:29:47.571,72939.02,0.253,0.437,-0.863,0.067,-0.466,-0.118,-0.416,1.134,-0.519,0.285,-0.452,1.025
2024-10-15 13:29:47.581,72939.03,0.262,0.439,-0.859,0.06,0.203,-0.143,0.108,1.496,-0.334,0.296,-0.454,1.021
2024-10-15 13:29:47.590,72939.04,0.274,0.437,-0.856,0.066,0.484,-0.13,0.361,1.608,-0.202,0.31,-0.453,1.017
2024-10-15 13:29:47.600,72939.05,0.287,0.435,-0.853,0.142,0.416,-0.132,0.276,1.479,-0.141,0.324,-0.45,1.014
2024-10-15 13:29:47.610,72939.06,0.298,0.434,-0.85,0.23,0.219,-0.123,0.007,1.208,-0.082,0.337,-0.449,1.013
2024-10-15 13:29:47.621,72939.07,0.307,0.435,-0.846,0.259,0.123,-0.097,-0.178,0.98,0.007,0.348,-0.45,1.013
2024-10-15 13:29:47.630,72939.08,0.315,0.437,-0.843,0.221,0.109,-0.034,-0.237,0.834,0.079,0.357,-0.452,1.014
2024-10-15 13:29:47.640,72939.09,0.322,0.438,-0.839,0.151,0.099,0.036,-0.252,0.722,0.13,0.366,-0.454,1.016
2024-10-15 13:29:47.650,72939.1,0.328,0.44,-0.836,0.106,0.071,0.098,-0.229,0.58,0.152,0.374,-0.456,1.018
2024-10-15 13:29:47.660,72939.11,0.332,0.441,-0.834,0.129,-0.008,0.144,-0.242,0.345,0.193,0.379,-0.457,1.021
2024-10-15 13:29:47.670,72939.12,0.335,0.443,-0.832,0.21,-0.093,0.181,-0.239,0.079,0.226,0.383,-0.458,1.024
2024-10-15 13:29:47.681,72939.13,0.336,0.444,-0.831,0.278,-0.138,0.192,-0.249,-0.147,0.196,0.384,-0.46,1.027
2024-10-15 13:29:47.690,72939.14,0.334,0.446,-0.83,0.291,-0.16,0.179,-0.303,-0.335,0.071,0.383,-0.462,1.03
2024-10-15 13:29:47.700,72939.15,0.331,0.448,-0.83,0.251,-0.191,0.149,-0.259,-0.448,-0.048,0.379,-0.465,1.031
2024-10-15 13:29:47.710,72939.16,0.327,0.45,-0.831,0.18,-0.203,0.111,-0.129,-0.502,-0.128,0.375,-0.467,1.031
2024-10-15 13:29:47.720,72939.17,0.322,0.451,-0.833,0.09,-0.134,0.069,0.076,-0.543,-0.131,0.369,-0.467,1.03
2024-10-15 13:29:47.730,72939.18,0.316,0.45,-0.835,0.03,-0.097,0.047,0.289,-0.595,-0.172,0.362,-0.466,1.028
2024-10-15 13:29:47.740,72939.19,0.31,0.447,-0.839,-0.007,-0.102,0.011,0.485,-0.663,-0.191,0.354,-0.463,1.024
2024-10-15 13:29:47.751,72939.2,0.303,0.443,-0.844,-0.039,-0.062,-0.011,0.637,-0.752,-0.218,0.345,-0.459,1.02
2024-10-15 13:29:47.760,72939.21,0.296,0.438,-0.849,-0.068,-0.02,-0.017,0.747,-0.77,-0.248,0.335,-0.453,1.015
2024-10-15 13:29:47.770,72939.22,0.289,0.432,-0.855,-0.111,0.024,-0.006,0.794,-0.734,-0.185,0.326,-0.446,1.01
2024-10-15 13:29:47.780,72939.23,0.282,0.425,-0.86,-0.149,0.027,0.038,0.744,-0.728,-0.118,0.317,-0.44,1.005
2024-10-15 13:29:47.790,72939.24,0.275,0.42,-0.865,-0.153,-0.005,0.079,0.618,-0.746,-0.041,0.308,-0.433,1.002
2024-10-15 13:29:47.800,72939.25,0.268,0.415,-0.869,-0.141,-0.037,0.08,0.445,-0.739,0.013,0.3,-0.428,1.0
2024-10-15 13:29:47.810,72939.26,0.262,0.412,-0.873,-0.146,-0.051,0.04,0.251,-0.678,0.06,0.292,-0.425,1.0
2024-10-15 13:29:47.820,72939.27,0.257,0.41,-0.875,-0.168,-0.047,-0.002,0.113,-0.6,0.09,0.286,-0.423,1.0
2024-10-15 13:29:47.830,72939.28,0.252,0.409,-0.877,-0.184,-0.031,-0.027,0.063,-0.547,0.092,0.28,-0.422,1.001
2024-10-15 13:29:47.840,72939.29,0.248,0.409,-0.878,-0.189,-0.014,-0.033,0.055,-0.503,0.073,0.275,-0.421,1.001
2024-10-15 13:29:47.850,72939.3,0.244,0.408,-0.88,-0.184,-0.02,-0.008,0.048,-0.517,0.055,0.271,-0.42,1.002
2024-10-15 13:29:47.860,72939.31,0.239,0.408,-0.881,-0.162,-0.052,0.023,0.021,-0.584,0.029,0.265,-0.42,1.002
2024-10-15 13:29:47.870,72939.32,0.234,0.407,-0.883,-0.129,-0.083,0.056,0.017,-0.678,0.007,0.259,-0.42,1.002
2024-10-15 13:29:47.880,72939.33,0.228,0.407,-0.884,-0.101,-0.109,0.083,0.004,-0.767,-0.041,0.252,-0.419,1.002
2024-10-15 13:29:47.890,72939.34,0.22,0.408,-0.886,-0.094,-0.128,0.102,-0.102,-0.851,-0.064,0.244,-0.42,1.002
2024-10-15 13:29:47.900,72939.35,0.212,0.409,-0.887,-0.102,-0.146,0.12,-0.185,-0.884,-0.099,0.235,-0.422,1.001
2024-10-15 13:29:47.910,72939.36,0.204,0.411,-0.888,-0.122,-0.14,0.147,-0.216,-0.879,-0.103,0.226,-0.424,1.001
2024-10-15 13:29:47.919,72939.369,0.196,0.413,-0.889,-0.138,-0.126,0.144,-0.227,-0.841,-0.081,0.217,-0.426,1.0
2024-10-15 13:29:47.929,72939.379,0.188,0.415,-0.89,-0.144,-0.106,0.105,-0.179,-0.781,-0.071,0.208,-0.428,1.0
2024-10-15 13:29:47.940,72939.389,0.181,0.417,-0.891,-0.14,-0.076,0.063,-0.075,-0.716,-0.12,0.201,-0.43,0.999
2024-10-15 13:29:47.950,72939.399,0.174,0.417,-0.892,-0.124,-0.033,0.03,0.044,-0.685,-0.187,0.193,-0.43,0.997
2024-10-15 13:29:47.959,72939.409,0.168,0.417,-0.893,-0.091,-0.013,0.007,0.101,-0.647,-0.221,0.185,-0.43,0.995
2024-10-15 13:29:47.970,72939.419,0.161,0.416,-0.895,-0.061,0.001,0.001,0.198,-0.613,-0.194,0.178,-0.429,0.992
2024-10-15 13:29:47.980,72939.429,0.155,0.413,-0.898,-0.046,0.049,-0.047,0.639,-0.642,-0.172,0.171,-0.425,0.99
2024-10-15 13:29:47.990,72939.439,0.149,0.405,-0.902,-0.039,0.223,-0.128,1.192,-0.453,-0.134,0.164,-0.416,0.986
2024-10-15 13:29:48.000,72939.449,0.146,0.392,-0.908,-0.104,0.421,-0.184,1.462,-0.246,-0.056,0.159,-0.403,0.983
2024-10-15 13:29:48.010,72939.459,0.144,0.379,-0.914,-0.155,0.481,-0.219,1.368,-0.1,-0.036,0.156,-0.389,0.98
2024-10-15 13:29:48.019,72939.469,0.143,0.368,-0.919,-0.149,0.312,-0.221,1.124,-0.048,0.066,0.155,-0.377,0.978
2024-10-15 13:29:48.029,72939.479,0.144,0.358,-0.923,-0.109,0.144,-0.157,0.954,0.007,0.169,0.154,-0.366,0.978
2024-10-15 13:29:48.039,72939.489,0.145,0.351,-0.925,-0.081,0.041,-0.071,0.604,0.033,0.222,0.155,-0.358,0.979
2024-10-15 13:29:48.049,72939.499,0.145,0.346,-0.927,-0.071,-0.049,0.015,0.328,-0.093,0.249,0.155,-0.353,0.98
2024-10-15 13:29:48.059,72939.509,0.144,0.343,-0.928,-0.027,-0.134,0.078,0.206,-0.302,0.334,0.154,-0.35,0.983
2024-10-15 13:29:48.069,72939.519,0.142,0.341,-0.929,0.024,-0.107,0.12,0.273,-0.515,0.394,0.151,-0.348,0.986
2024-10-15 13:29:48.080,72939.529,0.137,0.334,-0.932,0.033,-0.009,0.138,1.156,-0.577,0.377,0.146,-0.341,0.989
2024-10-15 13:29:48.090,72939.539,0.135,0.321,-0.937,-0.001,0.137,0.147,1.41,-0.122,-0.04,0.143,-0.327,0.989
2024-10-15 13:29:48.100,72939.549,0.135,0.31,-0.941,-0.113,0.261,-0.221,1.103,-0.011,0.248,0.142,-0.315,0.988
2024-10-15 13:29:48.110,72939.559,0.136,0.3,-0.944,-0.179,-0.116,-0.487,0.643,0.088,0.608,0.143,-0.305,0.992
2024-10-15 13:29:48.120,72939.569,0.139,0.297,-0.945,0.036,-0.411,-0.291,-0.149,0.282,0.242,0.146,-0.302,0.996
2024-10-15 13:29:48.130,72939.579,0.143,0.301,-0.943,0.08,-0.401,-0.316,-0.687,0.24,0.227,0.15,-0.306,0.998
2024-10-15 13:29:48.140,72939.589,0.145,0.308,-0.94,0.153,-0.486,-0.222,-0.755,0.079,0.15,0.153,-0.313,1.002
2024-10-15 13:29:48.150,72939.599,0.145,0.315,-0.938,0.26,-0.416,-0.026,-0.589,-0.09,-0.053,0.153,-0.32,1.003
2024-10-15 13:29:48.160,72939.609,0.143,0.318,-0.937,0.256,-0.36,0.146,-0.087,-0.23,-0.181,0.151,-0.324,1.003
2024-10-15 13:29:48.169,72939.619,0.14,0.317,-0.938,0.263,-0.207,0.334,0.413,-0.271,-0.256,0.148,-0.322,1.0
2024-10-15 13:29:48.180,72939.629,0.136,0.312,-0.94,0.221,-0.01,0.404,0.498,-0.414,-0.166,0.144,-0.318,0.997
2024-10-15 13:29:48.189,72939.639,0.131,0.308,-0.942,0.158,0.054,0.386,0.428,-0.498,-0.132,0.138,-0.314,0.995
2024-10-15 13:29:48.200,72939.649,0.126,0.303,-0.945,0.069,0.175,0.297,0.83,-0.412,-0.215,0.133,-0.308,0.992
2024-10-15 13:29:48.209,72939.659,0.122,0.293,-0.948,-0.016,0.388,0.236,1.403,-0.277,-0.305,0.128,-0.297,0.988
2024-10-15 13:29:48.219,72939.669,0.119,0.28,-0.953,-0.035,0.466,0.075,1.08,-0.396,-0.072,0.124,-0.284,0.984
2024-10-15 13:29:48.229,72939.679,0.114,0.274,-0.955,-0.049,0.181,-0.109,0.443,-0.637,-0.056,0.118,-0.277,0.983
2024-10-15 13:29:48.239,72939.689,0.107,0.27,-0.957,-0.115,0.086,-0.19,0.44,-0.62,0.006,0.112,-0.273,0.982
2024-10-15 13:29:48.249,72939.699,0.103,0.264,-0.959,-0.294,0.367,-0.286,0.606,-0.413,0.352,0.107,-0.268,0.983
2024-10-15 13:29:48.260,72939.709,0.101,0.258,-0.961,-0.442,0.389,-0.298,0.589,-0.188,0.471,0.105,-0.261,0.987
2024-10-15 13:29:48.269,72939.719,0.102,0.252,-0.962,-0.496,0.16,-0.235,0.515,0.103,0.471,0.105,-0.255,0.991
2024-10-15 13:29:48.280,72939.729,0.105,0.25,-0.963,-0.447,-0.053,-0.191,-0.237,0.233,0.65,0.109,-0.252,0.996
2024-10-15 13:29:48.289,72939.739,0.108,0.258,-0.96,-0.284,-0.387,-0.238,-1.692,0.069,0.832,0.112,-0.261,1.005
2024-10-15 13:29:48.299,72939.749,0.111,0.276,-0.955,-0.14,-0.662,-0.188,-2.181,0.123,0.584,0.116,-0.28,1.015
2024-10-15 13:29:48.309,72939.759,0.115,0.294,-0.949,-0.075,-0.504,-0.044,-1.465,0.328,0.519,0.12,-0.298,1.023
2024-10-15 13:29:48.319,72939.769,0.12,0.303,-0.945,-0.011,-0.201,-0.15,-0.775,0.449,0.487,0.126,-0.308,1.03
2024-10-15 13:29:48.329,72939.779,0.125,0.309,-0.943,0.155,-0.168,-0.169,-0.586,0.426,0.142,0.132,-0.314,1.034
2024-10-15 13:29:48.339,72939.789,0.128,0.315,-0.941,0.277,-0.364,-0.018,-0.652,0.181,-0.005,0.136,-0.32,1.035
2024-10-15 13:29:48.349,72939.799,0.128,0.32,-0.939,0.419,-0.545,0.209,-0.505,-0.167,-0.19,0.136,-0.326,1.035
2024-10-15 13:29:48.359,72939.809,0.124,0.324,-0.938,0.504,-0.469,0.378,-0.295,-0.412,-0.347,0.132,-0.33,1.033
2024-10-15 13:29:48.369,72939.819,0.118,0.326,-0.938,0.43,-0.245,0.405,-0.061,-0.605,-0.301,0.126,-0.333,1.03
2024-10-15 13:29:48.379,72939.829,0.112,0.327,-0.939,0.27,-0.016,0.321,0.086,-0.595,-0.309,0.118,-0.333,1.026
2024-10-15 13:29:48.389,72939.839,0.106,0.326,-0.94,0.053,0.293,0.176,0.219,-0.402,-0.237,0.112,-0.332,1.023
2024-10-15 13:29:48.399,72939.849,0.102,0.321,-0.941,-0.156,0.437,0.101,0.757,-0.168,-0.208,0.108,-0.327,1.021
2024-10-15 13:29:48.409,72939.859,0.102,0.311,-0.945,-0.173,0.417,0.253,1.4,0.147,-0.295,0.107,-0.316,1.017
2024-10-15 13:29:48.419,72939.869,0.101,0.299,-0.949,-0.043,0.362,0.328,1.139,-0.167,-0.202,0.106,-0.303,1.012
2024-10-15 13:29:48.429,72939.879,0.097,0.291,-0.952,0.118,0.039,0.227,0.58,-0.517,-0.338,0.102,-0.295,1.009
2024-10-15 13:29:48.439,72939.889,0.091,0.287,-0.954,0.088,-0.138,0.015,0.406,-0.535,-0.378,0.095,-0.291,1.004
2024-10-15 13:29:48.449,72939.899,0.087,0.283,-0.955,-0.217,0.099,-0.3,0.466,-0.118,-0.131,0.09,-0.287,1.001
2024-10-15 13:29:48.459,72939.909,0.088,0.279,-0.956,-0.524,0.308,-0.44,0.312,0.258,0.199,0.091,-0.283,1.001
2024-10-15 13:29:48.469,72939.919,0.091,0.277,-0.957,-0.625,0.164,-0.36,0.079,0.37,0.288,0.095,-0.281,1.004
2024-10-15 13:29:48.479,72939.929,0.095,0.277,-0.956,-0.445,-0.08,-0.162,-0.081,0.311,0.231,0.1,-0.28,1.007
2024-10-15 13:29:48.489,72939.939,0.099,0.278,-0.955,-0.192,-0.216,-0.079,-0.257,0.257,0.231,0.103,-0.282,1.009
2024-10-15 13:29:48.499,72939.948,0.102,0.282,-0.954,-0.05,-0.308,-0.127,-0.758,0.351,0.26,0.107,-0.286,1.012
2024-10-15 13:29:48.509,72939.958,0.106,0.292,-0.95,-0.033,-0.396,-0.236,-1.454,0.292,0.336,0.111,-0.297,1.016
2024-10-15 13:29:48.519,72939.968,0.11,0.306,-0.946,-0.048,-0.364,-0.24,-1.385,0.424,0.264,0.116,-0.311,1.021
2024-10-15 13:29:48.529,72939.978,0.116,0.317,-0.941,-0.009,-0.224,-0.211,-0.961,0.512,0.349,0.122,-0.322,1.026
2024-10-15 13:29:48.539,72939.988,0.121,0.324,-0.938,0.117,-0.109,-0.228,-0.666,0.471,0.231,0.129,-0.33,1.03
2024-10-15 13:29:48.549,72939.998,0.125,0.33,-0.936,0.321,-0.194,-0.076,-0.584,0.233,-0.049,0.133,-0.336,1.032
2024-10-15 13:29:48.559,72940.008,0.125,0.334,-0.934,0.461,-0.328,0.115,-0.309,-0.068,-0.295,0.133,-0.34,1.031
2024-10-15 13:29:48.569,72940.018,0.122,0.336,-0.934,0.519,-0.333,0.287,-0.048,-0.33,-0.418,0.13,-0.343,1.027
2024-10-15 13:29:48.579,72940.028,0.116,0.336,-0.935,0.453,-0.25,0.34,0.099,-0.592,-0.46,0.124,-0.343,1.023
2024-10-15 13:29:48.589,72940.038,0.109,0.334,-0.936,0.271,-0.088,0.297,0.425,-0.526,-0.445,0.116,-0.341,1.017
2024-10-15 13:29:48.598,72940.048,0.104,0.329,-0.939,0.013,0.303,0.249,0.887,-0.336,-0.319,0.11,-0.335,1.013
2024-10-15 13:29:48.608,72940.058,0.102,0.318,-0.942,-0.184,0.492,0.25,1.404,0.114,-0.371,0.108,-0.324,1.008
2024-10-15 13:29:48.619,72940.068,0.102,0.307,-0.946,-0.174,0.362,0.288,0.934,-0.118,-0.159,0.107,-0.312,1.004
2024-10-15 13:29:48.629,72940.078,0.098,0.301,-0.949,-0.014,-0.026,0.21,0.579,-0.567,-0.287,0.103,-0.305,1.001
2024-10-15 13:29:48.638,72940.088,0.092,0.294,-0.952,0.069,-0.098,0.188,0.984,-0.431,-0.401,0.096,-0.298,0.996
2024-10-15 13:29:48.649,72940.098,0.088,0.285,-0.955,-0.162,0.376,-0.022,0.908,-0.273,-0.131,0.091,-0.289,0.992
2024-10-15 13:29:48.659,72940.108,0.086,0.278,-0.957,-0.392,0.406,-0.29,0.421,-0.088,0.176,0.089,-0.282,0.992
2024-10-15 13:29:48.668,72940.118,0.087,0.275,-0.957,-0.526,0.115,-0.409,0.246,0.218,0.28,0.091,-0.279,0.994
2024-10-15 13:29:48.679,72940.128,0.09,0.273,-0.958,-0.539,0.042,-0.285,0.121,0.269,0.314,0.094,-0.277,0.997
2024-10-15 13:29:48.688,72940.138,0.094,0.272,-0.958,-0.352,-0.129,-0.136,-0.045,0.222,0.303,0.097,-0.276,1.0
2024-10-15 13:29:48.698,72940.148,0.096,0.274,-0.957,-0.147,-0.372,-0.111,-0.343,0.193,0.207,0.1,-0.277,1.003
2024-10-15 13:29:48.708,72940.158,0.099,0.279,-0.955,-0.057,-0.422,-0.187,-0.889,0.231,0.165,0.103,-0.283,1.006
2024-10-15 13:29:48.718,72940.168,0.102,0.29,-0.951,-0.069,-0.35,-0.321,-1.358,0.325,0.245,0.107,-0.294,1.009
2024-10-15 13:29:48.729,72940.178,0.107,0.303,-0.947,-0.125,-0.265,-0.328,-1.243,0.478,0.288,0.112,-0.307,1.013
2024-10-15 13:29:48.738,72940.188,0.112,0.312,-0.943,-0.136,-0.124,-0.238,-0.802,0.512,0.392,0.119,-0.317,1.018
2024-10-15 13:29:48.748,72940.198,0.118,0.317,-0.941,0.015,-0.002,-0.079,-0.5,0.463,0.289,0.125,-0.323,1.023
2024-10-15 13:29:48.758,72940.208,0.122,0.321,-0.939,0.249,-0.086,0.114,-0.351,0.213,0.089,0.129,-0.327,1.025
2024-10-15 13:29:48.768,72940.218,0.123,0.324,-0.938,0.439,-0.333,0.249,-0.324,-0.075,-0.189,0.13,-0.33,1.025
2024-10-15 13:29:48.779,72940.228,0.12,0.327,-0.937,0.541,-0.444,0.37,-0.141,-0.335,-0.339,0.127,-0.333,1.022
2024-10-15 13:29:48.788,72940.238,0.114,0.327,-0.938,0.496,-0.375,0.415,0.236,-0.602,-0.376,0.121,-0.333,1.019
2024-10-15 13:29:48.798,72940.248,0.107,0.323,-0.94,0.374,-0.095,0.373,0.788,-0.664,-0.442,0.113,-0.329,1.014
2024-10-15 13:29:48.808,72940.258,0.1,0.313,-0.944,0.162,0.372,0.257,1.439,-0.232,-0.647,0.106,-0.318,1.007
2024-10-15 13:29:48.819,72940.268,0.099,0.3,-0.949,-0.119,0.579,0.153,1.337,0.107,-0.423,0.104,-0.304,0.999
2024-10-15 13:29:48.828,72940.278,0.097,0.29,-0.952,-0.22,0.165,0.137,0.76,-0.257,-0.264,0.102,-0.294,0.995
2024-10-15 13:29:48.838,72940.288,0.093,0.284,-0.954,-0.021,-0.174,0.211,0.721,-0.377,-0.354,0.097,-0.287,0.991
2024-10-15 13:29:48.848,72940.298,0.089,0.278,-0.957,0.026,0.187,0.083,0.593,-0.345,-0.259,0.092,-0.281,0.987
2024-10-15 13:29:48.858,72940.308,0.086,0.273,-0.958,-0.166,0.463,-0.192,0.414,-0.017,-0.027,0.09,-0.276,0.985
2024-10-15 13:29:48.868,72940.318,0.088,0.269,-0.959,-0.436,0.422,-0.374,0.301,0.289,0.219,0.091,-0.273,0.986
2024-10-15 13:29:48.879,72940.328,0.092,0.267,-0.959,-0.543,0.248,-0.327,0.12,0.383,0.356,0.096,-0.27,0.989
2024-10-15 13:29:48.888,72940.338,0.096,0.266,-0.959,-0.368,-0.012,-0.121,0.079,0.251,0.289,0.1,-0.269,0.992
2024-10-15 13:29:48.899,72940.348,0.099,0.265,-0.959,-0.128,-0.21,-0.034,-0.053,0.195,0.259,0.103,-0.269,0.995
2024-10-15 13:29:48.908,72940.358,0.102,0.267,-0.958,-0.047,-0.243,-0.085,-0.499,0.302,0.299,0.106,-0.271,0.998
2024-10-15 13:29:48.918,72940.368,0.106,0.276,-0.955,-0.102,-0.356,-0.233,-1.546,0.253,0.555,0.11,-0.28,1.003
2024-10-15 13:29:48.928,72940.378,0.11,0.293,-0.95,-0.165,-0.426,-0.328,-1.861,0.488,0.467,0.116,-0.297,1.011
2024-10-15 13:29:48.938,72940.388,0.117,0.307,-0.944,-0.185,-0.23,-0.215,-1.343,0.649,0.554,0.124,-0.313,1.018
2024-10-15 13:29:48.948,72940.398,0.125,0.317,-0.94,-0.097,-0.059,-0.224,-0.798,0.546,0.494,0.132,-0.322,1.025
2024-10-15 13:29:48.958,72940.408,0.13,0.322,-0.938,0.21,-0.237,-0.09,-0.525,0.258,0.143,0.138,-0.328,1.029
2024-10-15 13:29:48.968,72940.418,0.131,0.327,-0.936,0.44,-0.397,0.059,-0.38,-0.041,-0.19,0.139,-0.333,1.03
2024-10-15 13:29:48.978,72940.428,0.128,0.329,-0.935,0.505,-0.5,0.173,-0.159,-0.265,-0.378,0.136,-0.336,1.027
2024-10-15 13:29:48.988,72940.438,0.124,0.331,-0.936,0.455,-0.49,0.267,-0.057,-0.401,-0.439,0.131,-0.337,1.023
2024-10-15 13:29:48.998,72940.448,0.118,0.331,-0.936,0.36,-0.29,0.322,0.11,-0.543,-0.465,0.125,-0.338,1.018
2024-10-15 13:29:49.008,72940.458,0.112,0.329,-0.938,0.201,0.067,0.278,0.406,-0.402,-0.394,0.118,-0.336,1.013
2024-10-15 13:29:49.018,72940.468,0.108,0.324,-0.94,-0.022,0.491,0.219,0.848,-0.249,-0.281,0.114,-0.33,1.009
2024-10-15 13:29:49.028,72940.478,0.106,0.314,-0.943,-0.161,0.553,0.206,1.356,0.163,-0.407,0.112,-0.319,1.004
2024-10-15 13:29:49.038,72940.488,0.106,0.303,-0.947,-0.14,0.374,0.224,0.917,-0.05,-0.158,0.112,-0.308,0.999
2024-10-15 13:29:49.048,72940.498,0.103,0.297,-0.949,0.004,-0.042,0.24,0.469,-0.472,-0.259,0.108,-0.302,0.997
2024-10-15 13:29:49.058,72940.508,0.098,0.294,-0.951,0.101,-0.171,0.18,0.357,-0.341,-0.284,0.103,-0.298,0.993
2024-10-15 13:29:49.068,72940.518,0.095,0.291,-0.952,-0.138,0.25,-0.179,0.124,-0.065,-0.027,0.1,-0.296,0.991
2024-10-15 13:29:49.078,72940.527,0.097,0.29,-0.952,-0.462,0.28,-0.435,0.063,0.352,0.163,0.102,-0.295,0.992
2024-10-15 13:29:49.088,72940.537,0.102,0.29,-0.952,-0.589,0.109,-0.39,-0.028,0.446,0.311,0.107,-0.294,0.994
2024-10-15 13:29:49.098,72940.547,0.106,0.291,-0.951,-0.346,-0.07,-0.226,-0.17,0.299,0.21,0.111,-0.295,0.997
2024-10-15 13:29:49.108,72940.557,0.109,0.293,-0.95,-0.027,-0.282,-0.132,-0.391,0.214,0.097,0.114,-0.297,0.999
2024-10-15 13:29:49.118,72940.567,0.111,0.298,-0.948,0.073,-0.373,-0.135,-0.68,0.221,0.076,0.117,-0.303,1.001
2024-10-15 13:29:49.128,72940.577,0.114,0.306,-0.945,0.055,-0.397,-0.122,-1.042,0.272,0.091,0.12,-0.311,1.003
2024-10-15 13:29:49.138,72940.587,0.117,0.318,-0.941,0.039,-0.4,-0.103,-1.422,0.297,0.051,0.123,-0.323,1.005
2024-10-15 13:29:49.148,72940.597,0.119,0.332,-0.936,0.048,-0.366,-0.081,-1.717,0.291,-0.016,0.127,-0.339,1.007
2024-10-15 13:29:49.158,72940.607,0.122,0.349,-0.929,0.003,-0.276,-0.061,-1.832,0.305,-0.012,0.131,-0.356,1.009
2024-10-15 13:29:49.168,72940.617,0.125,0.366,-0.922,-0.054,-0.207,0.012,-1.788,0.267,-0.047,0.134,-0.374,1.012
2024-10-15 13:29:49.178,72940.627,0.127,0.382,-0.915,-0.068,-0.117,0.064,-1.691,0.284,-0.125,0.138,-0.392,1.013
2024-10-15 13:29:49.188,72940.637,0.129,0.397,-0.909,-0.08,-0.062,0.114,-1.477,0.403,-0.193,0.141,-0.408,1.014
2024-10-15 13:29:49.197,72940.647,0.134,0.41,-0.902,-0.11,-0.045,0.148,-1.511,0.707,-0.22,0.147,-0.423,1.014
2024-10-15 13:29:49.208,72940.657,0.14,0.425,-0.894,-0.126,-0.039,0.117,-1.738,0.803,-0.189,0.155,-0.439,1.014
2024-10-15 13:29:49.218,72940.667,0.146,0.44,-0.886,-0.112,-0.089,0.016,-1.608,0.885,-0.149,0.164,-0.456,1.016
2024-10-15 13:29:49.228,72940.677,0.153,0.453,-0.878,-0.068,0.091,0.017,-1.167,0.852,-0.18,0.173,-0.47,1.016
2024-10-15 13:29:49.238,72940.687,0.159,0.461,-0.873,-0.014,0.287,0.159,-0.596,0.715,-0.091,0.181,-0.479,1.017
2024-10-15 13:29:49.248,72940.697,0.165,0.464,-0.871,0.054,0.35,0.259,-0.005,0.577,-0.102,0.187,-0.482,1.016
2024-10-15 13:29:49.257,72940.707,0.169,0.462,-0.87,0.088,0.378,0.246,0.239,0.445,-0.075,0.191,-0.481,1.015
2024-10-15 13:29:49.267,72940.717,0.172,0.461,-0.871,0.064,0.306,0.177,0.19,0.287,0.033,0.195,-0.479,1.014
2024-10-15 13:29:49.278,72940.727,0.174,0.46,-0.871,0.054,0.16,0.172,-0.002,0.129,0.127,0.197,-0.477,1.015
2024-10-15 13:29:49.288,72940.737,0.175,0.46,-0.871,0.06,0.043,0.188,-0.119,-0.028,0.197,0.199,-0.478,1.017
2024-10-15 13:29:49.298,72940.747,0.175,0.46,-0.87,0.076,0.013,0.15,-0.091,-0.141,0.265,0.199,-0.478,1.02
2024-10-15 13:29:49.308,72940.757,0.175,0.46,-0.87,0.089,0.029,0.094,0.051,-0.201,0.292,0.199,-0.478,1.023
2024-10-15 13:29:49.318,72940.767,0.175,0.458,-0.872,0.085,0.029,0.05,0.392,-0.269,0.283,0.198,-0.476,1.026
2024-10-15 13:29:49.327,72940.777,0.174,0.453,-0.875,0.083,0.034,-0.046,0.641,-0.191,0.184,0.196,-0.47,1.027
2024-10-15 13:29:49.337,72940.787,0.173,0.447,-0.878,0.036,0.052,-0.123,0.634,-0.136,0.181,0.195,-0.463,1.027
2024-10-15 13:29:49.347,72940.797,0.173,0.442,-0.881,0.005,-0.073,-0.128,0.508,-0.164,0.207,0.193,-0.457,1.028
2024-10-15 13:29:49.357,72940.807,0.172,0.437,-0.883,0.033,-0.215,-0.089,0.426,-0.202,0.19,0.192,-0.452,1.03
2024-10-15 13:29:49.367,72940.817,0.17,0.433,-0.885,0.057,-0.2,-0.036,0.526,-0.247,0.075,0.19,-0.448,1.03
2024-10-15 13:29:49.377,72940.827,0.168,0.427,-0.889,0.058,-0.15,-0.013,0.881,-0.332,-0.026,0.187,-0.441,1.029
2024-10-15 13:29:49.387,72940.837,0.165,0.416,-0.894,0.055,-0.102,-0.015,1.483,-0.357,-0.069,0.182,-0.429,1.026
2024-10-15 13:29:49.397,72940.847,0.161,0.401,-0.902,0.061,0.017,0.014,1.946,-0.395,-0.18,0.176,-0.413,1.021
2024-10-15 13:29:49.407,72940.857,0.156,0.382,-0.911,0.055,0.106,0.051,2.336,-0.554,-0.263,0.169,-0.392,1.015
2024-10-15 13:29:49.418,72940.867,0.151,0.363,-0.92,0.023,0.115,0.05,1.717,-0.249,-0.159,0.163,-0.371,1.009
2024-10-15 13:29:49.428,72940.877,0.149,0.352,-0.924,-0.062,-0.002,-0.063,0.615,-0.243,0.047,0.16,-0.36,1.006
2024-10-15 13:29:49.437,72940.887,0.147,0.347,-0.926,-0.26,-0.127,-0.603,0.686,-0.171,0.259,0.157,-0.354,1.007
2024-10-15 13:29:49.447,72940.897,0.149,0.339,-0.929,-0.341,0.263,-0.454,0.862,0.354,0.39,0.159,-0.346,1.009
2024-10-15 13:29:49.457,72940.907,0.154,0.332,-0.931,-0.336,0.325,-0.217,0.378,0.284,0.7,0.164,-0.339,1.014
2024-10-15 13:29:49.467,72940.917,0.158,0.332,-0.93,-0.17,-0.083,-0.196,-0.618,0.122,0.756,0.169,-0.338,1.021
2024-10-15 13:29:49.477,72940.927,0.162,0.341,-0.926,-0.013,-0.293,-0.043,-1.425,0.224,0.627,0.173,-0.347,1.031
2024-10-15 13:29:49.487,72940.937,0.167,0.353,-0.921,-0.002,-0.371,0.072,-1.42,0.297,0.502,0.179,-0.361,1.039
2024-10-15 13:29:49.497,72940.947,0.171,0.363,-0.916,0.076,-0.601,0.05,-0.873,0.25,0.316,0.184,-0.372,1.046
2024-10-15 13:29:49.507,72940.957,0.172,0.368,-0.914,0.251,-0.706,0.119,-0.084,0.101,-0.26,0.187,-0.376,1.048
2024-10-15 13:29:49.517,72940.967,0.169,0.366,-0.915,0.435,-0.719,0.206,0.405,-0.39,-0.637,0.183,-0.375,1.042
2024-10-15 13:29:49.527,72940.977,0.162,0.366,-0.917,0.503,-0.781,0.129,-0.11,-0.771,-0.583,0.175,-0.374,1.035
2024-10-15 13:29:49.537,72940.987,0.152,0.37,-0.917,0.388,-0.615,0.076,-0.528,-0.836,-0.644,0.164,-0.379,1.029
2024-10-15 13:29:49.547,72940.997,0.144,0.372,-0.917,0.056,-0.06,0.013,0.385,-0.491,-0.488,0.155,-0.381,1.024
2024-10-15 13:29:49.556,72941.007,0.141,0.363,-0.921,-0.214,0.608,-0.017,1.745,0.468,-0.643,0.152,-0.371,1.016
2024-10-15 13:29:49.566,72941.017,0.145,0.347,-0.927,-0.284,1.035,0.016,1.662,0.704,-0.459,0.156,-0.354,1.007
2024-10-15 13:29:49.576,72941.027,0.147,0.34,-0.929,-0.117,0.428,-0.076,-0.193,-0.309,0.151,0.157,-0.347,1.004
2024-10-15 13:29:49.586,72941.037,0.141,0.345,-0.928,0.239,-0.418,-0.0,-0.452,-0.791,-0.238,0.151,-0.352,1.005
2024-10-15 13:29:49.597,72941.047,0.135,0.345,-0.929,0.166,0.23,0.095,0.443,-0.43,0.005,0.144,-0.352,1.003
2024-10-15 13:29:49.607,72941.057,0.133,0.338,-0.932,-0.265,0.967,-0.002,0.908,-0.105,0.558,0.142,-0.345,1.005
2024-10-15 13:29:49.617,72941.067,0.135,0.328,-0.935,-0.412,0.629,-0.03,0.887,-0.072,0.553,0.143,-0.335,1.01
2024-10-15 13:29:49.627,72941.077,0.135,0.321,-0.938,-0.341,0.094,-0.038,0.652,-0.104,0.398,0.143,-0.326,1.013
2024-10-15 13:29:49.637,72941.087,0.135,0.315,-0.939,-0.247,-0.139,-0.075,0.377,-0.111,0.327,0.143,-0.321,1.016
2024-10-15 13:29:49.646,72941.097,0.136,0.313,-0.94,-0.209,-0.302,-0.14,0.036,0.062,0.307,0.144,-0.318,1.019
2024-10-15 13:29:49.657,72941.107,0.139,0.316,-0.939,-0.242,-0.352,-0.224,-0.792,0.17,0.491,0.147,-0.321,1.024
2024-10-15 13:29:49.668,72941.116,0.142,0.327,-0.934,-0.234,-0.373,-0.327,-1.774,0.202,0.594,0.151,-0.333,1.032
2024-10-15 13:29:49.677,72941.126,0.147,0.344,-0.928,-0.184,-0.368,-0.253,-1.807,0.426,0.504,0.157,-0.351,1.04
2024-10-15 13:29:49.687,72941.136,0.153,0.357,-0.922,-0.117,-0.191,-0.148,-1.198,0.525,0.518,0.165,-0.365,1.048
2024-10-15 13:29:49.697,72941.146,0.16,0.365,-0.917,0.043,-0.058,-0.126,-0.753,0.462,0.406,0.172,-0.373,1.055
2024-10-15 13:29:49.707,72941.156,0.164,0.37,-0.914,0.271,-0.159,-0.035,-0.482,0.293,0.139,0.178,-0.379,1.059
2024-10-15 13:29:49.717,72941.166,0.165,0.375,-0.912,0.437,-0.398,0.156,-0.45,0.002,-0.206,0.179,-0.384,1.06
2024-10-15 13:29:49.727,72941.176,0.162,0.378,-0.911,0.534,-0.649,0.315,-0.22,-0.387,-0.468,0.176,-0.388,1.057
2024-10-15 13:29:49.737,72941.186,0.155,0.38,-0.912,0.544,-0.703,0.383,0.087,-0.752,-0.604,0.168,-0.389,1.051
2024-10-15 13:29:49.747,72941.196,0.145,0.378,-0.914,0.389,-0.36,0.31,0.411,-0.829,-0.571,0.158,-0.388,1.044
2024-10-15 13:29:49.757,72941.206,0.137,0.373,-0.918,0.093,0.214,0.194,1.019,-0.58,-0.476,0.148,-0.382,1.038
2024-10-15 13:29:49.767,72941.216,0.133,0.359,-0.924,-0.177,0.59,0.189,2.102,0.218,-0.609,0.143,-0.367,1.03
2024-10-15 13:29:49.777,72941.226,0.134,0.34,-0.931,-0.232,0.616,0.259,1.989,0.324,-0.517,0.143,-0.347,1.02
2024-10-15 13:29:49.787,72941.236,0.132,0.329,-0.935,-0.033,0.093,0.11,0.494,-0.497,-0.414,0.14,-0.335,1.014
2024-10-15 13:29:49.796,72941.246,0.124,0.329,-0.936,0.219,-0.525,0.134,-0.218,-0.728,-0.553,0.132,-0.335,1.008
2024-10-15 13:29:49.807,72941.256,0.116,0.33,-0.937,0.063,-0.121,0.018,0.075,-0.584,-0.374,0.124,-0.337,1.004
2024-10-15 13:29:49.816,72941.266,0.114,0.328,-0.938,-0.32,0.618,-0.282,0.369,0.212,-0.067,0.121,-0.334,1.001
2024-10-15 13:29:49.827,72941.276,0.118,0.324,-0.939,-0.677,0.839,-0.382,0.33,0.497,0.392,0.125,-0.33,1.002
2024-10-15 13:29:49.837,72941.286,0.123,0.322,-0.939,-0.65,0.341,-0.249,0.08,0.321,0.459,0.131,-0.328,1.007
2024-10-15 13:29:49.847,72941.296,0.127,0.32,-0.939,-0.288,-0.026,-0.013,0.184,0.24,0.218,0.134,-0.326,1.01
2024-10-15 13:29:49.856,72941.306,0.13,0.319,-0.939,-0.101,-0.062,0.005,0.018,0.15,0.314,0.137,-0.325,1.012
2024-10-15 13:29:49.867,72941.316,0.132,0.32,-0.938,-0.067,-0.214,-0.109,-0.259,0.256,0.32,0.14,-0.325,1.016
2024-10-15 13:29:49.877,72941.326,0.137,0.324,-0.936,-0.124,-0.35,-0.244,-0.886,0.454,0.407,0.145,-0.33,1.02
2024-10-15 13:29:49.886,72941.336,0.143,0.336,-0.931,-0.163,-0.348,-0.434,-1.869,0.543,0.426,0.152,-0.343,1.027
2024-10-15 13:29:49.896,72941.346,0.15,0.355,-0.923,-0.147,-0.399,-0.41,-2.023,0.573,0.441,0.161,-0.362,1.035
2024-10-15 13:29:49.907,72941.356,0.157,0.369,-0.916,-0.084,-0.442,-0.234,-1.153,0.506,0.472,0.169,-0.378,1.043
2024-10-15 13:29:49.916,72941.366,0.162,0.375,-0.913,0.154,-0.18,-0.053,-0.349,0.404,0.134,0.176,-0.384,1.047
2024-10-15 13:29:49.927,72941.376,0.164,0.377,-0.912,0.409,-0.124,0.217,-0.1,-0.055,-0.184,0.178,-0.386,1.047
2024-10-15 13:29:49.936,72941.386,0.16,0.377,-0.912,0.58,-0.499,0.392,0.123,-0.526,-0.388,0.173,-0.387,1.044
2024-10-15 13:29:49.947,72941.396,0.153,0.376,-0.914,0.618,-0.473,0.464,0.358,-0.707,-0.45,0.165,-0.385,1.039
2024-10-15 13:29:49.956,72941.406,0.144,0.372,-0.917,0.407,-0.103,0.404,0.458,-0.743,-0.404,0.156,-0.382,1.034
2024-10-15 13:29:49.966,72941.416,0.137,0.367,-0.92,0.114,0.237,0.227,0.837,-0.489,-0.373,0.148,-0.376,1.029
2024-10-15 13:29:49.977,72941.426,0.134,0.357,-0.925,-0.165,0.505,0.11,1.531,0.101,-0.491,0.143,-0.365,1.022
2024-10-15 13:29:49.987,72941.436,0.134,0.344,-0.929,-0.244,0.485,0.156,1.201,0.104,-0.323,0.143,-0.351,1.016
2024-10-15 13:29:49.996,72941.446,0.132,0.338,-0.932,-0.087,-0.036,0.169,0.371,-0.337,-0.284,0.14,-0.344,1.012
2024-10-15 13:29:50.006,72941.456,0.127,0.336,-0.933,0.115,-0.364,0.209,0.15,-0.383,-0.394,0.135,-0.343,1.008
2024-10-15 13:29:50.016,72941.466,0.123,0.335,-0.934,-0.003,-0.004,0.09,0.161,-0.214,-0.35,0.131,-0.342,1.004
2024-10-15 13:29:50.026,72941.476,0.121,0.333,-0.935,-0.261,0.287,-0.092,0.291,0.032,-0.178,0.129,-0.34,1.0
2024-10-15 13:29:50.036,72941.486,0.122,0.331,-0.936,-0.419,0.291,-0.215,0.219,0.262,0.047,0.13,-0.337,0.999
2024-10-15 13:29:50.046,72941.496,0.125,0.329,-0.936,-0.45,0.299,-0.249,0.171,0.309,0.134,0.133,-0.335,1.0
2024-10-15 13:29:50.057,72941.506,0.129,0.327,-0.936,-0.375,0.158,-0.136,0.252,0.327,0.194,0.137,-0.333,1.001
2024-10-15 13:29:50.067,72941.516,0.132,0.324,-0.937,-0.229,0.086,0.007,0.276,0.202,0.182,0.14,-0.33,1.003
2024-10-15 13:29:50.076,72941.526,0.134,0.321,-0.937,-0.098,0.022,0.015,0.264,0.132,0.258,0.142,-0.327,1.005
2024-10-15 13:29:50.086,72941.536,0.136,0.319,-0.938,-0.076,-0.05,-0.047,0.174,0.211,0.305,0.144,-0.324,1.008
2024-10-15 13:29:50.096,72941.546,0.141,0.319,-0.937,-0.106,-0.126,-0.173,-0.462,0.413,0.345,0.149,-0.325,1.011
2024-10-15 13:29:50.106,72941.556,0.146,0.327,-0.934,-0.128,-0.221,-0.319,-1.287,0.483,0.386,0.155,-0.333,1.016
2024-10-15 13:29:50.116,72941.566,0.152,0.339,-0.928,-0.088,-0.523,-0.265,-1.27,0.427,0.339,0.162,-0.346,1.022
2024-10-15 13:29:50.126,72941.576,0.156,0.347,-0.925,0.099,-0.635,-0.143,-0.609,0.262,0.112,0.167,-0.355,1.027
2024-10-15 13:29:50.136,72941.586,0.157,0.351,-0.923,0.332,-0.433,-0.079,-0.22,0.117,-0.248,0.169,-0.359,1.027
2024-10-15 13:29:50.146,72941.596,0.156,0.353,-0.922,0.44,-0.388,0.044,-0.082,-0.122,-0.402,0.168,-0.361,1.023
2024-10-15 13:29:50.156,72941.606,0.152,0.354,-0.923,0.456,-0.442,0.132,0.049,-0.397,-0.339,0.164,-0.362,1.019
2024-10-15 13:29:50.166,72941.616,0.146,0.354,-0.924,0.448,-0.296,0.16,0.172,-0.642,-0.47,0.157,-0.361,1.015
2024-10-15 13:29:50.176,72941.626,0.139,0.352,-0.926,0.332,0.142,0.14,0.269,-0.473,-0.419,0.149,-0.36,1.01
2024-10-15 13:29:50.186,72941.636,0.135,0.349,-0.927,0.063,0.489,0.079,0.511,-0.304,-0.196,0.144,-0.357,1.006
2024-10-15 13:29:50.196,72941.646,0.133,0.342,-0.93,-0.108,0.528,0.116,1.158,0.161,-0.353,0.142,-0.349,1.002
2024-10-15 13:29:50.206,72941.656,0.134,0.332,-0.934,-0.119,0.504,0.141,0.738,0.149,-0.1,0.143,-0.339,0.998
2024-10-15 13:29:50.216,72941.666,0.133,0.33,-0.934,-0.021,0.062,0.085,-0.206,-0.362,-0.068,0.141,-0.337,0.997
2024-10-15 13:29:50.226,72941.676,0.129,0.333,-0.934,0.085,-0.339,0.13,-0.207,-0.273,-0.227,0.137,-0.339,0.996
2024-10-15 13:29:50.236,72941.686,0.127,0.334,-0.934,-0.123,0.073,-0.016,0.035,0.036,-0.049,0.135,-0.34,0.994
2024-10-15 13:29:50.246,72941.695,0.129,0.334,-0.934,-0.382,0.299,-0.19,-0.022,0.202,0.162,0.137,-0.34,0.995
2024-10-15 13:29:50.256,72941.705,0.132,0.334,-0.933,-0.42,0.016,-0.187,-0.116,0.261,0.201,0.14,-0.34,0.997
2024-10-15 13:29:50.266,72941.715,0.134,0.335,-0.933,-0.296,-0.156,-0.098,-0.215,0.185,0.208,0.143,-0.342,0.999
2024-10-15 13:29:50.275,72941.725,0.136,0.338,-0.931,-0.103,-0.244,0.008,-0.434,-0.035,0.196,0.145,-0.345,1.002
2024-10-15 13:29:50.286,72941.735,0.135,0.344,-0.929,0.061,-0.38,0.05,-0.852,-0.194,0.096,0.144,-0.351,1.004
2024-10-15 13:29:50.296,72941.745,0.133,0.352,-0.926,0.086,-0.427,0.052,-1.05,-0.205,0.022,0.143,-0.36,1.007
2024-10-15 13:29:50.306,72941.755,0.132,0.361,-0.923,0.019,-0.335,0.032,-0.627,0.002,-0.215,0.142,-0.369,1.007
2024-10-15 13:29:50.316,72941.765,0.132,0.365,-0.921,-0.027,-0.156,0.053,-0.402,0.346,-0.463,0.143,-0.374,1.004
2024-10-15 13:29:50.326,72941.775,0.135,0.374,-0.918,-0.048,-0.126,0.006,-1.451,0.401,-0.308,0.146,-0.383,1.001
2024-10-15 13:29:50.336,72941.785,0.137,0.393,-0.909,0.03,-0.48,0.035,-2.601,0.397,-0.357,0.149,-0.404,1.001
2024-10-15 13:29:50.346,72941.795,0.14,0.416,-0.898,0.039,-0.463,-0.075,-2.242,0.667,-0.423,0.154,-0.429,1.001
2024-10-15 13:29:50.356,72941.805,0.145,0.432,-0.89,-0.104,0.168,-0.364,-1.06,0.892,-0.552,0.161,-0.447,0.998
2024-10-15 13:29:50.366,72941.815,0.152,0.437,-0.887,-0.148,0.594,-0.496,-0.076,1.164,-0.413,0.169,-0.452,0.994
2024-10-15 13:29:50.376,72941.825,0.16,0.437,-0.885,-0.127,0.505,-0.274,0.02,0.993,-0.255,0.179,-0.453,0.99
2024-10-15 13:29:50.386,72941.835,0.166,0.439,-0.883,-0.05,0.045,0.041,-0.248,0.578,-0.172,0.186,-0.454,0.988
2024-10-15 13:29:50.396,72941.845,0.169,0.441,-0.881,0.055,-0.084,0.216,-0.23,0.299,-0.127,0.189,-0.457,0.987
2024-10-15 13:29:50.406,72941.855,0.171,0.443,-0.88,0.058,0.114,0.275,-0.192,0.106,0.098,0.191,-0.459,0.987
2024-10-15 13:29:50.416,72941.865,0.172,0.444,-0.879,0.009,0.198,0.352,-0.115,-0.072,0.232,0.193,-0.46,0.989
2024-10-15 13:29:50.426,72941.875,0.171,0.444,-0.88,-0.005,0.169,0.348,0.143,-0.216,0.237,0.192,-0.46,0.992
2024-10-15 13:29:50.437,72941.885,0.171,0.441,-0.881,-0.016,0.262,0.205,0.312,-0.159,0.267,0.191,-0.457,0.994
2024-10-15 13:29:50.446,72941.895,0.171,0.438,-0.882,-0.064,0.312,0.092,0.185,-0.143,0.271,0.191,-0.454,0.997
2024-10-15 13:29:50.455,72941.905,0.171,0.437,-0.883,-0.103,0.116,0.034,-0.003,-0.135,0.32,0.191,-0.452,1.0
2024-10-15 13:29:50.465,72941.915,0.171,0.437,-0.883,-0.098,-0.014,-0.006,-0.07,-0.118,0.392,0.191,-0.452,1.004
2024-10-15 13:29:50.475,72941.925,0.172,0.437,-0.883,-0.061,-0.0,-0.022,-0.052,-0.095,0.42,0.192,-0.452,1.008
2024-10-15 13:29:50.485,72941.935,0.173,0.436,-0.883,-0.032,0.009,-0.049,0.002,-0.098,0.488,0.193,-0.451,1.013
2024-10-15 13:29:50.495,72941.945,0.174,0.435,-0.883,-0.013,-0.005,-0.053,0.039,-0.1,0.539,0.195,-0.45,1.019
2024-10-15 13:29:50.506,72941.955,0.176,0.434,-0.884,0.006,-0.035,-0.034,0.068,-0.145,0.592,0.196,-0.448,1.025
2024-10-15 13:29:50.516,72941.965,0.177,0.432,-0.884,0.037,-0.067,-0.011,0.086,-0.172,0.579,0.198,-0.447,1.031
2024-10-15 13:29:50.525,72941.975,0.178,0.429,-0.885,0.07,-0.051,0.011,0.292,-0.223,0.448,0.198,-0.444,1.036
2024-10-15 13:29:50.535,72941.985,0.177,0.425,-0.888,0.068,-0.035,0.019,0.641,-0.254,0.262,0.197,-0.439,1.039
2024-10-15 13:29:50.545,72941.995,0.176,0.417,-0.892,0.045,-0.053,0.016,1.112,-0.231,0.15,0.194,-0.43,1.039
2024-10-15 13:29:50.555,72942.005,0.174,0.404,-0.898,0.022,-0.039,-0.015,1.635,-0.139,0.048,0.192,-0.416,1.038
2024-10-15 13:29:50.565,72942.015,0.173,0.388,-0.905,0.011,-0.016,-0.002,1.919,-0.135,-0.029,0.189,-0.398,1.034
2024-10-15 13:29:50.576,72942.025,0.171,0.371,-0.913,0.022,-0.054,0.044,1.714,-0.261,-0.075,0.185,-0.38,1.03
2024-10-15 13:29:50.585,72942.035,0.17,0.358,-0.918,0.051,-0.192,0.105,1.013,-0.071,0.028,0.183,-0.366,1.027
2024-10-15 13:29:50.595,72942.045,0.168,0.353,-0.92,0.071,-0.358,0.077,0.44,-0.144,-0.274,0.181,-0.36,1.024
2024-10-15 13:29:50.605,72942.055,0.167,0.347,-0.923,-0.035,-0.246,-0.367,0.799,-0.05,-0.008,0.179,-0.354,1.021
2024-10-15 13:29:50.616,72942.065,0.167,0.341,-0.925,-0.097,0.085,-0.319,0.418,0.136,0.052,0.179,-0.348,1.02
2024-10-15 13:29:50.625,72942.075,0.169,0.339,-0.926,-0.091,0.143,-0.309,0.122,0.237,0.098,0.181,-0.346,1.021
2024-10-15 13:29:50.635,72942.085,0.172,0.338,-0.925,-0.13,-0.054,-0.32,-0.048,0.322,0.304,0.184,-0.345,1.023
2024-10-15 13:29:50.645,72942.095,0.177,0.34,-0.924,-0.019,-0.003,-0.287,-0.758,0.317,0.472,0.189,-0.347,1.027
2024-10-15 13:29:50.655,72942.105,0.182,0.35,-0.919,0.018,-0.041,-0.333,-1.373,0.413,0.516,0.195,-0.357,1.035
2024-10-15 13:29:50.665,72942.115,0.187,0.361,-0.914,0.003,-0.293,-0.157,-1.041,0.248,0.422,0.201,-0.369,1.043
2024-10-15 13:29:50.675,72942.125,0.189,0.365,-0.912,0.113,-0.368,0.004,-0.048,0.123,0.341,0.205,-0.374,1.048
2024-10-15 13:29:50.685,72942.135,0.191,0.361,-0.913,0.306,-0.155,0.234,0.637,-0.045,-0.042,0.206,-0.37,1.049
2024-10-15 13:29:50.695,72942.145,0.188,0.354,-0.916,0.393,-0.235,0.42,0.887,-0.447,-0.212,0.202,-0.362,1.045
2024-10-15 13:29:50.705,72942.155,0.181,0.349,-0.92,0.437,-0.68,0.437,0.405,-0.964,-0.254,0.194,-0.356,1.042
2024-10-15 13:29:50.715,72942.165,0.169,0.347,-0.922,0.43,-0.73,0.44,0.054,-1.242,-0.52,0.181,-0.355,1.037
2024-10-15 13:29:50.725,72942.175,0.158,0.346,-0.925,0.173,-0.341,0.307,0.581,-0.923,-0.315,0.169,-0.353,1.032
2024-10-15 13:29:50.735,72942.185,0.151,0.339,-0.929,-0.099,0.126,0.16,0.967,-0.289,-0.323,0.161,-0.346,1.028
2024-10-15 13:29:50.745,72942.195,0.148,0.332,-0.932,-0.233,0.441,-0.067,0.583,-0.119,-0.215,0.158,-0.338,1.023
2024-10-15 13:29:50.755,72942.205,0.145,0.329,-0.933,-0.205,0.163,-0.145,0.03,-0.363,-0.248,0.155,-0.336,1.021
2024-10-15 13:29:50.765,72942.215,0.141,0.33,-0.934,-0.064,-0.023,-0.113,0.054,-0.268,-0.361,0.15,-0.336,1.017
2024-10-15 13:29:50.775,72942.225,0.139,0.329,-0.934,-0.154,0.391,-0.144,0.059,-0.101,-0.169,0.147,-0.336,1.014
2024-10-15 13:29:50.785,72942.235,0.138,0.329,-0.934,-0.326,0.499,-0.195,-0.014,0.044,0.147,0.147,-0.335,1.014
2024-10-15 13:29:50.794,72942.245,0.14,0.328,-0.934,-0.416,0.37,-0.205,0.168,0.204,0.231,0.149,-0.335,1.016
2024-10-15 13:29:50.804,72942.255,0.143,0.326,-0.935,-0.429,0.278,-0.124,0.25,0.277,0.245,0.152,-0.332,1.018
2024-10-15 13:29:50.814,72942.265,0.146,0.324,-0.935,-0.324,0.056,-0.002,-0.07,0.201,0.356,0.155,-0.33,1.021
2024-10-15 13:29:50.825,72942.274,0.148,0.326,-0.934,-0.183,-0.227,0.048,-0.343,0.066,0.204,0.158,-0.332,1.024
2024-10-15 13:29:50.835,72942.284,0.15,0.329,-0.932,-0.126,-0.286,0.003,-0.46,0.256,0.242,0.16,-0.336,1.027
2024-10-15 13:29:50.845,72942.294,0.155,0.337,-0.929,-0.155,-0.186,-0.149,-1.256,0.357,0.41,0.165,-0.343,1.032
2024-10-15 13:29:50.855,72942.304,0.159,0.351,-0.923,-0.169,-0.272,-0.309,-1.996,0.393,0.372,0.171,-0.359,1.039
2024-10-15 13:29:50.865,72942.314,0.164,0.369,-0.915,-0.151,-0.368,-0.264,-1.858,0.327,0.315,0.177,-0.378,1.047
2024-10-15 13:29:50.875,72942.324,0.168,0.382,-0.909,-0.087,-0.172,-0.26,-1.096,0.391,0.326,0.183,-0.392,1.053
2024-10-15 13:29:50.885,72942.334,0.173,0.388,-0.905,0.052,0.063,-0.133,-0.263,0.502,0.175,0.189,-0.398,1.057
2024-10-15 13:29:50.895,72942.344,0.178,0.388,-0.904,0.183,0.015,0.049,0.097,0.352,0.003,0.194,-0.398,1.058
2024-10-15 13:29:50.905,72942.354,0.179,0.387,-0.904,0.32,-0.26,0.107,0.09,0.036,-0.254,0.195,-0.398,1.056
2024-10-15 13:29:50.915,72942.364,0.177,0.387,-0.905,0.415,-0.514,0.25,0.117,-0.246,-0.453,0.193,-0.398,1.053
2024-10-15 13:29:50.924,72942.374,0.172,0.386,-0.906,0.438,-0.583,0.364,0.372,-0.412,-0.582,0.187,-0.396,1.046
2024-10-15 13:29:50.935,72942.384,0.165,0.383,-0.909,0.32,-0.325,0.34,0.468,-0.451,-0.617,0.18,-0.393,1.039
2024-10-15 13:29:50.945,72942.394,0.159,0.38,-0.911,0.107,0.045,0.236,0.421,-0.378,-0.5,0.173,-0.39,1.032
2024-10-15 13:29:50.954,72942.404,0.155,0.375,-0.914,-0.082,0.22,0.184,0.973,-0.05,-0.508,0.169,-0.384,1.026
2024-10-15 13:29:50.964,72942.414,0.155,0.365,-0.918,-0.168,0.374,0.14,1.285,0.327,-0.575,0.167,-0.374,1.018
2024-10-15 13:29:50.974,72942.424,0.156,0.356,-0.921,-0.174,0.352,0.057,0.627,0.104,-0.347,0.167,-0.364,1.011
2024-10-15 13:29:50.984,72942.434,0.154,0.355,-0.922,-0.052,-0.084,0.137,-0.106,-0.194,-0.426,0.165,-0.363,1.007
2024-10-15 13:29:50.997,72942.444,0.15,0.358,-0.922,0.026,-0.102,0.144,-0.244,-0.308,-0.26,0.161,-0.366,1.003
2024-10-15 13:29:51.004,72942.454,0.147,0.36,-0.921,-0.116,0.318,0.013,-0.169,-0.047,-0.043,0.159,-0.368,1.003
2024-10-15 13:29:51.015,72942.464,0.149,0.359,-0.921,-0.327,0.551,-0.101,0.24,0.324,0.145,0.16,-0.368,1.003
2024-10-15 13:29:51.025,72942.474,0.154,0.356,-0.922,-0.466,0.458,-0.231,0.291,0.476,0.357,0.165,-0.364,1.005
2024-10-15 13:29:51.035,72942.484,0.16,0.354,-0.922,-0.356,0.239,-0.237,0.205,0.478,0.316,0.171,-0.361,1.008
2024-10-15 13:29:51.045,72942.494,0.164,0.352,-0.921,-0.158,-0.01,-0.219,0.044,0.348,0.327,0.177,-0.36,1.011
2024-10-15 13:29:51.055,72942.504,0.169,0.352,-0.921,0.004,-0.23,-0.255,-0.106,0.318,0.31,0.181,-0.359,1.015
2024-10-15 13:29:51.065,72942.514,0.173,0.354,-0.919,0.074,-0.306,-0.312,-0.564,0.336,0.348,0.186,-0.362,1.019
2024-10-15 13:29:51.075,72942.524,0.177,0.362,-0.915,0.062,-0.335,-0.413,-1.374,0.349,0.336,0.191,-0.371,1.024
2024-10-15 13:29:51.085,72942.534,0.181,0.375,-0.909,-0.002,-0.48,-0.369,-1.577,0.258,0.331,0.197,-0.385,1.031
2024-10-15 13:29:51.094,72942.544,0.184,0.386,-0.904,0.008,-0.574,-0.201,-0.896,0.199,0.291,0.201,-0.397,1.037
2024-10-15 13:29:51.104,72942.554,0.187,0.392,-0.901,0.174,-0.405,-0.018,-0.289,0.163,-0.057,0.204,-0.402,1.04
2024-10-15 13:29:51.114,72942.564,0.186,0.393,-0.9,0.337,-0.351,0.228,-0.0,-0.158,-0.299,0.204,-0.404,1.038
2024-10-15 13:29:51.124,72942.574,0.181,0.393,-0.901,0.494,-0.615,0.375,0.081,-0.593,-0.487,0.198,-0.404,1.034
2024-10-15 13:29:51.133,72942.584,0.172,0.394,-0.903,0.558,-0.57,0.403,0.031,-0.923,-0.619,0.188,-0.405,1.028
2024-10-15 13:29:51.144,72942.594,0.162,0.394,-0.905,0.355,-0.089,0.302,0.119,-0.802,-0.56,0.177,-0.405,1.021
2024-10-15 13:29:51.154,72942.604,0.154,0.391,-0.907,-0.003,0.347,0.183,0.814,-0.286,-0.464,0.169,-0.402,1.015
2024-10-15 13:29:51.164,72942.614,0.153,0.382,-0.911,-0.222,0.553,0.14,1.182,0.183,-0.357,0.166,-0.392,1.009
2024-10-15 13:29:51.174,72942.624,0.152,0.375,-0.915,-0.176,0.409,0.081,0.457,-0.152,-0.227,0.165,-0.384,1.004
2024-10-15 13:29:51.184,72942.634,0.148,0.375,-0.915,0.039,-0.142,0.079,-0.321,-0.483,-0.427,0.16,-0.384,1.001
2024-10-15 13:29:51.194,72942.644,0.142,0.379,-0.914,0.086,-0.2,0.079,-0.478,-0.546,-0.319,0.154,-0.389,0.997
2024-10-15 13:29:51.205,72942.654,0.136,0.381,-0.914,-0.105,0.196,-0.061,0.072,-0.239,-0.207,0.148,-0.391,0.995
2024-10-15 13:29:51.215,72942.664,0.137,0.38,-0.915,-0.374,0.528,-0.258,0.257,0.283,0.08,0.148,-0.389,0.994
2024-10-15 13:29:51.224,72942.674,0.14,0.378,-0.915,-0.584,0.592,-0.26,0.144,0.283,0.318,0.152,-0.387,0.996
2024-10-15 13:29:51.234,72942.684,0.143,0.376,-0.916,-0.433,0.182,-0.071,0.139,0.14,0.274,0.155,-0.385,0.999
2024-10-15 13:29:51.244,72942.694,0.145,0.374,-0.916,-0.16,0.036,0.025,0.194,0.11,0.225,0.157,-0.383,1.001
2024-10-15 13:29:51.254,72942.704,0.147,0.372,-0.916,-0.094,0.059,-0.06,0.045,0.155,0.264,0.159,-0.382,1.003
2024-10-15 13:29:51.264,72942.714,0.15,0.372,-0.916,-0.129,-0.105,-0.153,-0.103,0.29,0.293,0.163,-0.382,1.006
2024-10-15 13:29:51.274,72942.724,0.155,0.374,-0.914,-0.126,-0.178,-0.277,-0.424,0.488,0.386,0.168,-0.383,1.01
2024-10-15 13:29:51.285,72942.734,0.161,0.381,-0.911,-0.06,-0.186,-0.454,-1.196,0.541,0.355,0.175,-0.39,1.016
2024-10-15 13:29:51.294,72942.744,0.168,0.394,-0.904,-0.048,-0.238,-0.532,-1.86,0.691,0.439,0.184,-0.405,1.023
2024-10-15 13:29:51.304,72942.754,0.176,0.409,-0.895,-0.087,-0.329,-0.364,-1.584,0.57,0.576,0.194,-0.422,1.032
2024-10-15 13:29:51.314,72942.764,0.183,0.419,-0.889,0.01,-0.272,-0.175,-0.73,0.461,0.475,0.203,-0.432,1.041
2024-10-15 13:29:51.324,72942.774,0.188,0.421,-0.887,0.247,-0.014,0.125,0.037,0.293,0.196,0.208,-0.434,1.045
2024-10-15 13:29:51.334,72942.784,0.189,0.42,-0.888,0.402,0.007,0.364,0.114,-0.002,-0.0,0.21,-0.433,1.046
2024-10-15 13:29:51.344,72942.794,0.188,0.419,-0.889,0.46,-0.302,0.507,0.144,-0.252,-0.195,0.208,-0.432,1.044
2024-10-15 13:29:51.354,72942.804,0.183,0.418,-0.89,0.464,-0.531,0.605,0.141,-0.554,-0.325,0.203,-0.431,1.041
2024-10-15 13:29:51.364,72942.814,0.175,0.418,-0.892,0.414,-0.502,0.562,0.034,-0.822,-0.513,0.194,-0.431,1.036
2024-10-15 13:29:51.374,72942.824,0.165,0.419,-0.893,0.265,-0.37,0.399,-0.053,-0.941,-0.643,0.182,-0.432,1.03
2024-10-15 13:29:51.384,72942.834,0.156,0.418,-0.895,-0.023,-0.077,0.205,0.543,-0.386,-0.525,0.173,-0.431,1.023
2024-10-15 13:29:51.394,72942.844,0.153,0.413,-0.898,-0.233,0.171,0.245,0.716,-0.067,-0.432,0.168,-0.425,1.017
2024-10-15 13:29:51.404,72942.854,0.149,0.409,-0.9,-0.173,0.161,0.135,0.201,-0.347,-0.336,0.164,-0.421,1.012
2024-10-15 13:29:51.414,72942.863,0.144,0.409,-0.901,-0.011,-0.124,-0.007,0.087,-0.461,-0.547,0.158,-0.421,1.007
2024-10-15 13:29:51.424,72942.873,0.139,0.409,-0.902,-0.049,0.066,-0.184,0.107,-0.145,-0.509,0.152,-0.421,1.001
2024-10-15 13:29:51.434,72942.883,0.137,0.408,-0.903,-0.317,0.477,-0.339,0.099,0.14,-0.211,0.151,-0.42,0.997
2024-10-15 13:29:51.444,72942.893,0.139,0.407,-0.903,-0.483,0.428,-0.34,0.232,0.368,0.087,0.153,-0.419,0.996
2024-10-15 13:29:51.454,72942.903,0.143,0.404,-0.903,-0.445,0.382,-0.269,0.297,0.372,0.184,0.157,-0.416,0.997
2024-10-15 13:29:51.464,72942.913,0.147,0.401,-0.904,-0.317,0.343,-0.144,0.407,0.31,0.083,0.161,-0.412,0.998
2024-10-15 13:29:51.474,72942.923,0.15,0.397,-0.905,-0.196,0.182,-0.071,0.302,0.323,0.206,0.164,-0.409,0.999
2024-10-15 13:29:51.484,72942.933,0.154,0.395,-0.906,-0.128,0.047,-0.111,0.214,0.317,0.255,0.168,-0.406,1.001
2024-10-15 13:29:51.494,72942.943,0.158,0.393,-0.906,-0.087,-0.091,-0.166,0.114,0.419,0.205,0.173,-0.404,1.003
2024-10-15 13:29:51.504,72942.953,0.163,0.393,-0.905,-0.033,-0.167,-0.258,-0.287,0.528,0.183,0.178,-0.404,1.005
2024-10-15 13:29:51.514,72942.963,0.168,0.398,-0.902,0.029,-0.217,-0.365,-0.845,0.472,0.172,0.184,-0.409,1.008
2024-10-15 13:29:51.524,72942.973,0.173,0.406,-0.897,0.029,-0.294,-0.334,-0.962,0.49,0.225,0.191,-0.418,1.012
2024-10-15 13:29:51.534,72942.983,0.179,0.413,-0.893,-0.009,-0.239,-0.152,-0.669,0.523,0.314,0.198,-0.425,1.017
2024-10-15 13:29:51.544,72942.993,0.184,0.417,-0.89,0.074,-0.121,0.063,-0.503,0.345,0.219,0.204,-0.431,1.021
2024-10-15 13:29:51.554,72943.003,0.187,0.421,-0.888,0.22,-0.181,0.237,-0.402,0.069,0.127,0.207,-0.435,1.024
2024-10-15 13:29:51.564,72943.013,0.186,0.424,-0.886,0.304,-0.274,0.33,-0.431,-0.138,-0.014,0.207,-0.438,1.025
2024-10-15 13:29:51.574,72943.023,0.184,0.429,-0.884,0.268,-0.3,0.328,-0.607,-0.266,-0.111,0.205,-0.444,1.026
2024-10-15 13:29:51.584,72943.033,0.181,0.436,-0.882,0.165,-0.379,0.278,-0.864,-0.308,-0.161,0.202,-0.451,1.026
2024-10-15 13:29:51.594,72943.043,0.178,0.445,-0.878,0.07,-0.395,0.205,-1.031,-0.299,-0.175,0.2,-0.461,1.026
2024-10-15 13:29:51.604,72943.053,0.175,0.454,-0.874,-0.025,-0.28,0.103,-1.077,-0.129,-0.15,0.198,-0.472,1.027
2024-10-15 13:29:51.614,72943.063,0.174,0.463,-0.869,-0.134,-0.057,0.058,-0.992,0.171,-0.168,0.198,-0.482,1.027
2024-10-15 13:29:51.624,72943.073,0.176,0.472,-0.864,-0.19,0.103,0.049,-0.928,0.49,-0.238,0.201,-0.492,1.027
2024-10-15 13:29:51.634,72943.083,0.18,0.48,-0.858,-0.194,0.199,-0.057,-0.884,0.717,-0.194,0.207,-0.501,1.027
2024-10-15 13:29:51.644,72943.093,0.186,0.488,-0.853,-0.171,0.199,-0.098,-0.77,0.827,-0.189,0.215,-0.509,1.027
2024-10-15 13:29:51.654,72943.103,0.193,0.493,-0.848,-0.121,0.156,-0.118,-0.449,0.841,-0.105,0.223,-0.516,1.027
2024-10-15 13:29:51.663,72943.113,0.199,0.496,-0.845,-0.076,0.219,-0.184,-0.205,0.838,-0.082,0.231,-0.519,1.026
2024-10-15 13:29:51.674,72943.123,0.206,0.498,-0.843,-0.092,0.298,-0.124,-0.169,0.803,-0.042,0.24,-0.521,1.026
2024-10-15 13:29:51.683,72943.133,0.212,0.499,-0.84,-0.114,0.173,0.038,-0.19,0.654,0.047,0.247,-0.523,1.027
2024-10-15 13:29:51.694,72943.143,0.217,0.501,-0.838,-0.05,0.068,0.133,-0.204,0.496,0.14,0.254,-0.524,1.028
2024-10-15 13:29:51.703,72943.153,0.221,0.502,-0.836,-0.005,0.085,0.132,-0.209,0.267,0.204,0.259,-0.526,1.031
2024-10-15 13:29:51.714,72943.163,0.224,0.503,-0.835,0.007,0.096,0.106,-0.203,0.039,0.303,0.262,-0.527,1.034
2024-10-15 13:29:51.724,72943.173,0.225,0.504,-0.834,0.03,0.076,0.134,-0.123,-0.179,0.381,0.264,-0.528,1.039
2024-10-15 13:29:51.733,72943.183,0.225,0.503,-0.834,0.055,0.08,0.18,0.015,-0.389,0.402,0.263,-0.528,1.043
2024-10-15 13:29:51.743,72943.193,0.223,0.502,-0.836,0.082,0.079,0.172,0.217,-0.548,0.421,0.26,-0.525,1.047
2024-10-15 13:29:51.753,72943.203,0.22,0.498,-0.839,0.083,0.048,0.125,0.466,-0.607,0.423,0.256,-0.521,1.051
2024-10-15 13:29:51.763,72943.213,0.217,0.491,-0.844,0.057,0.024,0.081,0.91,-0.604,0.446,0.252,-0.514,1.054
2024-10-15 13:29:51.773,72943.223,0.214,0.481,-0.85,0.049,0.005,0.039,1.268,-0.553,0.215,0.246,-0.502,1.055
2024-10-15 13:29:51.783,72943.233,0.211,0.47,-0.857,0.012,-0.021,-0.021,1.32,-0.356,0.102,0.241,-0.489,1.053
2024-10-15 13:29:51.793,72943.243,0.208,0.459,-0.864,-0.046,-0.163,-0.019,1.197,-0.296,0.048,0.236,-0.476,1.05
2024-10-15 13:29:51.803,72943.253,0.206,0.449,-0.87,0.011,-0.332,-0.033,1.134,-0.333,0.023,0.232,-0.465,1.048
2024-10-15 13:29:51.813,72943.263,0.203,0.439,-0.876,0.061,-0.312,-0.051,1.119,-0.383,-0.013,0.227,-0.454,1.045
2024-10-15 13:29:51.823,72943.273,0.199,0.429,-0.881,0.042,-0.208,-0.038,1.013,-0.223,-0.099,0.222,-0.444,1.041
2024-10-15 13:29:51.833,72943.283,0.198,0.425,-0.883,-0.019,-0.138,-0.006,0.135,0.012,-0.179,0.22,-0.439,1.039
2024-10-15 13:29:51.844,72943.293,0.197,0.423,-0.884,-0.156,-0.172,-0.414,0.414,0.007,-0.003,0.219,-0.437,1.037
2024-10-15 13:29:51.853,72943.303,0.198,0.419,-0.886,-0.246,0.074,-0.564,0.487,0.217,0.141,0.22,-0.432,1.037
2024-10-15 13:29:51.863,72943.313,0.201,0.414,-0.888,-0.143,0.383,-0.237,0.433,0.244,0.139,0.223,-0.427,1.037
2024-10-15 13:29:51.873,72943.323,0.204,0.41,-0.889,-0.074,0.15,-0.164,0.286,0.128,0.4,0.226,-0.423,1.039
2024-10-15 13:29:51.883,72943.333,0.207,0.409,-0.889,0.043,0.094,-0.163,-0.094,0.083,0.554,0.229,-0.421,1.044
2024-10-15 13:29:51.893,72943.343,0.21,0.409,-0.888,0.055,-0.023,-0.133,-0.21,0.095,0.455,0.232,-0.422,1.05
2024-10-15 13:29:51.903,72943.353,0.212,0.409,-0.888,0.032,-0.237,-0.076,0.164,0.103,0.363,0.235,-0.421,1.054
2024-10-15 13:29:51.913,72943.363,0.214,0.404,-0.889,0.095,-0.23,-0.007,0.719,-0.012,0.153,0.236,-0.416,1.056
2024-10-15 13:29:51.923,72943.373,0.213,0.397,-0.893,0.22,-0.316,0.1,1.041,-0.153,-0.159,0.234,-0.408,1.054
2024-10-15 13:29:51.933,72943.383,0.21,0.387,-0.898,0.316,-0.5,0.238,1.101,-0.38,-0.222,0.23,-0.397,1.049
2024-10-15 13:29:51.943,72943.393,0.205,0.379,-0.902,0.365,-0.608,0.311,0.705,-0.567,-0.323,0.223,-0.389,1.044
2024-10-15 13:29:51.953,72943.403,0.197,0.376,-0.905,0.293,-0.559,0.335,0.246,-0.677,-0.459,0.215,-0.385,1.039
2024-10-15 13:29:51.963,72943.413,0.19,0.375,-0.907,0.099,-0.311,0.232,0.292,-0.555,-0.506,0.206,-0.384,1.033
2024-10-15 13:29:51.973,72943.423,0.185,0.371,-0.91,-0.101,0.05,0.129,0.835,-0.044,-0.437,0.201,-0.38,1.027
2024-10-15 13:29:51.983,72943.433,0.185,0.363,-0.913,-0.191,0.286,0.098,0.797,0.131,-0.256,0.2,-0.372,1.021
2024-10-15 13:29:51.993,72943.442,0.184,0.359,-0.915,-0.118,0.16,-0.015,0.082,-0.064,-0.113,0.199,-0.368,1.019
2024-10-15 13:29:52.003,72943.452,0.182,0.36,-0.915,0.001,-0.098,0.03,-0.084,-0.266,-0.367,0.196,-0.369,1.016
2024-10-15 13:29:52.013,72943.462,0.179,0.36,-0.916,-0.03,0.068,0.031,0.215,-0.146,-0.255,0.193,-0.369,1.013
2024-10-15 13:29:52.023,72943.472,0.177,0.357,-0.917,-0.179,0.443,-0.054,0.553,-0.019,-0.067,0.191,-0.366,1.01
2024-10-15 13:29:52.033,72943.482,0.178,0.353,-0.918,-0.315,0.504,-0.127,0.286,0.103,0.169,0.191,-0.361,1.01
2024-10-15 13:29:52.043,72943.492,0.179,0.35,-0.919,-0.38,0.385,-0.186,0.23,0.067,0.182,0.193,-0.358,1.011
2024-10-15 13:29:52.053,72943.502,0.181,0.348,-0.92,-0.37,0.185,-0.177,0.183,0.117,0.23,0.194,-0.356,1.013
2024-10-15 13:29:52.063,72943.512,0.184,0.346,-0.92,-0.272,0.141,-0.211,0.153,0.179,0.333,0.197,-0.353,1.016
2024-10-15 13:29:52.073,72943.522,0.186,0.345,-0.92,-0.184,0.025,-0.244,-0.164,0.191,0.324,0.2,-0.353,1.019
2024-10-15 13:29:52.083,72943.532,0.19,0.35,-0.917,-0.095,-0.276,-0.307,-0.991,0.228,0.384,0.204,-0.357,1.024
2024-10-15 13:29:52.093,72943.542,0.193,0.363,-0.912,-0.03,-0.493,-0.467,-2.077,0.26,0.416,0.209,-0.372,1.031
2024-10-15 13:29:52.103,72943.552,0.197,0.383,-0.903,-0.046,-0.557,-0.407,-2.168,0.344,0.266,0.215,-0.393,1.04
2024-10-15 13:29:52.113,72943.562,0.202,0.397,-0.895,-0.079,-0.426,-0.273,-1.134,0.404,0.332,0.222,-0.408,1.047
2024-10-15 13:29:52.123,72943.572,0.207,0.402,-0.892,0.067,-0.133,-0.19,-0.222,0.459,0.319,0.228,-0.414,1.052
2024-10-15 13:29:52.133,72943.582,0.211,0.402,-0.891,0.308,0.089,0.077,0.152,0.299,0.06,0.233,-0.414,1.054
2024-10-15 13:29:52.143,72943.592,0.213,0.4,-0.892,0.459,-0.149,0.253,0.252,0.006,0.012,0.234,-0.411,1.054
2024-10-15 13:29:52.153,72943.602,0.211,0.397,-0.893,0.584,-0.311,0.374,0.384,-0.328,-0.22,0.232,-0.409,1.052
2024-10-15 13:29:52.162,72943.612,0.206,0.394,-0.896,0.581,-0.202,0.427,0.45,-0.477,-0.298,0.226,-0.405,1.048
2024-10-15 13:29:52.172,72943.622,0.201,0.391,-0.898,0.386,-0.049,0.358,0.454,-0.515,-0.281,0.22,-0.401,1.044
2024-10-15 13:29:52.182,72943.632,0.195,0.386,-0.902,0.128,0.108,0.226,0.741,-0.429,-0.238,0.213,-0.396,1.04
2024-10-15 13:29:52.193,72943.642,0.193,0.376,-0.906,-0.088,0.25,0.194,1.64,0.128,-0.25,0.21,-0.385,1.035
2024-10-15 13:29:52.202,72943.652,0.194,0.361,-0.912,-0.156,0.351,0.337,1.612,0.221,-0.29,0.21,-0.369,1.028
