Date,TimeStamp,UserAccelerationX,UserAccelerationY,UserAccelerationZ,AttitudePitch,AttitudeRoll,AttitudeYaw,GravityX,GravityY,GravityZ,RotationRateX,RotationRateY,RotationRateZ
2079-03-09_00-28-26,1730448838.941591,-0.009019091725349426,0.03140592575073242,-0.0078812837600708,0.6934299570662129,-0.16342011136802387,0.05915983856473681,-0.12512092292308807,-0.6391787528991699,-0.7588117718696594,0.1251843124628067,0.0728735625743866,-0.025830237194895744
2079-03-09_00-28-26,1730448838.9495978,-0.0004710778594017029,0.019232451915740967,-0.04400569200515747,0.6950420970609258,-0.16290063715172076,0.05890302775044307,-0.1245594397187233,-0.640417754650116,-0.7578588724136353,0.1945362240076065,-0.0010781593155115843,-0.06220635399222374
2079-03-09_00-28-26,1730448838.956548,-0.003395095467567444,0.03180980682373047,-0.06722527742385864,0.6972547925735041,-0.1625265359005429,0.058295795274327655,-0.12404631823301315,-0.642115592956543,-0.7565051913261414,0.22123965620994568,-0.0007338125724345446,-0.0885419249534607
2079-03-09_00-28-26,1730448838.964813,-0.00422397255897522,0.03760451078414917,-0.05892777442932129,0.6995412848572606,-0.16192574737145737,0.05783704172815987,-0.12335477024316788,-0.643866777420044,-0.7551285624504089,0.22305485606193542,0.06288724392652512,-0.05861998349428177
2079-03-09_00-28-26,1730448838.974647,-0.007014282047748566,0.03583085536956787,-0.033245205879211426,0.702011959289377,-0.1610341714904481,0.0577037891610294,-0.12242603302001953,-0.6457552313804626,-0.7536658048629761,0.2647041380405426,0.09542787820100784,-0.04096876457333565
2079-03-09_00-28-26,1730448838.984642,-0.007518485188484192,0.04505425691604614,-0.011300742626190186,0.7048423849793685,-0.16008433783598192,0.05772958566424508,-0.1214182898402214,-0.6479137539863586,-0.75197434425354,0.29681333899497986,0.09271757304668427,-0.054481908679008484
2079-03-09_00-28-26,1730448838.9944549,-0.005920909345149994,0.040534794330596924,-0.0025511980056762695,0.708088325780868,-0.1589797608356381,0.05726278565103764,-0.1202540248632431,-0.6503828167915344,-0.7500274777412415,0.3289106786251068,0.06140599027276039,-0.11614564806222916
2079-03-09_00-28-26,1730448839.006359,-0.008816048502922058,0.030390799045562744,0.006928563117980957,0.7115929500390308,-0.15769353823910523,0.056105774540242945,-0.11893054097890854,-0.6530410051345825,-0.747925877571106,0.33299463987350464,0.04478546604514122,-0.16938064992427826
2079-03-09_00-28-27,1730448839.0146952,-0.011794522404670715,0.02811741828918457,0.0034911036491394043,0.7151850683383915,-0.15615875320306397,0.05433980225164895,-0.11741689592599869,-0.6557571291923523,-0.7457853555679321,0.3364199995994568,0.031339965760707855,-0.2069886326789856
2079-03-09_00-28-27,1730448839.0247579,0.0007169470191001892,0.030051231384277344,0.00874316692352295,0.7188032945991173,-0.15443874545136338,0.052192843474736725,-0.11576823145151138,-0.6584845185279846,-0.743636965751648,0.3270832300186157,0.0320236012339592,-0.22312313318252563
2079-03-09_00-28-27,1730448839.03471,0.005693972110748291,0.02683049440383911,0.011737823486328125,0.7222537575237146,-0.152486358280022,0.0498636623113622,-0.11397034674882889,-0.6610773801803589,-0.7416114211082458,0.29941779375076294,0.05048090219497681,-0.22213946282863617
2079-03-09_00-28-27,1730448839.044739,0.01025325059890747,0.018043935298919678,0.006072640419006348,0.7254543712486068,-0.15031810167200288,0.047627235681242996,-0.11204463988542557,-0.6634754538536072,-0.7397609949111938,0.2902674376964569,0.08195973932743073,-0.20753255486488342
2079-03-09_00-28-27,1730448839.056593,0.009917862713336945,0.019868910312652588,-0.013067245483398438,0.728714072856551,-0.1481108871903617,0.045473927339494194,-0.11009182035923004,-0.6659108400344849,-0.7378635406494141,0.30910030007362366,0.064503513276577,-0.20445868372917175
2079-03-09_00-28-27,1730448839.064559,0.004251487553119659,0.02624613046646118,-0.038311660289764404,0.732092639303369,-0.14633656410069026,0.043375943364895767,-0.10845376551151276,-0.6684275269508362,-0.7358277440071106,0.3086198568344116,0.009479410015046597,-0.2076779007911682
2079-03-09_00-28-27,1730448839.076982,0.004181474447250366,0.02895253896713257,-0.05222129821777344,0.7352846406534362,-0.14491915374584405,0.041116728042274876,-0.10710201412439346,-0.6707983016967773,-0.7338656783103943,0.2629911005496979,-0.03386327251791954,-0.21477602422237396
2079-03-09_00-28-27,1730448839.084467,0.010243058204650879,0.025120079517364502,-0.03299057483673096,0.7377117216542137,-0.1439123376770868,0.03868550301167803,-0.10612928867340088,-0.6725963354110718,-0.732359766960144,0.16670450568199158,-0.08702342212200165,-0.21505698561668396
2079-03-09_00-28-27,1730448839.096734,0.008417144417762756,0.009809553623199463,0.0023847222328186035,0.7392304940413797,-0.14265950435198965,0.03582905006426422,-0.10506632179021835,-0.6737194657325745,-0.7314801216125488,0.07341034710407257,-0.02910739742219448,-0.24793723225593567
2079-03-09_00-28-27,1730448839.1082602,0.002841942012310028,0.0009076595306396484,0.030688464641571045,0.7402346024671154,-0.14034081452289812,0.032458238674402874,-0.10327528417110443,-0.6744611263275146,-0.7310515642166138,0.07534646987915039,0.018162380903959274,-0.27310436964035034
2079-03-09_00-28-27,1730448839.114513,-0.01823563128709793,-0.002905726432800293,0.028688788414001465,0.7418703431466679,-0.13816263332655038,0.029010530323694213,-0.10153060406446457,-0.675667941570282,-0.730181097984314,0.18195705115795135,-0.04504401981830597,-0.27445635199546814
2079-03-09_00-28-27,1730448839.1272302,-0.025317609310150146,-0.008059322834014893,-0.012783169746398926,0.7443622290164259,-0.13671950900791632,0.025821437185159033,-0.10024697333574295,-0.6775028705596924,-0.7286566495895386,0.23593932390213013,-0.09582170844078064,-0.2602002024650574
2079-03-09_00-28-27,1730448839.134419,0.0036762505769729614,-0.008598506450653076,-0.03304868936538696,0.7470139372816956,-0.13569541708833757,0.022926023558352254,-0.09925732016563416,-0.6794508695602417,-0.7269763350486755,0.2338707596063614,-0.08822237700223923,-0.2379135638475418
2079-03-09_00-28-27,1730448839.144333,0.016598425805568695,-0.012426674365997314,-0.014545559883117676,0.7496816209159284,-0.1345373785385138,0.02011246064158185,-0.09817192703485489,-0.681405782699585,-0.7252920866012573,0.24238355457782745,-0.07390815764665604,-0.23919987678527832
2079-03-09_00-28-27,1730448839.1571631,0.022419415414333344,-0.022327721118927002,0.006896495819091797,0.7524605908380239,-0.1333806269296755,0.01743796683914674,-0.09708067774772644,-0.6834371089935303,-0.7235255241394043,0.25031885504722595,-0.056511860340833664,-0.22577393054962158
2079-03-09_00-28-27,1730448839.1641688,0.023475266993045807,-0.01797395944595337,0.025264859199523926,0.755062477570807,-0.1320428493758381,0.014925148153057689,-0.0958782285451889,-0.6853341460227966,-0.7218896150588989,0.21351049840450287,-0.01472499594092369,-0.20393601059913635
2079-03-09_00-28-27,1730448839.1742458,0.02256125956773758,-0.011980950832366943,0.04984748363494873,0.7571338783279813,-0.13037759633277451,0.012794691911080035,-0.09449119120836258,-0.6868411302566528,-0.7206390500068665,0.1562398225069046,0.06424252688884735,-0.15175801515579224
2079-03-09_00-28-27,1730448839.1843581,0.016413241624832153,-0.010343074798583984,0.059378862380981445,0.7586115890329611,-0.12831556326703294,0.011306296667437666,-0.09287504106760025,-0.6879144310951233,-0.719825029373169,0.11392059922218323,0.14278286695480347,-0.1101280152797699
2079-03-09_00-28-27,1730448839.194376,0.013830356299877167,-0.01813971996307373,0.04614269733428955,0.7599376893814325,-0.12601055948001197,0.010136418674759014,-0.09110086411237717,-0.6888762712478638,-0.7191315293312073,0.1359751969575882,0.14110800623893738,-0.08566992729902267
2079-03-09_00-28-27,1730448839.206644,0.015037931501865387,-0.01780068874359131,0.023935675621032715,0.7615223070953343,-0.12420742087898752,0.009464478887491485,-0.08966866880655289,-0.6900240778923035,-0.7182105183601379,0.1638430505990982,0.13334515690803528,-0.054186299443244934
2079-03-09_00-28-27,1730448839.2143168,0.0329168364405632,-0.0144881010055542,0.008017957210540771,0.7631699923281449,-0.1226956974320773,0.009182771121478332,-0.0884435698390007,-0.6912156939506531,-0.7172159552574158,0.15398283302783966,0.1301989108324051,-0.03027595952153206
2079-03-09_00-28-27,1730448839.22439,0.04673449695110321,-0.02101343870162964,0.008617758750915527,0.7646142864625357,-0.12142962897029679,0.009208346913157804,-0.08741443604230881,-0.6922587156295776,-0.7163355946540833,0.13417796790599823,0.13591830432415009,-0.003803072962909937
2079-03-09_00-28-27,1730448839.2341828,0.045216962695121765,-0.01971369981765747,0.013711333274841309,0.7659510340387543,-0.12019048637313286,0.009510840592561689,-0.08641569316387177,-0.6932227611541748,-0.7155240178108215,0.14109675586223602,0.156825453042984,0.011377904564142227
2079-03-09_00-28-27,1730448839.244252,0.04286099225282669,-0.01270967721939087,0.015215158462524414,0.7674556294505829,-0.11886227874618702,0.009880804138031793,-0.08534147590398788,-0.6943063735961914,-0.7146016955375671,0.16584257781505585,0.16012431681156158,0.00366032961755991
2079-03-09_00-28-27,1730448839.2578058,0.0332619771361351,-0.0031314492225646973,0.014144480228424072,0.7691684405994142,-0.11736883564916781,0.010185974707650123,-0.0841347873210907,-0.6955379843711853,-0.7135462760925293,0.17848867177963257,0.17927883565425873,-0.0005130036734044552
2079-03-09_00-28-27,1730448839.264168,0.022387631237506866,0.00710684061050415,0.012073755264282227,0.7708045416742233,-0.11582855484643417,0.010534725036574825,-0.08290399610996246,-0.6967126131057739,-0.7125437259674072,0.14290857315063477,0.172158345580101,0.01394609734416008
2079-03-09_00-28-27,1730448839.274191,0.020348332822322845,0.009077250957489014,0.009436070919036865,0.7717862798128678,-0.11440402132616401,0.011115732982281258,-0.08181074261665344,-0.6974165439605713,-0.7119812369346619,0.06356124579906464,0.1925051510334015,0.047682009637355804
2079-03-09_00-28-27,1730448839.284128,0.01981465518474579,0.0030378103256225586,0.00041675567626953125,0.7721738209109797,-0.11318304469386199,0.011972556623288607,-0.08091083914041519,-0.6976941823959351,-0.7118119597434998,0.02161991596221924,0.16360239684581757,0.06274484843015671
2079-03-09_00-28-27,1730448839.2940521,0.020139560103416443,-0.004708051681518555,-0.004849493503570557,0.7722455462885107,-0.11221116425352688,0.012739237477389205,-0.08021340519189835,-0.6977455615997314,-0.7118405103683472,0.0018034123349934816,0.12781883776187897,0.0566980354487896
2079-03-09_00-28-27,1730448839.306838,0.016055427491664886,-0.003336489200592041,-0.016595184803009033,0.7722431141514023,-0.11123226572357979,0.013317974797476926,-0.07951673120260239,-0.697743833065033,-0.7119203805923462,0.0016750479117035866,0.13447247445583344,0.043327368795871735
2079-03-09_00-28-27,1730448839.3141022,0.011760339140892029,0.009378314018249512,-0.017696022987365723,0.7723343324515942,-0.11007442557325063,0.013669211760090953,-0.07868539541959763,-0.6978091597557068,-0.7119486927986145,0.010294729843735695,0.1302308589220047,0.02382466569542885
2079-03-09_00-28-27,1730448839.324247,0.003520369529724121,0.017536461353302002,-0.007856428623199463,0.7726038790045999,-0.10868833238140202,0.013883270896698713,-0.07767809182405472,-0.6980022192001343,-0.7118701338768005,0.03434014320373535,0.15613490343093872,0.01991860754787922
2079-03-09_00-28-27,1730448839.334065,-0.003333061933517456,0.01444917917251587,0.0020006895065307617,0.7730657423550831,-0.10710469569660819,0.014191498219387217,-0.07651618123054504,-0.6983329057693481,-0.7116716504096985,0.054605767130851746,0.20005148649215698,0.02627221681177616
2079-03-09_00-28-27,1730448839.343992,0.0029231905937194824,0.015926837921142578,0.011487782001495361,0.773680624587238,-0.10534606293095856,0.014718529468670234,-0.07521931827068329,-0.6987728476524353,-0.7113778591156006,0.07195679843425751,0.22250406444072723,0.042364902794361115
2079-03-09_00-28-27,1730448839.3602319,0.0009165406227111816,0.015712618827819824,0.010378837585449219,0.7743413396742311,-0.10362217720489032,0.015501047593428637,-0.07394511252641678,-0.6992453336715698,-0.7110471725463867,0.06846947968006134,0.22989167273044586,0.06175079941749573
2079-03-09_00-28-27,1730448839.36651,-0.0013084635138511658,0.006569802761077881,0.005219995975494385,0.7748498229706309,-0.1019389008760454,0.01645412813839609,-0.07271192967891693,-0.6996088027954102,-0.7108169198036194,0.04595990851521492,0.22773398458957672,0.06699909269809723
2079-03-09_00-28-27,1730448839.3765268,0.003882206976413727,0.002285003662109375,0.008242011070251465,0.7751957062612607,-0.10028104875885205,0.01732875895348976,-0.07150916755199432,-0.6998558640480042,-0.7106956243515015,0.036810994148254395,0.22035862505435944,0.053431347012519836
2079-03-09_00-28-27,1730448839.416006,0.0030634701251983643,0.004645705223083496,0.004834294319152832,0.7755313505298429,-0.09856052722232049,0.01788591921640044,-0.07026317715644836,-0.7000955939292908,-0.7105838060379028,0.043619632720947266,0.1971590369939804,0.02625538781285286
2079-03-09_00-28-27,1730448839.427575,0.0020461082458496094,0.007350146770477295,0.0009698867797851562,0.7759211372011809,-0.09690842491129588,0.01812368130570429,-0.0690627172589302,-0.7003738284111023,-0.7104272246360779,0.05214095115661621,0.16333715617656708,-0.0022782532032579184
2079-03-09_00-28-27,1730448839.432869,0.003610856831073761,0.010579526424407959,0.002868175506591797,0.77638389908276,-0.09522396147880442,0.01802230497769649,-0.06783510744571686,-0.7007040977478027,-0.7102198600769043,0.05216917768120766,0.16409163177013397,-0.02211986854672432
2079-03-09_00-28-27,1730448839.434609,0.002056211233139038,0.01377946138381958,0.008961856365203857,0.7768483542994248,-0.0932712171263686,0.017824364733565787,-0.06641778349876404,-0.7010353803634644,-0.7100268602371216,0.045643825083971024,0.2057538479566574,-0.020809326320886612
2079-03-09_00-28-27,1730448839.445256,0.0010111555457115173,0.01376962661743164,0.009621143341064453,0.7773053927317737,-0.09091651155515175,0.01771052213013991,-0.06471659988164902,-0.7013612389564514,-0.7098621726036072,0.052335549145936966,0.25407448410987854,-0.010109811089932919
2079-03-09_00-28-27,1730448839.4497972,0.0009218677878379822,0.011353611946105957,0.005904555320739746,0.7779620581315636,-0.08816128908070611,0.017662747361442403,-0.06271997094154358,-0.7018291354179382,-0.7095788717269897,0.08070800453424454,0.28734856843948364,-0.018445611000061035
2079-03-09_00-28-27,1730448839.451397,-0.006841093301773071,0.017917275428771973,-5.930662155151367e-05,0.7789725624357573,-0.08506938510099935,0.017494784592377913,-0.06046542525291443,-0.702548623085022,-0.7090623378753662,0.12138725817203522,0.31873416900634766,-0.02859491854906082
2079-03-09_00-28-27,1730448839.461008,-0.0118592269718647,0.029714345932006836,-0.004082858562469482,0.7803486446796819,-0.08159013664790693,0.017150944517083662,-0.0579192116856575,-0.7035272121429443,-0.7083041667938232,0.14316751062870026,0.32505252957344055,-0.04544053226709366
2079-03-09_00-28-27,1730448839.464005,-0.01433822512626648,0.03685194253921509,-0.008528470993041992,0.7816542901830554,-0.07817051135526773,0.016565548000422453,-0.05542496591806412,-0.7044545412063599,-0.7075817584991455,0.106500044465065,0.28134685754776,-0.060947317630052567
2079-03-09_00-28-27,1730448839.475028,-0.012156225740909576,0.03562074899673462,-0.013376772403717041,0.7824136766482043,-0.07501441644477651,0.01578565364234734,-0.053151391446590424,-0.7049933075904846,-0.7072194814682007,0.04449598491191864,0.24846988916397095,-0.0675911009311676
2079-03-09_00-28-27,1730448839.4836879,-0.0030622296035289764,0.02358180284500122,-0.01242685317993164,0.7826508113555561,-0.07203239314977097,0.014769112346640533,-0.05103018507361412,-0.705161452293396,-0.7072081565856934,0.006536086089909077,0.20679888129234314,-0.08690221607685089
2079-03-09_00-28-27,1730448839.4938998,0.0001450367271900177,0.015634536743164062,-0.016159236431121826,0.7826759702078403,-0.06942779048960714,0.013399847583377245,-0.049186788499355316,-0.7051792740821838,-0.7073209881782532,-0.009932134300470352,0.1271679550409317,-0.10905710607767105
2079-03-09_00-28-27,1730448839.508187,-0.004233457148075104,0.011564016342163086,-0.023093760013580322,0.7826595063446827,-0.06729225467621336,0.011832219405014102,-0.04767695069313049,-0.7051675915718079,-0.7074359655380249,-0.0030212311539798975,0.08783839643001556,-0.12202856689691544
2079-03-09_00-28-27,1730448839.513655,0.00531696155667305,0.013736724853515625,-0.019710242748260498,0.7827754809860199,-0.06531332770292085,0.010015600431671256,-0.04627155512571335,-0.7052498459815979,-0.707447350025177,0.015727797523140907,0.06054418906569481,-0.1385023444890976
2079-03-09_00-28-27,1730448839.523879,0.01028347760438919,0.0155714750289917,-0.011921703815460205,0.7829959028724819,-0.06343979576139641,0.008144959415193331,-0.04493618756532669,-0.7054060697555542,-0.707377552986145,0.023793181404471397,0.060643792152404785,-0.14206725358963013
2079-03-09_00-28-27,1730448839.533647,0.007804177701473236,0.010601222515106201,0.00011146068572998047,0.7832601299386422,-0.06143958613625907,0.006262575734844103,-0.04350975155830383,-0.7055933475494385,-0.7072800397872925,0.04212656989693642,0.09651710838079453,-0.1393124908208847
2079-03-09_00-28-27,1730448839.543606,0.009211905300617218,0.003482222557067871,0.00808173418045044,0.7837867095362244,-0.059060036030820474,0.004467088472478236,-0.041804686188697815,-0.7059664130210876,-0.7070105671882629,0.06333518028259277,0.12463689595460892,-0.13306604325771332
2079-03-09_00-28-27,1730448839.556563,0.007403973489999771,0.0010464787483215332,0.01104968786239624,0.784419741498233,-0.0565387999641138,0.002865937517361868,-0.03999675065279007,-0.7064145803451538,-0.7066673636436462,0.06936561316251755,0.16741710901260376,-0.11184943467378616
2079-03-09_00-28-27,1730448839.563538,0.0021620579063892365,0.004692733287811279,0.010853409767150879,0.7849147883542501,-0.05379023680470763,0.0015158482388456815,-0.038035474717617035,-0.7067648768424988,-0.7064253091812134,0.03689369186758995,0.19077835977077484,-0.09773414582014084
2079-03-09_00-28-27,1730448839.5737062,0.007714852690696716,0.009084582328796387,0.01616954803466797,0.7851483561252132,-0.05081955331738685,0.00015048738535699153,-0.03592836111783981,-0.7069301009178162,-0.7063703536987305,0.021166663616895676,0.21194703876972198,-0.10250727832317352
2079-03-09_00-28-27,1730448839.583514,0.003691375255584717,0.007645785808563232,0.014605045318603516,0.7852929966099989,-0.04767970627081341,-0.0012769187303889313,-0.03370541334152222,-0.7070324420928955,-0.7063774466514587,0.01751280575990677,0.21842703223228455,-0.1114424541592598
2079-03-09_00-28-27,1730448839.593595,-0.0009452737867832184,0.007555663585662842,0.009902417659759521,0.7855107762725663,-0.04445226564305894,-0.0028580399097737513,-0.031418610364198685,-0.7071864008903503,-0.7063287496566772,0.0317576602101326,0.20332850515842438,-0.11730353534221649
2079-03-09_00-28-27,1730448839.603856,0.0028174668550491333,0.011490285396575928,0.004592180252075195,0.7857883770070831,-0.041517252745800766,-0.00443882966853317,-0.02933724783360958,-0.7073826789855957,-0.7062218189239502,0.021631523966789246,0.15282325446605682,-0.10869646817445755
2079-03-09_00-28-27,1730448839.613491,0.007071325555443764,0.008551955223083496,-0.00616532564163208,0.7859704805545306,-0.03914308257396735,-0.005864939931395922,-0.027655432000756264,-0.7075113654136658,-0.7061607241630554,0.010502050630748272,0.12626995146274567,-0.0997033417224884
2079-03-09_00-28-27,1730448839.623808,0.013191163539886475,0.0008864998817443848,-0.016160190105438232,0.7860705997923552,-0.037095622028443145,-0.0071660710488789334,-0.026206912472844124,-0.7075821161270142,-0.7061450481414795,0.0021549053490161896,0.10020025819540024,-0.08510735630989075
2079-03-09_00-28-27,1730448839.633486,0.016075260937213898,-0.0030631422996520996,-0.01659214496612549,0.7862682661896263,-0.03539587123785221,-0.008370343157073688,-0.025001652538776398,-0.7077217698097229,-0.7060487866401672,0.026808569207787514,0.0680021122097969,-0.0916677862405777
2079-03-09_00-28-27,1730448839.643461,0.018507301807403564,-0.0012889504432678223,-0.01792275905609131,0.7867494841933313,-0.03408076798019023,-0.009639127873501678,-0.024061495438218117,-0.7080616354942322,-0.7057405114173889,0.06182807311415672,0.024978209286928177,-0.09575920552015305
2079-03-09_00-28-27,1730448839.653506,0.016707729548215866,4.112720489501953e-05,-0.015368103981018066,0.7875529516406409,-0.03298447046486412,-0.010971692074016133,-0.023269010707736015,-0.7086288332939148,-0.7051976919174194,0.08444172143936157,0.01013215072453022,-0.09975256025791168
2079-03-09_00-28-27,1730448839.66345,0.015299571678042412,0.0008077025413513184,-0.006656467914581299,0.7884883915619632,-0.03207806336159458,-0.012252970227828962,-0.02260853536427021,-0.7092885375022888,-0.7045556306838989,0.08850570768117905,-0.0040403930470347404,-0.09203951060771942
2079-03-09_00-28-27,1730448839.673664,0.013480555266141891,0.0018566250801086426,-0.0026717185974121094,0.7893274704038354,-0.03129861358453971,-0.01343775555205669,-0.022040732204914093,-0.7098797559738159,-0.7039780020713806,0.07458139955997467,-0.004484875127673149,-0.08581852912902832
2079-03-09_00-28-27,1730448839.683454,0.010683225467801094,0.0014100074768066406,-0.001343071460723877,0.7900801024962336,-0.03053444033582955,-0.014567862923662482,-0.021486446261405945,-0.7104096412658691,-0.7034603357315063,0.07217550277709961,4.968931898474693e-05,-0.08138357102870941
2079-03-09_00-28-27,1730448839.693365,0.007337756454944611,-0.001816093921661377,0.004780769348144531,0.7907649897958255,-0.029660251626769298,-0.01567482213948766,-0.02085704915225506,-0.7108914852142334,-0.7029924392700195,0.0716664046049118,0.013363097794353962,-0.08133046329021454
2079-03-09_00-28-27,1730448839.7033381,0.006972551345825195,0.0020194053649902344,0.01047050952911377,0.7913588210225533,-0.028506709192541113,-0.016883022425022463,-0.0200340673327446,-0.711309015750885,-0.7025939226150513,0.049580540508031845,0.037776559591293335,-0.08942540735006332
2079-03-09_00-28-27,1730448839.7132978,0.005844905972480774,0.007333815097808838,0.012230753898620605,0.7917340840971313,-0.027064079933106416,-0.018258443864406167,-0.019013239070773125,-0.7115727066993713,-0.7023552060127258,0.03261914849281311,0.0489911325275898,-0.09859498590230942
2079-03-09_00-28-27,1730448839.723805,0.004493458196520805,0.00989598035812378,0.013037919998168945,0.7919277064590516,-0.02547081853076058,-0.01971119239949424,-0.017890671268105507,-0.7117087841033936,-0.7022468447685242,0.01119801215827465,0.058420587331056595,-0.10430773347616196
2079-03-09_00-28-27,1730448839.7332711,0.003921842202544212,0.012440145015716553,0.013178050518035889,0.7919436561346411,-0.023766399703332875,-0.02118663383316099,-0.01669345237314701,-0.7117199897766113,-0.7022649645805359,-0.009359114803373814,0.061911724507808685,-0.10112711787223816
2079-03-09_00-28-27,1730448839.743273,0.004723347723484039,0.014393389225006104,0.012490570545196533,0.7915746706275577,-0.022118288794395726,-0.022616591946122155,-0.01554182730615139,-0.7114607095718384,-0.7025540471076965,-0.06335257738828659,0.061123959720134735,-0.0881415456533432
2079-03-09_00-28-27,1730448839.753244,0.0072097135707736015,0.010616779327392578,0.010114908218383789,0.7907823079694378,-0.020710515379307234,-0.023723842882469447,-0.014564444310963154,-0.7109037041664124,-0.703138530254364,-0.0887846052646637,0.056135859340429306,-0.061176083981990814
2079-03-09_00-28-27,1730448839.763319,0.01583343930542469,-0.001110076904296875,0.005870640277862549,0.7899249727900004,-0.019720476616640406,-0.024479179327315883,-0.013880317099392414,-0.7103004455566406,-0.7037618160247803,-0.0750269815325737,0.028766022995114326,-0.044941455125808716
2079-03-09_00-28-27,1730448839.773777,0.02501736581325531,-0.007772207260131836,-0.012237906455993652,0.7894133903624952,-0.01923090163055417,-0.02506303839638089,-0.01354275643825531,-0.7099402546882629,-0.7041316628456116,-0.03513658419251442,-0.011801909655332565,-0.03877709060907364
2079-03-09_00-28-27,1730448839.783184,0.026380423456430435,-0.005156457424163818,-0.02426624298095703,0.7892925978446828,-0.019127347459758973,-0.025579385805281424,-0.013471480458974838,-0.7098551988601685,-0.7042188048362732,-0.0023477484937757254,-0.039307039231061935,-0.035146668553352356
2079-03-09_00-28-27,1730448839.793332,0.029582109302282333,-0.0018451809883117676,-0.02431410551071167,0.7894010375375516,-0.0192340161096641,-0.02602074915636063,-0.013545118272304535,-0.7099315524101257,-0.7041404247283936,0.018102116882801056,-0.04674364998936653,-0.029646601527929306
2079-03-09_00-28-27,1730448839.80337,0.02841920778155327,-2.0563602447509766e-05,-0.014713823795318604,0.7896302188732619,-0.019428943565815444,-0.026399156928818945,-0.013679212890565395,-0.7100929617881775,-0.7039750814437866,0.020815879106521606,-0.0460221990942955,-0.0234206635504961
2079-03-09_00-28-27,1730448839.813311,0.022288180887699127,0.00015372037887573242,-0.004669129848480225,0.7898778469295811,-0.019633190071342153,-0.02672101023033857,-0.013819544576108456,-0.7102673053741455,-0.7037964463233948,0.02234119549393654,-0.04209749773144722,-0.02452944405376911
2079-03-09_00-28-27,1730448839.823988,0.01904505491256714,0.0042746663093566895,0.004528641700744629,0.7900094330718784,-0.01973249187209504,-0.0270892578504848,-0.013887588866055012,-0.7103599309921265,-0.7037016153335571,0.003652462735772133,-0.03277856484055519,-0.02770206704735756
2079-03-09_00-28-27,1730448839.833181,0.012983856722712517,0.008045971393585205,0.009669125080108643,0.7899261403143062,-0.01972590330438487,-0.027516115783761074,-0.013884120620787144,-0.7103012800216675,-0.7037609219551086,-0.017834171652793884,-0.03246031701564789,-0.030235905200242996
2079-03-09_00-28-27,1730448839.843415,0.007275811396539211,0.007289767265319824,0.012745380401611328,0.7897623122633817,-0.01974254502734355,-0.02795640633040592,-0.013898128643631935,-0.7101859450340271,-0.7038769721984863,-0.01894364506006241,-0.038094766438007355,-0.025550339370965958
2079-03-09_00-28-27,1730448839.852991,0.007531606592237949,0.004720568656921387,0.009272277355194092,0.7896240483998913,-0.019799686275468922,-0.02838339350028506,-0.013940293341875076,-0.7100886106491089,-0.7039743661880493,-0.006848412565886974,-0.04185355454683304,-0.022568875923752785
2079-03-09_00-28-27,1730448839.863387,0.010439973324537277,0.0010752677917480469,0.00302886962890625,0.7895612737105979,-0.019898202153154552,-0.02879741187665713,-0.014010533690452576,-0.7100443840026855,-0.7040175795555115,0.002304605208337307,-0.046881068497896194,-0.019797857850790024
2079-03-09_00-28-27,1730448839.873246,0.009037709794938564,-0.0001671314239501953,0.0020571351051330566,0.7895088136319041,-0.02002937103905157,-0.029086401491602028,-0.014103624038398266,-0.7100074887275696,-0.7040529847145081,-0.007622015196830034,-0.036105651408433914,-0.004851506091654301
2079-03-09_00-28-27,1730448839.882983,0.01314412709325552,0.0001646280288696289,0.006804943084716797,0.7893082578884467,-0.020222897828853004,-0.02910449385486946,-0.014242756180465221,-0.7098662257194519,-0.704192578792572,-0.029802951961755753,-0.01971602626144886,0.016335271298885345
2079-03-09_00-28-27,1730448839.893189,0.01914367824792862,-0.00626683235168457,0.01210397481918335,0.7887994595416009,-0.020628075950567353,-0.028727301680102915,-0.014535526745021343,-0.7095077633857727,-0.7045477628707886,-0.06769365072250366,-0.014172389172017574,0.04790976271033287
2079-03-09_00-28-27,1730448839.902736,0.02299807220697403,-0.01275557279586792,0.011246323585510254,0.7879932735258173,-0.02131684763517197,-0.028019735353882066,-0.015032983385026455,-0.7089394330978394,-0.7051092386245728,-0.08908629417419434,-0.03366886079311371,0.06291481107473373
2079-03-09_00-28-27,1730448839.913015,0.028614040464162827,-0.01174861192703247,0.0031142234802246094,0.7871280302323257,-0.022423710312865077,-0.02715163114858335,-0.015827180817723274,-0.708328902721405,-0.7057051062583923,-0.08084789663553238,-0.07007373869419098,0.06613414734601974
2079-03-09_00-28-27,1730448839.923554,0.031140699982643127,-0.006372213363647461,-0.00873875617980957,0.786444079688427,-0.023847111405054532,-0.02632241096795198,-0.016843212768435478,-0.7078459858894348,-0.7061660289764404,-0.05354543775320053,-0.10175763070583344,0.056025054305791855
2079-03-09_00-28-27,1730448839.932955,0.027935585007071495,-0.0013140439987182617,-0.011171400547027588,0.7859796128012411,-0.025562789495790342,-0.02565932546463686,-0.018063142895698547,-0.7075178027153015,-0.7064647078514099,-0.04030313715338707,-0.14498046040534973,0.04361392557621002
2079-03-09_00-28-27,1730448839.943293,0.02340490184724331,0.0024064183235168457,-0.0042269229888916016,0.7855440346490118,-0.02725891103525426,-0.025214299267278223,-0.01926976442337036,-0.7072099447250366,-0.7067410349845886,-0.053351029753685,-0.1402120739221573,0.034663841128349304
2079-03-09_00-28-27,1730448839.952851,0.021386485546827316,-0.001262962818145752,0.006336629390716553,0.7849511559176269,-0.028919837987901605,-0.02473722634762047,-0.020455701276659966,-0.7067906260490417,-0.7071269750595093,-0.06506973505020142,-0.12731198966503143,0.03958003595471382
2079-03-09_00-28-27,1730448839.963001,0.01534527912735939,-0.0036658048629760742,0.013863682746887207,0.7842510174010136,-0.030454016263969565,-0.02424067127220615,-0.021555598825216293,-0.7062951326370239,-0.7075892686843872,-0.07851497083902359,-0.11909294128417969,0.037734732031822205
2079-03-09_00-28-27,1730448839.97302,0.01291498914361,-0.005147039890289307,0.018564283847808838,0.7834738551288072,-0.03176056827355837,-0.023864730803417458,-0.02249750867486,-0.7057448029518127,-0.7081089615821838,-0.08485808968544006,-0.09814904630184174,0.03108002431690693
2079-03-09_00-28-27,1730448839.982799,0.010700944811105728,-0.00377732515335083,0.022646546363830566,0.7826506177897389,-0.03276590936095015,-0.023574475975355745,-0.023228412494063377,-0.7051613330841064,-0.7086663842201233,-0.09137511253356934,-0.07476888597011566,0.02494649775326252
2079-03-09_00-28-27,1730448839.993003,0.006320158019661903,0.0020411014556884766,0.022924423217773438,0.7817324414426691,-0.033529841479026434,-0.023395615624132688,-0.023791471496224403,-0.704509973526001,-0.7092952132225037,-0.0970657542347908,-0.06563877314329147,0.01845424249768257
2079-03-09_00-28-27,1730448840.002712,0.002654861658811569,0.005531787872314453,0.02266484498977661,0.780695861370113,-0.03404965518152002,-0.023348003408101607,-0.024185018613934517,-0.7037739753723145,-0.7100121974945068,-0.10918393731117249,-0.04521233215928078,0.009076187387108803
2079-03-09_00-28-27,1730448840.01291,-0.0011017881333827972,0.005678653717041016,0.023738503456115723,0.7794643778751764,-0.0342830098656414,-0.023396703761195934,-0.024380391463637352,-0.7028985619544983,-0.710872232913971,-0.1293398141860962,-0.02188889868557453,0.0018496997654438019
2079-03-09_00-28-28,1730448840.024826,-0.003586815670132637,0.008174419403076172,0.017966628074645996,0.7781044348733961,-0.034175723991078745,-0.023640081256814847,-0.024336764588952065,-0.701930582523346,-0.7118294835090637,-0.1443326622247696,-0.002044886816293001,-0.01581350341439247
2079-03-09_00-28-28,1730448840.032755,-0.006009362637996674,0.011325359344482422,0.012444734573364258,0.77676630680414,-0.03377185412806997,-0.024127502144637072,-0.024080967530608177,-0.7009768486022949,-0.712777316570282,-0.13519695401191711,0.004872407764196396,-0.035816505551338196
2079-03-09_00-28-28,1730448840.0432591,-0.0034331288188695908,0.014252901077270508,0.0077283382415771484,0.7755873083087131,-0.03325884451410261,-0.02482009894207576,-0.02374277077615261,-0.7001355290412903,-0.7136151194572449,-0.11925595998764038,-0.0026547505985945463,-0.04736098647117615
2079-03-09_00-28-28,1730448840.052695,0.0011197607964277267,0.015314757823944092,0.002360224723815918,0.7744892060778417,-0.03269719270694636,-0.025633169326148078,-0.023367082700133324,-0.6993510723114014,-0.7143963575363159,-0.11588529497385025,-0.0008147726766765118,-0.052624087780714035
2079-03-09_00-28-28,1730448840.062871,0.0017237011343240738,0.015348553657531738,0.0020493268966674805,0.7734483182831858,-0.032057511813201635,-0.02643551326429531,-0.022933412343263626,-0.6986066699028015,-0.71513831615448,-0.11578809469938278,0.014760192483663559,-0.04930472373962402
2079-03-09_00-28-28,1730448840.074934,0.001394050195813179,0.014596283435821533,0.002921164035797119,0.7724400801850047,-0.03137365413167239,-0.027168277025929406,-0.022466439753770828,-0.6978849172592163,-0.7158575654029846,-0.09901637583971024,0.01976187527179718,-0.04495071992278099
2079-03-09_00-28-28,1730448840.0828118,-5.033425986766815e-05,0.012924909591674805,-0.0010998249053955078,0.7716619153607274,-0.030739465399844478,-0.02789534556633563,-0.022029126062989235,-0.6973273754119873,-0.7164141535758972,-0.06879083067178726,0.009764901362359524,-0.050694361329078674
2079-03-09_00-28-28,1730448840.092924,0.0011279452592134476,0.011043429374694824,-0.00809931755065918,0.7711233729869625,-0.0302597234348585,-0.02846338075332385,-0.0216967910528183,-0.6969412565231323,-0.7167999148368835,-0.051744140684604645,0.010959595441818237,-0.03140077367424965
2079-03-09_00-28-28,1730448840.102696,0.0016358885914087296,0.007210910320281982,-0.01127392053604126,0.7706731121156604,-0.029976015002236827,-0.02875246005359412,-0.02150282822549343,-0.6966183185577393,-0.717119574546814,-0.04661276191473007,0.005907312035560608,-0.011166872456669807
2079-03-09_00-28-28,1730448840.113869,0.0054727233946323395,0.005277872085571289,-0.008113265037536621,0.770233273161336,-0.029930273235043575,-0.02878779620149216,-0.021479196846485138,-0.6963027119636536,-0.7174268364906311,-0.04264300689101219,0.0025954050943255424,0.005738287698477507
2079-03-09_00-28-28,1730448840.125619,0.007942117750644684,0.0032265186309814453,-0.005354046821594238,0.7698413930489286,-0.029957895628202173,-0.028684977693894574,-0.021507184952497482,-0.6960213780403137,-0.7176989316940308,-0.033037781715393066,0.008179521188139915,0.003296701470389962
2079-03-09_00-28-28,1730448840.1326752,0.0064673759043216705,0.005242466926574707,-0.006291806697845459,0.7695463719802125,-0.029893029358458202,-0.0286805827407727,-0.02146676555275917,-0.6958094835281372,-0.7179055213928223,-0.02531168796122074,0.0046644145622849464,-0.0012122965417802334
2079-03-09_00-28-28,1730448840.1428928,0.006659317761659622,0.008649706840515137,-0.003174126148223877,0.7692552562584235,-0.029854394487861688,-0.028680598947437328,-0.021445075049996376,-0.6956003904342651,-0.7181087732315063,-0.03833587467670441,0.006397333927452564,0.004551316611468792
2079-03-09_00-28-28,1730448840.152605,0.007485739886760712,0.014134764671325684,0.004452705383300781,0.7687132106529851,-0.029757209715261267,-0.028582743078587495,-0.02138650231063366,-0.695210874080658,-0.7184876799583435,-0.06467866897583008,0.025706583634018898,0.012106917798519135
2079-03-09_00-28-28,1730448840.1630259,0.006924344226717949,0.011683523654937744,0.009587645530700684,0.7678507544112417,-0.02956708103698492,-0.028446462205314115,-0.021267613396048546,-0.69459068775177,-0.7190907597541809,-0.09513724595308304,0.024073533713817596,0.011701318435370922
2079-03-09_00-28-28,1730448840.172565,0.006297063082456589,0.0071100592613220215,0.00943678617477417,0.7668390103644918,-0.029493503408512065,-0.028232725455478006,-0.02123541757464409,-0.6938624382019043,-0.7197944521903992,-0.1009395569562912,0.018824975937604904,0.019637323915958405
2079-03-09_00-28-28,1730448840.182732,0.007132682949304581,0.008794128894805908,0.0017747282981872559,0.7658512535330187,-0.029502811549103215,-0.02798456905908185,-0.02126232348382473,-0.6931508183479309,-0.720478892326355,-0.08934761583805084,0.01335084717720747,0.02160913124680519
2079-03-09_00-28-28,1730448840.1924949,0.008215298876166344,0.011441349983215332,-0.006985783576965332,0.7649728795905866,-0.029498032382800785,-0.027801934886128896,-0.02127682976424694,-0.6925174593925476,-0.7210873365402222,-0.08531734347343445,0.009177674539387226,0.016943057999014854
2079-03-09_00-28-28,1730448840.202548,0.004990357905626297,0.011422812938690186,-0.009556233882904053,0.7641226082209707,-0.029508849457003897,-0.02754770530107856,-0.0213019959628582,-0.6919037699699402,-0.721675455570221,-0.08350798487663269,0.024612024426460266,0.027770671993494034
2079-03-09_00-28-28,1730448840.212481,0.0034119635820388794,0.01149970293045044,-0.0057222843170166016,0.7632784143124629,-0.029496795866118922,-0.02708206203312456,-0.021310515701770782,-0.6912940740585327,-0.7222593426704407,-0.07786370068788528,0.040555037558078766,0.04573268070816994
2079-03-09_00-28-28,1730448840.222661,0.004368549212813377,0.0076378583908081055,-0.0029216408729553223,0.7625798399698132,-0.029555033398770542,-0.026421572577113858,-0.021366842091083527,-0.6907891035079956,-0.7227405309677124,-0.058374423533678055,0.036335255950689316,0.05508890002965927
2079-03-09_00-28-28,1730448840.232435,0.0070298537611961365,0.00539630651473999,-0.010282278060913086,0.7620756139479601,-0.029697185187074003,-0.025709741946228448,-0.02147992141544819,-0.6904244422912598,-0.7230855822563171,-0.042229074984788895,0.0313226580619812,0.05493667349219322
2079-03-09_00-28-28,1730448840.2430902,0.007582424208521843,0.0067920684814453125,-0.017080068588256836,0.7617270321426498,-0.029881671653922554,-0.024999514439994926,-0.021620510146021843,-0.6901722550392151,-0.7233221530914307,-0.028875451534986496,0.030427569523453712,0.05436648800969124
2079-03-09_00-28-28,1730448840.2525449,0.0064284466207027435,0.012530088424682617,-0.013994276523590088,0.7614960728499472,-0.030030591417298084,-0.024353108667472704,-0.021733012050390244,-0.6900050640106201,-0.7234781980514526,-0.024491026997566223,0.026951078325510025,0.044882334768772125
2079-03-09_00-28-28,1730448840.2628489,0.005857383832335472,0.012702524662017822,-0.007659733295440674,0.7612915561181018,-0.030100120046685563,-0.023847028206343296,-0.021787559613585472,-0.6898570656776428,-0.723617672920227,-0.01664801687002182,0.02759183570742607,0.03159502521157265
2079-03-09_00-28-28,1730448840.2725492,0.003106050193309784,0.013111233711242676,-0.000321805477142334,0.7611184733521034,-0.03004641925449562,-0.023536073797723652,-0.021752286702394485,-0.6897317171096802,-0.7237381935119629,-0.012822149321436882,0.028050165623426437,0.016403289511799812
2079-03-09_00-28-28,1730448840.28248,0.00272928923368454,0.01472693681716919,0.004331469535827637,0.7609475922588246,-0.029879391682644092,-0.023389251702144582,-0.021634923294186592,-0.6896079778671265,-0.7238596081733704,-0.01340910978615284,0.028891457244753838,0.009959237650036812
2079-03-09_00-28-28,1730448840.2925339,0.0015508942306041718,0.016542553901672363,0.00683283805847168,0.7607366352074357,-0.029594620504172876,-0.023318412233793027,-0.021433094516396523,-0.6894552111625671,-0.7240111827850342,-0.021734686568379402,0.034764260053634644,0.005191593896597624
2079-03-09_00-28-28,1730448840.302351,0.00045057758688926697,0.015099585056304932,0.009161531925201416,0.7605351554486888,-0.02922841327299291,-0.023266972977407877,-0.021172014996409416,-0.6893092393875122,-0.7241578698158264,-0.019269131124019623,0.04617324098944664,0.0013928610133007169
2079-03-09_00-28-28,1730448840.31242,0.00028975680470466614,0.013060808181762695,0.008975505828857422,0.7603116483316049,-0.02870523214188559,-0.023290521301067808,-0.020797567442059517,-0.6891472935676575,-0.7243227958679199,-0.023167449980974197,0.051924604922533035,0.0012420727871358395
2079-03-09_00-28-28,1730448840.324401,0.00209740549325943,0.009255826473236084,0.007745981216430664,0.7600092306660855,-0.028138172297714235,-0.023278068618993675,-0.02039269171655178,-0.6889281272888184,-0.7245427966117859,-0.030476495623588562,0.06030131131410599,0.006375049706548452
2079-03-09_00-28-28,1730448840.332314,0.005238763988018036,0.00630640983581543,0.007744550704956055,0.7595610488149329,-0.027618281756719106,-0.0230958934501022,-0.020024530589580536,-0.6886032223701477,-0.7248618602752686,-0.05223889276385307,0.06579062342643738,0.02355627343058586
2079-03-09_00-28-28,1730448840.342632,0.0076817721128463745,0.005710124969482422,0.0064775943756103516,0.758907297491074,-0.027245725866570182,-0.022681173137690892,-0.019766736775636673,-0.6881290078163147,-0.7253190875053406,-0.06885196268558502,0.06329896301031113,0.04303783178329468
2079-03-09_00-28-28,1730448840.3522282,0.013681722804903984,-0.00016158819198608398,0.001598060131072998,0.7581754711121971,-0.02706312183273661,-0.02210702130309064,-0.019647911190986633,-0.6875978112220764,-0.725825846195221,-0.06788931787014008,0.04647897183895111,0.045490868389606476
2079-03-09_00-28-28,1730448840.3624768,0.01595913991332054,-0.002342402935028076,-0.005079984664916992,0.7575889299656097,-0.02711643188304547,-0.021519729180864783,-0.019697539508342743,-0.6871718168258667,-0.7262279391288757,-0.044720616191625595,0.024981670081615448,0.04467993602156639
2079-03-09_00-28-28,1730448840.376171,0.01798008382320404,-0.0009736418724060059,-0.01248311996459961,0.757162708599694,-0.02738788690157356,-0.020900665803598777,-0.01990269497036934,-0.6868621110916138,-0.7265152335166931,-0.03721064329147339,0.00890097115188837,0.04571313410997391
2079-03-09_00-28-28,1730448840.382207,0.015236344188451767,0.0007419586181640625,-0.01200944185256958,0.7567729482318364,-0.02775962820862599,-0.020261861237405605,-0.020180197432637215,-0.6865787506103516,-0.7267753481864929,-0.04063307121396065,0.007957413792610168,0.04367528483271599
2079-03-09_00-28-28,1730448840.392521,0.011631380766630173,0.00276106595993042,-0.006777405738830566,0.7562342720691217,-0.02801295409853448,-0.01967132423230881,-0.020374665036797523,-0.6861870288848877,-0.7271398305892944,-0.0667899027466774,0.025497525930404663,0.041374098509550095
2079-03-09_00-28-28,1730448840.402205,0.007671087980270386,0.005983412265777588,0.006247401237487793,0.755441235068611,-0.02804356587682143,-0.019168100757533717,-0.020412174984812737,-0.6856099367141724,-0.7276829481124878,-0.08533189445734024,0.034648679196834564,0.03672528639435768
2079-03-09_00-28-28,1730448840.4123468,0.004088198766112328,0.008004844188690186,0.016689658164978027,0.7546130605656374,-0.027920960549500645,-0.018761396495644993,-0.02033880166709423,-0.6850067973136902,-0.7282527089118958,-0.08402036875486374,0.0435287207365036,0.028838759288191795
2079-03-09_00-28-28,1730448840.422637,0.002339499071240425,0.008020758628845215,0.01947861909866333,0.753713705499191,-0.02759166731921731,-0.018512703308841732,-0.02011597901582718,-0.6843513250350952,-0.728874921798706,-0.10051971673965454,0.05097571760416031,0.01628515124320984
2079-03-09_00-28-28,1730448840.4324079,0.0004189480096101761,0.008397400379180908,0.01756727695465088,0.7526195264076582,-0.02704336474405146,-0.018432734617449122,-0.01973656937479973,-0.6835530996322632,-0.7296339273452759,-0.12461020052433014,0.06501857191324234,0.007292828056961298
2079-03-09_00-28-28,1730448840.4422479,0.001207219436764717,0.009755432605743408,0.02002084255218506,0.7512824487226107,-0.026292318413430993,-0.018402121893522746,-0.01921258494257927,-0.6825765371322632,-0.7305615544319153,-0.1419132947921753,0.07924437522888184,0.008659829385578632
2079-03-09_00-28-28,1730448840.4521,0.002123706042766571,0.008638322353363037,0.019618988037109375,0.7498800202246624,-0.02548747637451868,-0.018355296436491458,-0.018648969009518623,-0.6815509796142578,-0.7315329909324646,-0.13658884167671204,0.08402954787015915,0.009769088588654995
2079-03-09_00-28-28,1730448840.462278,0.0023006126284599304,0.006570100784301758,0.011365234851837158,0.7485766536382114,-0.024718964709830465,-0.01828195453003567,-0.018108712509274483,-0.680596649646759,-0.7324345707893372,-0.128372460603714,0.07628187537193298,0.014754259027540684
2079-03-09_00-28-28,1730448840.47267,0.005771612748503685,0.003455936908721924,0.004811763763427734,0.7473259231403127,-0.024055132504821653,-0.01810357119875317,-0.017642956227064133,-0.6796797513961792,-0.733296811580658,-0.1246461272239685,0.07492420077323914,0.025626881048083305
2079-03-09_00-28-28,1730448840.482143,0.005690805613994598,0.00518798828125,0.0003833770751953125,0.7461514435032164,-0.023607113101051173,-0.017723572638051167,-0.0173332542181015,-0.6788177490234375,-0.734102189540863,-0.11325924098491669,0.06017906963825226,0.03818794712424278
2079-03-09_00-28-28,1730448840.492003,0.0122031569480896,0.0022377371788024902,-0.010988414287567139,0.7451472123486071,-0.02351865084749917,-0.017177743456868007,-0.01728433556854725,-0.6780800223350525,-0.7347848415374756,-0.0930817723274231,0.030036350712180138,0.04980497434735298
2079-03-09_00-28-28,1730448840.5024571,0.018491821363568306,-0.005264759063720703,-0.0239943265914917,0.7444275085975857,-0.023796354382325958,-0.01655600255238732,-0.01749999448657036,-0.6775508522987366,-0.735267698764801,-0.05867559462785721,0.0005026930593885481,0.04322057589888573
2079-03-09_00-28-28,1730448840.511898,0.017988502979278564,-0.001970648765563965,-0.02518564462661743,0.7439894074382266,-0.024243433832016707,-0.016075315366136596,-0.017835909500718117,-0.677228569984436,-0.7355564832687378,-0.036571204662323,-0.01929924078285694,0.02775975503027439
2079-03-09_00-28-28,1730448840.524565,0.014649661257863045,0.0060315728187561035,-0.018131017684936523,0.7437910937505546,-0.024636935555924527,-0.015799626281320114,-0.018128659576177597,-0.6770826578140259,-0.7356836795806885,-0.009793652221560478,-0.019728010520339012,0.012420744635164738
2079-03-09_00-28-28,1730448840.532031,0.006049107760190964,0.012242019176483154,-0.00513005256652832,0.7438741837614294,-0.024874344528540666,-0.015720169085429038,-0.018301919102668762,-0.6771438121795654,-0.7356231212615967,0.016163211315870285,-0.01574125699698925,-0.0036332698073238134
2079-03-09_00-28-28,1730448840.542742,0.0007892772555351257,0.015797913074493408,0.002987086772918701,0.7441445376597665,-0.024907335828046405,-0.015811583813337984,-0.018321625888347626,-0.6773427128791809,-0.7354394197463989,0.027223052456974983,-0.005071302875876427,-0.010505556128919125
2079-03-09_00-28-28,1730448840.5520449,-0.0012576412409543991,0.01770728826522827,0.004953861236572266,0.7443755591873474,-0.02478508059861894,-0.015982049544097373,-0.0182278361171484,-0.6775126457214355,-0.735285222530365,0.015034372918307781,0.0029522685799747705,-0.012577923014760017
2079-03-09_00-28-28,1730448840.562022,-0.0029770415276288986,0.01589512825012207,0.004701137542724609,0.7444842392720102,-0.024565852755116194,-0.016184692096211435,-0.0180648323148489,-0.6775925755500793,-0.7352156043052673,0.007346092723309994,0.011408071964979172,-0.01783367060124874
2079-03-09_00-28-28,1730448840.5729141,-0.001069001853466034,0.013042926788330078,0.0041915178298950195,0.7445481013101615,-0.024194635214124564,-0.01648165737032763,-0.017790859565138817,-0.6776395440101624,-0.7351790070533752,0.00536474771797657,0.015364197082817554,-0.020905999466776848
2079-03-09_00-28-28,1730448840.581977,-7.273629307746887e-05,0.012532830238342285,0.0012151002883911133,0.744539143860066,-0.023723112982233764,-0.016849357075396032,-0.017444347962737083,-0.6776329874992371,-0.7351933717727661,-0.0038742907345294952,0.020636724308133125,-0.026611821725964546
2079-03-09_00-28-28,1730448840.5918121,-0.00014426931738853455,0.011807441711425781,0.0024898648262023926,0.7443620128265809,-0.02312393487971679,-0.01729507077068101,-0.017006609588861465,-0.6775026917457581,-0.7353237271308899,-0.025102801620960236,0.02975618652999401,-0.03052789531648159
2079-03-09_00-28-28,1730448840.6017718,0.00048472173511981964,0.01020878553390503,0.004197120666503906,0.7439519446845214,-0.022497498407121005,-0.017734425544680014,-0.016552219167351723,-0.6772010326385498,-0.7356119155883789,-0.048752203583717346,0.029373489320278168,-0.028261277824640274
2079-03-09_00-28-28,1730448840.611685,0.0016121305525302887,0.006942629814147949,0.006126880645751953,0.7433911425867628,-0.021944504848967757,-0.0180405727384088,-0.016153760254383087,-0.6767882704734802,-0.7360005378723145,-0.05604975298047066,0.035921934992074966,-0.018300950527191162
2079-03-09_00-28-28,1730448840.622076,0.0039377398788928986,0.0048615336418151855,0.003788888454437256,0.7428650463622524,-0.02150725042527797,-0.018232036079470316,-0.01583959348499775,-0.676400899887085,-0.7363633513450623,-0.04398083686828613,0.022079624235630035,-0.009180687367916107
2079-03-09_00-28-28,1730448840.632108,0.009052213281393051,0.0048621296882629395,-0.0004712343215942383,0.7425343937201202,-0.02135947989648021,-0.01833445279455095,-0.015735555440187454,-0.6761572957038879,-0.736589252948761,-0.018501026555895805,-0.004590602591633797,-0.009303458966314793
2079-03-09_00-28-28,1730448840.642799,0.016306700184941292,0.002034425735473633,-0.009598374366760254,0.742445072543068,-0.021470207803273036,-0.018401455486484915,-0.015818415209650993,-0.6760914921760559,-0.73664790391922,0.004740113392472267,-0.024360045790672302,-0.005555059760808945
2079-03-09_00-28-28,1730448840.651901,0.018594244495034218,0.0016492009162902832,-0.012814104557037354,0.7425227892198749,-0.021760019934888245,-0.018472763315807213,-0.01603076048195362,-0.6761487722396851,-0.7365908026695251,0.011169640347361565,-0.04018241912126541,-0.00670650415122509
2079-03-09_00-28-28,1730448840.662047,0.01922423020005226,0.0039386749267578125,-0.008710861206054688,0.7426065496859431,-0.022119831451447202,-0.018562957428573338,-0.016294540837407112,-0.6762104630470276,-0.7365283370018005,0.01066470518708229,-0.042368609458208084,-0.0071555133908987045
2079-03-09_00-28-28,1730448840.672045,0.017081687226891518,0.004259705543518066,-0.0016775131225585938,0.7427108878072911,-0.02252777252332944,-0.01865510070616877,-0.016593409702181816,-0.6762873530387878,-0.7364510893821716,0.010552367195487022,-0.05051681771874428,-0.005488960072398186
2079-03-09_00-28-28,1730448840.682091,0.015233391895890236,0.005365550518035889,0.0008893609046936035,0.7427621418832555,-0.02298198397743175,-0.018728692834900383,-0.016927115619182587,-0.6763250827789307,-0.7364087700843811,0.001985776936635375,-0.04988564923405647,-0.003985072951763868
2079-03-09_00-28-28,1730448840.692635,0.012938989326357841,0.007760584354400635,0.0045754313468933105,0.7427405714718456,-0.02332619182305625,-0.018798574085440056,-0.017180930823087692,-0.6763092279434204,-0.7364174723625183,-0.0021614222787320614,-0.03079397790133953,-0.004304812289774418
2079-03-09_00-28-28,1730448840.701692,0.00926554948091507,0.0109596848487854,0.00945889949798584,0.7427127445990802,-0.02349669827433567,-0.018844883280873543,-0.017306936904788017,-0.6762887239456177,-0.7364333271980286,-0.00018615578301250935,-0.006435107439756393,-0.005046769045293331
2079-03-09_00-28-28,1730448840.7118912,0.007275020703673363,0.00921320915222168,0.010429441928863525,0.7427239702684824,-0.023404703879397408,-0.01891817443943119,-0.017239011824131012,-0.6762969493865967,-0.736427366733551,0.002322838641703129,0.011432305909693241,-0.0026296840514987707
2079-03-09_00-28-28,1730448840.7214742,0.002780197188258171,0.008523881435394287,0.007325410842895508,0.7427617830616472,-0.02318643091239496,-0.01896709832322337,-0.017077676951885223,-0.6763248443603516,-0.7364055514335632,0.008023601025342941,0.01584542915225029,-0.0002887654700316489
2079-03-09_00-28-28,1730448840.7317162,0.002528570592403412,0.010368406772613525,0.0021938085556030273,0.7428422434149616,-0.022950044962301373,-0.019067513207133523,-0.01690235175192356,-0.6763840913772583,-0.736355185508728,0.008931521326303482,0.012707694433629513,-0.009797581471502781
2079-03-09_00-28-28,1730448840.7417479,0.0016253087669610977,0.008794665336608887,-8.702278137207031e-06,0.7428808638489505,-0.02261523191186484,-0.019308385382380295,-0.016655219718813896,-0.6764125227928162,-0.7363346815109253,-0.001098742475733161,0.007166720926761627,-0.019956476986408234
2079-03-09_00-28-28,1730448840.751735,0.0008566584438085556,0.007936954498291016,0.0005950927734375,0.7429178655449776,-0.022421729120591597,-0.019561538475813343,-0.016512176021933556,-0.6764397621154785,-0.7363128662109375,0.011319232173264027,-0.009055924601852894,-0.01933329738676548
2079-03-09_00-28-28,1730448840.761685,2.0347535610198975e-05,0.005963683128356934,0.0006333589553833008,0.7429319917398909,-0.022301657394507426,-0.019798567036625043,-0.016423551365733147,-0.6764501929283142,-0.736305296421051,-0.00430713128298521,-0.005059851333498955,-0.013128131628036499
2079-03-09_00-28-28,1730448840.77122,0.004737235605716705,0.005137026309967041,0.0008632540702819824,0.7428662227541711,-0.022157851339397322,-0.020063798103773678,-0.016318650916218758,-0.6764017343521118,-0.7363521456718445,-0.006212483160197735,-0.011637059971690178,-0.019763929769396782
2079-03-09_00-28-28,1730448840.781667,0.0037339963018894196,0.005414783954620361,0.0012891292572021484,0.7428911387171968,-0.02214286397024959,-0.020363542655429626,-0.016307242214679718,-0.6764200925827026,-0.7363354563713074,0.009352361783385277,-0.028993412852287292,-0.02197968028485775
2079-03-09_00-28-28,1730448840.792774,0.0016957540065050125,0.0054798126220703125,-0.00451892614364624,0.7430621618300279,-0.02219652055926633,-0.020710647096124853,-0.016344182193279266,-0.676546037197113,-0.7362189292907715,0.020458683371543884,-0.029316455125808716,-0.030173374339938164
2079-03-09_00-28-28,1730448840.8016372,0.004260873422026634,0.007736861705780029,-0.0053487420082092285,0.7432055914909752,-0.022222413550014298,-0.021143846822257645,-0.016361091285943985,-0.676651656627655,-0.7361215353012085,0.012111004441976547,-0.033756744116544724,-0.031249023973941803
2079-03-09_00-28-28,1730448840.811692,0.0022041164338588715,0.009965896606445312,0.002701997756958008,0.74335240463452,-0.022105337250433326,-0.021687839738208384,-0.016272712498903275,-0.6767597794532776,-0.7360241413116455,0.01059693656861782,-0.019101368263363838,-0.04656379669904709
2079-03-09_00-28-28,1730448840.821521,0.005723688751459122,0.013436436653137207,0.008498311042785645,0.7433409078613425,-0.021766337074121768,-0.022318257947315342,-0.016023367643356323,-0.6767513155937195,-0.7360373735427856,-0.011722750961780548,-0.0012470036745071411,-0.04144386947154999
2079-03-09_00-28-28,1730448840.831726,0.007485460489988327,0.01383894681930542,0.009541153907775879,0.7431829707448311,-0.02144106259420966,-0.0228060601930455,-0.015786243602633476,-0.6766350269317627,-0.7361493706703186,-0.01571672596037388,-0.0018725802656263113,-0.028161995112895966
2079-03-09_00-28-28,1730448840.8416429,0.004510627128183842,0.01006925106048584,0.00453108549118042,0.7429953848923915,-0.02110661992552994,-0.023250404433261325,-0.015542722307145596,-0.6764968633651733,-0.7362815141677856,-0.02716219425201416,0.01289837621152401,-0.03896057978272438
2079-03-09_00-28-28,1730448840.851553,0.0085411686450243,0.007681727409362793,0.00010925531387329102,0.7425299965668484,-0.020520595543035276,-0.023790597582967393,-0.015117699280381203,-0.6761540770530701,-0.736605167388916,-0.06518980115652084,0.026726307347416878,-0.03277629613876343
2079-03-09_00-28-28,1730448840.861408,0.006556208245456219,0.00989609956741333,0.004391968250274658,0.7418699171680762,-0.02007164837611156,-0.024167460769554543,-0.014795955270528793,-0.6756675839424133,-0.7370579838752747,-0.059906888753175735,0.007719326764345169,-0.022276781499385834
2079-03-09_00-28-28,1730448840.871331,0.0028199441730976105,0.006120860576629639,0.0010423660278320312,0.7413233352145586,-0.01977480940338787,-0.024552924261931112,-0.014584467746317387,-0.6752645373344421,-0.7374314665794373,-0.048803821206092834,0.004814350977540016,-0.0321810245513916
2079-03-09_00-28-28,1730448840.8825731,0.007478044368326664,0.0024356842041015625,-0.002272665500640869,0.7407957177321547,-0.019336596202438685,-0.025084030026307817,-0.014268199913203716,-0.6748753190040588,-0.7377938032150269,-0.05005817115306854,0.007155269384384155,-0.03995026275515556
2079-03-09_00-28-28,1730448840.892838,0.002535100094974041,0.008482575416564941,-0.0005928277969360352,0.7403262150423743,-0.01897810222412708,-0.025576299229885167,-0.014009715057909489,-0.6745287775993347,-0.7381156086921692,-0.04458668828010559,-0.002443029312416911,-0.024752242490649223
2079-03-09_00-28-28,1730448840.901094,-0.0008653569966554642,0.00902700424194336,-0.0015094280242919922,0.7399269154737058,-0.018664245832687845,-0.02594635502153034,-0.013783079572021961,-0.6742339134216309,-0.7383893132209778,-0.03436228260397911,0.009585670195519924,-0.031381115317344666
2079-03-09_00-28-28,1730448840.911385,0.005183229222893715,0.005441009998321533,-0.0005345344543457031,0.7395755499257205,-0.01825336845900113,-0.02639630009982658,-0.013484013266861439,-0.6739743947982788,-0.7386316657066345,-0.03679480031132698,0.008749703876674175,-0.03275600075721741
2079-03-09_00-28-28,1730448840.921243,0.008443770930171013,0.006762862205505371,0.0013478994369506836,0.7392581044859697,-0.017849144722510677,-0.026939457084372797,-0.013189258053898811,-0.6737398505210876,-0.7388509511947632,-0.025379691272974014,-0.001701871631667018,-0.04286535829305649
2079-03-09_00-28-28,1730448840.9315581,0.005423583090305328,0.00903475284576416,-0.0009480118751525879,0.7390493303299812,-0.017475508862444325,-0.02756627650846063,-0.012915653176605701,-0.6735855937004089,-0.7389964461326599,-0.019391998648643494,-0.009213583543896675,-0.04648752510547638
2079-03-09_00-28-28,1730448840.943081,0.004800993949174881,0.01092308759689331,-0.002614140510559082,0.7388791307617459,-0.017125922989992475,-0.028225235586977305,-0.01265927404165268,-0.6734597682952881,-0.7391155362129211,-0.01677997037768364,-0.010751825757324696,-0.05122741684317589
2079-03-09_00-28-28,1730448840.951374,0.008260352537035942,0.012877881526947021,-0.00016516447067260742,0.7387162771469262,-0.01674589508593255,-0.02891746803046654,-0.012380224652588367,-0.6733393669128418,-0.7392299771308899,-0.020830746740102768,-0.006999431177973747,-0.05182742699980736
2079-03-09_00-28-28,1730448840.961381,0.008149784058332443,0.013016581535339355,0.0025252103805541992,0.7384911258374721,-0.016262731361302803,-0.029644920500827468,-0.012025518342852592,-0.6731728911399841,-0.7393873929977417,-0.027440445497632027,0.0016811417881399393,-0.051819704473018646
2079-03-09_00-28-28,1730448840.971107,0.004813528619706631,0.012156128883361816,0.0027139782905578613,0.7381735632544413,-0.015790839850942713,-0.030322101641474315,-0.011679980903863907,-0.6729380488395691,-0.7396066188812256,-0.03790709003806114,0.0028273663483560085,-0.043632298707962036
2079-03-09_00-28-28,1730448840.9812288,0.006890256889164448,0.010231316089630127,0.0008796453475952148,0.7377993967717044,-0.015416306108399438,-0.03084997328087981,-0.01140685472637415,-0.6726611852645874,-0.7398627400398254,-0.03935372084379196,0.005345119163393974,-0.03378765657544136
2079-03-09_00-28-28,1730448840.991232,0.008617066778242588,0.007094383239746094,0.0025110840797424316,0.7373542911775154,-0.015001232167181345,-0.03125667183374595,-0.011104244738817215,-0.6723318099975586,-0.7401666641235352,-0.05059945210814476,0.01969582960009575,-0.02403968758881092
2079-03-09_00-28-28,1730448841.0010371,0.006224537268280983,0.006342053413391113,0.0046215057373046875,0.7368328886939862,-0.014524395858466215,-0.0315689068705314,-0.010756395757198334,-0.6719457507133484,-0.7405223250389099,-0.05293504148721695,0.03131919354200363,-0.0177780631929636
2079-03-09_00-28-28,1730448841.011036,0.004310802556574345,0.0061574578285217285,0.006651520729064941,0.7362953353821745,-0.013973227095920108,-0.031829363520170455,-0.010353286750614643,-0.671547532081604,-0.7408891916275024,-0.054238658398389816,0.043862417340278625,-0.020587164908647537
2079-03-09_00-28-29,1730448841.020951,0.004870560951530933,0.004620552062988281,0.00812220573425293,0.7356834025632937,-0.013279710106733697,-0.03215787232077417,-0.009844920597970486,-0.6710939407348633,-0.7413069605827332,-0.06262601912021637,0.05068783089518547,-0.02620537020266056
2079-03-09_00-28-29,1730448841.031187,0.0037041595205664635,0.0074503421783447266,0.00740659236907959,0.7350549010661641,-0.012522498284568992,-0.03255919519647612,-0.009288870729506016,-0.6706278920173645,-0.7417358160018921,-0.06082838773727417,0.04666938632726669,-0.028629645705223083
2079-03-09_00-28-29,1730448841.043579,0.0031496072188019753,0.008382320404052734,0.008956432342529297,0.7344600945093804,-0.01178908920410951,-0.03299008788949466,-0.008749574422836304,-0.6701865196228027,-0.7421411871910095,-0.05498247966170311,0.04281952232122421,-0.03430644050240517
2079-03-09_00-28-29,1730448841.051169,0.0002766484394669533,0.00918567180633545,0.006412804126739502,0.7339390307037841,-0.011017376958946206,-0.033552767035772986,-0.00818069837987423,-0.6697997450828552,-0.7424967885017395,-0.04828329756855965,0.03612486645579338,-0.0478169210255146
2079-03-09_00-28-29,1730448841.061044,-0.0003444114699959755,0.009567201137542725,0.0022826194763183594,0.7335076611449665,-0.010259140117116788,-0.03426782422093568,-0.0076206703670322895,-0.6694793701171875,-0.7427915930747986,-0.03553208336234093,0.01897144876420498,-0.05706821009516716
2079-03-09_00-28-29,1730448841.07098,0.001008419319987297,0.010845541954040527,-0.0007820725440979004,0.7332156174293927,-0.009551189492951915,-0.03512794293576321,-0.007096676621586084,-0.6692623496055603,-0.7429923415184021,-0.023259172216057777,0.004504891578108072,-0.06539112329483032
2079-03-09_00-28-29,1730448841.081249,0.0022767018526792526,0.011756181716918945,-0.00273817777633667,0.7330447116090946,-0.008853996032151949,-0.0360873462626522,-0.006579677574336529,-0.6691353917121887,-0.7431114315986633,-0.014929244294762611,0.006269236095249653,-0.07125583291053772
2079-03-09_00-28-29,1730448841.091238,0.004218214191496372,0.009739279747009277,-0.0015785694122314453,0.7329383480725002,-0.008057329169348872,-0.03709960736065607,-0.005988236982375383,-0.6690563559532166,-0.7431876063346863,-0.010681768879294395,0.015440896153450012,-0.07438477873802185
2079-03-09_00-28-29,1730448841.100981,0.0007559522055089474,0.008355855941772461,0.0026726126670837402,0.7328630996110633,-0.007217040102840346,-0.038067118505176814,-0.005364105571061373,-0.6690003871917725,-0.7432426810264587,-0.00958825834095478,0.02390655316412449,-0.06823506206274033
2079-03-09_00-28-29,1730448841.110867,-0.0003388277254998684,0.006570398807525635,0.0053702592849731445,0.7327602330755487,-0.0063593769439955145,-0.03892997978408925,-0.004727089311927557,-0.6689239740371704,-0.7433158159255981,-0.013766445219516754,0.03435919061303139,-0.06211788207292557
2079-03-09_00-28-29,1730448841.121056,0.0037716072984039783,0.006693899631500244,0.005775809288024902,0.7326390401923877,-0.005442854972965166,-0.03972630133580786,-0.004046263173222542,-0.66883385181427,-0.7434009313583374,-0.012129932641983032,0.04167089983820915,-0.05677345022559166
2079-03-09_00-28-29,1730448841.131178,0.0032981906551867723,0.0034233927726745605,0.0047522783279418945,0.732509004040111,-0.004538670065828542,-0.04042378752288156,-0.0033744846004992723,-0.6687371730804443,-0.7434912323951721,-0.013174328953027725,0.04676632583141327,-0.05291320011019707
2079-03-09_00-28-29,1730448841.1423159,0.004838528111577034,0.00394439697265625,0.005429089069366455,0.7323683297337336,-0.0035725628707472504,-0.0411455673895817,-0.0026565270964056253,-0.6686325669288635,-0.7435882687568665,-0.013636920601129532,0.04812027886509895,-0.05755056440830231
2079-03-09_00-28-29,1730448841.15097,0.005794557277113199,0.005173444747924805,0.00542837381362915,0.7322358813294741,-0.0025596561531683183,-0.04193490042268827,-0.001903566881082952,-0.6685341000556946,-0.7436790466308594,-0.006692243739962578,0.04809018224477768,-0.05780734494328499
2079-03-09_00-28-29,1730448841.160629,0.005140654277056456,0.004706442356109619,0.005692958831787109,0.7321618851906401,-0.001577668627726044,-0.04267927047543198,-0.0011733606224879622,-0.6684790849685669,-0.7437300682067871,-0.007111159153282642,0.05423702672123909,-0.053632307797670364
2079-03-09_00-28-29,1730448841.170885,0.005157807841897011,0.006109774112701416,0.004357457160949707,0.732038164673644,-0.0005133080636283754,-0.0434274420448908,-0.00038180555566214025,-0.6683870553970337,-0.7438136339187622,-0.013224929571151733,0.05957719683647156,-0.05785762518644333
2079-03-09_00-28-29,1730448841.180808,0.004450761713087559,0.005876123905181885,0.006212472915649414,0.7318881570053501,0.0006012925015895046,-0.044177815447110774,0.0004473098961170763,-0.6682754755020142,-0.7439138889312744,-0.012674985453486443,0.06342147290706635,-0.056813135743141174
2079-03-09_00-28-29,1730448841.192826,0.003433298785239458,0.007804155349731445,0.006148338317871094,0.7317313736357686,0.0017431341016245847,-0.04494843077467841,0.001296923728659749,-0.6681588292121887,-0.7440175414085388,-0.01310703158378601,0.06371495127677917,-0.061479099094867706
2079-03-09_00-28-29,1730448841.20082,0.003333058673888445,0.009293019771575928,0.0017584562301635742,0.7319483015770513,0.0033141188518276293,-0.04604707429520612,0.0024652814026921988,-0.6683201789855957,-0.7438696622848511,0.0961368978023529,0.09901542216539383,-0.11703290790319443
2079-03-09_00-28-29,1730448841.210794,0.004183808341622353,0.010078907012939453,-0.0032348036766052246,0.7324510357344239,0.0044493617363145724,-0.047116677203164314,0.0033082570880651474,-0.6686940789222717,-0.7435302734375,0.0152176134288311,0.04299768805503845,-0.06238691881299019
2079-03-09_00-28-29,1730448841.220753,0.0014161854051053524,0.0265885591506958,-0.0010645389556884766,0.7327583956903316,0.005648994056972329,-0.048030975509513185,0.0041990564204752445,-0.6689226031303406,-0.7433202266693115,0.05226484686136246,0.06410244107246399,-0.059411898255348206
2079-03-09_00-28-29,1730448841.230853,0.006308917887508869,0.019315063953399658,-0.001411139965057373,0.7331551140804806,0.006726028865166269,-0.048740338316551855,0.0049978503957390785,-0.6692174077033997,-0.7430498600006104,0.018189122900366783,0.05435580387711525,-0.043423719704151154
2079-03-09_00-28-29,1730448841.243935,-0.00013487786054611206,-0.010265767574310303,-0.010365962982177734,0.7331220936705269,0.007615000591214456,-0.04937354268042081,0.005658566951751709,-0.669192910194397,-0.7430672645568848,-0.01703118160367012,0.03433442488312721,-0.049450453370809555
2079-03-09_00-28-29,1730448841.250833,0.01582680270075798,-0.0008823275566101074,-0.00017380714416503906,0.732956873327206,0.008372219726090991,-0.05007130487664393,0.006222155876457691,-0.6690701246261597,-0.7431733012199402,-0.008056815713644028,0.021902523934841156,-0.052476976066827774
2079-03-09_00-28-29,1730448841.26082,0.013563189655542374,0.004681408405303955,0.0033413171768188477,0.7330107491182484,0.008995757023421952,-0.05077884881502797,0.006685225758701563,-0.669110119342804,-0.7431331872940063,0.01618780381977558,0.009158765897154808,-0.051467105746269226
2079-03-09_00-28-29,1730448841.270918,0.007643780671060085,0.0035488009452819824,-0.0021007657051086426,0.7330882072834839,0.009570006795128176,-0.051468198869765794,0.007111473008990288,-0.669167697429657,-0.7430773973464966,-0.0020896741189062595,0.016546374186873436,-0.05338340625166893
2079-03-09_00-28-29,1730448841.280844,0.008261043578386307,0.0029383301734924316,-0.001019597053527832,0.7329238025766106,0.01029841920591526,-0.05217008627685124,0.007653870619833469,-0.6690455079078674,-0.7431820034980774,-0.022494547069072723,0.0364079624414444,-0.053056903183460236
2079-03-09_00-28-29,1730448841.290636,0.007301846519112587,0.0019913315773010254,0.00852501392364502,0.7326967473375178,0.011135128996545198,-0.052807874818471455,0.00827738642692566,-0.6688767671585083,-0.743327260017395,-0.015107410028576851,0.0448983870446682,-0.04394697770476341
2079-03-09_00-28-29,1730448841.3006768,0.005214872770011425,0.002215445041656494,0.012999117374420166,0.7325671276497333,0.011970676849439244,-0.05337920835909598,0.00889950804412365,-0.6687803864479065,-0.7434067726135254,-0.003599358256906271,0.04592050611972809,-0.04308464378118515
2079-03-09_00-28-29,1730448841.310676,0.007299013435840607,0.003490626811981201,0.00879734754562378,0.7325172397255085,0.012881712103961346,-0.053956564191442596,0.00957720261067152,-0.6687433123588562,-0.7434316873550415,-0.0011257512960582972,0.059323132038116455,-0.043396927416324615
2079-03-09_00-28-29,1730448841.3205938,0.005204676650464535,0.006344318389892578,0.005064427852630615,0.7325177547257613,0.013831090176134571,-0.0545448714418473,0.010282991454005241,-0.6687436699867249,-0.7434219121932983,0.0009070395026355982,0.05170729011297226,-0.04462224617600441
2079-03-09_00-28-29,1730448841.330756,0.003736443817615509,0.008506834506988525,0.0037337541580200195,0.732553058153466,0.01478028465501246,-0.05518860167680525,0.010988290421664715,-0.6687699556350708,-0.743388295173645,0.006615808233618736,0.04891842603683472,-0.04744871333241463
2079-03-09_00-28-29,1730448841.343882,0.005790799856185913,0.008685410022735596,0.0006811618804931641,0.7326290498683464,0.015753594299435802,-0.05591491629075057,0.011711032129824162,-0.6688264012336731,-0.7433264255523682,0.0081141022965312,0.04600119963288307,-0.05403897166252136
2079-03-09_00-28-29,1730448841.3506808,0.0030882852151989937,0.00855720043182373,0.00046825408935546875,0.7327029044687157,0.016660222235247647,-0.056649315972677874,0.012384123168885708,-0.668881356716156,-0.7432660460472107,0.00975005142390728,0.03444494679570198,-0.05442225560545921
2079-03-09_00-28-29,1730448841.360575,0.003772325813770294,0.008877694606781006,0.0020067691802978516,0.7328056160862005,0.017466006496185505,-0.05739291961746933,0.012981832027435303,-0.6689577102661133,-0.7431871294975281,0.015355207026004791,0.022314248606562614,-0.052149780094623566
2079-03-09_00-28-29,1730448841.370448,0.005524965934455395,0.00889444351196289,-0.0009276270866394043,0.733074467485285,0.018068638247680208,-0.05808753441244219,0.013426446355879307,-0.6691575050354004,-0.7429993152618408,0.03743918985128403,0.006480424664914608,-0.04888943210244179
2079-03-09_00-28-29,1730448841.3806381,0.0083800433203578,0.005890071392059326,-0.004991650581359863,0.7335285220853688,0.01854631790073997,-0.058754891318210274,0.013775725848972797,-0.6694948673248291,-0.7426889538764954,0.053855180740356445,-0.004873963072896004,-0.04906892776489258
2079-03-09_00-28-29,1730448841.39463,0.010681885294616222,0.003863990306854248,-0.010251641273498535,0.7341083888808252,0.018846803815399753,-0.05940463366636179,0.013991574756801128,-0.6699254512786865,-0.742296576499939,0.06401485204696655,-0.021783171221613884,-0.04595271125435829
2079-03-09_00-28-29,1730448841.40065,0.008984318934381008,0.005130887031555176,-0.012247622013092041,0.7348284595130928,0.019049370182095238,-0.06005246115916692,0.014132745563983917,-0.6704598665237427,-0.741811215877533,0.08396033197641373,-0.023540858179330826,-0.046207573264837265
2079-03-09_00-28-29,1730448841.410585,0.008266947232186794,0.0064505934715271,-0.009323418140411377,0.7357643492938806,0.019292250234463716,-0.06075927266799181,0.014300805516541004,-0.6711539626121521,-0.7411800622940063,0.10824332386255264,-0.015815559774637222,-0.05481549724936485
2079-03-09_00-28-29,1730448841.420361,0.008028792217373848,0.008507907390594482,-0.0029330849647521973,0.7368729308622224,0.0197363374300681,-0.06161934244695253,0.014615260064601898,-0.6719753742218018,-0.7404293417930603,0.11647301912307739,-0.009710263460874557,-0.06538026034832001
2079-03-09_00-28-29,1730448841.430295,0.0030481144785881042,0.011872053146362305,0.005083680152893066,0.7380989450597181,0.02034453643520865,-0.06261278698264282,0.015048814937472343,-0.6728827953338623,-0.7395960092544556,0.14192071557044983,0.002969312947243452,-0.07829386740922928
2079-03-09_00-28-29,1730448841.443495,0.000300724059343338,0.016427218914031982,0.00887143611907959,0.7396167105051749,0.021138208041282604,-0.063780385980422,0.015614202246069908,-0.6740047931671143,-0.7385619878768921,0.16406570374965668,-0.0006765546277165413,-0.08497095108032227
2079-03-09_00-28-29,1730448841.4505038,-0.000889364629983902,0.01664787530899048,0.0016552209854125977,0.7411557584192352,0.02199539893751722,-0.06497929396690037,0.01622444950044155,-0.6751409769058228,-0.7375103235244751,0.1531459242105484,0.009973692707717419,-0.08519162237644196
2079-03-09_00-28-29,1730448841.4607902,0.0027949176728725433,0.014490723609924316,-0.0008606314659118652,0.7425969738173418,0.02298879821524666,-0.06624243567066145,0.016934700310230255,-0.6762034296989441,-0.7365203499794006,0.14828991889953613,0.01855493150651455,-0.09445089846849442
2079-03-09_00-28-29,1730448841.470354,0.00472380593419075,0.010751426219940186,-0.000655829906463623,0.7438391643802277,0.024313220434501827,-0.06774308592225908,0.01788971573114395,-0.6771180629730225,-0.7356570363044739,0.10803618282079697,0.035486772656440735,-0.11721649765968323
2079-03-09_00-28-29,1730448841.48076,0.004448452964425087,0.007955610752105713,0.0006695985794067383,0.7447057374726741,0.02570365498832635,-0.06927698242380531,0.018897494301199913,-0.6777554750442505,-0.735044538974762,0.08285732567310333,0.030928509309887886,-0.10260666906833649
2079-03-09_00-28-29,1730448841.495321,0.0071016643196344376,0.007793903350830078,-0.0028049349784851074,0.745274557093162,0.026841225499332006,-0.07049591978814627,0.01972329616546631,-0.6781736016273499,-0.7346370816230774,0.03716641664505005,0.02867041528224945,-0.06970666348934174
2079-03-09_00-28-29,1730448841.5005631,0.01036522351205349,0.0015980005264282227,-0.004878044128417969,0.7453148925515823,0.02765478987261585,-0.07122974166143765,0.020320206880569458,-0.6782032251358032,-0.734593391418457,-0.01675593852996826,0.03654325008392334,-0.03790133446455002
2079-03-09_00-28-29,1730448841.5102859,0.012345746159553528,-0.0014573931694030762,0.0012755990028381348,0.7449778187637195,0.028169576197114028,-0.07155562032640739,0.02070480026304722,-0.6779555082321167,-0.7348113059997559,-0.039401691406965256,0.021826092153787613,-0.015280870720744133
2079-03-09_00-28-29,1730448841.52006,0.014152871444821358,-0.002796947956085205,0.0035474300384521484,0.7445878996058998,0.028482598899571224,-0.07175439461021443,0.020942339673638344,-0.6776688098907471,-0.7350689768791199,-0.03218292444944382,0.016039840877056122,-0.01664787158370018
2079-03-09_00-28-29,1730448841.5301352,0.014515915885567665,-0.002515256404876709,0.0028182268142700195,0.7443276815990673,0.028729132333086937,-0.07198884383352908,0.021128622815012932,-0.6774774193763733,-0.73524010181427,-0.011892363429069519,-0.0002965215826407075,-0.019849630072712898
2079-03-09_00-28-29,1730448841.542366,0.011701056733727455,0.0016891956329345703,0.002324223518371582,0.7441730300338674,0.02890088787821882,-0.07225150866298198,0.021257931366562843,-0.6773636937141418,-0.7353411912918091,-0.013006629422307014,2.5513581931591034e-06,-0.019577987492084503
2079-03-09_00-28-29,1730448841.55037,0.010764306411147118,0.0028333663940429688,0.005773186683654785,0.7439860513599725,0.029090747639388626,-0.07251023985262112,0.02140122652053833,-0.6772261261940002,-0.7354637384414673,-0.020779095590114594,0.004243635572493076,-0.018805617466568947
2079-03-09_00-28-29,1730448841.560703,0.006951117888092995,0.005745649337768555,0.009569644927978516,0.7437135650973213,0.029288829410005844,-0.07273251092076008,0.02155230939388275,-0.6770256161689758,-0.7356438636779785,-0.030664747580885887,0.00643355306237936,-0.016582943499088287
2079-03-09_00-28-29,1730448841.570154,0.004476303234696388,0.006056249141693115,0.008458852767944336,0.7434099761455658,0.02947119541171301,-0.07292794540154421,0.02169252187013626,-0.6768021583557129,-0.7358453273773193,-0.026928381994366646,0.005642860196530819,-0.013694532215595245
2079-03-09_00-28-29,1730448841.5801911,0.006120523437857628,0.005151569843292236,0.005486011505126953,0.7431759841259665,0.029615050985981183,-0.07311629037331228,0.02180306613445282,-0.676629900932312,-0.7360004782676697,-0.019120793789625168,-0.0034640852827578783,-0.013399453833699226
2079-03-09_00-28-29,1730448841.592902,0.00753847137093544,0.0050920844078063965,0.0001932978630065918,0.7430123630191926,0.02969502137772613,-0.07329875797277437,0.02186521142721176,-0.6765093803405762,-0.7361094355583191,-0.016490137204527855,-0.0057450830936431885,-0.008762410841882229
2079-03-09_00-28-29,1730448841.6001549,0.00834193266928196,0.005929768085479736,-0.0032470226287841797,0.74288590085687,0.029740166444901985,-0.07340656940231119,0.02190098725259304,-0.6764162182807922,-0.7361938953399658,-0.007945651188492775,-0.0028651405591517687,-0.0040020109154284
2079-03-09_00-28-29,1730448841.610464,0.006430240347981453,0.005479991436004639,-0.0010185837745666504,0.7428137822310403,0.029847727152652093,-0.07354849474070825,0.021981626749038696,-0.6763631105422974,-0.7362402677536011,-0.00521415751427412,-0.001717318082228303,-0.010833658277988434
2079-03-09_00-28-29,1730448841.6199641,0.0051983315497636795,0.007033228874206543,0.003253638744354248,0.7428095889923004,0.02998717793530878,-0.07371666748057487,0.02208438329398632,-0.676360011100769,-0.7362400889396667,0.00269942544400692,0.0025589196011424065,-0.010558021254837513
2079-03-09_00-28-29,1730448841.6301498,0.002679772675037384,0.010694801807403564,0.0026416778564453125,0.7428502588673346,0.03019673498557985,-0.07393230672979413,0.022237833589315414,-0.6763899922370911,-0.736207902431488,0.002859278116375208,0.004201291128993034,-0.016414739191532135
2079-03-09_00-28-29,1730448841.641018,0.0019040629267692566,0.010608375072479248,0.004678189754486084,0.7428986283507909,0.030464146958830797,-0.07421647218617808,0.022433709353208542,-0.6764256358146667,-0.7361692786216736,0.006775989197194576,0.007133964449167252,-0.02137008309364319
2079-03-09_00-28-29,1730448841.650414,0.0019220877438783646,0.011064589023590088,0.00525665283203125,0.7429587473446556,0.030752263022294578,-0.07456357121189616,0.022644558921456337,-0.6764699220657349,-0.7361220717430115,0.005614192225039005,0.005501179955899715,-0.024771418422460556
2079-03-09_00-28-29,1730448841.659977,0.0023024827241897583,0.009765326976776123,0.004096627235412598,0.7430178287412204,0.031024891582948008,-0.07489613275347375,0.02284400537610054,-0.6765134334564209,-0.7360759377479553,0.00603470578789711,0.002439343836158514,-0.025109905749559402
2079-03-09_00-28-29,1730448841.670096,0.00393836572766304,0.008262455463409424,-0.0009493827819824219,0.7430490681624514,0.031228746207335654,-0.07520214278181686,0.02299339883029461,-0.6765364408493042,-0.7360501289367676,0.003534075804054737,-0.004968238994479179,-0.020060285925865173
2079-03-09_00-28-29,1730448841.6799831,0.005606180056929588,0.00417637825012207,-0.0029537081718444824,0.7430742227548592,0.03138905840668326,-0.07548819669502645,0.02311086095869541,-0.6765549182891846,-0.7360294461250305,0.009195157326757908,-0.004967972636222839,-0.019178513437509537
2079-03-09_00-28-29,1730448841.689962,0.00598900206387043,0.005998134613037109,-0.0012832283973693848,0.7431029838789415,0.031553902386921975,-0.07574240972505408,0.02323157712817192,-0.6765761375427246,-0.7360061407089233,0.0006691403687000275,-0.00043607119005173445,-0.016127755865454674
2079-03-09_00-28-29,1730448841.700015,0.0065169669687747955,0.008204460144042969,-0.00038355588912963867,0.7430324447021951,0.0316637944623188,-0.07591653223300304,0.023313969373703003,-0.6765241622924805,-0.7360513210296631,-0.011792588979005814,-0.0007359432056546211,-0.007646653335541487
2079-03-09_00-28-29,1730448841.7098842,0.009247923269867897,0.005541741847991943,-0.0004158616065979004,0.7428976395914404,0.03172254835933516,-0.07595415322723958,0.023360108956694603,-0.6764249205589294,-0.7361410856246948,-0.013873990625143051,0.005842330865561962,0.002240811474621296
2079-03-09_00-28-29,1730448841.7198539,0.01061994582414627,-0.00026994943618774414,-0.00017946958541870117,0.7428174064170894,0.03176338247822123,-0.07590245245659517,0.02339189127087593,-0.6763657927513123,-0.736194372177124,-0.00180001650005579,0.009586469270288944,0.005065892823040485
2079-03-09_00-28-29,1730448841.730011,0.008914407342672348,0.003436565399169922,0.0018950700759887695,0.7428156109076842,0.03184157080034822,-0.07586790208513264,0.02344949170947075,-0.6763644814491272,-0.7361937761306763,0.0008927389280870557,0.010480226017534733,0.001752014853991568
2079-03-09_00-28-29,1730448841.7399921,0.008035827428102493,0.009259045124053955,0.004400968551635742,0.7428276823949423,0.031999001286720855,-0.07589600715233705,0.023565130308270454,-0.6763733625411987,-0.736181914806366,0.0037005096673965454,0.013934612274169922,-0.006010300479829311
2079-03-09_00-28-29,1730448841.750051,0.0071916598826646805,0.01070713996887207,0.008303523063659668,0.7428256008953922,0.032212903036562136,-0.07594331217298013,0.02372264489531517,-0.6763718128204346,-0.7361782193183899,-0.0014360551722347736,0.01567871682345867,-0.0017936646472662687
2079-03-09_00-28-29,1730448841.76056,0.00579351931810379,0.008312404155731201,0.009744584560394287,0.7427853277339631,0.03243200686007868,-0.07599261169958176,0.02388482540845871,-0.6763421893119812,-0.736200213432312,-0.007230827119201422,0.017492862418293953,-0.004443243145942688
2079-03-09_00-28-29,1730448841.769752,0.0058940742164850235,0.0065261125564575195,0.0073694586753845215,0.7426804692695768,0.03262390430900558,-0.07607002371448174,0.024028414860367775,-0.6762649416923523,-0.736266553401947,-0.008327689953148365,0.0123020950704813,-0.0028697410598397255
2079-03-09_00-28-29,1730448841.780153,0.006357502192258835,0.006477534770965576,0.004176974296569824,0.7426145258396583,0.032717848867987134,-0.0760783739547911,0.024099042639136314,-0.6762163639068604,-0.7363088726997375,-8.733710274100304e-05,0.0003785897861234844,0.0014589607017114758
2079-03-09_00-28-29,1730448841.7898378,0.007895689457654953,0.007117152214050293,-0.001466512680053711,0.7426335133814789,0.03272242296984696,-0.07607470422233521,0.024101989343762398,-0.6762303113937378,-0.7362958788871765,0.006973721086978912,-0.0052161794155836105,0.0005327666294761002
2079-03-09_00-28-29,1730448841.799737,0.011065218597650528,0.00367814302444458,-0.006385147571563721,0.7426877631431085,0.03268843685647721,-0.07604005207863904,0.024075767025351524,-0.6762703061103821,-0.7362600564956665,0.00346314231865108,0.00038125290302559733,0.005845506675541401
2079-03-09_00-28-29,1730448841.810305,0.008016668260097504,0.0032023191452026367,-0.004257798194885254,0.7427461437621157,0.03268584089225432,-0.0760090406424933,0.024072565138339996,-0.6763132810592651,-0.7362207174301147,0.009017007425427437,0.002374096307903528,0.003486212342977524
2079-03-09_00-28-29,1730448841.819656,0.003642464056611061,0.00803309679031372,0.001431584358215332,0.7428826290234692,0.03274524877114282,-0.07600485794007841,0.024113278836011887,-0.6764138340950012,-0.7361268997192383,0.015440285205841064,0.007193086668848991,-0.00026405113749206066
2079-03-09_00-28-29,1730448841.8298469,0.0006295032799243927,0.010234296321868896,0.0009462833404541016,0.743053811450002,0.03288425974326051,-0.07606780938396196,0.024211803451180458,-0.6765398979187012,-0.7360078692436218,0.01828513666987419,0.00944425631314516,-0.004075460601598024
2079-03-09_00-28-29,1730448841.839978,0.00038366205990314484,0.011875510215759277,0.0027757883071899414,0.7432311271784073,0.03303707685117687,-0.07613031998391381,0.024320313706994057,-0.676670491695404,-0.7358842492103577,0.016499221324920654,0.010575567372143269,-0.005100245121866465
2079-03-09_00-28-29,1730448841.8499122,0.0032682958990335464,0.010593712329864502,0.0035883188247680664,0.7433554495640498,0.033185043931318804,-0.07617695036126051,0.024426408112049103,-0.6767619848251343,-0.7357965707778931,0.007333090994507074,0.011107933707535267,-0.0017487634904682636
2079-03-09_00-28-29,1730448841.859736,0.004740839824080467,0.007520735263824463,0.0029071569442749023,0.743409398747231,0.033342141450785547,-0.07625105653942905,0.02454078197479248,-0.6768017411231995,-0.7357562184333801,0.006105639971792698,0.007523317821323872,-0.005349623970687389
2079-03-09_00-28-29,1730448841.869446,0.004824750125408173,0.007372796535491943,0.0014501214027404785,0.743436513000794,0.03351928042738935,-0.07637402938583228,0.024670500308275223,-0.6768217086791992,-0.7357335686683655,0.004160718526691198,0.008378725498914719,-0.00932210125029087
2079-03-09_00-28-29,1730448841.879617,0.008173743262887001,0.00824129581451416,-0.0005795955657958984,0.7434762695659555,0.03367647776645116,-0.07650244549094155,0.024785246700048447,-0.6768509745597839,-0.7357026934623718,0.005746897310018539,0.005708107724785805,-0.007787321228533983
2079-03-09_00-28-29,1730448841.889693,0.006542643532156944,0.008239209651947021,0.00038319826126098633,0.7435356194300972,0.03384209244575219,-0.07661342982066648,0.024905730038881302,-0.6768946647644043,-0.7356584668159485,0.005888497922569513,0.0108836954459548,-0.008546642027795315
2079-03-09_00-28-29,1730448841.89972,0.005324883386492729,0.009131312370300293,0.004265546798706055,0.7435867258491605,0.03402635898759966,-0.07672619523324484,0.02504011057317257,-0.6769322752952576,-0.735619306564331,0.005159058142453432,0.011593960225582123,-0.007831582799553871
2079-03-09_00-28-29,1730448841.910151,0.006320228800177574,0.008435845375061035,0.0050792694091796875,0.7436161688028595,0.03425066944564758,-0.07685216544970798,0.025204433128237724,-0.676953911781311,-0.7355937361717224,0.0025132230948656797,0.01717914082109928,-0.008958740159869194
2079-03-09_00-28-29,1730448841.9196692,0.006519149988889694,0.0075991153717041016,0.004386961460113525,0.7436610365479815,0.03447951656700486,-0.07696345006655467,0.025371722877025604,-0.6769869327545166,-0.7355575561523438,0.0069726863875985146,0.0108810318633914,-0.007796802092343569
2079-03-09_00-28-29,1730448841.929493,0.004562005400657654,0.006329774856567383,0.0030315518379211426,0.7437400746273638,0.03467420738782587,-0.07708698406368211,0.025513075292110443,-0.6770451068878174,-0.7354991436004639,0.006370373070240021,0.009034129790961742,-0.010432692244648933
2079-03-09_00-28-29,1730448841.9396539,0.006231393665075302,0.007714450359344482,2.8252601623535156e-05,0.7437970535992591,0.03485434120900229,-0.07725085429270895,0.025644222274422646,-0.6770870685577393,-0.7354560494422913,0.007815137505531311,0.007299613207578659,-0.013450853526592255
2079-03-09_00-28-29,1730448841.9494271,0.006089076399803162,0.0061751604080200195,0.0002048015594482422,0.7438202488309751,0.03509008989573585,-0.07746272920628124,0.02581704966723919,-0.677104115486145,-0.7354342341423035,0.0028489544056355953,0.009695659391582012,-0.016574688255786896
2079-03-09_00-28-29,1730448841.959425,0.0031178034842014313,0.008283019065856934,0.0042261481285095215,0.7438646533878837,0.035376311676536744,-0.07771614065207601,0.02602648362517357,-0.6771367788314819,-0.7353967428207397,0.011109014973044395,0.007982979528605938,-0.020557712763547897
2079-03-09_00-28-29,1730448841.9693751,0.0025715380907058716,0.009042739868164062,0.003636777400970459,0.7440261506518894,0.03564719767413764,-0.07800404348802482,0.02622179314494133,-0.6772556304931641,-0.7352803945541382,0.021028976887464523,0.0073307715356349945,-0.01766546443104744
2079-03-09_00-28-29,1730448841.9793591,0.004725633189082146,0.007889628410339355,0.00040018558502197266,0.7442218064007781,0.03589916259004395,-0.07824922845560445,0.026402302086353302,-0.6773995757102966,-0.735141396522522,0.02070620097219944,0.011053871363401413,-0.016933362931013107
2079-03-09_00-28-29,1730448841.989361,0.004828929901123047,0.007824420928955078,0.0003934502601623535,0.7444235262064208,0.036180489112573946,-0.07847659951749054,0.026604171842336655,-0.6775479316711426,-0.7349972724914551,0.022144636139273643,0.009303375147283077,-0.013406218960881233
2079-03-09_00-28-29,1730448841.9994059,0.005051899701356888,0.007315695285797119,0.0007107257843017578,0.7446447367479401,0.036403567807849084,-0.07865803267726187,0.02676267735660076,-0.6777105927467346,-0.7348415851593018,0.02289538085460663,0.006410649977624416,-0.010853579267859459
2079-03-09_00-28-29,1730448842.009378,0.005867399275302887,0.008637011051177979,-0.0005107522010803223,0.7448438245866613,0.036525625177361735,-0.078802625766273,0.026847440749406815,-0.677856981754303,-0.7347034215927124,0.018135152757167816,-0.001297071110457182,-0.007841703481972218
2079-03-09_00-28-30,1730448842.019309,0.005897697061300278,0.0066789984703063965,-0.002820253372192383,0.7449617795085111,0.03659221670374339,-0.07893708022861931,0.02689344249665737,-0.6779437065124512,-0.7346217632293701,0.008030321449041367,-0.006744034588336945,-0.008834796026349068
2079-03-09_00-28-30,1730448842.029334,0.006248040124773979,0.006608724594116211,0.001343369483947754,0.7450322323827613,0.03659543055969865,-0.07907209446913996,0.026894057169556618,-0.677995502948761,-0.7345739603042603,0.008808545768260956,-0.015893589705228806,-0.009958596900105476
2079-03-09_00-28-30,1730448842.039767,0.00749758817255497,0.004523575305938721,0.0007356405258178711,0.745143206227037,0.03653912470581215,-0.07921296313918517,0.02684994786977768,-0.6780771017074585,-0.7345002889633179,0.011668248102068901,-0.017284559085965157,-0.011778601445257664
2079-03-09_00-28-30,1730448842.049571,0.008654119446873665,0.004279971122741699,0.0017790794372558594,0.745247729577246,0.03652615422493256,-0.0793867871923555,0.026837831363081932,-0.6781538724899292,-0.7344297766685486,0.008677924983203411,-0.009227965027093887,-0.011608371511101723
2079-03-09_00-28-30,1730448842.059435,0.00747380405664444,0.004949510097503662,0.0039032697677612305,0.7453075321759136,0.036597842821304453,-0.07954361984533832,0.026888996362686157,-0.6781978607177734,-0.7343872785568237,0.006338072009384632,-0.0010664414148777723,-0.01102300826460123
2079-03-09_00-28-30,1730448842.069385,0.006433101370930672,0.005658864974975586,0.006536245346069336,0.74537996725057,0.03672919060486087,-0.07967685787536825,0.026983652263879776,-0.6782510876655579,-0.7343346476554871,0.014572829939424992,0.0054465848952531815,-0.0064659141935408115
2079-03-09_00-28-30,1730448842.0792642,0.004767498001456261,0.004056751728057861,0.005577802658081055,0.7455046537019215,0.0368821461188206,-0.07975531689093125,0.02709285542368889,-0.6783427000045776,-0.734246015548706,0.014659916050732136,0.012848309241235256,-0.0046096909791231155
2079-03-09_00-28-30,1730448842.089178,0.005420474335551262,0.005631744861602783,0.003971457481384277,0.7455923091146558,0.037097265635471145,-0.07983098320031913,0.027248598635196686,-0.6784070730209351,-0.734180748462677,0.007438112050294876,0.016436118632555008,-0.007523775100708008
2079-03-09_00-28-30,1730448842.099403,0.004197660833597183,0.00623244047164917,0.004938304424285889,0.74562061250212,0.03730894179882692,-0.079952818252296,0.027403291314840317,-0.6784278750419617,-0.7341557741165161,0.0018257660558447242,0.006348331458866596,-0.010991211049258709
2079-03-09_00-28-30,1730448842.109157,0.004076097160577774,0.007863879203796387,0.0028607845306396484,0.7456397662380279,0.03747519984995275,-0.08009529949458709,0.027524862438440323,-0.6784419417381287,-0.7341381907463074,0.00496749859303236,0.006582955829799175,-0.012683063745498657
2079-03-09_00-28-30,1730448842.119135,0.005215905606746674,0.009562015533447266,-6.181001663208008e-05,0.7456664320346135,0.03766945647084413,-0.08028524118849543,0.027666792273521423,-0.6784615516662598,-0.7341147661209106,0.00010483246296644211,0.0034465512726455927,-0.014515850692987442
2079-03-09_00-28-30,1730448842.129187,0.0050244200974702835,0.008320868015289307,0.0004374384880065918,0.7455971514973754,0.03786551065260382,-0.08047578128517667,0.027812497690320015,-0.6784106492996216,-0.7341563105583191,-0.010128488764166832,0.0046409787610173225,-0.013268319889903069
2079-03-09_00-28-30,1730448842.139317,0.005198877304792404,0.00819540023803711,0.0030538439750671387,0.7454885987532203,0.03806053514451729,-0.08067508140063347,0.027958476915955544,-0.6783308982849121,-0.7342244386672974,-0.0097194267436862,0.007533438503742218,-0.01462706457823515
2079-03-09_00-28-30,1730448842.149257,0.004216022789478302,0.007197678089141846,0.0033237338066101074,0.7454183563577623,0.038295229424874185,-0.08087825463070648,0.028132619336247444,-0.6782792806625366,-0.7342655062675476,-0.0030427253805100918,0.012059214524924755,-0.014607889577746391
2079-03-09_00-28-30,1730448842.161679,0.004488574340939522,0.007480323314666748,0.0028492212295532227,0.7454083599386417,0.038588675009018775,-0.08108768347320167,0.028348345309495926,-0.6782719492912292,-0.7342639565467834,-0.0011819747742265463,0.017097115516662598,-0.0138512859120965
2079-03-09_00-28-30,1730448842.169125,0.002080259844660759,0.008789896965026855,0.003729701042175293,0.7454255239604062,0.03887671394859967,-0.08125277542799142,0.02855939045548439,-0.6782845258712769,-0.734244167804718,0.006824096664786339,0.01452663354575634,-0.008437985554337502
2079-03-09_00-28-30,1730448842.17875,0.00461680069565773,0.008038997650146484,0.002450883388519287,0.7455250121379947,0.0390832430689318,-0.08134033488431426,0.02870839647948742,-0.6783576607704163,-0.7341708540916443,0.011436957865953445,0.011478912085294724,-0.0032565388828516006
2079-03-09_00-28-30,1730448842.189009,0.008002415299415588,0.004782915115356445,-0.0013679265975952148,0.7456622671562242,0.039173853801270586,-0.08134209114832866,0.02877127192914486,-0.6784585118293762,-0.7340751886367798,0.013898801058530807,0.005872158333659172,0.0034218167420476675
2079-03-09_00-28-30,1730448842.1989841,0.008409591391682625,0.00306856632232666,-0.004819333553314209,0.7457795488926806,0.03916385593153917,-0.081313928528709,0.028760816901922226,-0.6785446405410767,-0.7339959144592285,0.011469732038676739,-0.002636907622218132,0.0030612247064709663
2079-03-09_00-28-30,1730448842.2113671,0.008709359914064407,0.005638062953948975,-0.002083897590637207,0.7459124182219455,0.039072076868381114,-0.08124474791166438,0.028689930215477943,-0.678642213344574,-0.733908474445343,0.013968810439109802,-0.010254879482090473,0.010245314799249172
2079-03-09_00-28-30,1730448842.2189898,0.010009661316871643,0.00546795129776001,-0.0019040107727050781,0.7460132652000192,0.03892567808002404,-0.08114479598391636,0.028579821810126305,-0.6787163019180298,-0.7338442802429199,0.007031275890767574,-0.009101730771362782,0.0049072750844061375
2079-03-09_00-28-30,1730448842.229052,0.009181985631585121,0.003167271614074707,-0.0029209256172180176,0.7461010269660406,0.03878831443048594,-0.08108295815504359,0.028476707637310028,-0.678780734539032,-0.7337886691093445,0.01288802269846201,-0.01038803718984127,0.0022862448822706938
2079-03-09_00-28-30,1730448842.239167,0.007865594699978828,0.005020320415496826,0.0009683370590209961,0.7461725002711266,0.03875492895360286,-0.08105369569199569,0.02845032885670662,-0.6788332462310791,-0.7337411046028137,0.00262473220936954,0.002838019048795104,0.004183480981737375
2079-03-09_00-28-30,1730448842.249065,0.0060788728296756744,0.00980520248413086,0.0059326887130737305,0.7461845876208774,0.03881970630880061,-0.08101282106229085,0.028497541323304176,-0.6788421273231506,-0.7337310910224915,0.003911979496479034,0.013534339144825935,0.0024021989665925503
2079-03-09_00-28-30,1730448842.258832,0.003024425357580185,0.010186433792114258,0.008570671081542969,0.7462050581716548,0.03892810666674663,-0.08097763948728974,0.02857653610408306,-0.678857147693634,-0.7337141036987305,0.002053625648841262,0.013073080219328403,0.00118167232722044
2079-03-09_00-28-30,1730448842.2689571,0.003417717292904854,0.007481753826141357,0.006052851676940918,0.7461997763308772,0.03905737413062183,-0.08099713615941788,0.028671523556113243,-0.6788532733917236,-0.7337139844894409,-0.0013820407912135124,0.00962162297219038,-0.0009068319341167808
2079-03-09_00-28-30,1730448842.279193,0.005266236141324043,0.009076714515686035,0.0028189420700073242,0.7461484160543639,0.03917728228900334,-0.08103194562584515,0.028760867193341255,-0.6788155436515808,-0.7337453961372375,-0.006264680065214634,0.010439746081829071,-0.002646674867719412
2079-03-09_00-28-30,1730448842.289639,0.004924416542053223,0.009211122989654541,0.0021430253982543945,0.7460612731252714,0.039265652985419466,-0.08106750962257203,0.028828028589487076,-0.678751528263092,-0.7338019609451294,-0.005903368350118399,0.0015218848129734397,-0.0037409677170217037
2079-03-09_00-28-30,1730448842.299269,0.006786217913031578,0.007761120796203613,0.0018459558486938477,0.7459568537248085,0.03932391857509224,-0.08112807599743485,0.028873570263385773,-0.6786748766899109,-0.7338710427284241,-0.009661620482802391,0.0009197440813295543,0.00026416004402562976
2079-03-09_00-28-30,1730448842.310565,0.00542847067117691,0.005623877048492432,0.0014269351959228516,0.7458306983992828,0.039360523824308935,-0.08117395345756948,0.02890380285680294,-0.6785821914672852,-0.7339555621147156,-0.012230771593749523,-0.0010957361664623022,-0.0028479567263275385
2079-03-09_00-28-30,1730448842.318995,0.003983985632658005,0.005215883255004883,0.003046751022338867,0.7456908816803983,0.03939007970167501,-0.08120587532767111,0.02892923355102539,-0.6784794926643372,-0.7340494990348816,-0.012871794402599335,0.0003745949943549931,-0.001371500315144658
2079-03-09_00-28-30,1730448842.329184,0.004818476736545563,0.006102561950683594,0.0011155009269714355,0.7455685060933382,0.039392079696481785,-0.08120333028791164,0.028933972120285034,-0.6783896088600159,-0.7341324687004089,-0.009599179029464722,-0.0003993195714429021,0.0026555191725492477
2079-03-09_00-28-30,1730448842.3391252,0.004139745607972145,0.005910933017730713,-0.0010471343994140625,0.7454737840609118,0.039357061687278705,-0.0812006524173038,0.028910789638757706,-0.6783199906349182,-0.7341976165771484,-0.008913680911064148,-0.0034020335879176855,-0.002324592089280486
2079-03-09_00-28-30,1730448842.348952,0.004480678588151932,0.007736861705780029,0.0013499855995178223,0.7454045058456205,0.03934741447461292,-0.08124504199436472,0.028905553743243217,-0.67826908826828,-0.7342448234558105,-0.005763286259025335,-0.0015143852215260267,-0.0021404081489890814
2079-03-09_00-28-30,1730448842.361409,0.004466332495212555,0.008277416229248047,0.0019661784172058105,0.7453717546586862,0.03938653672499265,-0.08131637415136649,0.028935154899954796,-0.6782450079917908,-0.734265923500061,-0.0008311115670949221,-0.005585293285548687,-0.00605072733014822
2079-03-09_00-28-30,1730448842.368843,0.0038679391145706177,0.00831913948059082,0.00424271821975708,0.7453662350544251,0.039411613779855845,-0.08143313735647913,0.028953716158866882,-0.678240954875946,-0.7342689037322998,0.0006389210466295481,-0.005854805000126362,-0.012836035341024399
2079-03-09_00-28-30,1730448842.378952,0.003100687637925148,0.008793830871582031,0.004234969615936279,0.7453270540188448,0.03954074106458709,-0.08162236526312154,0.029049579054117203,-0.6782121658325195,-0.7342917323112488,-0.007155085913836956,0.004856429062783718,-0.013275722973048687
2079-03-09_00-28-30,1730448842.3886619,0.00410323403775692,0.008389472961425781,0.0067365169525146484,0.7452752150006267,0.03973205127896559,-0.0818109414061753,0.029191454872488976,-0.6781740784645081,-0.7343212962150574,-0.0008058114908635616,0.007183232344686985,-0.012191178277134895
2079-03-09_00-28-30,1730448842.398803,0.0029590949416160583,0.008145451545715332,0.007328510284423828,0.7452960849876994,0.03987790417150654,-0.08196109160952722,0.029297994449734688,-0.6781894564628601,-0.7343029379844666,0.005207872483879328,0.0001535526243969798,-0.008580464869737625
2079-03-09_00-28-30,1730448842.411422,0.006039945408701897,0.0067032575607299805,0.002958059310913086,0.7453476810892009,0.03994408208730304,-0.0820727392939917,0.02934519201517105,-0.6782273650169373,-0.7342660427093506,0.0044845580123364925,-0.004063828848302364,-0.007287233602255583
2079-03-09_00-28-30,1730448842.418822,0.006867101415991783,0.006256163120269775,-0.0006093978881835938,0.7453414557900497,0.03998108484465579,-0.08216566269514809,0.029372528195381165,-0.6782227754592896,-0.7342691421508789,-0.0018625538796186447,-0.0016233085189014673,-0.006744481157511473
2079-03-09_00-28-30,1730448842.429024,0.007865354418754578,0.005692243576049805,-0.0006895065307617188,0.7453007527468924,0.04001238712216603,-0.08224555121427819,0.02939661592245102,-0.6781928539276123,-0.7342957854270935,0.0009531748946756124,-0.005091010592877865,-0.006114430259913206
2079-03-09_00-28-30,1730448842.438761,0.007578738033771515,0.006259262561798096,0.0014445185661315918,0.745304131674856,0.04000802098807943,-0.08228717770284194,0.02939331904053688,-0.6781953573226929,-0.7342936396598816,0.0019507950637489557,-0.0054372213780879974,0.00019300030544400215
2079-03-09_00-28-30,1730448842.448806,0.0074134692549705505,0.00684744119644165,0.0016798973083496094,0.7452947242382559,0.04000415404787672,-0.08232174918056699,0.029390737414360046,-0.6781884431838989,-0.7343001365661621,-0.004231418017297983,-0.001422772416844964,-0.0031103314831852913
2079-03-09_00-28-30,1730448842.4615211,0.005844607949256897,0.005412459373474121,0.0034923553466796875,0.7452315123547181,0.04001879103550606,-0.08237477139538955,0.0294031985104084,-0.6781419515609741,-0.7343425154685974,-0.007404574658721685,-0.0033916474785655737,-0.0036320448853075504
2079-03-09_00-28-30,1730448842.468586,0.0050245970487594604,0.007018625736236572,0.004173099994659424,0.7451954593684813,0.04001206035791193,-0.08241858545544223,0.029399234801530838,-0.6781154870986938,-0.7343671917915344,0.001226054853759706,-0.004163431003689766,-0.0027622028719633818
2079-03-09_00-28-30,1730448842.478637,0.007119730114936829,0.0070078372955322266,0.0020047426223754883,0.7452430617811516,0.040007440975772364,-0.08249772979369255,0.029394550248980522,-0.678150475025177,-0.7343350648880005,0.005993379279971123,-0.0072601549327373505,-0.0063963523134589195
2079-03-09_00-28-30,1730448842.488346,0.005469033494591713,0.007032275199890137,0.0018277168273925781,0.7452555262290224,0.04003243762335015,-0.08259311500295935,0.029412569478154182,-0.6781595945358276,-0.7343258857727051,0.0019391716923564672,-0.0007543190149590373,-0.006810953374952078
2079-03-09_00-28-30,1730448842.4983912,0.003991138190031052,0.008312404155731201,0.0019037127494812012,0.745253348212279,0.04009167343416434,-0.08269731021936327,0.0294561255723238,-0.6781580448150635,-0.7343255877494812,0.0007255690870806575,-0.0014888187870383263,-0.008183546364307404
2079-03-09_00-28-30,1730448842.508525,0.004394020885229111,0.008832454681396484,0.001764833927154541,0.7452757847254786,0.0401464719389998,-0.08278540743025826,0.029495753347873688,-0.6781744956970215,-0.7343087196350098,0.005035362672060728,-0.0010073191951960325,-0.005489492788910866
2079-03-09_00-28-30,1730448842.518296,0.005578765645623207,0.006437420845031738,0.002010524272918701,0.7453181510901324,0.04015545365956722,-0.08285050091753401,0.02950119599699974,-0.678205668926239,-0.7342797517776489,0.004740284755825996,-0.0031615502666682005,-0.004663380328565836
2079-03-09_00-28-30,1730448842.5283,0.005999106913805008,0.0072661638259887695,0.0018373727798461914,0.7453246454068011,0.040185884078604815,-0.0829151005880795,0.029523365199565887,-0.678210437297821,-0.7342745065689087,-0.0005697924643754959,-0.0009173043072223663,-0.0041848099790513515
2079-03-09_00-28-30,1730448842.538498,0.004914883524179459,0.0079154372215271,0.004023313522338867,0.7452945628143243,0.04022747464622752,-0.08298316851062244,0.02955472655594349,-0.6781883239746094,-0.7342936992645264,-0.0016225401777774096,-0.00418953038752079,-0.0063150725327432156
2079-03-09_00-28-30,1730448842.54859,0.005654709413647652,0.008453011512756348,0.004702866077423096,0.745257782286717,0.04027836319069252,-0.08306597685120878,0.02959309332072735,-0.6781612634658813,-0.7343170642852783,-0.003309918800368905,-4.511920269578695e-05,-0.007728944532573223
2079-03-09_00-28-30,1730448842.559119,0.006475986912846565,0.0069329142570495605,0.00488734245300293,0.7451826551928034,0.040403920952760804,-0.08319829757956065,0.02968735247850418,-0.6781060695648193,-0.7343642711639404,-0.011406728066504002,0.0033924891613423824,-0.009298612363636494
2079-03-09_00-28-30,1730448842.5683331,0.004416404291987419,0.007254540920257568,0.005865037441253662,0.7450181591591892,0.04052194774402131,-0.08331780825063209,0.02977854385972023,-0.6779851317405701,-0.7344721555709839,-0.017275270074605942,0.002252123551443219,-0.006684186868369579
2079-03-09_00-28-30,1730448842.5784678,0.005446029826998711,0.006177425384521484,0.004489004611968994,0.7448606089851488,0.04060999848400211,-0.08341518120570404,0.02984754927456379,-0.6778693199157715,-0.7345762252807617,-0.01137632131576538,-0.0002579056890681386,-0.005186265334486961
2079-03-09_00-28-30,1730448842.58854,0.005770660936832428,0.005690872669219971,0.003289639949798584,0.7447592572731058,0.04066279527824299,-0.08349980703880737,0.029889129102230072,-0.6777948141098022,-0.7346433997154236,-0.005552535876631737,-0.004724293015897274,-0.0076439897529780865
2079-03-09_00-28-30,1730448842.598443,0.005569428205490112,0.005933940410614014,-5.233287811279297e-05,0.7447370413608017,0.04066586845719135,-0.08360104636730403,0.029891997575759888,-0.6777784824371338,-0.7346583008766174,0.002648934256285429,-0.008352849632501602,-0.007237324956804514
2079-03-09_00-28-30,1730448842.612704,0.0060035064816474915,0.007868289947509766,-0.00047129392623901367,0.7447945007446483,0.04061718427943555,-0.08368670509509182,0.029854649677872658,-0.6778207421302795,-0.7346208691596985,0.005861615762114525,-0.0136112617328763,-0.0026073665358126163
2079-03-09_00-28-30,1730448842.618211,0.008193360641598701,0.004515111446380615,-0.0018427371978759766,0.7448203340128623,0.040482841946795634,-0.08369194244529628,0.029755251482129097,-0.6778397560119629,-0.7346073985099792,0.002517218003049493,-0.014370795339345932,0.00263586500659585
2079-03-09_00-28-30,1730448842.628283,0.009703001007437706,0.0021480917930603027,-0.0018813014030456543,0.7448177759612665,0.04029713448320746,-0.08367254362874733,0.029618898406624794,-0.6778378486633301,-0.7346146106719971,0.0008871443569660187,-0.019859302788972855,0.0034187808632850647
2079-03-09_00-28-30,1730448842.6383228,0.007565727457404137,0.003637254238128662,0.00043338537216186523,0.7448093017657597,0.04013207629900507,-0.08366788207540093,0.029497874900698662,-0.6778315901756287,-0.7346252799034119,-0.0013911898713558912,-0.012059969827532768,0.00041793109267018735
2079-03-09_00-28-30,1730448842.648396,0.005918700248003006,0.007789254188537598,0.004584133625030518,0.7447908003144738,0.0400262797485528,-0.08366304672026946,0.029420655220746994,-0.6778180003166199,-0.734640896320343,-0.0018125029746443033,-0.007122735492885113,-0.0011046514846384525
2079-03-09_00-28-30,1730448842.6617188,0.004894886165857315,0.008105814456939697,0.006174564361572266,0.7447855262356465,0.04002809507579563,-0.08372078422035158,0.029422132298350334,-0.6778141260147095,-0.7346444129943848,0.0010317530250176787,-0.00484839640557766,-0.005364111624658108
2079-03-09_00-28-30,1730448842.668223,0.001636764034628868,0.007947981357574463,0.00664973258972168,0.7447783477192345,0.04012180486678996,-0.08382476773317767,0.02949117124080658,-0.6778088808059692,-0.7346464991569519,-0.0007151232566684484,0.004330987110733986,-0.008455508388578892
2079-03-09_00-28-30,1730448842.678829,0.002559274435043335,0.008956611156463623,0.005422413349151611,0.744759697477293,0.040256996013098637,-0.08393820520588656,0.029590997844934464,-0.6777951717376709,-0.7346552014350891,-0.00021285121329128742,0.007384833879768848,-0.008013157173991203
2079-03-09_00-28-30,1730448842.68805,0.0012837126851081848,0.009634315967559814,0.003989815711975098,0.7447267859096344,0.04043428445686971,-0.08408221464332363,0.029722142964601517,-0.6777709722518921,-0.7346721887588501,-0.0031524014193564653,0.01082137692719698,-0.008463284932076931
2079-03-09_00-28-30,1730448842.698248,0.0025348402559757233,0.01107090711593628,0.0020248889923095703,0.7446468870773656,0.04059759653938621,-0.08424189490441225,0.029844319447875023,-0.6777122020721436,-0.7347213625907898,-0.008962620049715042,0.0001642053248360753,-0.01209557056427002
2079-03-09_00-28-30,1730448842.708832,0.004029473289847374,0.008601784706115723,0.0006070137023925781,0.7445261790889834,0.04073942221748875,-0.08443512058836444,0.029951855540275574,-0.677623450756073,-0.7347989082336426,-0.01226884126663208,-0.003268609521910548,-0.014617477543652058
2079-03-09_00-28-30,1730448842.718297,0.004118744283914566,0.0074762701988220215,-0.0016807317733764648,0.7443858838630071,0.04082031253528363,-0.08463842013309024,0.03001517243683338,-0.6775202751159668,-0.7348914742469788,-0.010552167892456055,-0.009435957297682762,-0.014947710558772087
2079-03-09_00-28-30,1730448842.7282882,0.005455806851387024,0.00666278600692749,-0.00019150972366333008,0.7442342304489845,0.04088465079732191,-0.08479742176844915,0.030066652223467827,-0.6774086952209473,-0.7349921464920044,-0.020137932151556015,-0.0019388929940760136,-0.008710373193025589
2079-03-09_00-28-30,1730448842.7383819,0.006976546719670296,0.00503087043762207,0.001303255558013916,0.7439863124506072,0.04090307568199552,-0.08483334574256539,0.0300870593637228,-0.6772263050079346,-0.7351593375205994,-0.030112534761428833,0.0013450508704409003,0.0010847332887351513
2079-03-09_00-28-30,1730448842.7482572,0.007866116240620613,0.00042170286178588867,0.003595709800720215,0.7437568876760667,0.04086747843726277,-0.08474449142927551,0.030067237094044685,-0.6770575046539307,-0.7353156805038452,-0.01827206090092659,0.001707240822724998,0.007789507508277893
2079-03-09_00-28-30,1730448842.758134,0.010036041960120201,-0.00012564659118652344,0.0047629475593566895,0.7436352055280189,0.040817087138014845,-0.0846261273467488,0.030033547431230545,-0.6769679188728333,-0.7353994846343994,-0.005463854409754276,0.001918429508805275,0.007266729138791561
2079-03-09_00-28-30,1730448842.768155,0.00984603725373745,0.004750072956085205,0.00335085391998291,0.7435840922307612,0.04072080172117109,-0.08450093600009718,0.029964148998260498,-0.67693030834198,-0.7354369759559631,-0.005392730236053467,-0.005601005628705025,0.010029226541519165
2079-03-09_00-28-30,1730448842.778648,0.007569035515189171,0.0057610273361206055,0.001805424690246582,0.7435271482719406,0.040619621349277234,-0.08439176113917274,0.029891300946474075,-0.6768884062767029,-0.7354785203933716,-0.006272371858358383,-0.0005756207974627614,0.009820700623095036
2079-03-09_00-28-30,1730448842.7879372,0.006531374529004097,0.003784000873565674,0.0023761987686157227,0.7434531827658761,0.04055469507996884,-0.08431083072466629,0.029845578595995903,-0.6768339276313782,-0.7355304956436157,-0.006017022766172886,-0.0034462420735508204,0.0023535166401416063
2079-03-09_00-28-30,1730448842.7980971,0.00397428497672081,0.006072402000427246,0.005593419075012207,0.7433904377250032,0.04052292961251968,-0.08430799472020625,0.02982393465936184,-0.6767877340316772,-0.7355738282203674,-0.0032079198863357306,-0.003510956885293126,0.0016672199126332998
2079-03-09_00-28-30,1730448842.808097,0.0034660305827856064,0.007193803787231445,0.005994677543640137,0.7433384610119027,0.0405274066224095,-0.08434662548338245,0.02982865273952484,-0.6767495274543762,-0.7356088757514954,-0.00468052364885807,-0.0011157100088894367,-0.0025561810471117496
2079-03-09_00-28-30,1730448842.8179898,0.002048363909125328,0.007464587688446045,0.004664599895477295,0.7432710840778346,0.040605948916022656,-0.08441332437621034,0.029888281598687172,-0.6766998767852783,-0.7356521487236023,-0.007452076300978661,0.0029405506793409586,-0.007513921707868576
2079-03-09_00-28-30,1730448842.828639,0.0010261144489049911,0.008048474788665771,0.0027924776077270508,0.7432351301065698,0.040749687673855686,-0.08454319621401028,0.029995013028383255,-0.676673412322998,-0.735672116279602,0.0003079224843531847,0.003924855031073093,-0.00818471796810627
2079-03-09_00-28-30,1730448842.838064,0.00018518045544624329,0.008401155471801758,0.001172184944152832,0.7432789059617491,0.04087808951544733,-0.08465170920308072,0.030088266357779503,-0.6767056584358215,-0.7356386780738831,0.00920714158564806,0.0008616871782578528,-0.004548704717308283
2079-03-09_00-28-30,1730448842.847906,0.00256187841296196,0.007783770561218262,-0.0006361603736877441,0.7433315394151894,0.040968037889137804,-0.08474831781843564,0.030152976512908936,-0.6767444014549255,-0.7356004118919373,0.002207930898293853,0.0003586160601116717,-0.005046449135988951
2079-03-09_00-28-30,1730448842.857874,0.00547599233686924,0.00647282600402832,-0.0015248656272888184,0.7433332663327106,0.04105149666165488,-0.08485298634326216,0.03021431900560856,-0.6767456531524658,-0.7355967164039612,-0.0008248770609498024,-0.001443012384697795,-0.007775390520691872
2079-03-09_00-28-30,1730448842.867999,0.004654262214899063,0.005993545055389404,0.0009803175926208496,0.7433040149603369,0.041109562846920134,-0.0849696479071344,0.03025784343481064,-0.6767241358757019,-0.7356146574020386,0.0006019659340381622,-0.0029674058314412832,-0.0105586601421237
2079-03-09_00-28-30,1730448842.87894,0.00522981584072113,0.006892979145050049,0.0014995932579040527,0.7433236432443469,0.041157619534792286,-0.08510913817824652,0.030292648822069168,-0.6767385601997375,-0.735599935054779,0.0022003953345119953,-0.004048915579915047,-0.009106704965233803
2079-03-09_00-28-30,1730448842.8877192,0.0055873803794384,0.007727146148681641,0.0022051334381103516,0.7433375164424625,0.04123212162267874,-0.08525174857102008,0.0303470641374588,-0.6767488121986389,-0.7355882525444031,0.0015293111791834235,-0.003483792534098029,-0.010183047503232956
2079-03-09_00-28-30,1730448842.897811,0.005838161334395409,0.007418632507324219,0.005057573318481445,0.7433121777193911,0.04132586115445589,-0.0854081086945374,0.03041672706604004,-0.6767301559448242,-0.7356025576591492,-0.00589105486869812,0.0005418415530584753,-0.01192182581871748
2079-03-09_00-28-30,1730448842.907641,0.005811266601085663,0.006439685821533203,0.005876362323760986,0.7432468927341972,0.04144291170565439,-0.08557931400533211,0.030504662543535233,-0.6766820549964905,-0.735643208026886,-0.007252979092299938,-0.00042222277261316776,-0.010419110767543316
2079-03-09_00-28-30,1730448842.917753,0.005591848865151405,0.006608724594116211,0.0020822882652282715,0.7431240543396979,0.041487588601291335,-0.08569381415622689,0.03054097294807434,-0.6765916347503662,-0.7357248067855835,-0.015195590443909168,-0.0031330545898526907,-0.008714421652257442
2079-03-09_00-28-30,1730448842.9280329,0.005346372723579407,0.0051950812339782715,0.0010889768600463867,0.7429449787422723,0.04150330604662825,-0.0857974600710993,0.03055756352841854,-0.6764597296714783,-0.7358453869819641,-0.018949473276734352,-0.00701487809419632,-0.008968220092356205
2079-03-09_00-28-30,1730448842.938051,0.006436439231038094,0.004311859607696533,0.0028897523880004883,0.7427402724486818,0.04152786454712243,-0.08592214703388554,0.030581384897232056,-0.6763089895248413,-0.7359830141067505,-0.020301295444369316,-0.0061895642429590225,-0.01028968021273613
2079-03-09_00-28-30,1730448842.947647,0.006147075444459915,0.005740165710449219,0.0038576126098632812,0.7425249470904294,0.041581091492416636,-0.08602499408039972,0.030626611784100533,-0.676150381565094,-0.7361268997192383,-0.020685933530330658,-0.0020118635147809982,-0.007405157666653395
2079-03-09_00-28-30,1730448842.9576302,0.005389075726270676,0.006056427955627441,0.0055879950523376465,0.7423329170220071,0.04162923325201956,-0.08611368400875098,0.03066745214164257,-0.6760088801383972,-0.7362551093101501,-0.013399523682892323,-0.005036415532231331,-0.005575300194323063
2079-03-09_00-28-30,1730448842.967793,0.006459828466176987,0.005314171314239502,0.005802631378173828,0.7421953764223667,0.04164110622726528,-0.08614354679870682,0.030680064111948013,-0.6759074926376343,-0.7363476157188416,-0.013914939016103745,0.001975154737010598,0.000642222526948899
2079-03-09_00-28-30,1730448842.9780998,0.006512179970741272,0.005368411540985107,0.003741025924682617,0.7420619377014541,0.04164780691740918,-0.08610392993933443,0.030688755214214325,-0.6758091449737549,-0.7364375591278076,-0.010627001523971558,0.0018286809790879488,0.005050286650657654
2079-03-09_00-28-30,1730448842.987637,0.006537022069096565,0.005369842052459717,0.0022092461585998535,0.7419603278020708,0.04158947897420002,-0.08603808143187336,0.03064865432679653,-0.675734281539917,-0.7365079522132874,-0.00929730013012886,-0.0053408145904541016,0.006385435815900564
2079-03-09_00-28-30,1730448842.9978762,0.007130786776542664,0.0061244964599609375,-0.000712275505065918,0.7419283967571157,0.04152791343504139,-0.08598403721540984,0.030604204162955284,-0.6757107377052307,-0.7365313172340393,0.0030286076944321394,-0.005046801641583443,0.004418158903717995
2079-03-09_00-28-30,1730448843.0076098,0.005881188437342644,0.005498170852661133,-0.0007229447364807129,0.7419480810537498,0.041443585394787916,-0.0859604947143669,0.030541544780135155,-0.6757252216339111,-0.7365206480026245,0.00255207484588027,-0.009174169041216373,-0.0005040019750595093
2079-03-09_00-28-31,1730448843.017768,0.005082285031676292,0.008112788200378418,0.0008447766304016113,0.74193472998475,0.04136759758140779,-0.08600027087414339,0.030485952273011208,-0.6757153868675232,-0.7365320324897766,-0.00339716044254601,-0.013002462685108185,-0.004446012899279594
2079-03-09_00-28-31,1730448843.029037,0.005285985767841339,0.008077383041381836,0.0016124248504638672,0.7419073752397973,0.04131789904344919,-0.08610380086851091,0.030450109392404556,-0.6756952404975891,-0.7365519404411316,-0.0003181875217705965,-0.014254148118197918,-0.00918532069772482
2079-03-09_00-28-31,1730448843.037788,0.0037121232599020004,0.008961200714111328,0.0011557340621948242,0.7418850551735054,0.041278611808818026,-0.08624810329264143,0.030421797186136246,-0.6756787896156311,-0.7365682721138,-0.0035169103648513556,-0.01526295393705368,-0.01174754835665226
2079-03-09_00-28-31,1730448843.047713,0.004407890141010284,0.009238243103027344,0.0008474588394165039,0.7418676141451143,0.04126556207790661,-0.0864070133407989,0.030412672087550163,-0.6756659150123596,-0.736580491065979,-0.004270927980542183,-0.011321475729346275,-0.009523436427116394
2079-03-09_00-28-31,1730448843.057856,0.002599358558654785,0.009254097938537598,0.0032079219818115234,0.7418063103099413,0.041274096169297066,-0.08654200515033332,0.030420666560530663,-0.6756207346916199,-0.7366215586662292,-0.004676260985434055,-0.008112366311252117,-0.00968029722571373
2079-03-09_00-28-31,1730448843.067755,0.002751680091023445,0.006635129451751709,0.0044362545013427734,0.7417930692700462,0.04131538009835602,-0.08666982202775313,0.030451443046331406,-0.6756109595298767,-0.7366291880607605,0.004498845897614956,-0.005483293905854225,-0.00935688242316246
2079-03-09_00-28-31,1730448843.078205,0.0036413799971342087,0.00476682186126709,0.00464099645614624,0.7418046568342421,0.04135089062224646,-0.08676754479193863,0.030477279797196388,-0.6756194829940796,-0.736620306968689,0.0025217148941010237,-0.004060100764036179,-0.005288370884954929
