Date,TimeStamp,UserAccelerationX,UserAccelerationY,UserAccelerationZ,AttitudePitch,AttitudeRoll,AttitudeYaw,GravityX,GravityY,GravityZ,RotationRateX,RotationRateY,RotationRateZ
13:43.2,34490.294,0.00114171,0.00023138,0.008843958,0.010470196,-0.019775055,0.255115666,-0.019772682,-0.010470005,-0.99974966,-0.000258028,0.00188108,-0.000612409
13:43.2,34490.304,0.002694266,-0.000124482,0.006371379,0.010480547,-0.019801743,0.255103424,-0.019799361,-0.010480355,-0.999749064,0.000818688,-0.003418877,0.000258977
13:43.2,34490.314,0.000797497,-0.00015919,0.005776286,0.010491615,-0.019797063,0.255085092,-0.01979468,-0.010491422,-0.999749005,-0.00066117,-0.001519661,-0.000596854
13:43.2,34490.324,0.001215884,0.000189231,0.007790625,0.010489085,-0.019788204,0.255067305,-0.019785823,-0.010488892,-0.999749243,0.000681862,-4.61E-05,-0.001990486
13:43.2,34490.334,0.00156218,9.80E-05,0.006432056,0.010489413,-0.019814072,0.255057619,-0.019811686,-0.01048922,-0.999748707,0.001288278,-0.006080249,0.000131118
13:43.2,34490.344,0.000276878,8.46E-05,0.007088423,0.010476004,-0.019810504,0.255057441,-0.019808121,-0.010475812,-0.999748945,-0.000727734,0.0006184,0.001016619
13:43.2,34490.354,0.001875432,-0.000344709,0.008126557,0.010458682,-0.019791618,0.255065122,-0.019789243,-0.010458492,-0.999749482,-0.000714492,0.001830788,-0.000588477
13:43.2,34490.364,0.002023894,-0.000364044,0.0055632,0.010454607,-0.01978749,0.25507136,-0.019785117,-0.010454416,-0.999749601,0.002110323,-0.002444651,0.002251252
13:43.2,34490.374,0.001831029,-0.000115076,0.006722569,0.010444175,-0.019808252,0.255080754,-0.019805877,-0.010443985,-0.999749303,-0.00458542,-0.000899755,0.00037279
13:43.2,34490.384,0.001044272,0.000324236,0.006768227,0.010440982,-0.019814951,0.255094965,-0.019812575,-0.010440792,-0.999749184,0.001617349,-0.000746091,0.000557347
13:43.2,34490.394,0.000507604,-0.001102863,0.007424355,0.010448209,-0.019812344,0.255098572,-0.019809967,-0.010448019,-0.999749184,0.000900513,0.004286991,-0.001713991
13:43.2,34490.404,0.001068247,-0.000696911,0.009286702,0.010442173,-0.019777881,0.255084567,-0.019775514,-0.010441983,-0.999749899,-0.000407099,0.004127467,-3.54E-05
13:43.2,34490.414,0.002102787,-0.001856578,0.004617274,0.010442174,-0.019790085,0.255096922,-0.019787714,-0.010441985,-0.99974966,0.000470113,-0.001835882,0.001216362
13:43.2,34490.424,0.001456777,-1.28E-05,0.006005168,0.01045485,-0.019815473,0.255100827,-0.019813092,-0.010454659,-0.999749064,-0.000122441,-0.000426804,-0.001626829
13:43.2,34490.434,0.001383157,-0.001553805,0.007958233,0.010455032,-0.019818148,0.255096913,-0.019815767,-0.010454841,-0.999749005,-0.0003964,0.000356781,0.000603082
13:43.2,34490.444,0.000938112,-0.001229822,0.004845619,0.010443321,-0.019815605,0.255087241,-0.019813228,-0.010443131,-0.999749184,-0.001763667,0.00093016,-0.000926637
13:43.2,34490.454,0.001756428,0.000230672,0.004326642,0.01043897,-0.019825206,0.255081446,-0.019822827,-0.01043878,-0.999749005,7.70E-05,0.000580591,0.000961939
13:43.2,34490.464,0.001311509,-0.001335435,0.008415699,0.010444519,-0.019838054,0.255079126,-0.019835671,-0.010444329,-0.999748707,0.00174282,-0.000670828,0.000359532
13:43.2,34490.474,0.001938641,-0.000287488,0.007789969,0.010454868,-0.019839579,0.255096308,-0.019837193,-0.010454678,-0.999748588,-0.002068412,-0.001914032,0.001097957
13:43.2,34490.484,0.000742115,-0.000505766,0.006462455,0.010434954,-0.019848496,0.255112573,-0.019846112,-0.010434764,-0.999748588,-0.000678775,-0.002352655,-0.002522344
13:43.2,34490.494,0.001137029,-0.000705584,0.006050527,0.0104335,-0.01984668,0.255103125,-0.019844297,-0.010433311,-0.999748647,-0.000186607,-0.002627493,0.001314738
13:43.2,34490.504,0.001837533,0.000543167,0.009056568,0.01043103,-0.01984528,0.255097385,-0.019842898,-0.010430842,-0.999748707,0.000113265,0.000100117,-0.000128163
13:43.2,34490.514,9.94E-05,0.000512533,0.007943273,0.010430914,-0.019816154,0.255098798,-0.01981378,-0.010430725,-0.999749303,4.38E-05,0.000182142,0.001080928
13:43.3,34490.524,0.000657264,-0.000342022,0.004006326,0.010430851,-0.019824674,0.255090886,-0.019822298,-0.010430662,-0.999749124,0.000310872,-0.000506818,-0.000475157
13:43.3,34490.534,0.002806176,-9.75E-05,0.006813705,0.010431225,-0.019837356,0.255084828,-0.019834977,-0.010431035,-0.999748826,0.000430603,0.000315566,-0.000841084
13:43.3,34490.544,0.001440683,0.000635756,0.009545326,0.010416806,-0.01982989,0.255098458,-0.019827515,-0.010416618,-0.999749124,-0.001362503,-0.001431467,0.00112566
13:43.3,34490.554,0.001268115,-0.001631061,0.005105495,0.01040829,-0.019809905,0.255087314,-0.019807536,-0.010408103,-0.99974966,0.001106357,0.002587243,-0.0004667
13:43.3,34490.564,0.002336727,-0.001185533,0.006905973,0.010411314,-0.019810403,0.255104473,-0.019808033,-0.010411126,-0.999749601,-0.002047358,0.0018602,0.001284861
13:43.3,34490.574,0.001566056,0.000659512,0.010018647,0.010410045,-0.019817933,0.255110203,-0.019815562,-0.010409857,-0.999749482,0.000848507,-0.002523097,0.000196799
13:43.3,34490.584,0.001674356,-0.000202145,0.004921615,0.010433399,-0.019834688,0.255114125,-0.019832307,-0.010433209,-0.999748886,0.000687386,0.000124351,-0.000102274
13:43.3,34490.594,0.001487019,-0.000791467,0.007012129,0.01043917,-0.019830455,0.25510878,-0.019828074,-0.010438981,-0.999748886,0.001084096,-0.002545734,0.001339505
13:43.3,34490.604,0.001607707,0.000327515,0.008568168,0.010444261,-0.019844338,0.255126944,-0.019841954,-0.010444071,-0.999748588,-0.001364415,0.000291864,0.000608733
13:43.3,34490.614,0.000569332,-0.001342901,0.005440533,0.010437052,-0.019828295,0.255132353,-0.019825915,-0.010436862,-0.999748945,-0.000531329,0.003136653,0.00202942
13:43.4,34490.624,0.000690632,-0.000552939,0.007607639,0.010433556,-0.019812259,0.25513657,-0.019809885,-0.010433367,-0.999749303,-0.001670895,-0.001211224,-0.00182231
13:43.4,34490.634,0.001764506,0.000294056,0.007073045,0.010441319,-0.019833288,0.255118517,-0.019830907,-0.010441129,-0.999748826,0.001455295,-0.00288795,0.001203972
13:43.4,34490.644,0.001442937,-0.002536587,0.004067183,0.010433552,-0.01983215,0.255117512,-0.019829771,-0.010433363,-0.999748945,-0.001124775,0.002034637,0.001525416
13:43.4,34490.654,0.001365818,-0.0017727,0.010095656,0.01040398,-0.01978553,0.255126025,-0.019783169,-0.010403792,-0.999750137,-0.003556067,0.003421611,0.00347032
13:43.4,34490.664,0.002363939,-0.000574553,0.006906986,0.010381421,-0.019776563,0.255136501,-0.019774208,-0.010381235,-0.999750555,-0.002572029,-0.002284212,0.00195658
13:43.4,34490.674,0.002466183,-0.000982339,0.003213763,0.010385625,-0.019802523,0.25513612,-0.019800162,-0.010385438,-0.999750018,0.000783218,-0.00087753,-0.001039885
13:43.4,34490.684,0.001342595,-0.000350351,0.008615971,0.010376743,-0.019777558,0.255124285,-0.019775204,-0.010376557,-0.999750614,0.001745684,0.006389438,0.001511955
13:43.4,34490.694,0.00173641,0.00074431,0.006083429,0.010372772,-0.019759382,0.255129729,-0.019757034,-0.010372586,-0.999751031,0.001084471,-0.001121209,-0.000192653
13:43.4,34490.704,0.001806991,0.001021668,0.003000915,0.010375471,-0.01976893,0.255140261,-0.019766578,-0.010375285,-0.999750793,0.000582998,0.004049318,-0.001774837
13:43.4,34490.714,0.001649294,-0.001271211,0.011180222,0.010356151,-0.019748554,0.255135295,-0.019746212,-0.010355965,-0.999751389,-0.003953911,0.002185105,-0.000172726
13:43.4,34490.724,0.001649763,-0.000699563,0.009929121,0.010347963,-0.01974902,0.25513839,-0.01974668,-0.010347779,-0.999751449,0.001117546,0.001026897,-0.000623865
13:43.5,34490.734,0.002553651,-0.001658959,0.003474057,0.010365131,-0.019767907,0.255139828,-0.019765558,-0.010364945,-0.999750912,-0.000816348,-0.003061055,0.001926367
13:43.5,34490.744,0.002210034,-0.000755311,0.00774622,0.010353251,-0.019790505,0.25514136,-0.019788153,-0.010353066,-0.999750614,0.002289697,0.000450589,-0.00031415
13:43.5,34490.754,0.001510624,-0.000184475,0.007547915,0.010344251,-0.019792996,0.25511666,-0.019790646,-0.010344067,-0.999750614,-0.003634931,-0.000726262,-0.000432288
13:43.5,34490.764,0.000842493,0.000150691,0.004236996,0.010343724,-0.01978099,0.255118564,-0.019778641,-0.01034354,-0.999750853,-0.000837547,0.00143223,-0.00059554
13:43.5,34490.773,0.002267856,-0.001474384,0.00867784,0.010336081,-0.019756762,0.255118168,-0.019754421,-0.010335897,-0.999751449,0.00076532,-0.000908423,0.002393965
13:43.5,34490.783,0.001447054,-0.00063628,0.008830249,0.010350211,-0.019759937,0.255136039,-0.019757593,-0.010350026,-0.99975121,-0.000378241,-0.002934023,0.000625893
13:43.5,34490.793,0.001387471,3.26E-05,0.003397465,0.010347753,-0.019791915,0.255149411,-0.019789563,-0.010347568,-0.999750614,-0.001360321,-0.00396147,0.001285611
13:43.5,34490.803,0.001711933,1.84E-05,0.008813977,0.010348786,-0.019811204,0.255159675,-0.019808847,-0.010348601,-0.999750257,-0.000999995,0.00255928,0.003086973
13:43.5,34490.813,0.002058201,-5.05E-05,0.010462523,0.010356124,-0.019775997,0.255168144,-0.019773647,-0.010355939,-0.999750853,-0.000521067,0.001530234,0.002032734
13:43.5,34490.823,0.000923745,-0.000448897,0.002786875,0.010354489,-0.019801217,0.255173356,-0.019798862,-0.010354305,-0.999750376,0.000783349,-0.005811036,0.001727536
13:43.6,34490.833,0.002072103,-0.000765556,0.005379975,0.010373524,-0.019835695,0.255165348,-0.019833326,-0.010373338,-0.999749482,-0.000493623,-0.001691392,-0.002486597
13:43.6,34490.843,0.002574958,8.89E-05,0.010965168,0.010358195,-0.019819744,0.255165053,-0.019817384,-0.010358009,-0.999749959,-0.000844627,0.004061036,6.82E-05
13:43.6,34490.853,0.001709063,-0.000132906,0.00641793,0.010365305,-0.019823602,0.255164018,-0.019821238,-0.010365119,-0.999749839,0.001902597,-0.002073555,-0.00135747
13:43.6,34490.863,0.001851408,-0.001075125,0.004250407,0.010369131,-0.019859145,0.255161837,-0.019856771,-0.010368946,-0.999749064,0.000853578,-0.002040532,-5.73E-05
13:43.6,34490.873,0.001697328,-0.001757238,0.009774089,0.010373664,-0.019857653,0.255170164,-0.019855279,-0.010373478,-0.999749064,0.001342237,0.005775579,-0.000440597
13:43.6,34490.883,0.002604865,-0.001345175,0.009011924,0.01037374,-0.019819135,0.255179434,-0.019816771,-0.010373554,-0.999749839,-0.000320108,0.003120141,0.002378892
13:43.6,34490.893,0.001883196,-0.000149486,0.002709925,0.010363985,-0.01982989,0.255186771,-0.019827526,-0.0103638,-0.99974972,0.000109741,-0.004227786,0.001091626
13:43.6,34490.903,0.003670895,-0.00018413,0.004692912,0.010390376,-0.01984758,0.255200837,-0.019845206,-0.010390189,-0.999749064,0.00126502,0.004391801,0.000754736
13:43.6,34490.913,0.002008051,-0.000951274,0.010903895,0.010386171,-0.019817417,0.255208136,-0.01981505,-0.010385985,-0.99974972,-0.002595278,0.002073519,0.000483467
13:43.6,34490.923,0.000773478,-0.002064033,0.00768429,0.010387303,-0.019818805,0.255213175,-0.01981644,-0.010387116,-0.99974966,0.001890018,-0.004453356,0.001716244
13:43.7,34490.933,0.000810686,0.000332556,0.002998292,0.010403523,-0.019886553,0.255212231,-0.019884165,-0.010403335,-0.99974817,9.82E-05,-0.007913335,4.73E-05
13:43.7,34490.943,0.001391405,-0.000652397,0.009895027,0.010395132,-0.019902699,0.255215157,-0.019900311,-0.010394945,-0.999747932,-0.000957215,0.003053296,0.00071628
13:43.7,34490.953,0.000972323,-0.000673053,0.01039952,0.010404994,-0.019849817,0.255230571,-0.01984744,-0.010404807,-0.999748886,0.000495162,0.001963797,-0.000474259
13:43.7,34490.963,0.001601035,6.08E-05,0.00203687,0.010421637,-0.019883448,0.255222567,-0.019881058,-0.010421448,-0.999748051,-0.000260909,-0.007870991,-0.003478838
13:43.7,34490.973,0.002107682,-0.000533494,0.005362332,0.010422482,-0.019932341,0.255220738,-0.019929938,-0.010422294,-0.999747038,0.001229192,-0.002535348,0.002525898
13:43.7,34490.983,0.001997698,-0.000846978,0.013633192,0.010429434,-0.019898645,0.255228733,-0.01989625,-0.010429244,-0.999747634,0.000736241,0.006515139,0.002189008
13:43.7,34490.993,0.001767475,-0.001789806,0.006202102,0.010432652,-0.019897305,0.25522946,-0.019894909,-0.010432462,-0.999747634,-0.000313013,-0.006351657,0.000884113
13:43.7,34491.003,0.003014764,-0.001373821,0.001424789,0.010451909,-0.019954427,0.255239839,-0.019952012,-0.010451719,-0.999746323,0.004569626,-0.005401442,0.002242857
13:43.7,34491.013,0.001803715,-0.000976677,0.010610521,0.010467585,-0.019948825,0.255245416,-0.019946409,-0.010467393,-0.999746263,0.001484324,0.005713261,-1.01E-05
13:43.7,34491.023,0.001185395,0.000214535,0.010397673,0.010468611,-0.019910328,0.25525098,-0.019907922,-0.01046842,-0.999747038,-0.000613448,6.44E-05,0.00034652
13:43.8,34491.033,0.00200377,0.000494487,0.002004802,0.010473904,-0.019935252,0.255256358,-0.019932838,-0.010473713,-0.999746442,0.002177481,-0.005576411,0.000299309
13:43.8,34491.043,0.002188349,0.000575593,0.005681276,0.010493977,-0.019967257,0.255250333,-0.019964831,-0.010493784,-0.999745607,0.003377768,-0.001590192,-0.003109537
13:43.8,34491.053,0.001967056,-0.000343964,0.011663556,0.010489948,-0.01992906,0.255251557,-0.019926645,-0.010489755,-0.999746442,0.000289583,0.004965712,0.001688361
13:43.8,34491.063,0.002213804,-0.00025727,0.006765902,0.010500348,-0.019901144,0.255248186,-0.019898733,-0.010500154,-0.999746859,0.000172137,-0.003297012,-0.000740176
13:43.8,34491.073,0.002140431,-0.000599895,0.002538204,0.010508675,-0.019949854,0.255245002,-0.019947428,-0.010508481,-0.999745786,0.00127561,-0.003894359,-0.00318193
13:43.8,34491.083,0.002636302,-0.000320144,0.009404421,0.010513769,-0.01995745,0.255245052,-0.019955022,-0.010513575,-0.999745607,0.002007713,0.001225568,-0.000815978
13:43.8,34491.093,0.003007667,7.09E-05,0.011404037,0.01052336,-0.019916819,0.255246484,-0.0199144,-0.010523167,-0.999746323,-0.002743271,0.003558497,0.000854607
13:43.8,34491.103,0.002461487,-0.00022913,0.002965689,0.010513228,-0.019935214,0.255255879,-0.019932792,-0.010513035,-0.999746025,0.001818457,-0.007776182,-0.001527324
13:43.8,34491.113,0.002112256,-0.001004152,0.005009353,0.010516406,-0.019982726,0.255250131,-0.019980291,-0.010516212,-0.999745071,-0.00115816,-0.002686349,1.14E-05
13:43.8,34491.123,0.001790369,0.000417137,0.011723995,0.010503368,-0.019950745,0.255259418,-0.01994832,-0.010503175,-0.999745846,-0.002571499,0.001678572,-0.000626973
13:43.9,34491.133,0.001910808,-0.000541961,0.006276906,0.010505575,-0.019933851,0.255260627,-0.019931432,-0.010505381,-0.999746144,-0.00032553,-0.005206498,0.001709102
13:43.9,34491.143,0.001455517,-0.000669602,0.002858043,0.010500003,-0.019982112,0.255278717,-0.019979682,-0.01049981,-0.99974525,0.002046015,-0.004135109,0.003736833
13:43.9,34491.153,0.002181021,-0.000935707,0.009144425,0.010508557,-0.019990457,0.255279706,-0.019988023,-0.010508364,-0.999745011,0.001254728,0.004368898,-0.000398179
13:43.9,34491.163,0.00167753,-0.000160436,0.010090947,0.010520889,-0.019959982,0.255266454,-0.019957552,-0.010520695,-0.999745488,0.001757533,0.004149719,-0.000222943
13:43.9,34491.173,0.00216322,0.000300339,0.005589187,0.01053916,-0.019972656,0.255259521,-0.01997022,-0.010538965,-0.999745011,0.002116981,-0.004099955,-0.002746412
13:43.9,34491.183,0.001872746,-0.000171186,0.00699234,0.010540658,-0.020002625,0.255251868,-0.02000018,-0.010540462,-0.999744415,0.0004818,0.001534495,0.000425945
13:43.9,34491.193,0.002767764,-0.000636783,0.008397281,0.010532823,-0.019951581,0.25525834,-0.019949151,-0.010532629,-0.999745488,-0.000144968,0.005045873,-0.001573497
13:43.9,34491.203,0.001082886,3.54E-05,0.005650818,0.010533654,-0.019945169,0.255247323,-0.01994274,-0.010533459,-0.999745607,-0.002150594,-0.003135624,0.000973017
13:43.9,34491.213,0.001456812,-0.000255428,0.004184902,0.010532709,-0.019998676,0.255242344,-0.019996233,-0.010532515,-0.999744594,-0.000667651,-0.003641092,-0.001614904
13:43.9,34491.223,0.00220165,0.000194038,0.007968783,0.010539671,-0.020011095,0.25524526,-0.020008648,-0.010539476,-0.999744236,0.00013689,0.00076351,-0.000965625
13:44.0,34491.233,0.000569452,0.000138939,0.008548975,0.010560867,-0.019981068,0.255240384,-0.019978624,-0.010560671,-0.999744654,0.000714059,0.000775494,-0.000238141
13:44.0,34491.243,0.000511909,-0.000164798,0.006886005,0.010562304,-0.019969296,0.255242428,-0.019966856,-0.010562108,-0.999744833,0.002058689,-0.002885553,3.67E-05
13:44.0,34491.253,0.002077015,-0.000672355,0.007846355,0.010573548,-0.02000854,0.25524674,-0.020006087,-0.010573351,-0.999743938,0.001378314,-0.001830143,-0.001063022
13:44.0,34491.263,0.002292741,0.000209892,0.006747246,0.010586045,-0.020025907,0.255259883,-0.020023447,-0.010585847,-0.999743462,-0.001283249,-0.000279384,0.002437703
13:44.0,34491.273,0.001886245,0.000763305,0.006442428,0.010574882,-0.020016134,0.255262709,-0.020013679,-0.010574684,-0.99974376,-0.003269168,-0.001276738,-0.001354475
13:44.0,34491.283,0.002555883,0.000462169,0.005816638,0.010563662,-0.020029646,0.255252361,-0.020027189,-0.010563466,-0.99974364,0.000808664,-0.001202435,-0.001790434
13:44.0,34491.293,0.002386985,-0.000396559,0.004824758,0.010574686,-0.020028596,0.255241162,-0.020026138,-0.010574489,-0.999743521,0.000534201,0.000614906,-0.000769887
13:44.0,34491.303,0.00136208,0.000173117,0.008151472,0.010579787,-0.020010766,0.255250956,-0.020008311,-0.01057959,-0.999743819,-0.001226947,0.000703855,0.001199787
13:44.0,34491.313,0.002566695,0.000387538,0.008456349,0.010580585,-0.020025201,0.255264521,-0.020022742,-0.010580387,-0.999743521,-0.000803155,-0.002042396,0.00026896
13:44.0,34491.323,0.002762357,0.000491052,0.007265747,0.010592547,-0.020037764,0.255259777,-0.020035299,-0.010592349,-0.999743164,-0.001057221,0.000245259,-0.000301489
13:44.1,34491.333,0.001374969,-0.000472412,0.007785022,0.010575127,-0.020023661,0.255263575,-0.020021204,-0.010574929,-0.99974364,-0.001815501,0.003954243,-0.001655372
13:44.1,34491.342,0.001351262,-0.001518408,0.00867027,0.010566729,-0.020015208,0.255256818,-0.020012755,-0.010566532,-0.999743879,-0.000433587,0.001032489,-0.000581053
13:44.1,34491.352,0.002437705,0.000707037,0.0060305,0.01056439,-0.020018276,0.255259024,-0.020015823,-0.010564194,-0.999743879,0.001555891,0.000902793,-7.49E-05
13:44.1,34491.362,0.00250108,-0.000122711,0.005801618,0.010558617,-0.020020617,0.255273838,-0.020018164,-0.01055842,-0.999743879,-0.001501152,-0.002155581,-0.000382504
13:44.1,34491.372,0.001993174,-0.00026308,0.007800817,0.010540315,-0.020016243,0.255284432,-0.020013794,-0.01054012,-0.999744117,-0.002888737,0.003671416,0.000339338
13:44.1,34491.382,0.001806032,0.000609073,0.006412745,0.010527459,-0.019996942,0.255278279,-0.019994501,-0.010527264,-0.999744654,0.001135033,0.000825029,0.000730556
13:44.1,34491.392,0.002648612,-0.00038075,0.006901264,0.010529458,-0.019985028,0.25527569,-0.019982589,-0.010529263,-0.999744892,-0.001385541,0.000902793,-0.00083519
13:44.1,34491.402,0.00189882,-0.001734152,0.007999897,0.010534087,-0.019982916,0.255277181,-0.019980477,-0.010533893,-0.999744892,0.001584416,-0.000158476,6.20E-05
13:44.1,34491.412,0.001463309,-0.000165669,0.008869827,0.010530915,-0.019974648,0.255279201,-0.019972213,-0.01053072,-0.999745071,0.000300538,-0.000532651,0.000795693
13:44.1,34491.422,0.001045896,-2.19E-05,0.005116105,0.010522134,-0.019984481,0.255293869,-0.019982046,-0.01052194,-0.999744952,0.001225187,-0.00242243,0.001480392
13:44.2,34491.432,0.002193978,-0.000311296,0.003986537,0.010522616,-0.020003419,0.255293135,-0.020000977,-0.010522422,-0.999744594,0.00056603,-0.002945741,-0.002545968
13:44.2,34491.442,0.002670068,0.000295538,0.007999897,0.0105191,-0.019991225,0.255277948,-0.019988786,-0.010518906,-0.999744892,0.000848325,0.002810682,-0.000774433
13:44.2,34491.452,0.00240574,-0.000934666,0.007222474,0.010509598,-0.019955767,0.255283651,-0.01995334,-0.010509405,-0.999745667,-0.00381987,0.001155527,0.002148042
13:44.2,34491.462,0.000893645,-0.000878467,0.005849302,0.010504761,-0.019954288,0.255301068,-0.019951863,-0.010504568,-0.999745727,-0.000317547,-0.0026725,0.00120475
13:44.2,34491.472,0.002718335,-0.000293802,0.007282794,0.010509591,-0.019993711,0.255296967,-0.019991275,-0.010509398,-0.999744892,0.00091289,-0.003661865,0.000708341
13:44.2,34491.482,0.002392344,-0.001383097,0.007435083,0.010518931,-0.02000342,0.255306396,-0.020000979,-0.010518737,-0.999744654,0.002123563,-0.002222426,0.000576781
13:44.2,34491.492,0.001578927,-0.001165846,0.006565511,0.010537819,-0.01998346,0.255297842,-0.019981021,-0.010537623,-0.999744833,0.000250953,0.002841575,0.000381555
13:44.2,34491.502,0.001632879,0.00010924,0.006000996,0.010546427,-0.019976376,0.255298963,-0.019973937,-0.010546231,-0.999744892,0.003390287,-0.001980611,-0.000560405
13:44.2,34491.512,0.001047364,0.000234607,0.006763399,0.010549722,-0.02000122,0.255296971,-0.019998774,-0.010549527,-0.999744356,-0.000266342,-0.000955827,-0.000362278
13:44.2,34491.522,0.001372363,0.000590583,0.006671727,0.010554746,-0.020005785,0.25530148,-0.020003336,-0.01055455,-0.999744177,0.002296152,0.000524891,-0.000443771
13:44.3,34491.532,0.002346402,-0.000848741,0.005939364,0.010549749,-0.020003262,0.255298597,-0.020000815,-0.010549554,-0.999744296,-0.001502936,-0.000846371,0.00042155
13:44.3,34491.542,0.00163489,-0.001105968,0.007114351,0.010536662,-0.020008911,0.255303271,-0.020006465,-0.010536467,-0.999744356,-0.00079054,0.004436275,0.000320616
13:44.3,34491.552,0.001943538,-0.000765849,0.00775522,0.010556347,-0.019997126,0.255311653,-0.01999468,-0.010556151,-0.999744356,0.003216024,0.002519865,-0.000918376
13:44.3,34491.562,0.002649579,-0.000335049,0.007587433,0.01057516,-0.019986002,0.255307104,-0.019983554,-0.010574963,-0.999744356,0.000964588,-0.00049004,0.001871285
13:44.3,34491.572,0.00202157,-0.000453873,0.005267978,0.010563148,-0.019998864,0.255310015,-0.019996416,-0.010562952,-0.999744236,-0.003068752,-0.004088503,0.000651052
13:44.3,34491.582,0.00230174,-0.001101582,0.00616771,0.010571567,-0.020019643,0.255313582,-0.020017186,-0.01057137,-0.99974376,0.002312432,-0.000107077,0.001919782
13:44.3,34491.592,0.001592968,-0.000155326,0.007571518,0.010587037,-0.020012774,0.255325174,-0.020010317,-0.010586839,-0.9997437,0.000783511,0.003856772,0.000821298
13:44.3,34491.602,-0.000198634,4.39E-05,0.004153669,0.010587858,-0.020006449,0.255321264,-0.020003993,-0.010587661,-0.999743819,0.001088177,-0.000493502,0.001290281
13:44.3,34491.612,0.00185471,-0.001646517,0.006793201,0.010591208,-0.020015122,0.255321835,-0.020012664,-0.010591011,-0.99974364,0.001188107,-0.002281548,0.000519983
13:44.3,34491.622,0.001526104,-0.001421352,0.008227587,0.010602751,-0.020006948,0.25531894,-0.020004489,-0.010602552,-0.9997437,-0.001210602,0.003148104,0.000652875
13:44.4,34491.632,0.000575991,-0.000452797,0.005466044,0.010610003,-0.019987619,0.255323044,-0.019985164,-0.010609804,-0.999743998,-0.000554322,-0.000741442,0.001826694
13:44.4,34491.642,0.002544582,-0.000589961,0.004367411,0.010610168,-0.019987826,0.255321541,-0.01998537,-0.010609969,-0.999743998,-0.000585747,-0.001308962,-0.002613328
13:44.4,34491.652,0.003141943,-0.000284751,0.008105755,0.010610202,-0.019990097,0.255302761,-0.019987641,-0.010610003,-0.999743938,-2.42E-05,0.001841558,-0.001926793
13:44.4,34491.662,0.002360217,0.000559662,0.007023156,0.010600123,-0.01995604,0.255312426,-0.019953594,-0.010599924,-0.999744713,0.000421316,0.004088733,0.000447415
13:44.4,34491.672,0.00187923,-0.00018731,0.005024254,0.010616091,-0.019948076,0.255325434,-0.019945629,-0.010615892,-0.999744713,0.000569232,-0.00589679,-0.000500916
13:44.4,34491.682,0.002960794,8.61E-05,0.007372797,0.010630054,-0.02000732,0.255339919,-0.020004855,-0.010629854,-0.999743402,-0.001311759,-0.006723967,0.001296451
13:44.4,34491.692,0.001917794,0.00020748,0.007402956,0.010644671,-0.020017182,0.255334977,-0.020014711,-0.010644469,-0.999743044,0.003160863,0.004730555,0.001296976
13:44.4,34491.702,0.00272269,-0.000259195,0.007663131,0.010666277,-0.019967576,0.255347257,-0.019965112,-0.010666075,-0.99974376,-0.000424551,0.003967026,0.001359294
13:44.4,34491.712,0.002064351,-0.001784083,0.008471847,0.010667269,-0.019965366,0.255352731,-0.019962903,-0.010667067,-0.999743819,0.001706116,-0.001701512,-0.001299498
13:44.4,34491.722,0.002089197,-4.68E-05,0.005923152,0.010665024,-0.019990218,0.255345286,-0.019987749,-0.010664822,-0.999743342,-0.003101156,-0.002501259,0.000756995
13:44.5,34491.732,0.002538625,0.000117432,0.007022023,0.010661435,-0.019981878,0.255345623,-0.019979414,-0.010661233,-0.999743521,0.000435224,0.002210405,-0.00051993
13:44.5,34491.742,0.001542119,-0.000325041,0.004778922,0.010676727,-0.019977196,0.255352865,-0.019974729,-0.010676524,-0.999743462,0.00060327,0.000577355,0.002038302
13:44.5,34491.752,0.000977291,-0.000620626,0.004931271,0.010671058,-0.019992204,0.255355009,-0.019989735,-0.010670856,-0.999743223,0.001636278,0.003479934,0.000576465
13:44.5,34491.762,0.001498366,-0.000960533,0.010516286,0.010666845,-0.019979215,0.255350302,-0.01997675,-0.010666642,-0.999743521,-0.002234892,0.003528937,-0.000235001
13:44.5,34491.772,0.002684718,0.000113456,0.008898854,0.010672719,-0.019975384,0.255349001,-0.019972919,-0.010672516,-0.999743581,-0.001823497,-0.000101485,0.001787426
13:44.5,34491.782,0.002395062,-0.000778062,0.005586982,0.010681471,-0.020006173,0.255355975,-0.020003697,-0.010681268,-0.999742866,0.003446632,-0.000227985,4.65E-05
13:44.5,34491.792,0.002130399,-4.30E-05,0.006670296,0.010699321,-0.020000909,0.255360044,-0.019998431,-0.010699117,-0.999742746,-0.002261352,0.002735314,0.000749078
13:44.5,34491.802,0.001709012,0.000454318,0.008272707,0.010693148,-0.019991508,0.255355224,-0.019989034,-0.010692945,-0.999743044,0.002225275,0.003469282,-8.56E-05
13:44.5,34491.812,0.001994204,9.26E-05,0.004778802,0.010697607,-0.01997152,0.255359837,-0.01996905,-0.010697403,-0.999743342,-0.001394415,-0.001807506,-0.0006633
13:44.5,34491.822,0.001937574,-9.53E-05,0.00696075,0.01069289,-0.019975926,0.255351206,-0.019973455,-0.010692686,-0.999743342,0.000524127,-0.000512144,-0.00158715
13:44.6,34491.832,0.000364084,-0.000894669,0.007769406,0.010702195,-0.019974092,0.255343542,-0.01997162,-0.010701991,-0.999743283,-0.000924577,-0.001417982,-0.000937288
13:44.6,34491.842,0.001637451,4.93E-05,0.005999267,0.010700164,-0.019980982,0.255347118,-0.019978508,-0.01069996,-0.999743164,-0.001145087,-0.000880023,0.001011081
13:44.6,34491.852,0.003066022,0.000748925,0.007174015,0.010697839,-0.019990487,0.255341996,-0.019988012,-0.010697635,-0.999742985,-0.001621008,-0.002654724,-0.001811804
13:44.6,34491.862,0.0015158,-0.000206729,0.008303285,0.010703488,-0.019981401,0.255339337,-0.019978927,-0.010703283,-0.999743104,0.000721775,0.002510477,-0.001914602
13:44.6,34491.872,0.001823662,-0.000253753,0.005862117,0.010732761,-0.01995357,0.255336348,-0.019951096,-0.010732555,-0.999743342,0.002696792,-0.000721208,-0.000551
13:44.6,34491.882,0.002657445,0.000341316,0.006411076,0.010747996,-0.019963384,0.255336361,-0.019960904,-0.010747788,-0.999742985,0.000144951,-0.002625901,0.000801087
13:44.6,34491.892,0.001882898,3.72E-05,0.006990552,0.010749086,-0.019982299,0.255330466,-0.019979814,-0.010748879,-0.999742627,-0.001095143,-0.001814155,-0.001362046
13:44.6,34491.902,0.001639916,0.000532168,0.006029606,0.010740483,-0.019968193,0.255325323,-0.019965714,-0.010740276,-0.999742985,0.00214619,0.000358186,0.003191161
13:44.6,34491.911,0.00128576,9.30E-05,0.006823123,0.010743849,-0.019964987,0.255330145,-0.019962508,-0.010743642,-0.999742985,0.000174006,0.001750809,0.000479599
13:44.6,34491.921,0.001012171,0.000966041,0.008364499,0.01074711,-0.019950794,0.255337397,-0.019948319,-0.010746903,-0.999743223,0.001479754,-0.000224458,-0.00089406
13:44.7,34491.931,0.001482679,-0.000261886,0.007723749,0.010739886,-0.019948279,0.255340634,-0.019945806,-0.010739679,-0.999743402,-0.000539835,-0.001725862,0.002283892
13:44.7,34491.941,0.002357589,-0.000268579,0.006365657,0.010733193,-0.019953439,0.25535238,-0.019950965,-0.010732987,-0.999743342,0.001833841,0.000686429,0.001241531
13:44.7,34491.951,0.003017336,0.000529874,0.006518006,0.01072293,-0.01997232,0.255359089,-0.019969843,-0.010722725,-0.999743104,0.001220124,-0.000951149,0.000319839
13:44.7,34491.961,0.002034593,0.000824502,0.007036865,0.01072764,-0.01996614,0.255367603,-0.019963665,-0.010727434,-0.999743164,0.000648343,-0.000157527,0.000154723
13:44.7,34491.971,0.002365055,0.000801104,0.007754207,0.010719501,-0.019960903,0.255365977,-0.019958431,-0.010719296,-0.999743342,-2.76E-05,0.003638277,7.85E-05
13:44.7,34491.981,0.001530252,-5.31E-06,0.008288503,0.010721798,-0.019950073,0.255360334,-0.019947603,-0.010721592,-0.999743521,-0.002333944,-0.00029681,-0.000445635
13:44.7,34491.991,0.001599904,0.000951516,0.007464349,0.010717324,-0.019958691,0.255358675,-0.01995622,-0.010717119,-0.999743402,0.002954938,0.002157027,-0.002224149
13:44.7,34492.001,0.001870077,6.05E-05,0.006411493,0.010726555,-0.019954207,0.255349157,-0.019951735,-0.010726348,-0.999743402,0.00191018,0.002061952,0.00013701
13:44.7,34492.011,0.000671346,-0.000371786,0.007433891,0.010736797,-0.019945662,0.255355609,-0.019943191,-0.010736591,-0.999743462,0.002286721,0.000402003,-0.000812944
13:44.7,34492.021,0.001226451,-0.00091105,0.007036984,0.010746849,-0.019951453,0.255365001,-0.019948978,-0.010746642,-0.999743223,-0.001093097,0.002034788,-0.001115213
13:44.8,34492.031,0.00200483,-8.74E-05,0.00554204,0.010731287,-0.019936369,0.255376547,-0.0199339,-0.010731081,-0.9997437,-0.001071104,0.000390019,0.002326573
13:44.8,34492.041,0.001870645,0.001672361,0.005679607,0.010736266,-0.01992425,0.255371869,-0.019921783,-0.01073606,-0.999743879,0.001435996,0.002207893,-0.000119807
13:44.8,34492.051,0.001979738,-0.000850263,0.007938206,0.010731342,-0.01991127,0.255363246,-0.019908808,-0.010731136,-0.999744236,-0.000764619,0.000845428,-0.000228147
13:44.8,34492.061,0.002011901,0.000136495,0.007907689,0.010726279,-0.019912914,0.255372295,-0.019910453,-0.010726073,-0.999744236,-0.000756097,-0.003277944,0.00081741
13:44.8,34492.071,0.001377467,-1.72E-05,0.006107032,0.01072513,-0.019919351,0.255388855,-0.019916888,-0.010724925,-0.999744117,0.00075728,-0.000986477,0.002740252
13:44.8,34492.081,0.001328971,-0.000139501,0.007587194,0.010724941,-0.019916632,0.255380751,-0.019914171,-0.010724735,-0.999744177,-0.001747956,0.001433538,-0.001470206
13:44.8,34492.091,0.003157334,0.000309162,0.008228064,0.0107311,-0.019913941,0.255382048,-0.019911479,-0.010730893,-0.999744177,-0.001331658,-0.002942772,0.001385416
13:44.8,34492.101,0.001974462,0.002111409,0.005313456,0.010732809,-0.019921256,0.255391476,-0.01991879,-0.010732603,-0.999743998,-0.000791835,-0.001705468,0.000218951
13:44.8,34492.111,0.001671508,-6.20E-05,0.004886091,0.010710914,-0.019938737,0.255390937,-0.019936273,-0.010710709,-0.999743879,-0.001084422,8.87E-05,0.00229661
13:44.8,34492.121,0.000348708,-0.000795349,0.007160187,0.010709961,-0.019912926,0.255392895,-0.019910468,-0.010709757,-0.999744415,0.001409895,0.002184292,-0.000841392
13:44.9,34492.131,6.77E-05,-0.000219083,0.00607729,0.010706392,-0.019891356,0.255376605,-0.019888904,-0.010706188,-0.999744892,-0.001989976,-0.000548705,-0.001768254
13:44.9,34492.141,0.001090564,-0.000391761,0.00670296,0.010701561,-0.019891834,0.255369397,-0.019889385,-0.010701356,-0.999744892,0.000880379,-0.00039078,0.000600095
13:44.9,34492.151,0.002066053,2.55E-05,0.008518398,0.010706806,-0.019906027,0.25536798,-0.019903572,-0.010706602,-0.999744594,-0.000429462,-0.002469785,0.001560134
13:44.9,34492.161,0.003206111,-0.000764859,0.008823335,0.010709933,-0.019916935,0.255363581,-0.019914476,-0.010709729,-0.999744296,0.003553562,-0.001409315,-0.003498008
13:44.9,34492.171,0.001795722,-0.000621083,0.004901886,0.010716381,-0.019910357,0.255356408,-0.019907897,-0.010716176,-0.999744415,-0.003640629,0.001904028,0.001422648
13:44.9,34492.181,0.000784064,0.000428198,0.005619347,0.010697545,-0.019905772,0.255364653,-0.019903319,-0.010697342,-0.999744654,0.000810845,-0.000544483,-0.001937196
13:44.9,34492.191,0.002161818,2.10E-06,0.008976161,0.010698698,-0.019910236,0.255371105,-0.019907782,-0.010698494,-0.999744594,0.000837995,2.02E-06,8.17E-05
13:44.9,34492.201,0.002340773,-0.000908547,0.006122828,0.010703574,-0.019906086,0.25536705,-0.01990363,-0.010703369,-0.999744594,0.001865709,-0.001624638,0.001267844
13:44.9,34492.211,0.00146788,-0.000145285,0.004443944,0.010719155,-0.019918209,0.2553632,-0.019915747,-0.01071895,-0.999744177,0.000676796,-0.002003359,-0.001256122
13:44.9,34492.221,0.001881409,1.12E-05,0.00865525,0.010723064,-0.019919754,0.255351305,-0.019917293,-0.010722859,-0.999744117,-0.000740272,0.003798604,-0.001535222
13:45.0,34492.231,0.001188966,0.000180068,0.009220243,0.010724075,-0.019898692,0.255352894,-0.019896233,-0.01072387,-0.999744534,-0.001215789,0.005751558,-9.14E-05
13:45.0,34492.241,0.001103612,-0.000870504,0.005879045,0.01072636,-0.019874367,0.255345394,-0.019871915,-0.010726154,-0.999745011,-0.000403258,-0.001685053,0.000689215
13:45.0,34492.251,0.002143553,-0.000470033,0.006641567,0.010730103,-0.019891975,0.255354808,-0.019889519,-0.010729898,-0.999744594,0.000252701,-0.002672299,0.000493691
13:45.0,34492.261,0.002260324,-0.000117103,0.008014679,0.010732081,-0.019901937,0.255353712,-0.019899476,-0.010731875,-0.999744415,0.000576807,0.001327236,-0.000759592
13:45.0,34492.271,0.002855524,-0.000368139,0.00445956,0.010740445,-0.019886783,0.255358584,-0.019884326,-0.010740239,-0.999744594,0.000848766,0.000708587,-0.00117305
13:45.0,34492.281,0.001764916,-0.000201623,0.004932642,0.010723853,-0.019894805,0.255350394,-0.01989235,-0.010723648,-0.999744594,-0.003139318,-0.000983319,0.000876253
13:45.0,34492.291,0.001374321,-5.22E-05,0.009174645,0.010705458,-0.019900938,0.255354977,-0.019898484,-0.010705253,-0.999744713,-0.001206051,0.000283521,-8.69E-05
13:45.0,34492.301,0.001112852,-0.000567379,0.008610547,0.010693789,-0.019883603,0.25535835,-0.019881155,-0.010693586,-0.99974519,0.002179359,0.000457159,0.001055823
13:45.0,34492.311,0.001477534,-0.000152495,0.005238175,0.010711947,-0.019882078,0.255365856,-0.019879628,-0.010711742,-0.999745011,-0.001715731,0.001057567,0.000114931
13:45.0,34492.321,0.002022754,-0.000985814,0.007237256,0.010702601,-0.019877978,0.25536642,-0.01987553,-0.010702397,-0.99974519,-0.00118736,6.98E-05,0.000780988
13:45.1,34492.331,0.001178982,-0.001137456,0.008366466,0.010703547,-0.019873437,0.255381359,-0.019870991,-0.010703343,-0.99974525,0.000202317,0.000704064,-0.001798442
13:45.1,34492.341,0.001177866,-0.000671501,0.006077886,0.010711739,-0.019857061,0.255381544,-0.019854616,-0.010711534,-0.999745488,-0.002368166,-0.00091354,-0.001530262
13:45.1,34492.351,0.002085172,-0.000120683,0.006764591,0.010697981,-0.019864094,0.255377264,-0.019861652,-0.010697777,-0.999745488,-0.002617731,-0.0034995,-0.000737681
13:45.1,34492.361,0.002261017,0.000664204,0.007923722,0.010704669,-0.01988736,0.255386688,-0.01988491,-0.010704465,-0.999744952,0.001947726,0.000224665,6.31E-05
13:45.1,34492.371,0.002868777,-0.000290706,0.008030951,0.010695805,-0.019869504,0.255384424,-0.019867061,-0.010695601,-0.999745429,0.00073945,0.001534407,-0.000270296
13:45.1,34492.381,0.00284476,0.000486232,0.00676465,0.010694544,-0.019860745,0.255397984,-0.019858303,-0.010694341,-0.999745607,-0.0003876,-0.000335665,0.002545464
13:45.1,34492.391,0.001574242,0.001074192,0.008214116,0.010687412,-0.019871967,0.255405097,-0.019869525,-0.010687209,-0.999745488,-0.000132735,-0.002263793,-0.000458315
13:45.1,34492.401,0.002179444,0.000202681,0.008382082,0.010685651,-0.019866814,0.255401802,-0.019864373,-0.010685448,-0.999745607,0.001172214,0.000447305,-0.000301455
13:45.1,34492.411,0.002328051,0.000962386,0.004429698,0.010697676,-0.019878097,0.255398074,-0.019875651,-0.010697472,-0.99974525,0.000660088,-0.002651283,-0.001013584
13:45.1,34492.421,0.002389958,4.58E-05,0.006748736,0.010696597,-0.019894231,0.255389288,-0.01989178,-0.010696393,-0.999744892,-0.000540998,-0.003082982,-0.001806407
13:45.2,34492.431,0.002157032,0.000458051,0.009083092,0.01069688,-0.01990545,0.255375752,-0.019902997,-0.010696677,-0.999744713,-0.000239098,0.000482822,0.000553027
13:45.2,34492.441,0.001305392,0.000642619,0.007374346,0.010698344,-0.01989304,0.255372177,-0.01989059,-0.010698141,-0.999744952,0.000209645,0.000339277,0.000307749
13:45.2,34492.451,0.000941129,-0.000707517,0.006397367,0.010706239,-0.019910252,0.25536424,-0.019907797,-0.010706034,-0.999744475,-0.000418063,-0.003645742,0.001147657
13:45.2,34492.461,0.001891958,-0.00063145,0.008350372,0.010706014,-0.019915039,0.255374497,-0.019912582,-0.010705809,-0.999744415,-0.001541118,0.000111712,0.001442469
13:45.2,34492.471,0.002402091,0.000119547,0.00775528,0.010694071,-0.019921632,0.255372117,-0.019919176,-0.010693868,-0.999744415,-0.00227306,0.00236159,-0.001901094
13:45.2,34492.48,0.002092939,0.000109227,0.006397426,0.01068375,-0.019917651,0.255366799,-0.019915197,-0.010683547,-0.999744594,0.000777857,-0.000798517,-0.000599341
13:45.2,34492.49,0.002370317,-0.000433176,0.006427526,0.010690664,-0.019935635,0.255357379,-0.019933175,-0.01069046,-0.999744177,0.000479228,-0.002829288,-0.001291425
13:45.2,34492.5,0.000934007,-0.000116061,0.00802964,0.010702602,-0.019933652,0.255353458,-0.01993119,-0.010702398,-0.999744058,-0.000325046,0.004536217,-0.002390512
13:45.2,34492.51,0.002080718,0.00061571,0.007938802,0.010686692,-0.019905426,0.25534146,-0.019902974,-0.010686489,-0.999744833,-0.0015156,-0.000480402,-0.000595353
13:45.2,34492.52,0.002252722,-0.001124338,0.008457363,0.010670887,-0.019924845,0.255351812,-0.019922392,-0.010670685,-0.999744594,-0.003173152,-0.004600578,0.00416638
13:45.2,34492.53,0.002059018,-0.000121182,0.007678509,0.010666963,-0.019960032,0.255367407,-0.01995757,-0.010666761,-0.999743938,0.000165852,-0.001732062,-0.001446232
13:45.3,34492.54,0.001777994,-0.00058398,0.00741899,0.010661928,-0.019968926,0.255357286,-0.019966464,-0.010661726,-0.999743819,-0.00247414,0.00190262,-0.00076393
13:45.3,34492.55,0.000883281,-7.12E-05,0.00651896,0.010655943,-0.019959218,0.255354143,-0.01995676,-0.010655741,-0.999744058,-0.000292765,0.001176326,-0.00131207
13:45.3,34492.56,0.001991317,-0.0013631,0.006824374,0.010645747,-0.019953359,0.255365726,-0.019950904,-0.010645546,-0.999744296,-0.000120458,0.000489231,0.002064552
13:45.3,34492.57,0.002729263,0.00044541,0.007358253,0.010623201,-0.019974143,0.255372724,-0.019971687,-0.010623001,-0.999744117,-0.001060734,-0.001812356,0.001358753
13:45.3,34492.58,0.001645338,0.000508593,0.007373691,0.010610088,-0.019973588,0.255371441,-0.019971136,-0.010609889,-0.999744236,-0.001886847,0.000200994,0.001475133
13:45.3,34492.59,0.001894541,-0.000387376,0.006702602,0.010599129,-0.019963387,0.25539214,-0.01996094,-0.010598931,-0.999744594,-0.001475703,-0.001623679,0.002417505
13:45.3,34492.6,0.002520185,9.32E-05,0.006107569,0.010591387,-0.01996342,0.25541693,-0.019960975,-0.010591189,-0.999744654,7.03E-05,-0.001399973,0.00233255
13:45.3,34492.61,0.002241265,0.000447761,0.006427765,0.010595033,-0.01997442,0.255416082,-0.01997197,-0.010594835,-0.999744415,0.000488425,-0.000113412,-0.003304844
13:45.3,34492.62,0.001677934,4.90E-05,0.007724464,0.010623483,-0.019975668,0.255409892,-0.019973213,-0.010623283,-0.999744058,-0.000295344,-0.000263082,-0.001461138
13:45.3,34492.63,0.00189396,2.61E-06,0.006884873,0.010622906,-0.019993334,0.255410814,-0.019990874,-0.010622706,-0.9997437,0.000184068,0.000377454,-0.00107208
13:45.4,34492.64,0.001400923,-0.000519404,0.006717443,0.010619691,-0.019973317,0.25541947,-0.019970862,-0.010619491,-0.999744177,-0.003841566,0.000645901,0.001458456
13:45.4,34492.65,0.00104467,4.24E-05,0.006641448,0.010601635,-0.01996801,0.255435983,-0.019965561,-0.010601436,-0.999744475,0.000444826,-0.002991111,0.000532485
13:45.4,34492.66,0.002575081,-0.000299937,0.006854773,0.010595014,-0.019987804,0.255445724,-0.019985352,-0.010594816,-0.999744117,2.03E-05,-0.002142361,0.001481902
13:45.4,34492.67,0.000934247,-0.000245579,0.006045818,0.010603597,-0.019994921,0.255452813,-0.019992465,-0.010603398,-0.999743879,0.000906407,-0.001623967,-0.000551031
13:45.4,34492.68,0.00173877,-0.000137311,0.006931186,0.010605053,-0.019975467,0.255446613,-0.019973015,-0.010604855,-0.999744296,0.001623863,0.001807516,0.001851141
13:45.4,34492.69,0.001850048,-0.000102721,0.007877111,0.010609125,-0.019979934,0.255450395,-0.01997748,-0.010608926,-0.999744117,-0.001949121,-0.001272684,0.002089702
13:45.4,34492.7,0.001536677,-2.45E-05,0.006900668,0.010611028,-0.01997174,0.255461446,-0.019969288,-0.010610829,-0.999744296,0.000314832,-0.00066495,-0.000646696
13:45.4,34492.71,0.000933042,-0.001187067,0.007770658,0.010608153,-0.019963191,0.255452063,-0.019960742,-0.010607954,-0.999744475,0.00150349,-0.000637364,-0.00120588
13:45.4,34492.72,0.001464579,-0.000439785,0.007481217,0.010592496,-0.019945408,0.255442994,-0.019942967,-0.010592299,-0.999745011,-0.001849696,-0.000370782,0.000920387
13:45.4,34492.73,0.002897216,0.000377395,0.005146742,0.010585702,-0.019943715,0.25544506,-0.019941276,-0.010585504,-0.999745131,-0.000784644,-0.001631489,0.000420936
13:45.5,34492.74,0.002931677,-0.000119058,0.004627943,0.010577528,-0.019947658,0.255450221,-0.019945219,-0.010577331,-0.999745131,-0.001935663,0.000432194,0.001664632
13:45.5,34492.75,0.001187956,-0.00021937,0.007130861,0.010568769,-0.019928174,0.255467601,-0.019925741,-0.010568572,-0.999745607,-0.00137291,0.003254262,0.001382413
13:45.5,34492.76,0.00165081,-0.000771455,0.007299125,0.01055074,-0.019918,0.255472829,-0.019915575,-0.010550545,-0.999746025,-0.002953497,-0.000125023,0.002013848
13:45.5,34492.77,0.001170615,-0.000701778,0.005132258,0.010544124,-0.019926086,0.255475129,-0.019923659,-0.010543928,-0.999745905,-0.00019788,-0.001921587,-0.000867872
13:45.5,34492.78,0.001789736,0.000106925,0.005757391,0.010544111,-0.019950119,0.255478093,-0.019947687,-0.010543915,-0.999745429,-0.000122778,-0.002477922,0.002802497
13:45.5,34492.79,0.002923694,-0.001411597,0.007588446,0.010536208,-0.019954926,0.25548217,-0.019952495,-0.010536013,-0.999745429,-0.002774098,0.000452163,-0.001533515
13:45.5,34492.8,0.001488943,-0.001007708,0.006947517,0.010512851,-0.01996976,0.255477139,-0.019967329,-0.010512657,-0.999745369,-0.000552489,0.000809825,-0.000390486
13:45.5,34492.81,0.001161702,-0.00057922,0.007221997,0.010514092,-0.019978215,0.25547614,-0.019975781,-0.010513898,-0.99974519,0.000279301,-0.002275803,0.000802475
13:45.5,34492.82,0.002342826,-0.00017925,0.008290112,0.010502075,-0.019984411,0.25548951,-0.019981978,-0.010501882,-0.99974519,-0.000532697,0.002317351,0.00028449
13:45.5,34492.83,0.002270721,-6.46E-05,0.007404923,0.010509891,-0.019988604,0.255490045,-0.019986169,-0.010509698,-0.999745011,0.002206285,-0.002283028,0.000815205
13:45.6,34492.84,0.00255435,-0.000948923,0.006763399,0.01052586,-0.020012841,0.25549071,-0.020010397,-0.010525665,-0.999744356,0.000409717,-0.003423926,-0.000630625
13:45.6,34492.85,0.001644971,0.000626775,0.006976902,0.010529901,-0.020018991,0.255494076,-0.020016545,-0.010529706,-0.999744177,-0.001506715,0.003515134,0.001119846
13:45.6,34492.86,0.001332229,-0.001692158,0.007434666,0.010515045,-0.020026682,0.255499551,-0.020024236,-0.010514852,-0.999744177,0.001683752,-0.003146231,0.001677778
13:45.6,34492.87,0.001520967,-0.000460632,0.006076396,0.010525869,-0.02003232,0.255515524,-0.020029871,-0.010525675,-0.999743998,0.002482839,0.000374552,0.001301447
13:45.6,34492.88,0.002909794,-0.000141254,0.006842196,0.010601111,-0.01984946,0.255541017,-0.019847041,-0.010600912,-0.999746799,0.000542576,-0.00032129,-0.001191523
13:45.6,34492.89,0.00091929,0.000490896,0.010336518,0.010607651,-0.019842601,0.25553662,-0.019840183,-0.010607452,-0.999746919,-0.002777587,0.000314406,0.002283902
13:45.6,34492.9,0.000914348,0.000259191,0.006369352,0.010604828,-0.019837657,0.255524768,-0.019835241,-0.010604629,-0.999747038,0.000602861,-0.003253007,0.000224611
13:45.6,34492.91,0.002029685,-0.000821501,0.006613135,0.01060751,-0.019854366,0.255530291,-0.019851945,-0.010607311,-0.99974668,3.35E-05,-0.002132615,0.000396118
13:45.6,34492.92,0.002605503,-0.000550769,0.008627415,0.010603583,-0.019850347,0.255522356,-0.019847928,-0.010603384,-0.999746799,-0.001394584,7.39E-05,-0.001366421
13:45.6,34492.93,0.001464151,0.000382831,0.007437289,0.010591138,-0.019853403,0.255511692,-0.019850986,-0.01059094,-0.999746859,-0.004827665,-0.001077134,-0.002670038
13:45.7,34492.94,0.00160904,0.00098887,0.005056798,0.010586825,-0.019860964,0.255499375,-0.019858545,-0.010586627,-0.99974674,0.000199625,-0.00143903,-0.001974817
13:45.7,34492.95,0.000548914,-0.000781408,0.007147431,0.010586566,-0.019853693,0.255500408,-0.019851277,-0.010586369,-0.999746919,0.000776732,0.000823592,0.000627091
13:45.7,34492.96,0.001967607,-0.000785557,0.006903052,0.010582417,-0.019868577,0.255515974,-0.019866157,-0.01058222,-0.999746621,-0.001694308,-0.002259748,0.000322353
13:45.7,34492.97,0.003047323,-0.000222425,0.004613996,0.010580974,-0.019880183,0.255510797,-0.019877762,-0.010580776,-0.999746442,-0.000227173,-0.001812337,0.000636606
13:45.7,34492.98,0.001304297,0.001225007,0.008748949,0.01057882,-0.019891919,0.255489702,-0.019889494,-0.010578622,-0.999746203,0.002374953,0.001559541,0.002419878
13:45.7,34492.99,0.001947131,-0.00033053,0.009603679,0.01057968,-0.019878623,0.255494402,-0.019876201,-0.010579483,-0.999746501,0.001141377,0.000378695,0.001222254
13:45.7,34493,0.001533145,-0.001171311,0.004674494,0.010608651,-0.019891892,0.255508224,-0.019889461,-0.010608452,-0.999745905,0.001656245,0.000532093,0.00283858
13:45.7,34493.01,0.00124141,-0.000696232,0.004185617,0.010610709,-0.0199206,0.255518236,-0.019918161,-0.010610511,-0.999745309,-0.000403443,-0.003650668,9.34E-05
13:45.7,34493.02,0.001466809,-0.000485739,0.007756472,0.010592318,-0.01991711,0.255514559,-0.019914676,-0.01059212,-0.999745548,-0.001816282,0.004056254,0.000890158
13:45.7,34493.03,0.001955483,-0.000887501,0.007634759,0.010587284,-0.01990224,0.255516284,-0.019899812,-0.010587086,-0.999745905,0.001703618,-0.000576581,0.000488553
13:45.8,34493.04,0.002655949,-0.000256998,0.005285025,0.010607437,-0.019885544,0.255514306,-0.019883115,-0.010607238,-0.999746025,0.002428773,-0.001474997,3.72E-05
13:45.8,34493.049,0.001812512,-0.000599918,0.006750166,0.010615469,-0.019866077,0.25552864,-0.01986365,-0.01061527,-0.999746323,0.000145112,0.004239615,0.000555737
13:45.8,34493.059,0.001256187,-0.000839046,0.01027596,0.010589962,-0.019828536,0.255525623,-0.019826125,-0.010589764,-0.999747336,0.000749868,0.003531876,0.000627024
13:45.8,34493.069,0.001321403,-0.000682013,0.007331491,0.010594408,-0.019802194,0.255530719,-0.019799788,-0.01059421,-0.999747813,-0.00219905,-0.001329724,-0.000753292
13:45.8,34493.079,0.001595881,-0.001611918,0.004798353,0.01061055,-0.019802018,0.25553864,-0.019799609,-0.01061035,-0.999747694,0.001527547,-0.000689094,-0.001014732
13:45.8,34493.089,0.001855968,-4.02E-05,0.005393863,0.010625863,-0.019772183,0.255525838,-0.019769778,-0.010625662,-0.999748111,0.000944048,0.002096573,-0.003415306
13:45.8,34493.099,0.002071433,-5.32E-05,0.006355405,0.010628148,-0.019758764,0.255515019,-0.019756362,-0.010627948,-0.999748349,-0.000849071,6.80E-05,-0.000245816
13:45.8,34493.109,0.002013978,7.11E-06,0.006325126,0.010627405,-0.019747082,0.255527846,-0.019744683,-0.010627205,-0.999748588,0.000975727,-0.003176038,0.003797662
13:45.8,34493.119,0.002220994,-0.000616823,0.008064747,0.010659602,-0.019725216,0.255545261,-0.019722817,-0.010659399,-0.999748647,-0.000799661,5.34E-05,0.000479474
13:45.8,34493.129,0.001436012,3.45E-05,0.007622242,0.010670077,-0.019718435,0.255537481,-0.019716034,-0.010669875,-0.999748707,0.002122093,4.49E-05,-0.00091842
13:45.9,34493.139,0.002144212,0.000654215,0.006615043,0.010694681,-0.019709475,0.25553909,-0.019707073,-0.010694477,-0.999748588,-0.002179961,-0.001433927,-0.000332364
13:45.9,34493.149,0.002016069,2.44E-05,0.008156359,0.010690495,-0.019703399,0.255545946,-0.019700998,-0.010690291,-0.999748766,-0.00171231,-0.001599043,-0.00109243
13:45.9,34493.159,0.00172513,0.000174299,0.008018911,0.010703046,-0.01970238,0.255542142,-0.019699978,-0.010702842,-0.999748647,0.000851606,-0.002464305,0.000700232
13:45.9,34493.169,0.001442958,-0.000162059,0.003609002,0.010702382,-0.019710125,0.255542025,-0.019707721,-0.010702178,-0.999748528,0.00012696,-0.004328252,0.00177535
13:45.9,34493.179,0.002633888,-0.00065588,0.007042408,0.010681581,-0.019710868,0.255539073,-0.019708468,-0.010681379,-0.999748707,-0.001098391,-0.000178248,-0.000431878
13:45.9,34493.189,0.002020746,0.000431194,0.009209931,0.010670022,-0.019677548,0.255541519,-0.019675158,-0.01066982,-0.999749482,0.000240912,-0.00235911,0.001503707
13:45.9,34493.199,0.001609491,0.000110235,0.005502045,0.010669498,-0.019678281,0.255552185,-0.019675892,-0.010669296,-0.999749482,-0.000428121,-0.002017959,0.000328774
13:45.9,34493.209,0.001998484,-0.001012259,0.005852818,0.010676154,-0.019685805,0.255565953,-0.019683411,-0.010675951,-0.999749243,-0.000408679,-0.001325804,-0.00040759
13:45.9,34493.219,0.000255497,-0.000573972,0.008370936,0.010671936,-0.019667057,0.255566439,-0.019664669,-0.010671733,-0.99974966,-0.000527035,0.003109425,0.001528954
13:45.9,34493.229,0.000645941,0.000563595,0.007700622,0.010665094,-0.019614983,0.255569458,-0.01961261,-0.010664892,-0.999750793,-0.001333707,6.97E-05,0.001136937
13:46.0,34493.239,0.00123876,0.001063606,0.007304251,0.010661565,-0.019597445,0.255555048,-0.019595077,-0.010661363,-0.999751151,0.000484868,-0.003405791,-0.002347654
13:46.0,34493.249,0.002980009,-0.000308907,0.005411863,0.010662342,-0.019614453,0.255536974,-0.019612081,-0.01066214,-0.999750793,-0.00012686,0.000682694,0.000983694
13:46.0,34493.259,0.00147617,0.000554883,0.006693959,0.010671641,-0.019590713,0.255533621,-0.019588344,-0.010671439,-0.999751151,-0.001755604,0.003475148,0.00086256
13:46.0,34493.269,0.001915919,-0.000341317,0.008464575,0.010675711,-0.019557433,0.255530984,-0.019555071,-0.010675508,-0.999751806,-0.001703406,0.002080983,0.001107038
13:46.0,34493.279,0.001639087,-0.000890972,0.005947232,0.010675371,-0.019539994,0.255544472,-0.019537637,-0.010675168,-0.999752104,-0.002679624,-0.002025543,0.000914004
13:46.0,34493.289,0.000670405,-0.00049901,0.006633759,0.010670605,-0.019547878,0.255544362,-0.01954552,-0.010670402,-0.999752045,-0.001132594,-0.00212408,0.000852485
13:46.0,34493.299,0.001210008,-0.001018036,0.008708656,0.010685638,-0.019553428,0.255549898,-0.019551065,-0.010685435,-0.999751747,0.001766868,-0.000588501,0.000324647
13:46.0,34493.309,0.000254672,-0.000136838,0.006633997,0.010681825,-0.019528871,0.255552006,-0.019526515,-0.010681622,-0.999752283,0.000286683,0.002884528,-0.000186414
13:46.0,34493.319,0.000505053,0.000395096,0.00690943,0.010679701,-0.019489324,0.255548874,-0.019486979,-0.010679498,-0.999753058,0.000947303,-0.000768264,0.000138971
13:46.0,34493.329,0.00214301,-0.001177229,0.007444203,0.010663772,-0.019464062,0.255560105,-0.019461727,-0.01066357,-0.999753714,2.80E-05,-0.002803452,-0.000354779
13:46.1,34493.339,0.002124369,-0.000952631,0.004773974,0.010659488,-0.019460681,0.255552497,-0.019458346,-0.010659286,-0.999753833,-0.000595394,0.002480014,-0.000980033
13:46.1,34493.349,0.001024744,-0.000442746,0.007353425,0.010650573,-0.019429161,0.255549819,-0.019426836,-0.010650372,-0.999754548,-0.001805002,0.004118124,-0.00090946
13:46.1,34493.359,0.000892889,0.000426963,0.008452594,0.010650531,-0.019404109,0.255531025,-0.019401791,-0.010650329,-0.999755025,-0.000145564,-0.001323546,-0.001954098
13:46.1,34493.369,0.000766315,-0.000255901,0.004942775,0.010654313,-0.019414869,0.255523432,-0.019412547,-0.010654111,-0.999754786,-0.002220433,0.001478366,0.000581764
13:46.1,34493.379,0.001863364,0.000105496,0.007293344,0.010649498,-0.019382758,0.255514288,-0.019380447,-0.010649296,-0.999755442,-0.000716013,0.003958834,-0.001106947
13:46.1,34493.389,0.001755588,0.000700416,0.008682191,0.010649327,-0.019366531,0.255518318,-0.019364223,-0.010649125,-0.9997558,0.001510922,0.00193057,-0.00100042
13:46.1,34493.399,0.000198986,0.001108647,0.005676091,0.01066083,-0.01936633,0.255522248,-0.01936402,-0.010660628,-0.999755681,0.000452849,-0.001552844,0.002103228
13:46.1,34493.409,-5.89E-05,0.000388304,0.007583261,0.010672909,-0.019367799,0.255525591,-0.019365486,-0.010672706,-0.999755502,0.001149265,-0.004141703,-0.003165304
13:46.1,34493.419,0.001608973,-0.001079094,0.007293403,0.010685615,-0.019357253,0.255517945,-0.019354939,-0.010685411,-0.999755561,-0.000409217,0.001185418,-0.001890715
13:46.1,34493.429,0.000633517,0.000169658,0.005874217,0.010698406,-0.019358362,0.255499791,-0.019356046,-0.010698201,-0.999755442,-0.000919745,-0.000694774,-0.001430254
13:46.2,34493.439,0.001867913,-0.0005246,0.00932312,0.010690791,-0.019341529,0.255494524,-0.019339219,-0.010690588,-0.9997558,-0.001627613,-0.001223411,-0.001671004
13:46.2,34493.449,0.00048816,-0.000302371,0.007415771,0.010699399,-0.019335069,0.255491761,-0.019332757,-0.010699195,-0.999755859,0.001178053,0.000659043,-0.001056136
13:46.2,34493.459,0.001150543,0.001018032,0.003830075,0.010707545,-0.019326064,0.255502942,-0.019323753,-0.01070734,-0.999755919,0.000409126,-0.000788668,-0.000166661
13:46.2,34493.469,0.001953121,0.001003391,0.00775212,0.010692905,-0.019304659,0.255505502,-0.019302357,-0.010692702,-0.999756515,-0.001846305,0.004003157,0.000505254
13:46.2,34493.479,-1.85E-05,-0.000662052,0.009278417,0.010690669,-0.019286185,0.255510143,-0.019283887,-0.010690466,-0.999756873,0.001994835,0.003177163,0.000209178
13:46.2,34493.489,-0.000115819,0.000481552,0.003510356,0.010720384,-0.019280397,0.255513866,-0.019278094,-0.010720179,-0.999756694,0.001614802,-0.001394419,0.000923705
13:46.2,34493.499,0.001638236,0.000288826,0.006332755,0.010741282,-0.019294956,0.255504422,-0.019292645,-0.010741075,-0.999756157,0.001259107,0.001281671,-0.002388833
13:46.2,34493.509,0.000509279,0.000741423,0.011872292,0.010736115,-0.019264626,0.255494039,-0.019262325,-0.010735909,-0.999756813,-0.00122722,0.006740885,0.001429341
13:46.2,34493.519,-0.000147855,0.000264115,0.007860184,0.010731829,-0.019217831,0.255494935,-0.019215541,-0.010731623,-0.999757767,-0.000761762,0.001554678,0.000684769
13:46.2,34493.529,0.001264466,-0.000876674,0.004487813,0.010735449,-0.019226346,0.255507044,-0.019224053,-0.010735243,-0.999757588,0.0007107,-0.0038558,0.002354571
13:46.3,34493.539,0.001747323,4.34E-05,0.007615924,0.010739958,-0.019220923,0.255524158,-0.019218631,-0.010739751,-0.999757648,0.002504226,-2.39E-05,0.000481406
13:46.3,34493.549,0.001303621,0.00038312,0.009203553,0.010728764,-0.019189197,0.25552695,-0.019186916,-0.010728559,-0.999758363,0.00026504,0.001937525,-0.002103725
13:46.3,34493.559,0.001980161,-0.000128931,0.005434155,0.010735511,-0.019209616,0.255533299,-0.019207329,-0.010735305,-0.999757886,0.000569272,-0.004647609,0.001908834
13:46.3,34493.569,0.000917641,0.000207636,0.006532073,0.010736385,-0.019245738,0.255537637,-0.019243442,-0.010736179,-0.999757171,0.000306418,0.001775669,-0.000705325
13:46.3,34493.579,0.000798797,-0.001408014,0.008211076,0.010738168,-0.01921844,0.255538811,-0.019216148,-0.010737962,-0.999757707,-0.002185399,0.005484032,0.000662369
13:46.3,34493.589,0.000266695,-0.000968821,0.006624758,0.010734854,-0.019189868,0.255527569,-0.019187585,-0.010734648,-0.999758244,0.000168037,-0.000599161,-0.000505959
13:46.3,34493.599,0.000245405,-0.000595094,0.006929815,0.010727112,-0.019199099,0.255534336,-0.019196816,-0.010726906,-0.999758184,-0.000734737,0.000333667,0.001586893
13:46.3,34493.609,0.001037203,7.73E-05,0.007128477,0.010728117,-0.019182177,0.255544335,-0.019179897,-0.010727911,-0.999758482,0.00113933,0.001719043,0.001294478
13:46.3,34493.618,0.001795439,0.001076858,0.005206347,0.010720597,-0.019162208,0.255554313,-0.019159935,-0.010720392,-0.999758959,-0.003294687,0.00150948,-0.002558682
13:46.3,34493.628,0.001202935,1.67E-05,0.006457746,0.010728505,-0.019149536,0.255545947,-0.019147264,-0.010728299,-0.999759138,0.001457991,0.000238886,0.001666689
13:46.4,34493.638,0.001285024,-0.00084187,0.00888437,0.010724476,-0.019124808,0.255562692,-0.019122543,-0.010724271,-0.999759614,-0.002132243,0.000482185,0.001493198
13:46.4,34493.648,1.30E-05,-0.000499965,0.006306171,0.010715429,-0.019104038,0.255565165,-0.01910178,-0.010715224,-0.999760151,0.002865977,-0.00110213,0.000606099
13:46.4,34493.658,0.000362137,-0.000589943,0.006275177,0.010732264,-0.019117447,0.255556966,-0.019115182,-0.010732058,-0.999759674,0.003729433,-0.002052858,-0.001051434
13:46.4,34493.668,0.001071017,-0.000635696,0.010806739,0.010747547,-0.019124428,0.255544091,-0.019122157,-0.010747341,-0.999759376,0.002105704,0.001449465,-0.000250355
13:46.4,34493.678,0.00113537,-0.000845171,0.008182883,0.010736435,-0.019097219,0.255541439,-0.019094957,-0.010736229,-0.999760032,-0.00282913,0.004685247,5.35E-05
13:46.4,34493.688,0.000770867,-0.000482365,0.002339065,0.01073303,-0.019083664,0.25553162,-0.019081406,-0.010732823,-0.99976033,0.000102744,-0.002349493,-0.000829098
13:46.4,34493.698,0.001372386,0.000200539,0.007542253,0.010729288,-0.019090092,0.255530721,-0.019087834,-0.010729082,-0.99976027,-0.000127587,0.001357149,-0.000137704
13:46.4,34493.708,0.001790753,0.000461143,0.010579646,0.010715232,-0.019050683,0.255529434,-0.019048437,-0.010715027,-0.999761164,-0.00139685,0.002303903,0.001043675
13:46.4,34493.718,0.000153013,0.000344497,0.003118157,0.010720657,-0.019045631,0.25553348,-0.019043386,-0.010720451,-0.999761164,-0.000298526,-0.002270412,0.000967175
13:46.4,34493.728,0.000408707,-9.15E-05,0.005055726,0.010727139,-0.019057188,0.255539977,-0.019054938,-0.010726933,-0.999760866,0.000438903,4.09E-05,-0.003276306
13:46.5,34493.738,-0.000264799,-0.000340743,0.010243654,0.010737322,-0.01905507,0.255542605,-0.019052818,-0.010737116,-0.999760807,0.000935967,0.001254326,0.002020815
13:46.5,34493.748,0.000664059,-0.000650469,0.008824944,0.010732772,-0.019037881,0.255545584,-0.019035634,-0.010732566,-0.999761224,-0.002057693,-0.001388862,-0.000968317
13:46.5,34493.758,0.001937948,-0.001269903,0.004857421,0.010738949,-0.019045294,0.255529377,-0.019043045,-0.010738743,-0.999760985,0.002945959,-0.000351626,-0.002373468
13:46.5,34493.768,0.001365617,0.000542951,0.006566167,0.010751266,-0.019052798,0.255524488,-0.019050544,-0.010751058,-0.999760687,0.000548048,-0.002866182,0.001481457
13:46.5,34493.778,0.000755267,-0.000513445,0.005436599,0.010762986,-0.019068066,0.255536619,-0.019065807,-0.010762778,-0.99976033,0.000179522,-0.000669283,0.000506568
13:46.5,34493.788,0.001230957,-0.000212887,0.005787849,0.010758368,-0.01905547,0.255536537,-0.019053215,-0.010758161,-0.999760568,0.001588867,-0.000457296,-0.001565638
13:46.5,34493.798,0.001311963,-0.001732874,0.007588506,0.010764261,-0.019044923,0.255527596,-0.019042669,-0.010764053,-0.999760747,-0.001855442,0.003229594,0.00298886
13:46.5,34493.808,0.001258826,-0.001621751,0.007100284,0.010768572,-0.019037562,0.255528716,-0.019035308,-0.010768364,-0.999760807,0.000418897,0.00144714,-0.000764333
13:46.5,34493.818,0.001511673,-0.000389926,0.006138861,0.010764435,-0.019046269,0.25554278,-0.019044014,-0.010764227,-0.999760687,0.002725781,-0.002558795,0.001853272
13:46.5,34493.828,0.001576411,0.001109276,0.009022713,0.010768275,-0.019049972,0.255544033,-0.019047715,-0.010768067,-0.999760568,-0.001715572,-0.001487406,-0.002021095
13:46.6,34493.838,0.001534654,-0.000242006,0.007420659,0.010775027,-0.019038733,0.255545917,-0.019036477,-0.010774818,-0.999760747,-0.000412422,-0.000142201,0.000691262
13:46.6,34493.848,0.000315627,0.000138732,0.004430175,0.010774295,-0.019025147,0.25554813,-0.019022895,-0.010774086,-0.999760985,0.002908273,0.001514019,-0.001025145
13:46.6,34493.858,0.001545057,-0.000142601,0.007802427,0.01078288,-0.019018616,0.255545964,-0.019016365,-0.01078267,-0.999761045,-0.002223208,-0.001562705,0.000406087
13:46.6,34493.868,0.000430832,-0.000137299,0.009938896,0.010788182,-0.019003021,0.255544356,-0.019000771,-0.010787972,-0.999761283,0.00283014,0.000257032,-0.001983301
13:46.6,34493.878,0.001896795,0.000346617,0.003911376,0.010814335,-0.019004146,0.255529825,-0.01900189,-0.010814125,-0.999760985,2.53E-05,-0.003151118,0.001124706
13:46.6,34493.888,0.001644302,0.000756267,0.004475653,0.010827259,-0.019011056,0.255541682,-0.019008797,-0.010827048,-0.999760687,0.00333559,-0.001139899,0.000146793
13:46.6,34493.898,0.000856321,0.001382599,0.011601806,0.01084324,-0.018986013,0.255540013,-0.018983755,-0.010843027,-0.999760985,0.001609702,0.003931592,7.55E-05
13:46.6,34493.908,0.001326561,-0.000439643,0.006810963,0.010836793,-0.018967965,0.255541819,-0.018965714,-0.010836581,-0.999761403,-0.000440666,0.000715026,0.001365505
13:46.6,34493.918,0.001312004,0.000794068,0.001317561,0.01083454,-0.018983927,0.255537487,-0.018981673,-0.010834329,-0.999761105,-0.00230684,-0.003237934,-0.000712844
13:46.6,34493.928,0.001320984,0.001115712,0.006535709,0.010820492,-0.019008171,0.255522921,-0.019005913,-0.010820281,-0.999760807,-0.001735326,-0.001530848,-0.001553337
13:46.7,34493.938,0.001286531,-2.89E-05,0.009832025,0.010820299,-0.018988971,0.25551539,-0.018986719,-0.010820088,-0.999761164,-0.000147482,0.004366982,0.000930049
13:46.7,34493.948,0.001767429,0.000523999,0.005392075,0.010823872,-0.018966325,0.255511241,-0.018964076,-0.010823661,-0.999761581,-9.53E-06,0.001321657,-0.001124846
13:46.7,34493.958,0.001296101,-0.000175621,0.004796624,0.010826156,-0.018983284,0.255523165,-0.018981032,-0.010825944,-0.999761224,0.000698686,-0.003182484,0.001740423
13:46.7,34493.968,0.000403464,0.000334246,0.007863164,0.010832483,-0.019006181,0.255539544,-0.019003922,-0.010832272,-0.999760747,0.000347947,-0.001825337,0.000565703
13:46.7,34493.978,0.002966132,0.000576917,0.006291509,0.010831014,-0.019005371,0.255532793,-0.019003112,-0.010830803,-0.999760747,-0.000451911,0.000244053,-0.001309476
13:46.7,34493.988,0.000974447,0.000152163,0.005727112,0.010833505,-0.018997325,0.255533643,-0.018995067,-0.010833293,-0.999760866,4.00E-05,-2.76E-05,-0.000595482
13:46.7,34493.998,0.000592113,0.001186749,0.005620182,0.010845753,-0.018996463,0.255532728,-0.018994203,-0.01084554,-0.999760747,0.000933283,-0.000152025,0.000612378
13:46.7,34494.008,0.001160763,0.001486831,0.005619943,0.01085592,-0.019000543,0.255529022,-0.01899828,-0.010855706,-0.999760568,0.001374835,0.000144385,-0.001070207
13:46.7,34494.018,0.000988677,0.000434168,0.006611884,0.010856112,-0.018996303,0.255526369,-0.018994041,-0.010855899,-0.999760687,-0.000931301,8.23E-05,-0.000995541
13:46.7,34494.028,-0.000825742,-0.00019857,0.00688684,0.010848985,-0.018982416,0.255540254,-0.018980158,-0.010848772,-0.999760985,0.000455673,0.000958192,0.004316666
13:46.8,34494.038,0.000592494,-5.66E-05,0.005544066,0.010853671,-0.018981586,0.255558668,-0.018979328,-0.010853457,-0.999760985,0.001621745,-0.000632772,-0.000432326
13:46.8,34494.048,0.000962995,-0.000753257,0.006062746,0.010858873,-0.018985877,0.255545921,-0.018983617,-0.010858659,-0.999760807,0.000778056,-0.001404822,-0.001064028
13:46.8,34494.058,2.99E-05,0.0012691,0.009039164,0.010851812,-0.018937819,0.255553062,-0.018935572,-0.010851598,-0.99976182,-0.002034144,0.007546622,0.001569893
13:46.8,34494.068,0.000321081,-0.000108735,0.007636249,0.010847268,-0.018893255,0.25554745,-0.01889102,-0.010847054,-0.999762714,-0.001355038,0.002664782,-0.004572422
13:46.8,34494.078,0.000499524,0.000334864,0.001487076,0.010817842,-0.018903849,0.255546409,-0.018901616,-0.010817631,-0.999762833,-0.001130842,-0.002050674,0.002776111
13:46.8,34494.088,0.001390476,0.001025186,0.005835533,0.010806259,-0.018925052,0.255552477,-0.018922817,-0.010806048,-0.999762535,-0.00015799,-0.003389978,-0.001013034
13:46.8,34494.098,0.000132348,0.000343949,0.011328936,0.010796407,-0.018918142,0.255549029,-0.01891591,-0.010796198,-0.999762774,0.002617965,0.00269021,-0.000109162
13:46.8,34494.108,-0.000598617,-0.000584984,0.006812572,0.010798261,-0.018904336,0.255557776,-0.018902108,-0.010798052,-0.999763012,-0.000531756,0.001159691,0.000651703
13:46.8,34494.118,0.000230173,-1.28E-05,0.004752636,0.01079066,-0.018909151,0.255577505,-0.018906923,-0.01079045,-0.999763012,0.002143659,-0.002866441,0.000678096
13:46.8,34494.128,0.00216919,-0.000619048,0.010001183,0.010809973,-0.018925568,0.255580227,-0.018923333,-0.010809762,-0.999762475,0.002237935,0.000718706,-0.00110196
13:46.9,34494.138,0.001299819,0.000278849,0.008353233,0.010807602,-0.018925949,0.255573697,-0.018923713,-0.010807392,-0.999762535,-0.000846879,-0.002009118,-3.99E-05
13:46.9,34494.148,0.001123272,-0.000289586,0.002829492,0.010803741,-0.018932507,0.255563314,-0.018930271,-0.010803531,-0.999762416,-0.000180556,-0.004232059,0.000105761
13:46.9,34494.158,0.000866147,-0.000382069,0.005102992,0.010802813,-0.018934783,0.255552345,-0.018932547,-0.010802602,-0.999762416,0.000623997,0.002556461,-9.46E-05
13:46.9,34494.168,0.00152025,-0.000252866,0.00910151,0.010794686,-0.01890223,0.255544928,-0.018900003,-0.010794477,-0.999763131,-0.001198404,0.003166325,0.0001496
13:46.9,34494.178,0.000800651,-0.00045388,0.007758796,0.010792036,-0.018899794,0.255538476,-0.018897569,-0.010791826,-0.999763191,0.00107205,-0.001222309,0.001051145
13:46.9,34494.187,-0.000286987,0.000355372,0.005240858,0.010792572,-0.01891079,0.25554831,-0.018908562,-0.010792363,-0.999762952,-0.001749303,-0.000665709,0.000145404
13:46.9,34494.197,0.001307605,-0.001031614,0.006522477,0.010794136,-0.018918471,0.255549214,-0.018916242,-0.010793926,-0.999762833,-0.00064389,-0.001642265,-0.00032708
13:46.9,34494.207,0.002108186,0.00017962,0.007651687,0.010799927,-0.018910337,0.255560684,-0.018908108,-0.010799717,-0.999762893,-0.000711534,0.001259516,0.002681493
13:46.9,34494.217,0.001511563,2.09E-05,0.006721318,0.010793842,-0.018893538,0.255583563,-0.018891314,-0.010793632,-0.99976325,-0.001586663,0.000499371,0.001095292
13:46.9,34494.227,0.000300704,-0.000275393,0.00452435,0.010802676,-0.018872864,0.255588528,-0.018870642,-0.010802466,-0.999763548,-0.001664428,-0.000724618,0.000558133
13:47.0,34494.237,0.000394979,-0.000565617,0.004493475,0.010802369,-0.01889085,0.255570295,-0.018888624,-0.010802159,-0.99976325,1.01E-05,-0.004215833,-0.002161996
13:47.0,34494.247,0.001562197,0.000508841,0.007254958,0.010793454,-0.018913663,0.25555886,-0.018911434,-0.010793244,-0.999762893,-0.00112358,-0.001865859,0.00043645
13:47.0,34494.257,0.000979014,0.000119325,0.008933425,0.010800666,-0.018910313,0.255552405,-0.018908083,-0.010800457,-0.999762893,0.001873179,0.001805795,-0.001750049
13:47.0,34494.267,0.00015541,-0.002122497,0.005500615,0.010786626,-0.01889542,0.255541072,-0.018893197,-0.010786417,-0.99976331,-0.000894378,-0.000482659,-0.002260577
13:47.0,34494.277,-1.59E-05,0.000258985,0.004020035,0.010787737,-0.018922507,0.255538968,-0.018920278,-0.010787528,-0.999762774,-0.001920128,-0.001137668,0.000914079
13:47.0,34494.287,0.000710126,0.001591664,0.008887649,0.010792902,-0.018916084,0.255541884,-0.018913854,-0.010792692,-0.999762893,-0.000431687,-0.002071639,0.000769469
13:47.0,34494.297,0.000391066,0.000970679,0.008826494,0.010797528,-0.01891746,0.255548127,-0.018915229,-0.010797319,-0.999762774,0.002156873,-0.000638619,0.000793327
13:47.0,34494.307,0.000529477,0.000514983,0.004599512,0.010799596,-0.018933806,0.255557665,-0.01893157,-0.010799386,-0.999762475,0.000705717,-0.001991771,0.001562714
13:47.0,34494.317,0.000255888,-0.00110769,0.005682766,0.010809613,-0.018934878,0.25555677,-0.018932641,-0.010809403,-0.999762356,-0.000364234,0.000889047,-0.000480249
13:47.0,34494.327,-2.33E-05,-0.000202873,0.009589493,0.010798903,-0.01891508,0.255561323,-0.01891285,-0.010798694,-0.999762833,-0.002493165,-0.000192196,0.001026035
13:47.1,34494.337,0.000721144,0.000387553,0.006568074,0.010794236,-0.018927105,0.255560872,-0.018924871,-0.010794026,-0.999762654,-0.002139854,-0.004460884,-0.000100131
13:47.1,34494.347,0.000999797,-6.04E-05,0.003882229,0.010788747,-0.018946362,0.255569663,-0.018944126,-0.010788538,-0.999762356,0.00250896,-0.001391857,-0.001312935
13:47.1,34494.357,0.000362512,0.000619641,0.007712007,0.010797441,-0.018949948,0.255563625,-0.018947709,-0.010797231,-0.999762177,-0.001415199,0.003584579,-0.001175072
13:47.1,34494.367,0.000379547,0.001239973,0.009589016,0.010807422,-0.018936464,0.255572617,-0.018934226,-0.010807212,-0.999762297,0.001842114,-0.001555055,-0.000360411
13:47.1,34494.377,0.000187159,-0.000252654,0.004751682,0.010794898,-0.018957703,0.255567358,-0.018955464,-0.010794688,-0.999762058,-0.001728603,-0.002250433,-0.000840214
13:47.1,34494.387,0.000779474,-0.000378204,0.005072117,0.010776158,-0.018970182,0.255566174,-0.018967943,-0.010775949,-0.999761999,-0.001432726,-0.002842187,0.000675924
13:47.1,34494.397,-1.01E-05,0.000750962,0.007177293,0.010791432,-0.018989343,0.25557858,-0.018987097,-0.010791223,-0.999761462,0.001474792,-0.001686996,0.001819892
13:47.1,34494.407,0.000776749,0.000847632,0.007283866,0.010796551,-0.018997986,0.255581872,-0.018995736,-0.010796341,-0.999761283,0.001623397,0.000823033,0.00081295
13:47.1,34494.417,0.000396863,-0.0008859,0.007436514,0.010787262,-0.018999568,0.255578873,-0.018997319,-0.010787053,-0.999761343,6.85E-05,3.23E-05,-0.000416594
13:47.1,34494.427,-0.000454662,-0.000568645,0.005239069,0.010799342,-0.019002538,0.255581598,-0.019000286,-0.010799131,-0.999761164,0.002165775,-0.000446032,0.002071331
13:47.2,34494.437,0.00039842,-1.67E-05,0.007482111,0.010801969,-0.019001128,0.255582694,-0.018998876,-0.010801759,-0.999761164,-0.000302672,-0.003257524,-8.22E-05
13:47.2,34494.447,0.001852008,-0.000902815,0.008809566,0.010800866,-0.019005133,0.255585571,-0.019002881,-0.010800656,-0.999761105,0.001423855,0.001677846,-0.000270453
13:47.2,34494.457,0.00053761,0.000420769,0.004277349,0.010812194,-0.019018255,0.255586742,-0.019015998,-0.010811984,-0.999760747,0.00096953,-0.000236127,0.001370795
13:47.2,34494.467,-0.000244461,0.000638987,0.003956735,0.010832049,-0.019014385,0.255591227,-0.019012123,-0.010831838,-0.999760568,0.003110978,-0.001973307,0.000327103
13:47.2,34494.477,-6.91E-05,-0.000385494,0.009144485,0.010845165,-0.019021937,0.255595882,-0.019019671,-0.010844952,-0.99976027,0.001589811,0.000820211,0.001291497
13:47.2,34494.487,0.000839116,-0.000774916,0.009190857,0.010852473,-0.018984067,0.255606258,-0.018981809,-0.01085226,-0.999760926,0.000863301,0.002206653,-0.000229168
13:47.2,34494.497,0.002104152,4.38E-05,0.003178537,0.010862448,-0.018997888,0.255602693,-0.018995624,-0.010862235,-0.999760568,0.00212327,-0.004293045,-0.000556639
13:47.2,34494.507,0.002555648,-0.0007741,0.006153345,0.010853289,-0.019037404,0.255602946,-0.019035133,-0.010853075,-0.999759912,-0.002315155,-0.002515385,0.001183204
13:47.2,34494.517,0.002181329,0.001049529,0.010609448,0.010845863,-0.01901403,0.255602572,-0.019011766,-0.010845651,-0.999760449,-0.001242375,0.005487033,-0.000436608
13:47.2,34494.527,9.09E-05,-1.29E-07,0.00610882,0.010833803,-0.018983552,0.255601102,-0.018981298,-0.01083359,-0.999761164,-0.001722011,-0.000434772,0.000114666
13:47.3,34494.537,0.001333755,-7.78E-05,0.002858579,0.010832388,-0.018990423,0.255595268,-0.018988168,-0.010832176,-0.999761045,0.001013975,-0.001231417,-0.002152908
13:47.3,34494.547,0.00224741,0.000372965,0.008549929,0.010825425,-0.019003811,0.255602455,-0.019001555,-0.010825214,-0.999760866,-0.001175943,-0.001954466,0.000222099
13:47.3,34494.557,0.001041202,-0.000875759,0.010869682,0.010812663,-0.018987781,0.25559075,-0.01898553,-0.010812452,-0.999761283,0.001017863,0.004392133,-0.000429265
13:47.3,34494.567,-0.000432018,-0.000497707,0.006200731,0.010809243,-0.0189794,0.255573252,-0.018977152,-0.010809033,-0.999761462,0.002735069,-0.002459914,-0.00051848
13:47.3,34494.577,-0.00035568,0.00060659,0.004857421,0.010830169,-0.018994715,0.255570349,-0.018992459,-0.010829957,-0.999760985,-0.000344584,-0.003055319,-0.001016947
13:47.3,34494.587,0.000618353,0.000874188,0.009267449,0.010838368,-0.018976924,0.255552933,-0.018974671,-0.010838156,-0.999761224,0.000259688,0.001237963,-0.000813216
13:47.3,34494.597,0.001293113,0.000971825,0.009359598,0.010829193,-0.01894977,0.25555469,-0.018947525,-0.010828981,-0.99976182,0.000196861,0.001067032,0.000357699
13:47.3,34494.607,3.91E-05,0.000897711,0.005514145,0.010831374,-0.018962255,0.255559864,-0.018960007,-0.010831161,-0.999761581,0.001783039,-0.001332476,0.000757174
13:47.3,34494.617,0.000616487,0.001413212,0.005209029,0.010828075,-0.018959792,0.255550974,-0.018957544,-0.010827864,-0.999761641,-0.002912181,0.001331836,-0.000740001
13:47.3,34494.627,0.001861524,0.000529692,0.007086277,0.010829564,-0.018938344,0.255544826,-0.018936101,-0.010829353,-0.999762058,0.002432783,0.001866865,0.000832862
13:47.4,34494.637,0.001049487,4.02E-06,0.008673429,0.01083795,-0.018919762,0.255543589,-0.018917521,-0.010837737,-0.999762297,-0.000970855,0.001640488,-0.000502354
13:47.4,34494.647,0.001506101,-0.000818987,0.005621731,0.010838918,-0.018918611,0.255539891,-0.01891637,-0.010838706,-0.999762297,-0.001499226,-0.00196703,-0.000947368
13:47.4,34494.657,0.001725147,-0.00060657,0.003439605,0.010837712,-0.018924035,0.255548429,-0.018921794,-0.0108375,-0.999762237,-0.000175108,-0.001281961,0.001252745
13:47.4,34494.667,0.001485066,0.001315897,0.007879853,0.010837572,-0.018928097,0.255561954,-0.018925855,-0.01083736,-0.999762177,0.000242475,0.004038502,0.002395242
13:47.4,34494.677,0.000895826,-0.000510201,0.009544015,0.010842529,-0.018872903,0.255562988,-0.018870674,-0.010842317,-0.999763131,0.000358178,0.002517038,-0.000549269
13:47.4,34494.687,-0.00122617,0.000225394,0.004127741,0.010845703,-0.018841354,0.255552088,-0.018839132,-0.01084549,-0.999763727,0.000278283,0.000209676,-0.000555661
13:47.4,34494.697,-0.000630153,0.000631247,0.003532708,0.010839567,-0.018842275,0.255552627,-0.018840054,-0.010839354,-0.999763727,0.001420411,-0.001432696,0.002801943
13:47.4,34494.707,0.001448305,0.000148126,0.009880662,0.010829468,-0.018830276,0.255567693,-0.018828059,-0.010829257,-0.999764085,-0.00132877,0.002331949,0.000820019
13:47.4,34494.717,0.000706248,0.00094604,0.009545386,0.010833926,-0.018805377,0.255562583,-0.018803166,-0.010833714,-0.999764502,0.002441233,0.00441534,-2.59E-05
13:47.4,34494.727,0.000774533,-0.000918914,0.001457989,0.010845804,-0.01881263,0.255566247,-0.018810414,-0.010845591,-0.999764264,0.002546694,-0.005010652,-0.000657291
13:47.5,34494.737,0.001795458,-9.45E-05,0.0064013,0.010846232,-0.018841739,0.255555266,-0.018839516,-0.010846019,-0.999763668,-0.000642435,-0.003128863,0.002806666
13:47.5,34494.747,0.001919661,0.001089125,0.011345565,0.010854942,-0.018813352,0.255570989,-0.018811135,-0.010854729,-0.999764144,0.000499794,0.005558369,0.00116749
13:47.5,34494.756,-0.000215726,0.000187014,0.005151093,0.010853099,-0.018783668,0.255561247,-0.018781457,-0.010852885,-0.999764681,0.000840999,-0.000708316,-0.000718635
13:47.5,34494.766,0.000383135,0.001281743,0.002922952,0.010849195,-0.018802702,0.255574316,-0.018800488,-0.010848982,-0.999764383,0.000585069,-0.002768537,0.001469151
13:47.5,34494.776,0.00154013,5.45E-05,0.00928545,0.010842621,-0.018830552,0.255583112,-0.018828332,-0.010842408,-0.999763966,-0.001482393,-0.001941892,-0.000916764
13:47.5,34494.786,0.000961937,-0.00079829,0.010414839,0.010844358,-0.01881693,0.255585971,-0.018814713,-0.010844145,-0.999764204,0.001676116,0.000747102,0.001709645
13:47.5,34494.796,0.000361878,-0.000454871,0.005272627,0.010852083,-0.018811965,0.255582574,-0.018809749,-0.01085187,-0.999764204,0.003156919,-0.001852676,-0.00021801
13:47.5,34494.806,0.000980929,0.000914518,0.006538808,0.010863441,-0.018820668,0.255560081,-0.018818447,-0.010863227,-0.999763906,0.000693761,-2.73E-05,-0.002198336
13:47.5,34494.816,0.000980383,2.65E-05,0.010262132,0.010875678,-0.018804862,0.255545242,-0.018802643,-0.010875463,-0.999764085,0.001272207,0.001061887,-0.000102894
13:47.5,34494.826,0.000976361,0.000665879,0.007409275,0.010858943,-0.018785574,0.255546086,-0.018783363,-0.010858729,-0.999764621,0.000443431,-0.000233741,0.000838533
13:47.6,34494.836,-0.000124257,-0.00012958,0.003563821,0.01085694,-0.018798849,0.25554879,-0.018796634,-0.010856727,-0.999764383,-0.00033621,-0.002685713,-0.000798426
13:47.6,34494.846,0.001330614,0.00026927,0.007057965,0.010859062,-0.018804137,0.255547436,-0.01880192,-0.010858848,-0.999764264,0.002309641,0.00208534,0.000920911
13:47.6,34494.856,-6.91E-05,0.000751119,0.008660674,0.010883148,-0.018762438,0.25554966,-0.018760227,-0.010882934,-0.9997648,0.002435299,0.005808972,0.0004895
13:47.6,34494.866,-0.000438672,0.001409655,0.007654011,0.010900816,-0.018728568,0.255560864,-0.01872636,-0.0109006,-0.999765217,-0.001793001,0.00077107,0.000896964
13:47.6,34494.876,0.000785859,-6.60E-05,0.006967425,0.010890028,-0.018732394,0.255562832,-0.018730188,-0.010889813,-0.999765277,-0.001557901,0.000420864,0.001546869
13:47.6,34494.886,0.000202876,-0.000348882,0.005990863,0.01089704,-0.018729245,0.255562661,-0.018727038,-0.010896825,-0.999765277,0.001329764,-0.000596463,0.001485616
13:47.6,34494.896,0.002017196,0.000193346,0.007623494,0.010905211,-0.018727772,0.255553645,-0.018725563,-0.010904995,-0.999765217,1.36E-05,5.87E-05,0.001439754
13:47.6,34494.906,-0.000110017,-0.000103439,0.009546459,0.010883083,-0.018721524,0.255561077,-0.018719321,-0.010882868,-0.999765575,-0.002593149,0.002167366,-0.001440188
13:47.6,34494.916,-0.001170417,-0.00018657,0.00472486,0.010876246,-0.018713977,0.255565532,-0.018711777,-0.010876032,-0.999765754,0.003321039,0.001192382,-0.000505797
13:47.6,34494.926,0.000930982,0.000431286,0.004205823,0.010883749,-0.018724925,0.255574894,-0.018722722,-0.010883534,-0.999765456,-0.000566377,-0.001417782,0.001606623
13:47.7,34494.936,0.001719018,0.001196553,0.009805739,0.010870818,-0.018734765,0.255589523,-0.018732563,-0.010870604,-0.999765456,0.000906977,0.003089618,9.38E-05
13:47.7,34494.946,-0.000324884,-0.000476932,0.007731497,0.010860541,-0.01868975,0.255595356,-0.018687559,-0.010860327,-0.999766409,0.00047661,0.001671751,0.001493302
13:47.7,34494.956,-0.000464654,-0.000618897,0.003504753,0.010871163,-0.018687309,0.255597696,-0.018685117,-0.010870948,-0.99976629,0.000568582,-0.002876661,0.002923524
13:47.7,34494.966,-3.80E-05,-0.000899883,0.007227659,0.010864836,-0.018701941,0.255600807,-0.018699747,-0.010864622,-0.999766111,-0.00132093,0.001169745,0.00038633
13:47.7,34494.976,-0.00112216,0.00114468,0.010386705,0.010849462,-0.018685929,0.255602756,-0.018683741,-0.01084925,-0.999766588,-0.002843714,0.001532874,-0.000212327
13:47.7,34494.986,-0.00091565,0.000321733,0.003962874,0.010850489,-0.018678814,0.255591632,-0.018676629,-0.010850277,-0.999766707,-0.000611985,-0.002000075,0.000549604
13:47.7,34494.996,0.001601523,0.000305079,0.003718197,0.010849094,-0.01870881,0.255600929,-0.018706618,-0.010848881,-0.999766171,0.000908568,-0.001084214,-0.000519566
13:47.7,34495.006,0.00033858,-0.000522744,0.011027396,0.010845245,-0.018697086,0.255597132,-0.018694896,-0.010845033,-0.999766409,-0.002645154,0.001064424,0.000529453
13:47.7,34495.016,0.001154417,0.000478282,0.01028055,0.01083919,-0.018658419,0.25560371,-0.018656241,-0.010838977,-0.999767184,-3.28E-05,0.002382156,-0.000170169
13:47.7,34495.026,0.000596173,0.000259913,0.004146397,0.010834444,-0.018664752,0.255599343,-0.018662574,-0.010834232,-0.999767125,0.000272181,-0.006006535,-0.001083101
13:47.8,34495.036,0.00084356,0.000117553,0.005351126,0.010844674,-0.018698527,0.255589618,-0.018696338,-0.010844462,-0.999766409,1.12E-06,-0.000840535,0.001330953
13:47.8,34495.046,0.001012726,-0.000129685,0.010127068,0.010872095,-0.018684588,0.255588622,-0.018682396,-0.010871881,-0.99976635,0.001931909,0.00384796,-0.000591583
13:47.8,34495.056,0.000230884,-0.001188688,0.006648242,0.010865947,-0.01868094,0.255602776,-0.018678751,-0.010865733,-0.999766469,0.002217316,-0.000941735,0.002791908
13:47.8,34495.066,-0.000316789,-0.000200372,0.005656242,0.010877702,-0.018682588,0.255604473,-0.018680396,-0.010877487,-0.99976635,0.00110225,-0.001278625,0.000472028
13:47.8,34495.076,0.000633148,0.000400468,0.006510615,0.010883449,-0.018686481,0.255611176,-0.018684287,-0.010883234,-0.999766171,0.000777695,-0.000225877,0.000756572
13:47.8,34495.086,0.000117622,0.001239495,0.007563651,0.010883244,-0.018674494,0.255611678,-0.018672302,-0.01088303,-0.999766409,0.000236541,-0.001044533,-0.00182696
13:47.8,34495.096,0.000277353,0.001803603,0.005976796,0.010867516,-0.018681636,0.255599563,-0.018679447,-0.010867302,-0.999766469,-0.0002842,-0.002934687,-0.001937012
13:47.8,34495.106,0.001362171,-3.40E-05,0.005793571,0.010876244,-0.018683083,0.255601669,-0.018680891,-0.010876029,-0.99976635,0.001530212,0.001414787,0.001868911
13:47.8,34495.116,0.000759481,-0.001032512,0.006724119,0.010884796,-0.018690747,0.255608483,-0.018688552,-0.010884581,-0.999766111,-0.000237083,0.001749813,0.001595555
13:47.8,34495.126,0.000916976,0.000332632,0.009089231,0.010876649,-0.018695654,0.255609668,-0.018693458,-0.010876434,-0.999766111,-0.001624324,-0.00252456,0.001503676
13:47.9,34495.136,0.001020247,0.000477043,0.007868528,0.01088373,-0.018692114,0.255613106,-0.018689919,-0.010883516,-0.999766111,0.001325235,0.000188935,0.001664652
13:47.9,34495.146,0.000688365,-0.000131321,0.004404426,0.010885718,-0.018711186,0.255618535,-0.018708985,-0.010885502,-0.999765694,0.002185436,-0.005248175,0.000411102
13:47.9,34495.156,0.001331743,1.93E-05,0.006708145,0.010883752,-0.01872896,0.255610454,-0.018726757,-0.010883537,-0.999765396,-0.001490818,-0.002015897,-0.003109876
13:47.9,34495.166,0.000249647,0.001223149,0.011118412,0.010866896,-0.018714972,0.255602541,-0.018712774,-0.010866682,-0.999765873,0.000269265,0.00296022,0.000467015
13:47.9,34495.176,-9.53E-05,-0.000651868,0.007960141,0.01085345,-0.01870575,0.255599858,-0.018703558,-0.010853237,-0.999766171,-0.002150359,0.001138085,0.000817708
13:47.9,34495.186,0.001003472,-0.00058254,0.00458777,0.010846483,-0.018721112,0.25560576,-0.018718917,-0.01084627,-0.999765933,-0.00036684,-0.000773532,-0.000221191
13:47.9,34495.196,0.00105066,0.000494217,0.007151127,0.010855126,-0.018722527,0.255599084,-0.018720331,-0.010854913,-0.999765813,0.002178387,-0.001363843,0.001210277
13:47.9,34495.206,0.001018008,0.001968541,0.008707702,0.010864608,-0.018705132,0.255610041,-0.018702937,-0.010864394,-0.999766052,0.002856694,0.002640219,-0.001116527
13:47.9,34495.216,0.000534266,0.000330254,0.004771054,0.010874271,-0.018694413,0.255621584,-0.01869222,-0.010874056,-0.999766171,0.000885995,-0.003594773,0.000675141
13:47.9,34495.226,0.000162503,-0.001009346,0.004068196,0.010892704,-0.018734649,0.255629792,-0.018732442,-0.010892488,-0.999765217,0.003630383,-0.003207017,0.003342297
13:48.0,34495.236,0.000850622,-0.001007648,0.009408832,0.010909661,-0.018720865,0.255638479,-0.018718658,-0.010909445,-0.999765277,-0.000602289,0.001591466,-0.001494589
13:48.0,34495.246,0.001494579,-0.000566045,0.009744942,0.0108935,-0.018708687,0.25563533,-0.018706486,-0.010893284,-0.999765694,-0.001456099,0.001924095,-0.001773156
13:48.0,34495.256,0.001159741,-0.000261901,0.003442764,0.010892468,-0.018724804,0.255630532,-0.018722599,-0.010892252,-0.999765396,0.000295142,-0.002586501,0.001059329
13:48.0,34495.266,-0.000610286,0.000171912,0.005121171,0.010899035,-0.018724799,0.255639097,-0.018722592,-0.010898819,-0.999765337,-0.000378371,0.000919817,-0.000359604
13:48.0,34495.276,0.000631895,0.000207137,0.010141611,0.010888483,-0.018715754,0.25565379,-0.018713553,-0.010888267,-0.999765575,-0.001461825,0.002999191,0.001997757
13:48.0,34495.286,0.001912817,0.000615172,0.007639349,0.010869271,-0.018714936,0.255658763,-0.018712739,-0.010869057,-0.999765813,-0.000831188,-0.001135633,0.000463776
13:48.0,34495.296,0.001488615,0.001361914,0.004648745,0.010853073,-0.018717976,0.255671266,-0.01871578,-0.01085286,-0.999765933,-0.002639648,-0.000320731,-0.00015469
13:48.0,34495.306,0.000162311,0.00108314,0.007700264,0.010848957,-0.018734449,0.255664606,-0.01873225,-0.010848744,-0.999765694,0.000564934,-0.001689064,0.000142518
13:48.0,34495.316,0.000768231,-0.000119598,0.009897888,0.010851663,-0.018714752,0.255681995,-0.018712558,-0.010851449,-0.999765992,0.001817098,0.005748094,0.00075165
13:48.0,34495.325,0.001101224,-0.000174783,0.007395506,0.010872774,-0.018696796,0.255677561,-0.018694602,-0.01087256,-0.999766111,3.01E-05,0.000798609,-0.001574355
13:48.1,34495.335,0.001520831,-0.000438866,0.005274773,0.010868088,-0.018689152,0.25568678,-0.018686961,-0.010867874,-0.99976629,-0.002897457,-0.002524792,0.004264354
13:48.1,34495.345,0.001670046,0.000854404,0.005976498,0.010864361,-0.01870104,0.255688805,-0.018698845,-0.010864147,-0.999766111,-0.002154968,-0.000431282,-0.001595665
13:48.1,34495.355,0.002400789,-0.000313004,0.007807374,0.010856621,-0.018714623,0.255678657,-0.018712427,-0.010856408,-0.999765992,-0.001018,0.00047044,-0.000470662
13:48.1,34495.365,-0.000610063,0.000611786,0.007135987,0.010835365,-0.01872501,0.255687839,-0.018722817,-0.010835153,-0.999765992,-0.003080352,0.000389746,0.000470765
13:48.1,34495.375,-0.000238068,0.000263284,0.005030155,0.010837815,-0.018730794,0.255701952,-0.018728599,-0.010837603,-0.999765873,0.002091991,-0.001406277,-0.000133311
13:48.1,34495.385,0.000297435,0.000192313,0.008051157,0.010858399,-0.018732245,0.255709378,-0.018730044,-0.010858186,-0.999765635,0.001525004,0.002199643,0.000323954
13:48.1,34495.395,0.00080266,0.000165801,0.009805858,0.010862403,-0.01873393,0.255707499,-0.01873173,-0.010862189,-0.999765515,-0.000228138,0.000179426,0.001386101
13:48.1,34495.405,-0.000691639,-0.000449486,0.006662846,0.010857469,-0.01871973,0.255700555,-0.018717533,-0.010857255,-0.999765873,0.003187366,0.001170655,0.000882764
13:48.1,34495.415,-0.001021776,-0.000625824,0.005060613,0.010879497,-0.01871003,0.255703988,-0.01870783,-0.010879282,-0.999765813,0.003156191,-0.000987733,0.001441637
13:48.1,34495.425,-0.000297196,0.000387452,0.007914186,0.010900952,-0.018686928,0.255709873,-0.01868473,-0.010900736,-0.999765992,3.12E-05,0.001833087,-0.001558148
13:48.2,34495.435,0.000192789,0.00046947,0.00858593,0.010891417,-0.018673369,0.255703239,-0.018671175,-0.010891202,-0.99976635,-0.002336036,0.002507797,0.001241196
13:48.2,34495.445,7.77E-05,-0.000788267,0.005046308,0.010869641,-0.018665071,0.255728077,-0.018662885,-0.010869427,-0.999766767,-0.002391962,-0.000180931,0.000701373
13:48.2,34495.455,0.000374336,0.000278033,0.004511714,0.010883084,-0.018687069,0.255724869,-0.018684875,-0.010882869,-0.999766171,0.003470965,-0.002073649,-0.000319287
13:48.2,34495.465,0.001762412,0.000273115,0.009150445,0.010878166,-0.018686595,0.255722124,-0.018684402,-0.010877951,-0.999766231,-0.002393582,0.002961323,0.000368075
13:48.2,34495.475,0.000842214,0.000921714,0.008921981,0.010870638,-0.018666659,0.255719007,-0.018664472,-0.010870424,-0.999766707,0.000849756,0.000989881,0.000155312
13:48.2,34495.485,0.000214206,-0.000374078,0.00400871,0.010871843,-0.018664263,0.255726226,-0.018662076,-0.010871629,-0.999766767,-0.001012593,-0.003398742,9.41E-05
13:48.2,34495.495,0.001049383,-0.000433094,0.005503535,0.010873862,-0.01869073,0.255729128,-0.018688537,-0.010873647,-0.999766231,0.002725287,-0.00156866,0.001342255
13:48.2,34495.505,0.00036571,0.000747873,0.010065794,0.010879903,-0.018693704,0.255733344,-0.018691508,-0.010879688,-0.999766111,-0.000375964,0.001357089,0.00175611
13:48.2,34495.515,0.000246879,0.000511987,0.00646472,0.010872898,-0.018696943,0.255732164,-0.018694749,-0.010872684,-0.999766111,-9.60E-05,-0.001813525,-0.000103348
13:48.2,34495.525,0.000257788,6.12E-05,0.004435062,0.010879839,-0.018707854,0.25572801,-0.018705655,-0.010879624,-0.999765813,-0.000881403,-6.70E-05,-0.000801629
13:48.3,34495.535,-0.00092335,-0.000140904,0.008722901,0.010876134,-0.018701642,0.255725832,-0.018699447,-0.01087592,-0.999765992,0.000815996,0.001103831,0.0005999
13:48.3,34495.545,0.001097478,0.001334766,0.0099594,0.010871702,-0.018677783,0.255730407,-0.018675594,-0.010871488,-0.999766469,0.000411196,-0.002860284,-0.000490132
13:48.3,34495.555,0.001717068,-0.000252105,0.006953239,0.010871743,-0.018687024,0.255733648,-0.018684832,-0.01087153,-0.99976629,-0.001316259,-0.001315575,0.001162265
13:48.3,34495.565,0.000627065,-0.000241009,0.003748417,0.010898102,-0.018695663,0.255741126,-0.018693464,-0.010897886,-0.999765873,0.002959712,0.002814455,0.000552134
13:48.3,34495.575,0.000675,-0.000538162,0.008737743,0.010921385,-0.018697828,0.255761994,-0.018695623,-0.010921167,-0.999765575,0.001795583,-0.001737409,0.001688603
13:48.3,34495.585,0.00054824,-9.97E-06,0.008005202,0.010915521,-0.018708398,0.25575705,-0.018706191,-0.010915305,-0.999765456,-0.00117544,-0.001843403,-0.001199329
13:48.3,34495.595,-0.000308655,-0.000462849,0.005868852,0.010905144,-0.018721255,0.255762246,-0.018719047,-0.010904928,-0.999765337,-0.001435209,0.001646522,0.001773107
13:48.3,34495.605,-0.125735939,0.065158099,0.06819427,0.414112156,0.456262694,-0.230308597,0.403354317,-0.402377278,-0.821825862,0.025200747,0.660392046,1.491573334
13:48.3,34495.615,-0.220578194,0.085418075,0.1220752,0.419548268,0.457829144,-0.215071483,0.403668374,-0.407347947,-0.819218814,-0.28399539,0.876595736,1.491958022
13:48.3,34495.625,-0.277770817,0.063791811,0.126151145,0.422586139,0.459977842,-0.198431162,0.404876471,-0.410120457,-0.8172369,-0.477228761,0.912905812,1.496697664
13:48.4,34495.635,-0.274491817,0.014325738,0.112151027,0.423626924,0.461987709,-0.181606615,0.406327724,-0.411069483,-0.816038966,-0.781487286,0.884649634,1.344846368
13:48.4,34495.645,-0.22563976,-0.078240722,0.097037315,0.41471584,0.459372463,-0.160516554,0.405800283,-0.402929872,-0.820349693,-2.058522701,-0.111246645,1.202993631
13:48.4,34495.655,-0.103092402,-0.120588213,0.413668096,0.403949561,0.448243247,-0.143322687,0.398502499,-0.393053085,-0.828676641,-1.177737594,-0.789016843,0.726929128
13:48.4,34495.665,-0.022826791,-0.187317908,0.356071711,0.399022915,0.434927468,-0.132775518,0.388244241,-0.388518214,-0.835655451,-0.648388028,-0.89074856,0.644271255
13:48.4,34495.675,0.000775099,-0.099636346,-0.341021776,0.39679336,0.42376203,-0.124545888,0.379244983,-0.386462837,-0.84072566,-0.380002558,-0.747759402,0.514730096
13:48.4,34495.685,-0.001220971,-0.084206432,-0.288219213,0.396482588,0.414482327,-0.119913242,0.371475458,-0.386176199,-0.844318628,-0.005573035,-0.721345901,0.223598093
13:48.4,34495.695,-0.12619403,-0.034595221,-0.181424618,0.398755247,0.408492802,-0.119991786,0.366062194,-0.38827154,-0.845720768,0.415516555,-0.452852458,-0.04926721
13:48.4,34495.705,-0.222729623,-0.036797613,-0.167990983,0.403423605,0.406902543,-0.123838552,0.363995463,-0.392569393,-0.844628036,0.712363183,-0.185948044,-0.223473638
13:48.4,34495.715,-0.249422133,-0.051360935,-0.174900949,0.409396894,0.408108525,-0.129798007,0.364076644,-0.39805612,-0.842021048,0.782539964,-0.057766113,-0.296615958
13:48.4,34495.725,-0.204241067,-0.008736193,-0.10888505,0.414166538,0.411027958,-0.135300923,0.365770578,-0.402427077,-0.83920455,0.460457057,0.20131579,-0.232469723
13:48.5,34495.735,-0.144781053,0.068949521,0.024195433,0.415670678,0.414562345,-0.137779259,0.36849013,-0.403803587,-0.837351561,0.013365597,0.286512703,-0.054476675
13:48.5,34495.745,-0.126459152,0.081791788,0.162983298,0.414497307,0.416453026,-0.13673606,0.370264053,-0.402729869,-0.837086141,-0.327443928,0.164199844,0.12270423
13:48.5,34495.755,-0.081899762,0.048971415,0.231926918,0.410517926,0.41502435,-0.132566194,0.369711012,-0.39908427,-0.839074194,-0.733180821,-0.136331499,0.245533004
13:48.5,34495.765,-0.054361999,0.007825881,0.219858229,0.40241918,0.408684531,-0.125300719,0.365656525,-0.391645402,-0.84433949,-1.28115201,-0.560661197,0.329502732
13:48.5,34495.775,-0.023965776,-0.042010337,0.163567007,0.390689325,0.397560684,-0.115479153,0.357995868,-0.380825877,-0.85253185,-1.52359426,-0.871748209,0.421649158
13:48.5,34495.785,0.011933833,-0.052264035,0.045327008,0.379510033,0.383875433,-0.104853827,0.347868383,-0.370465398,-0.861244977,-1.248417616,-1.072906971,0.540903926
13:48.5,34495.795,0.017701507,-0.042157203,-0.112584472,0.372265329,0.368969141,-0.095213214,0.335951418,-0.363726526,-0.868815064,-0.738345921,-1.199566364,0.586410522
13:48.5,34495.805,0.005270094,-0.026907116,-0.21677947,0.370127373,0.354206701,-0.087789312,0.323358417,-0.361734182,-0.874407053,-0.146688446,-1.190199733,0.553689063
13:48.5,34495.815,-0.054127216,-0.012991875,-0.251158178,0.373221798,0.341416135,-0.082641948,0.31177184,-0.364617318,-0.877412438,0.370037198,-0.966526926,0.570212126
13:48.5,34495.825,-0.111025155,-0.004292786,-0.232569635,0.379737456,0.331606893,-0.078247057,0.30237034,-0.370676637,-0.878163397,0.542081416,-0.689055085,0.639623642
13:48.6,34495.835,-0.12160477,0.007973403,-0.176791489,0.386645253,0.32359314,-0.072979758,0.294502109,-0.377083451,-0.878109694,0.425506502,-0.535830379,0.722135007
13:48.6,34495.845,-0.095725924,0.028912872,-0.085534215,0.391795629,0.315814644,-0.066336468,0.28705588,-0.381848603,-0.878516138,0.157302216,-0.521784067,0.766607106
13:48.6,34495.855,-0.064748198,0.024130404,-0.001185477,0.394315963,0.307349948,-0.058502489,0.27931726,-0.384176731,-0.879994392,-0.118671738,-0.579215407,0.760065198
13:48.6,34495.865,-0.053797781,-0.002121121,0.047874689,0.394242903,0.297841484,-0.050077072,0.270945609,-0.384109288,-0.882637262,-0.351059705,-0.675716937,0.712443352
13:48.6,34495.875,-0.059598356,-0.03208518,0.070946157,0.391703707,0.28724545,-0.041582641,0.261853576,-0.381763637,-0.886391103,-0.588891208,-0.785471141,0.640858054
13:48.6,34495.885,-0.075262696,-0.062108487,0.073965013,0.38640001,0.275777011,-0.033168809,0.252218843,-0.376856297,-0.891271532,-0.8804456,-0.865320683,0.56566906
13:48.6,34495.894,-0.098503321,-0.074311584,0.063718677,0.37765588,0.263581385,-0.024644586,0.242180064,-0.368742555,-0.897428393,-1.214192033,-0.952095509,0.495477378
13:48.6,34495.904,-0.115294799,-0.077317923,0.051610291,0.366353842,0.250759951,-0.016452387,0.231673539,-0.358213633,-0.90443927,-1.326171994,-1.011908054,0.398720473
13:48.6,34495.914,-0.128223836,-0.07985577,0.023059189,0.354688976,0.237937731,-0.009566546,0.221027777,-0.347298712,-0.911334336,-1.242720962,-1.071611643,0.289819777
13:48.6,34495.924,-0.156623304,-0.070236415,-0.044328153,0.344220632,0.225194229,-0.004223093,0.210196882,-0.33746314,-0.917570651,-1.006397605,-1.097995043,0.210839197
13:48.7,34495.934,-0.172139153,-0.025712013,-0.109454632,0.336336764,0.213242904,-0.000359661,0.19977279,-0.330031335,-0.922588825,-0.676643789,-1.028845191,0.16455096
13:48.7,34495.944,-0.174686462,0.041266739,-0.165360868,0.332097032,0.202284119,0.002382032,0.189929962,-0.326026201,-0.926085055,-0.258303821,-0.990156054,0.169959575
13:48.7,34495.954,-0.157074586,0.081961274,-0.174641013,0.331757407,0.19183912,0.004446338,0.18026793,-0.325705111,-0.928126931,0.09433157,-0.961967051,0.19961217
13:48.7,34495.964,-0.124472544,0.073611379,-0.140869319,0.333965747,0.181868384,0.00621398,0.170874506,-0.327792227,-0.929168522,0.249722764,-0.915134549,0.204602927
13:48.7,34495.974,-0.096348315,0.048016995,-0.087695122,0.336707037,0.17251576,0.007816644,0.162022129,-0.330380827,-0.929837227,0.225233391,-0.844512045,0.189115852
13:48.7,34495.984,-0.073885545,0.028188884,-0.032077312,0.33875358,0.16413849,0.009332093,0.154116228,-0.332311779,-0.930492938,0.131974027,-0.717122138,0.153414577
13:48.7,34495.994,-0.075332776,0.018232763,0.003066719,0.339700421,0.157305409,0.010629523,0.147705197,-0.333204657,-0.931213081,0.021225134,-0.561493158,0.110601604
13:48.7,34496.004,-0.090063021,0.018985569,0.020211399,0.339673445,0.152052137,0.011579747,0.142812625,-0.333179206,-0.93198508,-0.04922799,-0.428995043,0.063633829
13:48.7,34496.014,-0.096422121,0.01470241,0.028974593,0.339031038,0.148216915,0.012145652,0.139268786,-0.332573444,-0.93273741,-0.089531206,-0.303580135,0.021548958
13:48.7,34496.024,-0.099749088,0.01092577,0.027296484,0.338084578,0.145715158,0.012263039,0.136980519,-0.331680715,-0.933393955,-0.095272712,-0.189210162,-0.028016998
13:48.8,34496.034,-0.11008583,0.009032905,0.012340128,0.337242841,0.144289807,0.011871419,0.135690063,-0.330886513,-0.933864176,-0.058177546,-0.122002356,-0.068584926
13:48.8,34496.044,-0.122817263,0.007196158,0.001905143,0.336945716,0.143414824,0.011115401,0.134886935,-0.330606103,-0.934079826,0.024523662,-0.105577044,-0.075337216
13:48.8,34496.054,-0.115315005,0.018018186,-0.001776755,0.337305225,0.142686969,0.010536444,0.134190127,-0.330945373,-0.934060037,0.045473982,-0.067443773,-0.01209987
13:48.8,34496.064,-0.096534818,0.03809765,-0.006663203,0.337999453,0.141924985,0.010903305,0.133445814,-0.331600398,-0.933934331,0.102580152,-0.075373866,0.100278869
13:48.8,34496.074,-0.079920053,0.067412108,-0.024107873,0.340121468,0.140252146,0.012179898,0.131784633,-0.333601594,-0.933457434,0.294155151,-0.183865726,0.19446066
13:48.8,34496.084,-0.077933937,0.069168597,-0.052328765,0.344529385,0.137377688,0.014041824,0.128898278,-0.337753743,-0.932366669,0.531054497,-0.248014882,0.278643966
13:48.8,34496.094,-0.075240284,0.059621841,-0.066343844,0.351433443,0.134336477,0.016488663,0.125746846,-0.344244003,-0.930421293,0.774421513,-0.182335198,0.363909483
13:48.8,34496.104,-0.084840983,0.050572813,-0.066308141,0.360712438,0.132075418,0.01934523,0.123216823,-0.352940917,-0.927496791,0.980247676,-0.064854115,0.399427801
13:48.8,34496.114,-0.113400206,0.028562725,-0.069004178,0.371245033,0.131054476,0.022041469,0.121777281,-0.362775922,-0.923885226,1.028817296,0.057683252,0.373243779
13:48.8,34496.124,-0.13723135,0.010789663,-0.053922951,0.38176636,0.131467884,0.024417666,0.121652104,-0.372560233,-0.919999778,1.00034833,0.204268426,0.337924927
13:48.9,34496.134,-0.155120492,0.003044993,-0.033962071,0.391791063,0.133364447,0.026312233,0.122893915,-0.381844372,-0.916019619,0.941042066,0.310902745,0.276275635
13:48.9,34496.144,-0.158908442,0.003091633,-0.020154059,0.400922739,0.136090029,0.027587294,0.12491186,-0.390268087,-0.91218853,0.839098215,0.321230471,0.198082551
13:48.9,34496.154,-0.147970766,0.007993251,-0.0061692,0.4093609,0.138705451,0.028092329,0.126837343,-0.398023129,-0.908564746,0.833019733,0.235649794,0.1261013
13:48.9,34496.164,-0.128920019,0.015694052,-0.01215893,0.417754022,0.140459602,0.027926756,0.1279587,-0.405708641,-0.905001163,0.832429051,0.095574707,0.082106151
13:48.9,34496.174,-0.11092037,0.026867479,-0.025840878,0.426070994,0.140537841,0.027492066,0.127552435,-0.413296252,-0.901618838,0.834678471,-0.121427111,0.076393299
13:48.9,34496.184,-0.09479776,0.028055787,-0.019777477,0.434547557,0.138259031,0.027080706,0.125010163,-0.421000063,-0.898404896,0.85726285,-0.367599875,0.085697852
13:48.9,34496.194,-0.079832561,0.031592488,9.95E-06,0.44305601,0.133467052,0.026896062,0.120222569,-0.428702414,-0.895410955,0.827138245,-0.602569759,0.111400977
13:48.9,34496.204,-0.068204239,0.039056897,0.012680113,0.450876735,0.126412876,0.027132036,0.113477059,-0.435754806,-0.89288336,0.716331542,-0.775870979,0.128888622
13:48.9,34496.214,-0.058799237,0.037375093,0.012847662,0.457529335,0.118080452,0.027702634,0.105689466,-0.441732913,-0.89089942,0.600536883,-0.81803304,0.12916708
13:48.9,34496.224,-0.065796621,0.025554568,-0.009375632,0.46320663,0.110184181,0.028291616,0.098374113,-0.446819127,-0.889199197,0.515507758,-0.68758744,0.096664004
13:49.0,34496.234,-0.101315737,0.016675174,-0.030506611,0.467972373,0.104186342,0.028475114,0.092816591,-0.45107758,-0.887645245,0.435242832,-0.488307655,0.035509888
13:49.0,34496.244,-0.140134394,0.007626742,-0.019627869,0.472079944,0.100461032,0.028066861,0.089322619,-0.45473972,-0.88613385,0.394034415,-0.297000796,-0.023835992
13:49.0,34496.254,-0.144766584,-0.006067157,-0.008252382,0.475793684,0.098731043,0.027118959,0.087622412,-0.458044112,-0.884600401,0.361043841,-0.141547024,-0.069546759
13:49.0,34496.264,-0.128078163,-0.011091471,-0.003419757,0.479053136,0.098488839,0.025790415,0.087260894,-0.460939109,-0.883131206,0.310215563,-0.02867667,-0.099746473
13:49.0,34496.274,-0.118126161,0.000284195,0.001368701,0.481728954,0.099280522,0.024245339,0.087837458,-0.46331206,-0.881831288,0.249103263,0.042170074,-0.122735783
13:49.0,34496.284,-0.114822157,0.012655944,0.005051672,0.48382723,0.100680221,0.022557142,0.088973761,-0.465170532,-0.880738378,0.198520511,0.084382243,-0.129149735
13:49.0,34496.294,-0.113965325,0.019865304,0.011169434,0.485525398,0.10229403,0.021031651,0.090314195,-0.466673106,-0.879806578,0.178826362,0.095174171,-0.103000164
13:49.0,34496.304,-0.112044491,0.03014943,0.016418815,0.487285653,0.103693701,0.01979282,0.091460377,-0.468229204,-0.878860831,0.206691816,0.058271278,-0.080301777
13:49.0,34496.314,-0.102757044,0.036717832,0.018697381,0.489557284,0.104225082,0.018666356,0.091816477,-0.470235229,-0.877752006,0.266761899,-0.062957145,-0.075714365
13:49.0,34496.324,-0.088604555,0.027301103,0.023443341,0.492375284,0.103451436,0.017482359,0.091000177,-0.472720355,-0.876501262,0.318706065,-0.194737539,-0.074374534
13:49.1,34496.334,-0.071270198,0.020501226,0.012542486,0.495657118,0.101751358,0.016328943,0.089351863,-0.475609779,-0.875106633,0.348994404,-0.240624338,-0.064805262
13:49.1,34496.344,-0.074348114,0.021232218,-0.011807203,0.499075886,0.0999273,0.015161364,0.087592743,-0.47861436,-0.873645127,0.348222613,-0.228425473,-0.07671918
13:49.1,34496.354,-0.09203244,0.017162889,-0.026102304,0.502334004,0.098495905,0.013760622,0.086188324,-0.481472522,-0.872213185,0.326849073,-0.186643407,-0.104064837
13:49.1,34496.364,-0.099504448,0.008573443,-0.027404547,0.50550675,0.097682051,0.012135326,0.085329026,-0.484250873,-0.870758295,0.337762177,-0.127547324,-0.116809666
13:49.1,34496.374,-0.097592697,0.0067738,-0.018319964,0.50891177,0.097458781,0.01046016,0.084973671,-0.487227201,-0.869131207,0.370560676,-0.08367867,-0.107924767
13:49.1,34496.384,-0.090556949,0.015526861,0.001095057,0.512543594,0.097427572,0.00898747,0.084773861,-0.490395576,-0.867367029,0.375337064,-0.064509504,-0.082827672
13:49.1,34496.394,-0.081908546,0.022268206,0.025011897,0.515975124,0.097515329,0.007874761,0.084685639,-0.493383259,-0.865679681,0.330994487,-0.021025408,-0.044142541
13:49.1,34496.404,-0.088114962,0.022966236,0.036434412,0.519236578,0.097904548,0.007299684,0.084864825,-0.496217489,-0.864040613,0.3397443,0.041815341,0.007988835
13:49.1,34496.414,-0.10114494,0.024094224,0.028486073,0.522877151,0.098568949,0.007272608,0.085260533,-0.499374926,-0.862180531,0.389276236,0.084802218,0.055645783
13:49.1,34496.424,-0.10559006,0.025889277,0.01676482,0.527138188,0.099262466,0.007627188,0.085646808,-0.503062069,-0.859996021,0.44853875,0.093698241,0.087606907
13:49.2,34496.434,-0.104226328,0.01754564,0.016384542,0.531844349,0.099957531,0.008114697,0.086007327,-0.507123768,-0.857571125,0.472045928,0.09432888,0.084929585
13:49.2,34496.444,-0.103359878,0.011567771,0.025159121,0.536422402,0.100661543,0.008477164,0.086376838,-0.511064172,-0.855191469,0.42460227,0.087240875,0.064891696
13:49.2,34496.454,-0.102374934,0.010115802,0.026273787,0.54022287,0.101525029,0.008665012,0.086917765,-0.514327109,-0.853178084,0.335879773,0.107762933,0.041113444
13:49.2,34496.463,-0.105743751,0.007142544,0.007922053,0.543359924,0.102788801,0.008616096,0.087829933,-0.517014921,-0.85145843,0.299097002,0.1434903,0.012340385
13:49.2,34496.473,-0.114776358,0.00588876,-0.020848274,0.546425858,0.104667811,0.008201783,0.089263648,-0.519636869,-0.849711418,0.327326536,0.187280387,-0.021172991
13:49.2,34496.483,-0.127478525,0.005658925,-0.028523326,0.549982562,0.106902202,0.00738232,0.090964228,-0.522672355,-0.84766686,0.399442822,0.173589617,-0.043468714
13:49.2,34496.493,-0.120502971,0.008342206,-0.008167207,0.554622208,0.109120608,0.006268675,0.092579387,-0.526622176,-0.845043302,0.622802854,0.196375355,-0.047570936
13:49.2,34496.503,-0.096077904,0.009425104,0.017302275,0.5612226,0.111119243,0.005248704,0.093880638,-0.532221675,-0.841383696,0.656004488,0.094682015,0.00894134
13:49.2,34496.513,-0.073356099,0.019701719,0.071920097,0.567425576,0.111847794,0.004721433,0.094123304,-0.537462831,-0.838018179,0.594406903,-0.015104668,0.048185151
13:49.2,34496.523,-0.056954347,0.037846267,0.087608695,0.572847409,0.111235733,0.004952326,0.093285516,-0.542027116,-0.835167289,0.460629672,-0.062205337,0.111962259
13:49.3,34496.533,-0.0465113,0.028396547,0.055331767,0.576332169,0.109741316,0.006110285,0.091829896,-0.544952273,-0.833423257,0.207066163,-0.118948773,0.14819105
13:49.3,34496.543,-0.05177816,0.005577147,0.060793698,0.577360884,0.107473401,0.007556173,0.089879356,-0.545814514,-0.833071589,-0.007517504,-0.162137255,0.110172838
13:49.3,34496.553,-0.072313979,-0.004349828,0.067881346,0.576949845,0.105610558,0.008566544,0.088350959,-0.545470059,-0.833460569,-0.086906604,-0.088995136,0.051733278
13:49.3,34496.563,-0.103840634,0.0051772,0.029186368,0.575864517,0.104824718,0.008998256,0.087757856,-0.544560075,-0.834118009,-0.141182631,-0.030525967,-0.005163293
13:49.3,34496.573,-0.109311715,0.00204432,-0.000320673,0.574167763,0.104810573,0.008613131,0.087842599,-0.543136179,-0.835036993,-0.179741427,-0.008054749,-0.10123954
13:49.3,34496.583,-0.103748478,0.006016016,-0.017917812,0.57250191,0.105526345,0.007169465,0.088535443,-0.541736722,-0.835872471,-0.119507641,-0.008064603,-0.168778107
13:49.3,34496.593,-0.103598416,0.014649987,-0.066695809,0.571754916,0.106737491,0.005268518,0.089590833,-0.541108668,-0.836166739,0.008141885,0.057438772,-0.157283843
13:49.3,34496.603,-0.083292432,0.018349469,-0.074180841,0.571908205,0.108449659,0.003605619,0.091013379,-0.541237593,-0.835929632,0.04970238,0.093699843,-0.123236939
13:49.3,34496.613,-0.085848242,0.008016407,-0.029429734,0.572304099,0.109655112,0.00225381,0.091997527,-0.541570425,-0.835606277,0.053245604,-0.00562781,-0.096468702
13:49.3,34496.623,0.055011075,0.03456074,0.024633825,0.420668309,0.041263774,-0.00881067,0.037655555,-0.408370584,-0.91203922,0.010972314,0.123637028,0.123360366
13:49.4,34496.633,0.015195839,0.026028693,0.008755088,0.421250829,0.04208337,-0.007659804,0.038393032,-0.408902258,-0.911770225,0.079838201,0.134545863,0.089162439
13:49.4,34496.643,-0.046036929,0.040224731,-0.00600785,0.421875485,0.042780701,-0.006867694,0.039017893,-0.409472227,-0.911487877,0.03363331,0.05575864,0.068407953
13:49.4,34496.653,-0.013286576,0.041432291,-0.000471294,0.422011592,0.042978728,-0.006541506,0.039196,-0.409596384,-0.911424398,-0.017566228,-0.006756932,-0.002496585
13:49.4,34496.663,0.04559736,0.007070482,0.003112137,0.421661461,0.043189293,-0.007186408,0.039394103,-0.409276962,-0.911559403,-0.039403275,-0.018762995,-0.101497568
13:49.4,34496.673,0.040375922,0.002727926,0.005536377,0.421333788,0.043537627,-0.008435685,0.039717462,-0.408977956,-0.911679506,-0.016800759,0.000675683,-0.12344788
13:49.4,34496.683,0.025374647,-0.005068123,0.007918358,0.421151179,0.043837378,-0.009399201,0.039994009,-0.408811301,-0.911742151,-0.026830552,0.008789004,-0.059675131
13:49.4,34496.693,0.014755223,0.005372196,0.015372097,0.420636538,0.04394363,-0.009599688,0.04010012,-0.408341587,-0.911947966,-0.074854009,-0.004175797,0.012348461
13:49.4,34496.703,0.004215859,0.005538166,0.020169079,0.419581624,0.043483203,-0.008857508,0.039698932,-0.407378405,-0.912396193,-0.127118334,-0.041360453,0.117172606
13:49.4,34496.713,0.004737776,-0.011517227,0.020403385,0.418383288,0.042537283,-0.007326274,0.038856592,-0.406283706,-0.912920415,-0.111722872,-0.028944526,0.151138037
13:49.4,34496.723,0.01568212,-0.006964177,0.018209338,0.417554979,0.041665368,-0.005580892,0.038074594,-0.405526727,-0.913289905,-0.047612015,0.018339632,0.14728108
13:49.5,34496.733,0.010580998,0.005806059,0.01026088,0.417386555,0.041416803,-0.004115014,0.03785041,-0.405372769,-0.913367569,0.015971489,0.050290372,0.120587952
13:49.5,34496.743,0.006652512,0.019761741,0.009708464,0.41768028,0.041580214,-0.003022819,0.037994713,-0.405641258,-0.91324234,0.030285403,0.04440026,0.094192408
13:49.5,34496.753,0.011677869,0.027516663,0.010769308,0.417917849,0.04164572,-0.002170311,0.038050521,-0.405858368,-0.913143575,0.008098074,0.020101313,0.072880194
13:49.5,34496.763,0.021193139,0.020180553,0.011923611,0.417938216,0.041569357,-0.001586614,0.037980448,-0.405876994,-0.913138211,-0.020511465,-0.00707012,0.050143454
13:49.5,34496.773,0.022473846,0.00982374,0.012023449,0.417642,0.041297697,-0.001054843,0.037737343,-0.40560627,-0.913268566,-0.042645264,-0.016003961,0.051345073
13:49.5,34496.783,0.015635256,0.002378374,0.011281788,0.417275761,0.041026592,-0.000449628,0.03749584,-0.405271471,-0.913427114,-0.042713881,0.005117037,0.057573516
13:49.5,34496.793,0.004751455,0.004189938,0.010114372,0.417004103,0.040909432,0.000200391,0.037393324,-0.405023098,-0.913541496,-0.040163372,0.017508194,0.056272559
13:49.5,34496.803,-0.004500844,0.009825796,0.008454323,0.416692907,0.040926478,0.000810612,0.037414052,-0.404738545,-0.913666725,-0.044795532,0.015873278,0.05636508
13:49.5,34496.813,-0.002869025,0.009648323,0.008435309,0.416215225,0.040885383,0.001375116,0.037384406,-0.404301703,-0.913861334,-0.05405774,0.012393858,0.051336233
13:49.5,34496.823,0.002896145,0.008569986,0.007737756,0.415603507,0.040843844,0.001908565,0.037356537,-0.403742135,-0.914109826,-0.058194209,0.014290828,0.046490185
13:49.6,34496.833,0.004970632,0.009269625,0.007417917,0.414883969,0.040831663,0.002413311,0.037357248,-0.403083742,-0.91440028,-0.069490805,0.011967487,0.046254762
13:49.6,34496.843,0.002502862,0.006984621,0.007318974,0.414104644,0.040846478,0.002886607,0.037383612,-0.402370423,-0.914713323,-0.079451464,0.010831648,0.043246027
13:49.6,34496.853,0.00131483,0.003558308,0.009557366,0.413278952,0.040862669,0.003286645,0.03741198,-0.401614368,-0.915044367,-0.089473471,0.002923924,0.034217115
13:49.6,34496.863,0.0001489,9.24E-06,0.011177301,0.412436152,0.040854411,0.003641411,0.037418235,-0.400842398,-0.915382564,-0.089187481,0.00872855,0.028139727
13:49.6,34496.873,-0.004034199,-0.004032522,0.012988329,0.411605535,0.040891965,0.003945637,0.037466209,-0.400081277,-0.915713549,-0.083310679,0.019338051,0.020742266
13:49.6,34496.883,-0.008318178,-0.005448759,0.012174606,0.410809612,0.040956974,0.004205067,0.037538767,-0.399351716,-0.916028976,-0.077015333,0.018384639,0.013039711
13:49.6,34496.893,-0.01071899,-0.007133842,0.011125982,0.410020221,0.041098408,0.004365189,0.037681263,-0.398627877,-0.916338325,-0.080095276,0.02487503,0.00877812
13:49.6,34496.903,-0.010674689,-0.00904566,0.01367569,0.409150373,0.041334185,0.004429728,0.037911627,-0.39782998,-0.916675508,-0.096592225,0.021825178,-0.001197815
13:49.6,34496.913,-0.007697631,-0.0112921,0.018019021,0.40806589,0.0415626,0.004384925,0.038138915,-0.396834761,-0.91709739,-0.119580105,0.014770197,-0.012191876
13:49.6,34496.923,-0.00334743,-0.018387675,0.021894932,0.406702872,0.041702853,0.004276945,0.038290054,-0.395583302,-0.917631567,-0.154941291,0.003074659,-0.018052163
13:49.7,34496.933,-0.002040852,-0.022912592,0.031187832,0.405033034,0.041762185,0.004052679,0.038372025,-0.394049108,-0.918287992,-0.190941378,-0.008211551,-0.035817046
13:49.7,34496.943,0.000670236,-0.026749581,0.039750397,0.402967633,0.041763933,0.003627277,0.038407527,-0.392149985,-0.919099152,-0.234751597,-0.023118328,-0.060939226
13:49.7,34496.953,0.000851993,-0.032129437,0.049215317,0.400421611,0.041720217,0.002985699,0.038408868,-0.389806628,-0.920095384,-0.287599891,-0.036793131,-0.085558817
13:49.7,34496.963,0.000180844,-0.039812773,0.056219816,0.397200457,0.04166335,0.002081418,0.038408641,-0.386838257,-0.92134732,-0.363812089,-0.042847294,-0.114357017
13:49.7,34496.973,-0.003858831,-0.058377653,0.057134509,0.393155355,0.041671506,0.000821405,0.038481031,-0.38310492,-0.922902942,-0.456455201,-0.043301895,-0.161588445
13:49.7,34496.983,-0.010273237,-0.077295184,0.061667919,0.388125891,0.041789398,-0.000887282,0.038669843,-0.378454357,-0.92481184,-0.557267487,-0.05192095,-0.202253953
13:49.7,34496.993,-0.014686875,-0.089882851,0.075511336,0.381952649,0.042018233,-0.003014423,0.038978867,-0.372733116,-0.927119553,-0.69222188,-0.055813961,-0.249038234
13:49.7,34497.003,-0.017004155,-0.094612956,0.088512957,0.374170545,0.042411321,-0.005557007,0.039465096,-0.365500599,-0.929974079,-0.878311574,-0.059790593,-0.294311762
13:49.7,34497.013,-0.016789772,-0.115920007,0.102830887,0.364216687,0.04273771,-0.008441654,0.039922092,-0.356217474,-0.933549881,-1.087904215,-0.084361441,-0.328009546
13:49.7,34497.023,-0.015242565,-0.146026194,0.113938093,0.352224308,0.042881377,-0.01168112,0.040236454,-0.344986409,-0.937744856,-1.280336738,-0.111352585,-0.382716507
13:49.8,34497.032,-0.01410142,-0.161887318,0.124943733,0.33833573,0.043075798,-0.015503054,0.040621195,-0.331917644,-0.942433357,-1.475848913,-0.098351561,-0.461793214
13:49.8,34497.042,-0.017946292,-0.190879732,0.135565996,0.322172079,0.043835562,-0.020090208,0.041566905,-0.316627622,-0.94763869,-1.734549165,-0.049405329,-0.545621395
13:49.8,34497.052,-0.024668023,-0.228021324,0.154122233,0.303007116,0.045189249,-0.025384331,0.043115906,-0.29839167,-0.953469157,-2.05827117,-0.018499076,-0.635489523
13:49.8,34497.062,-0.031351142,-0.264613777,0.165387809,0.280794417,0.04663689,-0.031475307,0.044794142,-0.27711904,-0.959790885,-2.319270849,-0.052030671,-0.746817231
13:49.8,34497.072,-0.028757602,-0.294956475,0.166469634,0.256523243,0.047921561,-0.038775508,0.046335731,-0.253719091,-0.96616751,-2.45974946,-0.069462389,-0.891180813
13:49.8,34497.082,-0.012497067,-0.306544363,0.160531282,0.230949417,0.049584686,-0.047294183,0.04824841,-0.228901833,-0.972253084,-2.590766191,0.005212644,-1.008539319
13:49.8,34497.092,0.002292927,-0.290486574,0.183694124,0.203265644,0.052132954,-0.056461564,0.051036544,-0.201868817,-0.978081942,-2.882874012,0.099107452,-1.057011485
13:49.8,34497.102,-0.003882416,-0.284043878,0.227564812,0.171677988,0.055073463,-0.065648397,0.054236427,-0.170835912,-0.983805597,-3.362655878,0.141381666,-1.085672379
13:49.8,34497.112,-0.011173397,-0.304804027,0.254470944,0.134443419,0.05783935,-0.074513605,0.057285462,-0.134038776,-0.989318967,-3.998077393,0.132319987,-1.086186886
13:49.8,34497.122,-0.000957068,-0.33487758,0.281036437,0.090431807,0.059938288,-0.082638904,0.059657633,-0.090308599,-0.994125426,-4.716358185,0.098349251,-1.041669846
13:49.9,34497.132,0.022649553,-0.354421765,0.322587907,0.039188758,0.061191075,-0.089512414,0.061105944,-0.039178729,-0.997362077,-5.442408562,0.064379029,-0.944699883
13:49.9,34497.142,0.045865905,-0.350238651,0.354993463,-0.018925662,0.061881194,-0.094817102,0.061830632,0.018924532,-0.997907221,-6.098009586,0.069023587,-0.830887973
13:49.9,34497.152,0.052970733,-0.313414693,0.374126792,-0.082658534,0.062486998,-0.098632146,0.062233131,0.082564443,-0.994640708,-6.574910641,0.091989353,-0.723710656
13:49.9,34497.162,0.045712098,-0.258198977,0.384583354,-0.150243035,0.063273024,-0.101051175,0.0625185,0.149678439,-0.986756206,-6.876772404,0.116591901,-0.610846698
13:49.9,34497.172,0.033580177,-0.209804431,0.375490725,-0.219622323,0.064415594,-0.102292531,0.062824853,0.217861027,-0.973955631,-6.957058907,0.163719997,-0.524959445
13:49.9,34497.182,0.031476319,-0.154001683,0.344637752,-0.288941066,0.066560061,-0.102737813,0.063753791,0.284937352,-0.95642364,-6.878172398,0.294636995,-0.471500754
13:49.9,34497.192,0.023857631,-0.090550303,0.304956615,-0.356621684,0.070589218,-0.102688043,0.066092938,0.349110484,-0.934747875,-6.643660545,0.521110892,-0.455735385
13:49.9,34497.202,-0.000284538,-0.028728664,0.288114846,-0.421985699,0.076993212,-0.102432027,0.070169799,0.40957278,-0.909574807,-6.417243004,0.737141967,-0.461247593
13:49.9,34497.212,-0.023369506,0.036613554,0.268116474,-0.48496656,0.08529869,-0.102140241,0.075371467,0.466178775,-0.881474018,-6.159226418,0.889913678,-0.511470795
13:49.9,34497.222,-0.032605998,0.080149651,0.234093368,-0.545379447,0.094536389,-0.10216268,0.080701709,0.518742502,-0.851113021,-5.901899815,0.949512541,-0.580747366
13:50.0,34497.232,-0.008220956,0.04298526,0.206756234,-0.603767322,0.103629883,-0.10245081,0.085155778,0.567747772,-0.818786323,-5.754574776,0.893400848,-0.621174932
13:50.0,34497.242,0.050108887,-0.017264247,0.196853995,-0.661414746,0.111824302,-0.102681832,0.088059455,0.614233851,-0.784195304,-5.733415604,0.770238161,-0.663730204
13:50.0,34497.252,0.109767735,-0.016177177,0.179320276,-0.719142762,0.118438819,-0.103192207,0.088901706,0.658739924,-0.747099817,-5.749646664,0.623073757,-0.741984189
13:50.0,34497.262,0.133784488,0.018526435,0.158868194,-0.777186325,0.123587248,-0.104049223,0.087879941,0.701276362,-0.707452178,-5.779847622,0.535307407,-0.774161816
13:50.0,34497.272,0.116514079,0.053324103,0.116805851,-0.835357971,0.128217129,-0.104477599,0.085786954,0.741536736,-0.665405095,-5.766055107,0.460950345,-0.744730711
13:50.0,34497.282,0.072616361,0.086291909,0.08549279,-0.893050621,0.133335487,-0.104011547,0.083358988,0.778988242,-0.621473014,-5.704170227,0.516113698,-0.700690091
13:50.0,34497.292,0.013478033,0.11307168,0.037549257,-0.950097984,0.141162791,-0.101886776,0.081828378,0.813472509,-0.57581836,-5.659415722,0.713517368,-0.595935702
13:50.0,34497.302,-0.049936429,0.132714987,0.014984727,-1.006264749,0.153083354,-0.096280706,0.081583165,0.844839334,-0.528763473,-5.54728651,0.720463395,-0.430905342
13:50.0,34497.312,-0.123461589,0.133418083,0.024212718,-1.060144281,0.167947317,-0.086574163,0.081698291,0.872426033,-0.481869608,-5.233444214,0.57404387,-0.321473658
13:50.0,34497.322,-0.14957124,0.164651513,0.073901653,-1.109378928,0.183819808,-0.074295712,0.081379719,0.895422339,-0.437716961,-4.651206017,0.443852842,-0.277360857
13:50.1,34497.332,-0.105208345,0.275449812,0.101069391,-1.151767571,0.1995578,-0.061366196,0.080656953,0.913484573,-0.398798883,-3.873841763,0.371855617,-0.258641779
13:50.1,34497.342,-0.055742294,0.402205825,0.10046351,-1.185730282,0.213263365,-0.050183159,0.079500228,0.926773608,-0.367110908,-2.961164713,0.321979672,-0.282925397
13:50.1,34497.352,-0.047537498,0.488373876,0.063866287,-1.21096914,0.222822552,-0.043398147,0.077810936,0.93595767,-0.343407273,-2.083575726,0.314212024,-0.331629843
13:50.1,34497.362,-0.072971776,0.518662393,-0.008895248,-1.228314343,0.227004926,-0.042098586,0.075581037,0.941924036,-0.327210069,-1.348120213,0.259636402,-0.341678411
13:50.1,34497.372,-0.102012664,0.506749511,-0.074957699,-1.239753773,0.227846754,-0.043681349,0.073417693,0.945703983,-0.316628635,-0.887663424,0.205078885,-0.274492979
13:50.1,34497.382,-0.10770227,0.465066433,-0.103540421,-1.247193063,0.227312361,-0.046040673,0.071661025,0.948095798,-0.309804946,-0.552102149,0.134565309,-0.213664651
13:50.1,34497.392,-0.089846946,0.377476394,-0.103682399,-1.252187138,0.225953688,-0.048544699,0.070178375,0.949671984,-0.305283666,-0.40574792,0.064717256,-0.16590485
13:50.1,34497.402,-0.075142063,0.258839726,-0.065435529,-1.256254259,0.224539345,-0.050330944,0.068885967,0.950938165,-0.301614672,-0.368735611,-0.009662442,-0.134666398
13:50.1,34497.412,-0.053920664,0.19543004,-0.035505414,-1.26000528,0.221485717,-0.052840172,0.067180559,0.952091932,-0.298341632,-0.321674645,-0.133604363,-0.189144015
13:50.1,34497.422,-0.038088582,0.142445743,-0.030941606,-1.263183295,0.214105532,-0.05828462,0.064333707,0.953059018,-0.295871139,-0.243192345,-0.308788687,-0.272039801
13:50.2,34497.432,-0.010957465,0.076615751,-0.037239045,-1.266131426,0.20246375,-0.066551957,0.060319655,0.953947544,-0.29384616,-0.221640438,-0.435326397,-0.339522719
13:50.2,34497.442,0.022676159,0.037582219,-0.037325472,-1.268024291,0.186221333,-0.078854427,0.055204712,0.954513609,-0.293012053,0.020035161,-0.456026345,-0.453811616
13:50.2,34497.452,0.013675984,0.051866829,-0.040248752,-1.267096429,0.166013794,-0.095696435,0.04941912,0.954236567,-0.294941008,0.322522849,-0.355188698,-0.494441062
13:50.2,34497.462,-0.031797756,0.070478439,-0.047391325,-1.263256638,0.145476489,-0.114144311,0.043882735,0.95308125,-0.299517304,0.629153967,-0.248893678,-0.485330403
13:50.2,34497.472,-0.047230106,0.095197558,-0.009567261,-1.255537506,0.124496473,-0.133752378,0.038502082,0.950716138,-0.307662994,1.068160057,-0.221802667,-0.494428277
13:50.2,34497.482,-0.029941004,0.055391073,0.010165066,-1.243778662,0.103799589,-0.153292017,0.033282679,0.947004557,-0.319491237,1.392858624,-0.206898555,-0.463603705
