Date,TimeStamp,UserAccelerationX,UserAccelerationY,UserAccelerationZ,AttitudePitch,AttitudeRoll,AttitudeYaw,GravityX,GravityY,GravityZ,RotationRateX,RotationRateY,RotationRateZ
2024-11-02 11:38:18.769,1730518288.109947,0.0425973646342754,-0.0517120361328125,0.0426824390888214,-1.0667294265548817,0.1171701640963619,-0.2262447510337001,0.056462675333023,0.8756255507469177,-0.4796788692474365,0.68031907081604,-0.3764265775680542,-0.3002389073371887
2024-11-02 11:38:18.779,1730518288.11978,0.0319055318832397,-0.0570267438888549,0.0426337718963623,-1.0603001027091623,0.1068198801251357,-0.2338467607250401,0.0520940907299518,0.8725021481513977,-0.4858253002166748,0.7171849012374878,-0.3654463589191437,-0.2912498116493225
2024-11-02 11:38:18.789,1730518288.129889,0.0183651708066463,-0.0305272936820983,0.0643280148506164,-1.0520640949055402,0.0969595692242031,-0.2412072437514411,0.0479952916502952,0.8684484362602234,-0.4934509694576263,1.0275427103042605,-0.3262792527675628,-0.2639486789703369
2024-11-02 11:38:18.813,1730518288.153249,0.0042543001472949,-0.0079441666603088,0.0678196549415588,-1.0400636339378078,0.0880246591426816,-0.2482092326293383,0.0444975346326828,0.8624364137649536,-0.5042058229446411,1.4342641830444336,-0.2446978390216827,-0.214468851685524
2024-11-02 11:38:18.816,1730518288.156485,0.0004150196909904,0.0367879271507263,0.0340015888214111,-1.0242807801894758,0.080615924280266,-0.2544546140311457,0.0418518185615539,0.8543406128883362,-0.5180256366729736,1.745340347290039,-0.1641707718372345,-0.157301977276802
2024-11-02 11:38:18.822,1730518288.162364,0.0090707056224346,0.1448752880096435,0.0179840326309204,-1.0064662013986585,0.0749173585198367,-0.2596141390738557,0.0400320701301097,0.844947099685669,-0.5333496332168579,1.823246955871582,-0.1047407388687133,-0.1147254854440689
2024-11-02 11:38:18.829,1730518288.1694589,0.0229297056794166,0.208575963973999,0.0304377079010009,-0.9888598364586224,0.0705521690578482,-0.2637528121183204,0.0387463197112083,0.835399866104126,-0.5482752919197083,1.7156305313110352,-0.0774928703904151,-0.0775797143578529
2024-11-02 11:38:18.839,1730518288.179397,0.0276157036423683,0.1445122957229614,0.058197021484375,-0.9729357813717376,0.0673393006882097,-0.266649963000442,0.0378749966621398,0.8265417814254761,-0.5615996718406677,1.4863399267196655,-0.0884981155395507,-0.0199180226773023
2024-11-02 11:38:18.850,1730518288.190541,0.0230311378836631,-0.0076428651809692,0.0918279886245727,-0.9590253658797132,0.0649959837582521,-0.2680750394027461,0.03730209171772,0.818632185459137,-0.5731053948402405,1.3222076892852783,-0.1533210575580597,0.0301446132361888
2024-11-02 11:38:18.859,1730518288.199338,0.0261029936373233,-0.1216084957122802,0.1340529322624206,-0.9462517181068798,0.0623385766141466,-0.2691944263081491,0.0364275015890598,0.8112294673919678,-0.5835921168327332,1.2515722513198853,-0.1922972202301025,-0.0071858209557831
2024-11-02 11:38:18.869,1730518288.209402,0.0238307155668735,-0.1179475784301757,0.1522923707962036,-0.933731828009083,0.0589369704801147,-0.2711332603422645,0.0350376702845096,0.8038453459739685,-0.5938054323196411,1.2823660373687744,-0.1684033274650573,-0.0678707435727119
2024-11-02 11:38:18.879,1730518288.219201,-0.0038298703730106,-0.0343416929244995,0.1299383044242859,-0.9202032771087272,0.0553535294800912,-0.2737280192232132,0.0335082150995731,0.7957247495651245,-0.6047307848930359,1.456701636314392,-0.138092041015625,-0.0869261920452117
2024-11-02 11:38:18.889,1730518288.229587,-0.0462104380130767,0.0170713663101196,0.0686944723129272,-0.8994625513157838,0.0579601605941904,-0.2720473049955436,0.0360328294336795,0.7829927206039429,-0.6209863424301147,2.186224460601806,0.3548343181610107,0.0997611358761787
2024-11-02 11:38:18.900,1730518288.24102,-0.0296662002801895,0.0328006744384765,-0.0883753299713134,-0.8804366889417904,0.0571113013914476,-0.2747308748431306,0.0363495387136936,0.7710170149803162,-0.6357762813568115,1.6678014993667605,-0.0847723558545112,-0.0330498032271862
2024-11-02 11:38:18.909,1730518288.249685,0.0715693682432174,0.0142296552658081,-0.2839926481246948,-0.8651953986960647,0.0554320253064769,-0.2752780739196788,0.0359287858009338,0.7612220048904419,-0.6474953293800354,1.4155453443527222,-0.1513380706310272,0.1359365582466125
2024-11-02 11:38:18.920,1730518288.260345,0.0628541111946106,0.2107818722724914,-0.0868111848831176,-0.8509550689386082,0.0560589103208049,-0.2739414983277701,0.0369383431971073,0.751910388469696,-0.6582297086715698,1.470914363861084,0.1097412034869194,0.184873417019844
2024-11-02 11:38:18.929,1730518288.2695289,-0.0181627012789249,0.262985348701477,-0.0328012108802795,-0.8356000764070615,0.0591217479467948,-0.2726764330254118,0.0396317951381206,0.7416991591453552,-0.6695608496665955,1.5669723749160769,0.296201080083847,0.1498661786317825
2024-11-02 11:38:18.939,1730518288.279676,-0.1084479093551635,0.1200992465019226,0.029127299785614,-0.8205325635661141,0.0622819755164479,-0.2723400188218783,0.0424383766949176,0.7315090298652649,-0.6805097460746765,1.4316226243972778,0.2706858813762665,0.0728795081377029
2024-11-02 11:38:18.953,1730518288.293092,-0.0451590605080127,0.1067086458206176,0.0465438961982727,-0.8072345319270549,0.063649919058292,-0.273343948676655,0.0439841300249099,0.722377598285675,-0.6900985240936279,1.2271325588226318,0.1509709358215332,-0.042084626853466
2024-11-02 11:38:18.959,1730518288.299681,0.0370434783399105,0.035219132900238,0.0193597674369812,-0.7965507075602083,0.0632074493513556,-0.2754389276630082,0.0441637709736824,0.7149486541748047,-0.6977807879447937,0.9206106066703796,0.0800624042749404,-0.1020368039608001
2024-11-02 11:38:18.971,1730518288.311084,0.0476252846419811,-0.103188931941986,-0.0234996080398559,-0.7890222930684248,0.0623679120137101,-0.2776912939375511,0.0439121760427951,0.7096647620201111,-0.7031697034835815,0.608182966709137,0.0782338753342628,-0.1211889237165451
2024-11-02 11:38:18.979,1730518288.319892,0.0186483152210712,-0.1524154543876648,-0.0253873467445373,-0.7848318063562145,0.0616097211478312,-0.2798873281643699,0.0435617454349994,0.706706166267395,-0.7061647772789001,0.2427743226289749,0.0801814496517181,-0.1392853260040283
2024-11-02 11:38:18.989,1730518288.329278,-0.0070384070277214,-0.1416428685188293,-0.0214394330978393,-0.7846379017702585,0.0606343920527932,-0.282208930599986,0.0428812876343727,0.7065690159797668,-0.7063437700271606,-0.1808235496282577,0.0482906214892864,-0.1953057199716568
2024-11-02 11:38:19.002,1730518288.342537,-0.0003157779574394,-0.1301958560943603,-0.0341385006904602,-0.788652540937288,0.0585677797347906,-0.285305453576492,0.0412550866603851,0.7094042301177979,-0.7035934329032898,-0.5884425640106201,-0.0281452946364879,-0.2872640192508697
2024-11-02 11:38:19.009,1730518288.349844,0.01955571398139,-0.1777893900871276,-0.0564149618148803,-0.7964792834130978,0.0548101412032717,-0.2893818081395176,0.0383055992424488,0.7148987650871277,-0.6981779336929321,-0.9358282089233398,-0.1422383040189743,-0.3738625645637512
2024-11-02 11:38:19.019,1730518288.359802,0.0415124744176864,-0.2504844069480896,-0.0669960379600524,-0.8072346499172567,0.0495907749489042,-0.2943253258606475,0.0342779010534286,0.7223777174949646,-0.69064861536026,-1.161872148513794,-0.1833878755569458,-0.4160363376140594
2024-11-02 11:38:19.029,1730518288.3696032,0.041931040585041,-0.207687497138977,-0.085019826889038,-0.8195222497985947,0.0442549362814033,-0.2993051720926041,0.0301972534507513,0.730819821357727,-0.6819021701812744,-1.251605749130249,-0.1460090726613998,-0.3797885775566101
2024-11-02 11:38:19.039,1730518288.379591,0.012629060074687,-0.0564660429954528,-0.0778727531433105,-0.8321615321946901,0.0401100371648328,-0.3036264836851882,0.0269980076700449,0.7393884062767029,-0.6727375388145447,-1.2425793409347534,-0.0510109327733516,-0.3096845149993896
2024-11-02 11:38:19.052,1730518288.392387,-0.0182416327297687,0.0943303704261779,-0.0306426286697387,-0.8444697034177969,0.0374242488059901,-0.3070568672901537,0.0248486809432506,0.7476190328598022,-0.6636627316474915,-1.194489598274231,0.0169039368629455,-0.2450168579816818
2024-11-02 11:38:19.059,1730518288.399688,-0.0349819436669349,0.1334795355796814,-0.0058892965316772,-0.855947468757608,0.0354731921982253,-0.3100068248645693,0.0232479181140661,0.7551923394203186,-0.6550909280776978,-1.077604055404663,0.0233064442873001,-0.2357513010501861
2024-11-02 11:38:19.069,1730518288.409596,-0.0319014191627502,0.0587837696075439,0.0026125907897949,-0.8662572985864561,0.0331463578191285,-0.3129970977742773,0.0214643906801939,0.7619102001190186,-0.6473268866539001,-0.9853211045265198,-0.0336865372955799,-0.2234360575675964
2024-11-02 11:38:19.079,1730518288.4193292,-0.0117459315806627,-0.0264225602149963,0.0018872022628784,-0.8757358426071961,0.0306156573932467,-0.315585729577038,0.0196041818708181,0.7680149674415588,-0.6401318311691284,-0.8912986516952515,-0.0801333934068679,-0.1686113625764846
2024-11-02 11:38:19.089,1730518288.4294682,0.0093776024878025,-0.004516065120697,0.0134303569793701,-0.8837641770249726,0.0283787240409582,-0.3174148928016767,0.017996659502387,0.773131787776947,-0.6339899897575378,-0.6990320086479187,-0.0812745615839958,-0.1178344637155532
2024-11-02 11:38:19.099,1730518288.43953,0.0098931994289159,0.054663062095642,0.0213592052459716,-0.8896225116262582,0.0265764678667033,-0.318754682651447,0.0167333725839853,0.7768340706825256,-0.6294829249382019,-0.4658399224281311,-0.0672807097434997,-0.0830167755484581
2024-11-02 11:38:19.109,1730518288.4493809,-0.0004270803183317,0.0771690011024475,0.0357280969619751,-0.8931693662646399,0.0252168665685339,-0.3197806372241412,0.0158079396933317,0.7790626883506775,-0.6267467141151428,-0.2397689670324325,-0.0385225713253021,-0.061490710824728
2024-11-02 11:38:19.120,1730518288.460078,-0.0040799202397465,0.0854036211967468,0.0604927539825439,-0.8945172881241078,0.0244152289398151,-0.3204814969085046,0.0152798611670732,0.7799070477485657,-0.625708818435669,-0.0494768731296062,-0.0119961537420749,-0.0324832424521446
2024-11-02 11:38:19.129,1730518288.4692822,-0.0055538304150104,0.059843897819519,0.0647890567779541,-0.8947631291677521,0.0242908318672561,-0.3207555054835337,0.0151973674073815,0.780060887336731,-0.6255190968513489,-0.0201799664646387,0.0301901828497648,-0.0031818114221096
2024-11-02 11:38:19.139,1730518288.47942,-0.0120266787707805,0.0268861651420593,0.0472306013107299,-0.8953710078047125,0.0249245876283916,-0.3204804488662163,0.015581970103085,0.7804411053657532,-0.6250351071357727,-0.1038098037242889,0.0454234629869461,0.0314909480512142
2024-11-02 11:38:19.149,1730518288.489776,-0.016241505742073,-0.0109871625900268,0.0121722221374511,-0.8967893983892038,0.0259036021560116,-0.3196074417988481,0.016165193170309,0.7813271284103394,-0.6239123344421387,-0.1763367354869842,0.0089259063825011,0.068205289542675
2024-11-02 11:38:19.159,1730518288.4992828,-0.0133637189865112,-0.0715689063072204,-0.0308260321617126,-0.8987791508393651,0.0268363232646074,-0.3182966406708021,0.016705373302102,0.7825674414634705,-0.6223416924476624,-0.2221027463674545,-0.0201502200216054,0.081192672252655
2024-11-02 11:38:19.169,1730518288.509417,0.0022262297570705,-0.0466460585594177,-0.0229469537734985,-0.901053346728727,0.0276829369840504,-0.3169330002596084,0.017182944342494,0.7839812636375427,-0.6205466985702515,-0.2288575768470764,-0.0232983417809009,0.0789734572172164
2024-11-02 11:38:19.179,1730518288.519158,0.0041892174631357,0.0233781933784484,-0.0012915730476379,-0.9030195494211536,0.0283275929186876,-0.3156536227056317,0.0175392869859933,0.785200297832489,-0.6189934611320496,-0.1486551314592361,-0.0553462915122509,0.069714069366455
2024-11-02 11:38:19.189,1730518288.52925,-0.0016861055046319,0.0183519124984741,0.0058644413948059,-0.9037196391787028,0.0283291999683572,-0.3146704124970995,0.0175247061997652,0.7856336236000061,-0.6184437870979309,-0.0025597109925001,-0.0961421877145767,0.0464468337595462
2024-11-02 11:38:19.199,1730518288.539652,0.0098554696887731,0.0061761140823364,0.0234066247940063,-0.9031761104501136,0.0277329958787395,-0.314303902730727,0.0171678215265274,0.7852972745895386,-0.6188808083534241,0.1085971221327781,-0.0722251385450363,0.0044129379093647
2024-11-02 11:38:19.209,1730518288.54931,0.019077431410551,0.0718671679496765,0.0444685220718383,-0.901744791969294,0.0270830230948482,-0.3145545836952427,0.0167959816753864,0.784410297870636,-0.6200147867202759,0.1682873517274856,-0.0235787723213434,-0.0263465717434883
2024-11-02 11:38:19.219,1730518288.559544,0.0041250232607126,0.0873446464538574,0.0493075847625732,-0.9000409855582756,0.0265071471515619,-0.3151846288342084,0.0164743270725011,0.7833523750305176,-0.6213595271110535,0.1746303290128708,-0.0020673566032201,-0.0391860455274581
2024-11-02 11:38:19.229,1730518288.569087,-0.0071578957140445,0.0136274695396423,0.0237292647361755,-0.8985970986654108,0.0259059508832246,-0.3159670649737298,0.0161300487816333,0.7824540734291077,-0.622499406337738,0.1126380637288093,0.0033513773232698,-0.0524624362587928
2024-11-02 11:38:19.239,1730518288.579188,0.0004148408770561,-0.0298174023628234,0.0133576393127441,-0.8976714472012929,0.02508536472025,-0.3170500182723884,0.0156373865902423,0.781877338886261,-0.6232361793518066,0.0254133976995944,0.0082883452996611,-0.0668625757098198
2024-11-02 11:38:19.249,1730518288.5894608,0.0034507326781749,-0.0347791910171508,0.0041467547416687,-0.8977003995260925,0.0242548244532778,-0.3181087208960715,0.0151192108169198,0.7818953990936279,-0.6232263445854187,-0.0598975047469139,-0.0148555906489491,-0.065619945526123
2024-11-02 11:38:19.259,1730518288.599105,0.0004213498905301,-0.0520893931388855,-0.0179143548011779,-0.8986906710983118,0.0232684822976892,-0.3190357777640302,0.0144864656031131,0.782512366771698,-0.622466504573822,-0.1165738999843597,-0.0401894450187683,-0.0527348220348358
2024-11-02 11:38:19.269,1730518288.609594,0.0014747660607099,-0.0340869426727294,-0.0272296071052551,-0.8996762545355415,0.0221183643497744,-0.3197321686370717,0.0137534821406006,0.783125638961792,-0.6217114329338074,-0.0549912266433239,-0.0773277506232261,-0.0393377915024757
2024-11-02 11:38:19.279,1730518288.61905,0.0040510017424821,0.0085096955299377,-0.008016288280487,-0.8996366727627725,0.0208205863589218,-0.3203229103234734,0.0129472725093364,0.7831010222434998,-0.6217597126960754,0.0827945247292518,-0.0902997478842735,-0.0448675788938999
2024-11-02 11:38:19.289,1730518288.6290889,0.0062452480196952,0.0509425997734069,0.0289223790168762,-0.8985116188345278,0.0194726791537245,-0.3210466298823044,0.0121263340115547,0.7824008464813232,-0.622657060623169,0.1978268325328827,-0.0744776353240013,-0.0514812730252742
2024-11-02 11:38:19.299,1730518288.6392632,0.0046190582215785,0.083556592464447,0.0471152067184448,-0.8963977961572718,0.0181642230322474,-0.3219077232794058,0.0113416193053126,0.7810826897621155,-0.62432461977005,0.277443915605545,-0.0548192523419857,-0.0521610714495182
2024-11-02 11:38:19.308,1730518288.649004,0.0002127438783645,0.0584259629249572,0.0473740696907043,-0.8935184881772543,0.0170951282845488,-0.3227370540776614,0.0107125509530305,0.779281497001648,-0.6265824437141418,0.3190089464187622,-0.0306012611836195,-0.0417571663856506
2024-11-02 11:38:19.319,1730518288.659788,-0.0031676990911364,0.0068188905715942,0.0351657271385192,-0.8903139878381158,0.0163855273969449,-0.3234047150003056,0.010308789089322,0.7772693634033203,-0.6290835738182068,0.3121518492698669,-0.0112821608781814,-0.0345796272158622
2024-11-02 11:38:19.328,1730518288.668995,-0.0065165143460035,-0.0124362707138061,0.0261985659599304,-0.8875998102431069,0.0160278689832698,-0.323920550354934,0.0101175643503665,0.7755588293075562,-0.6311942338943481,0.2145898789167404,0.0141805885359644,-0.0317955575883388
2024-11-02 11:38:19.338,1730518288.678976,-0.0073828883469104,0.0004553198814392,0.0167659521102905,-0.885912821558867,0.0157964053059422,-0.3243636858876977,0.0099921179935336,0.7744927406311035,-0.6325038075447083,0.0937751531600952,0.0005776949692517,-0.0257552433758974
2024-11-02 11:38:19.349,1730518288.689302,-0.0071853911504149,-0.0143110156059265,-0.0124005079269409,-0.8854722178482998,0.0154999366874072,-0.3246698388929221,0.0098098888993263,0.774213969707489,-0.6328479051589966,-0.0271315556019544,-0.0153975440189242,-0.0139854038134217
2024-11-02 11:38:19.358,1730518288.698956,-0.0037892265245318,-0.0439358353614807,-0.0313637852668762,-0.8862800291558668,0.0151636116349389,-0.3248416988471883,0.0095875579863786,0.7747249603271484,-0.6322256326675415,-0.1173295751214027,-0.0306345503777265,-0.0119923474267125
2024-11-02 11:38:19.369,1730518288.7098851,-0.0006847670301795,-0.0505789518356323,-0.0232883095741271,-0.8877380635117649,0.0146720422492357,-0.3249023739826551,0.0092601915821433,0.7756460905075073,-0.6311001181602478,-0.1224098205566406,-0.0618324242532253,-0.0064516407437622
2024-11-02 11:38:19.378,1730518288.718748,0.0033692633733153,-0.0520164370536804,-0.0108399391174316,-0.8891464239770923,0.0139300870507455,-0.3249906421778515,0.0087767159566283,0.7765341997146606,-0.6300138831138611,-0.0725586414337158,-0.0748289078474044,-0.0124284671619534
2024-11-02 11:38:19.388,1730518288.72903,0.0063217710703611,-0.0115046501159667,0.0055963397026062,-0.8898011159896125,0.0130567035774257,-0.3252524291237523,0.0082198316231369,0.7769465446472168,-0.6295129656791687,0.0184679366648197,-0.0618926100432872,-0.0247192215174436
2024-11-02 11:38:19.399,1730518288.739298,0.0042280983179807,0.0562003254890441,0.0231240391731262,-0.8891684059812242,0.0121070628974323,-0.3257293432615935,0.0076279654167592,0.7765480875968933,-0.630011796951294,0.1342902034521103,-0.0568680204451084,-0.035936776548624
2024-11-02 11:38:19.409,1730518288.749084,0.0002592029049992,0.0654071569442749,0.0343043804168701,-0.8872966539072492,0.0109944060449889,-0.3264679575904016,0.006942942738533,0.7753673791885376,-0.6314723491668701,0.2500112056732178,-0.0501230359077453,-0.0505820289254188
2024-11-02 11:38:19.419,1730518288.759428,0.0031271707266569,0.0456387400627136,0.0381068587303161,-0.8845838265743157,0.0098030076307763,-0.3274015423093469,0.0062111993320286,0.7736513614654541,-0.6335811018943787,0.2967890501022339,-0.0421423390507698,-0.0584640838205814
2024-11-02 11:38:19.428,1730518288.768938,0.0046846042387187,0.0440040230751037,0.0372354984283447,-0.8815342771866387,0.0085653636091493,-0.3284842855351663,0.0054472303017973,0.771715521812439,-0.6359446048736572,0.297744870185852,-0.0380511917173862,-0.0653145313262939
2024-11-02 11:38:19.438,1730518288.7789369,0.0011971811763942,0.0342620611190795,0.0244157314300537,-0.8785752949945088,0.0074242552071903,-0.329459519072843,0.0047384770587086,0.7698303461074829,-0.6382310390472412,0.2577576637268066,-0.0440757945179939,-0.0529770664870739
2024-11-02 11:38:19.449,1730518288.7891278,-0.0022706626914441,-0.002810001373291,0.011228322982788,-0.8761058149631658,0.0064074604310771,-0.3300522111426342,0.0041016931645572,0.7682518362998962,-0.6401346325874329,0.1924068629741668,-0.0648971796035766,-0.018446784466505
2024-11-02 11:38:19.458,1730518288.798736,-0.0009478204883635,-0.0210394859313964,0.0030276775360107,-0.874407748955557,0.0059021764395969,-0.3302481154672538,0.003785936627537,0.7671637535095215,-0.6414400935173035,0.1352011412382125,-0.0151557279750704,-0.0121100591495633
2024-11-02 11:38:19.469,1730518288.809503,-0.0092147272080183,0.0168488025665283,-0.0156678557395935,-0.8729806169818712,0.0056731924809563,-0.3303208282875794,0.0036452652420848,0.7662475109100342,-0.6425352692604065,0.166213110089302,-0.0303048510104417,-0.0076756291091442
2024-11-02 11:38:19.478,1730518288.81872,-0.0132322870194911,0.0060557723045349,0.0031714439392089,-0.8717545254127369,0.005150213762758,-0.3304429372289663,0.0033140680752694,0.7654591202735901,-0.6434759497642517,0.1536659151315689,-0.0564901195466518,-0.0127170467749238
2024-11-02 11:38:19.488,1730518288.828799,0.0050199152901768,-0.0358113646507263,0.0132808685302734,-0.8708493271077791,0.0044772317549671,-0.3306863484335141,0.0028841209132224,0.7648763060569763,-0.6441707611083984,0.1104254946112632,-0.04520870372653,-0.0171685200184583
2024-11-02 11:38:19.498,1730518288.839034,0.0070426757447421,0.0123178362846374,0.0096988081932067,-0.8703472821437143,0.0039640835149457,-0.3308380631887052,0.0025550869759172,0.7645528316497803,-0.6445559859275818,0.0604274645447731,-0.037857312709093,-0.0109995743259787
2024-11-02 11:38:19.508,1730518288.848695,-0.0031090741977095,0.0061267614364624,0.0038062930107116,-0.8704121706175546,0.0034744486682092,-0.3310274999805865,0.0022393174003809,0.7645946741104126,-0.6445075869560242,-0.0085907513275742,-0.0357914976775646,-0.0196375362575054
2024-11-02 11:38:19.519,1730518288.859525,-0.003582939505577,-0.0294839739799499,-0.0099765062332153,-0.8711176263467572,0.0028151970988267,-0.3313197911432187,0.0018129055388271,0.765049159526825,-0.6439694166183472,-0.084657222032547,-0.0531321391463279,-0.0221027713268995
2024-11-02 11:38:19.528,1730518288.8686051,0.0017431611195206,-0.0331612825393676,-0.0109443664550781,-0.8721844174030241,0.0019634824763711,-0.3316930041947014,0.0012628233525902,0.7657356858253479,-0.6431540846824646,-0.1084469780325889,-0.0602278672158718,-0.0241659227758646
2024-11-02 11:38:19.538,1730518288.878617,0.0040400899015367,-0.025250494480133,-0.0142309069633483,-0.8735273900816714,0.0013598991952191,-0.3319504442789259,0.0008732270216569,0.7665987610816956,-0.6421259045600891,-0.1606333255767822,-0.0295676905661821,-0.0125809591263532
2024-11-02 11:38:19.548,1730518288.8884768,-0.0022836322896182,0.002402126789093,-0.009619653224945,-0.8752343475528812,0.0008728921243259,-0.3319893008022206,0.0005593640380539,0.7676936984062195,-0.6408167481422424,-0.2051904052495956,-0.0426382198929786,0.013177934102714
2024-11-02 11:38:19.558,1730518288.898612,-0.0063392911106348,-0.011368989944458,0.0069897770881652,-0.8776070116963032,0.0006554971283238,-0.3315550278679746,0.0004188584571238,0.769212007522583,-0.638993501663208,-0.2806233167648315,-0.0493360683321952,0.0584818199276924
2024-11-02 11:38:19.569,1730518288.9096131,-0.0050226454623043,-0.0466628670692443,-0.0194655656814575,-0.8805738446805277,0.0013220053862104,-0.3301374230019985,0.0008417320204898,0.7711043953895569,-0.6367080807685852,-0.3382730484008789,-0.0431114621460437,0.1170985251665115
2024-11-02 11:38:19.578,1730518288.9185948,-0.0096550080925226,-0.0088769197463989,-0.016584575176239,-0.8838554208334853,0.0028572373392201,-0.3279578144825854,0.0018119855085387,0.7731896042823792,-0.6341722011566162,-0.2574892044067383,-0.001697443658486,0.1334094852209091
2024-11-02 11:38:19.588,1730518288.928504,-0.0175697170197963,-6.014108657836914e-05,-0.0018162727355957,-0.885787010156989,0.0042072882455438,-0.3261248519838026,0.0026618603151291,0.7744131684303284,-0.6326746940612793,-0.1477773785591125,-0.0140326740220189,0.1083621829748153
2024-11-02 11:38:19.598,1730518288.938981,-0.0103943729773163,0.010250449180603,0.0221279859542846,-0.8860350889472759,0.0051918643504635,-0.3244731349335347,0.003283777507022,0.774570107460022,-0.6324795484542847,-0.0323915295302867,-0.022283412516117,0.1101198717951774
2024-11-02 11:38:19.608,1730518288.948533,0.0076533313840627,0.0860223174095153,0.0318102836608886,-0.8858231804359232,0.0061124793032117,-0.3230650027776761,0.0038670492358505,0.7744360566139221,-0.6326403617858887,0.0377265699207782,-0.0161131341010332,0.0687308833003044
2024-11-02 11:38:19.619,1730518288.959553,0.0095680188387632,0.0997340083122253,0.0370911955833435,-0.8853262172509201,0.0066033518885135,-0.3222500943462559,0.004180135205388,0.7741215229034424,-0.6330231428146362,0.0048447540029883,-0.0177440531551837,0.0414312519133091
2024-11-02 11:38:19.628,1730518288.968443,-0.0003533633425831,-0.0200663805007934,0.0287949442863464,-0.8854766171845778,0.0068747599840548,-0.3215461215356733,0.0043511427938938,0.7742167115211487,-0.6329056024551392,-0.0306471940129995,-0.0272789690643548,0.049512080848217
2024-11-02 11:38:19.638,1730518288.97839,0.0044651902280747,-0.0700433254241943,-0.0025572180747985,-0.8861591229711651,0.0070786336555101,-0.321079743309213,0.0044764345511794,0.7746485471725464,-0.6323762536048889,-0.0862392857670784,-0.0002968871267512,0.0139952041208744
2024-11-02 11:38:19.648,1730518288.988373,0.0054746796377003,-0.0377911329269409,0.0161892175674438,-0.8870116600940701,0.0075170240110385,-0.3211129756017127,0.004748695064336,0.7751873731613159,-0.6317135095596313,-0.0919328555464744,0.0920687317848205,-0.0123495841398835
2024-11-02 11:38:19.658,1730518288.998355,-0.0138831548392772,-0.0554652214050293,0.0207830667495727,-0.8874776489792248,0.0083100751632307,-0.3214281856315437,0.005246671847999,0.7754817008972168,-0.631348192691803,-0.0266783777624368,0.1253955215215683,-0.0226655509322881
2024-11-02 11:38:19.669,1730518289.00976,-0.0212586931884288,-0.0843179821968078,0.0295433402061462,-0.8875475932515304,0.0092380617291409,-0.321736921542037,0.0058320513926446,0.7755258083343506,-0.6312888264656067,0.0141295054927468,0.1091451868414878,-0.0024822524283081
2024-11-02 11:38:19.678,1730518289.01833,-0.0124586904421448,-0.054432988166809,0.0369592308998107,-0.8870270269815692,0.0103260013573247,-0.3215921626204915,0.0065230191685259,0.7751970887184143,-0.6316856741905212,0.1143107339739799,0.09488395601511,0.0260711498558521
2024-11-02 11:38:19.688,1730518289.028325,-0.0022597042843699,0.0302690267562866,0.0296725034713745,-0.885626597438659,0.0117454937305002,-0.3211980256237792,0.0074324300512671,0.7743116617202759,-0.6327608227729797,0.1949840039014816,0.1269681304693222,0.0224513802677392
2024-11-02 11:38:19.698,1730518289.0382562,-0.0052167894318699,0.0730562806129455,0.033227264881134,-0.8836973283878227,0.01337294652757,-0.3207106312716921,0.0084821693599224,0.7730893492698669,-0.634240448474884,0.2101630270481109,0.1192300468683242,0.0433378592133522
2024-11-02 11:38:19.708,1730518289.0484262,-0.0112907150760293,0.0515282750129699,0.0361605882644653,-0.8821317180811831,0.0151018961879693,-0.3199283495124423,0.0095969922840595,0.7720953822135925,-0.6354342699050903,0.1033907681703567,0.1099191009998321,0.0603362843394279
2024-11-02 11:38:19.719,1730518289.059706,-0.0057804575189948,0.0272336602210998,-0.0049657225608825,-0.88165579009661,0.0170822452833033,-0.3190014641434258,0.0108616286888718,0.7717928290367126,-0.6357813477516174,-0.0229551866650581,0.1415992677211761,0.0622595660388469
2024-11-02 11:38:19.728,1730518289.0682411,-0.0063320891931653,0.0226383209228515,-0.0276001095771789,-0.8821638747081844,0.0192818151828592,-0.3180623221964773,0.0122524853795766,0.7721157670021057,-0.6353638172149658,-0.0804107561707496,0.1461492776870727,0.0568935647606849
2024-11-02 11:38:19.738,1730518289.078208,-0.0117426598444581,-0.0455850362777709,-0.0203737020492553,-0.8832230021349362,0.0214129243959439,-0.3171068045532574,0.0135889677330851,0.772788405418396,-0.6345182061195374,-0.1392577588558197,0.1399161517620086,0.0635413974523544
2024-11-02 11:38:19.748,1730518289.088174,-0.0051469858735799,-0.0822581052780151,-0.0148364305496215,-0.8848451955069927,0.0234732810183668,-0.3161790726865171,0.0148668298497796,0.7738169431686401,-0.6332347989082336,-0.1963474154472351,0.1394825875759124,0.0567420832812786
2024-11-02 11:38:19.758,1730518289.0981932,-0.0009637251496315,-0.0142664313316345,-0.0128272771835327,-0.8867046154223341,0.0254310532701599,-0.315320281837483,0.0160699151456356,0.774993360042572,-0.6317650079727173,-0.1670430600643158,0.1172617003321647,0.0516997054219245
2024-11-02 11:38:19.770,1730518289.110136,-0.0038082394748926,0.032209575176239,-0.0176069736480712,-0.8879404567108252,0.0267860540912594,-0.3147107406495195,0.0169002767652273,0.775773823261261,-0.6307847499847412,-0.0609882585704326,0.0578612238168716,0.0226334333419799
2024-11-02 11:38:19.778,1730518289.118188,0.0067003797739744,0.0294684767723083,0.0040857195854187,-0.8880769189167578,0.0271608672382943,-0.3147307099314628,0.0171338282525539,0.7758598923683167,-0.6306726336479187,0.070449560880661,0.0223743375390768,-0.0225965213030576
2024-11-02 11:38:19.788,1730518289.128059,0.0182127263396978,0.0587798357009887,0.0307764410972595,-0.8868455488963994,0.0265769470565356,-0.3155066983387602,0.0167909376323223,0.7750824093818665,-0.6316370368003845,0.2027314454317093,-0.0172300636768341,-0.0595777109265327
2024-11-02 11:38:19.798,1730518289.138082,0.0197714250534772,0.0792356729507446,0.0425694584846496,-0.8841792064294083,0.0250661002109186,-0.316889448157107,0.0158883538097143,0.7733949422836304,-0.6337254643440247,0.338426411151886,-0.0653160959482193,-0.0965384989976883
2024-11-02 11:38:19.808,1730518289.148315,0.0206010863184928,0.0633100271224975,0.037198007106781,-0.8804496728720557,0.0227626479567642,-0.3188779355203428,0.0144941043108701,0.7710253000259399,-0.6366395354270935,0.4033569693565368,-0.0829797834157943,-0.1348914802074432
2024-11-02 11:38:19.819,1730518289.159776,0.0191615633666515,0.0679109096527099,0.0288318395614624,-0.8760637579024172,0.0199090711167115,-0.3214221442651542,0.0127445477992296,0.7682249546051025,-0.6400531530380249,0.4704588055610657,-0.1011305525898933,-0.163006842136383
2024-11-02 11:38:19.828,1730518289.168226,0.0138654876500368,0.0648242235183715,0.0208748579025268,-0.8707485737768421,0.0165635345936185,-0.3242571561430365,0.0106706395745277,0.7648113965988159,-0.6441658735275269,0.5679616332054138,-0.1335864961147308,-0.1810439079999923
2024-11-02 11:38:19.838,1730518289.178217,0.0111886439844965,0.0200936794281005,0.0220623612403869,-0.8647178009088844,0.0127871958859915,-0.3273812201587804,0.0082968091592192,0.7609121799468994,-0.648801863193512,0.6529598236083984,-0.141194611787796,-0.2065127193927765
2024-11-02 11:38:19.848,1730518289.188178,0.014177918434143,0.03617924451828,0.0370505452156066,-0.8579907519119918,0.008909476359741,-0.3306267900940274,0.0058263535611331,0.7565301060676575,-0.6539328694343567,0.7136955857276917,-0.1454737782478332,-0.1930360645055771
2024-11-02 11:38:19.857,1730518289.1980329,0.0114011811092495,0.0611506104469299,0.0434721708297729,-0.8515624485958921,0.0056238489062443,-0.3329320341296427,0.0037050198297947,0.7523106932640076,-0.658798098564148,0.5495890378952026,-0.0942673236131668,-0.1198900490999221
2024-11-02 11:38:19.870,1730518289.210586,0.0046889362856745,0.0439791083335876,0.0290697813034057,-0.8466280332394859,0.0038164975963461,-0.3347427351450452,0.0025284718722105,0.7490506768226624,-0.6625078320503235,0.4763600826263428,-0.0333917252719402,-0.0972712934017181
2024-11-02 11:38:19.877,1730518289.218029,-0.0296873766928911,0.0205835700035095,-0.0261011123657226,-0.8419705645700565,0.0026941584589747,-0.3356985421311252,0.0017942917766049,0.7459569573402405,-0.6659917831420898,0.4340820014476776,-0.0535563826560974,-0.0341229476034641
2024-11-02 11:38:19.887,1730518289.227985,-0.0264483448117971,-0.1512728333473205,0.0217481255531311,-0.8385125226037333,0.0021297956327009,-0.3360393687019917,0.0014239157317206,0.7436494827270508,-0.6685681343078613,0.2583301365375519,0.0024030255153775,-0.0158427450805902
2024-11-02 11:38:19.897,1730518289.2379131,-0.0021925852634012,-0.091396152973175,0.0027875304222106,-0.8363679679846124,0.0023154306720901,-0.3361721566631681,0.0015517143765464,0.7422139644622803,-0.6701611280441284,0.181445375084877,0.055084079504013,-0.0018385662697255
2024-11-02 11:38:19.907,1730518289.24793,-0.0194234922528266,0.0475115180015563,-0.017301321029663,-0.8350608711036228,0.0030451843165442,-0.3360242170972587,0.002043719170615,0.7413373589515686,-0.6711294054985046,0.0468135252594947,0.0628583803772926,0.0274125281721353
2024-11-02 11:38:19.919,1730518289.260036,-0.0213163010776042,-0.0183781385421752,-0.0351251363754272,-0.8356554518802394,0.0043223133990381,-0.3354079445639374,0.0028989303391426,0.7417362928390503,-0.670685350894928,-0.1291325986385345,0.0884841158986091,0.0578118227422237
2024-11-02 11:38:19.929,1730518289.269887,-0.0148496944457292,-0.0184803009033203,-0.038661777973175,-0.8370829992111514,0.0058377703395999,-0.3344877359105772,0.0039091361686587,0.7426929473876953,-0.66962069272995,-0.15421824157238,0.0744082480669021,0.0581005066633224
2024-11-02 11:38:19.937,1730518289.277884,-0.0132720470428466,-0.0457611680030822,-0.0212117433547973,-0.83856256270231,0.0070253083570737,-0.3336609259927748,0.0046966085210442,0.7436829209327698,-0.6685160398483276,-0.1646199822425842,0.0426564365625381,0.04755300283432
2024-11-02 11:38:19.947,1730518289.287853,0.0040613217279314,-0.0655510425567627,0.0011000633239746,-0.8404577821994611,0.0080246153405977,-0.3330271300652569,0.0053533390164375,0.7449485659599304,-0.6671003699302673,-0.217874139547348,0.0598767027258873,0.0453106202185153
2024-11-02 11:38:19.957,1730518289.297954,0.0099248513579368,0.0268797278404235,-0.0005998015403747,-0.8422998937093175,0.0090892798783558,-0.3323914070897608,0.006051090080291,0.7461762428283691,-0.6657208800315857,-0.1139621958136558,0.0371010825037956,0.0473316945135593
2024-11-02 11:38:19.969,1730518289.310046,-0.0054582678712904,0.0171507000923156,0.0063458681106567,-0.8426575330651594,0.0098529986151938,-0.3317623401770825,0.0065568820573389,0.746414303779602,-0.6654492020606995,0.0216733943670988,0.022101629525423,0.0176630169153213
2024-11-02 11:38:19.977,1730518289.318043,-7.65589065849781e-05,-0.0200117826461792,0.0276548266410827,-0.8418893323837713,0.0099889531397638,-0.3317478195297305,0.0066530788317322,0.7459028363227844,-0.6660215258598328,0.1441221982240677,-0.0012809252366423,0.0042880889959633
2024-11-02 11:38:19.988,1730518289.328261,0.0160384699702262,0.0738095641136169,0.0543919205665588,-0.8396315410612886,0.0100068939612063,-0.3319198795392674,0.0066818627528846,0.7443971633911133,-0.6677036881446838,0.320338487625122,0.0144090875983238,-0.0338869951665401
2024-11-02 11:38:19.997,1730518289.3377872,0.0137009173631668,0.0755665898323059,0.0617552995681762,-0.8360704630138054,0.0097214087373171,-0.3323232701860578,0.0065169716253876,0.7420145869255066,-0.670352041721344,0.3672216236591339,-0.0038780400063842,0.0003629621933214
2024-11-02 11:38:20.007,1730518289.347748,0.0001012538559734,-0.0088929533958435,0.0500099658966064,-0.8324165157541155,0.0100057494665797,-0.3321400913680777,0.0067346626892685,0.739560067653656,-0.6730567812919617,0.3766614496707916,0.0256300512701272,0.0218397583812475
2024-11-02 11:38:20.020,1730518289.360091,-8.259294554591179e-05,-0.0105721950531005,0.0556708574295043,-0.8289783595714496,0.0108275289149226,-0.3316268563557955,0.0073152519762516,0.7372415065765381,-0.6755896210670471,0.2553947567939758,0.0693149492144584,0.073420338332653
2024-11-02 11:38:20.027,1730518289.367874,-0.0162226501852273,-0.0567691326141357,0.0448859333992004,-0.8272310926175465,0.0130106281736534,-0.3301330903331672,0.0088068600744009,0.7360599040985107,-0.6768591403961182,0.0793731287121772,0.1467317044734954,0.1243173405528068
2024-11-02 11:38:20.037,1730518289.3776069,-0.0287099219858646,-0.0959397554397583,0.0217572450637817,-0.8273457646059005,0.0164250903107007,-0.3278146873393133,0.0111165279522538,0.7361375093460083,-0.6767407655715942,-0.0881900191307067,0.1891838312149047,0.1925226002931594
2024-11-02 11:38:20.047,1730518289.3876848,-0.0416122525930404,-0.1379898786544799,-0.0165942907333374,-0.8291013338972403,0.0208521033216705,-0.3245190623053644,0.0140853812918066,0.737324595451355,-0.6753917932510376,-0.2691073417663574,0.21753691136837,0.2436656802892685
2024-11-02 11:38:20.057,1730518289.397692,-0.0368814244866371,-0.0890153646469116,-0.0371692180633544,-0.8319156626769068,0.0259468329440631,-0.3209152802632523,0.0174722168594598,0.7392228245735168,-0.673234224319458,-0.2564703226089477,0.2612678706645965,0.2273898720741272
2024-11-02 11:38:20.069,1730518289.41004,-0.0207984447479248,0.0183374285697937,-0.0263276100158691,-0.8345143104499468,0.0311127013702938,-0.3173075329555019,0.0208899788558483,0.7409704327583313,-0.6712126135826111,-0.2811823189258575,0.2388528436422348,0.2507162392139435
2024-11-02 11:38:20.077,1730518289.417658,-0.0080037396401166,-0.0086796879768371,0.002894639968872,-0.8382847185179312,0.0368703380129347,-0.3130499990507416,0.0246510505676269,0.7434971332550049,-0.6682845950126648,-0.501349151134491,0.2874555289745331,0.3017704784870147
2024-11-02 11:38:20.087,1730518289.427625,-0.007612345740199,0.0513638257980346,-0.0403090119361877,-0.8441218519884456,0.0444524708883945,-0.3072365235041722,0.029523953795433,0.7473879456520081,-0.6637315154075623,-0.6726551055908203,0.3562468588352203,0.4344326555728912
2024-11-02 11:38:20.097,1730518289.4376469,-0.0528053417801857,0.0571566820144653,-0.107431411743164,-0.8507463339580678,0.0546517947374958,-0.2985563024067567,0.0360206738114357,0.7517727613449097,-0.6584377288818359,-0.7012537717819214,0.3742005527019501,0.6551274657249451
2024-11-02 11:38:20.107,1730518289.447722,-0.0814341530203819,-0.0206796526908874,-0.1172425746917724,-0.8568086467222152,0.0679486041170251,-0.2866855980511151,0.0444620922207832,0.7557565569877625,-0.65334153175354,-0.5895405411720276,0.5449397563934326,0.8182237148284912
2024-11-02 11:38:20.120,1730518289.460186,-0.0983714535832405,0.0861920118331909,-0.0656614899635315,-0.8611314687207176,0.0847080223507794,-0.2728531449416034,0.0551280304789543,0.7585802674293518,-0.6492432355880737,-0.4470536708831787,0.6865642666816711,0.9061312675476074
2024-11-02 11:38:20.127,1730518289.467591,-0.1552467942237854,0.2224639058113098,-0.0233754515647888,-0.868145507867539,0.0927670312143448,-0.2653872634287483,0.0598640814423561,0.7631317973136902,-0.6434641480445862,-1.1211482286453247,-0.4107339382171631,-0.3977140486240387
2024-11-02 11:38:20.137,1730518289.477563,-0.1830518245697021,0.1869921088218689,0.0285274386405944,-0.8813456150800205,0.0780021532953099,-0.2759847924863892,0.0495679192245006,0.7715955376625061,-0.6341792941093445,-1.4289748668670654,-0.80867999792099,-1.0651859045028689
2024-11-02 11:38:20.147,1730518289.487544,-0.4066282212734222,-0.1408247947692871,0.2244108319282531,-0.8953002995131742,0.0623603461870062,-0.2885734026252579,0.0389676839113235,0.7803968787193298,-0.6240690350532532,-1.134798884391785,-0.3306660056114197,-0.6157621145248413
2024-11-02 11:38:20.157,1730518289.4975228,-0.4721181988716125,-0.2142241597175598,0.1782010793685913,-0.9036234997857876,0.0579028653765748,-0.2932726149745371,0.0358083881437778,0.7855741381645203,-0.617730438709259,-0.5152183771133423,0.1173370704054832,-0.1089845076203346
2024-11-02 11:38:20.167,1730518289.507544,-0.1370890140533447,0.0594727396965026,0.0391482710838317,-0.9066131386001792,0.0588065238993358,-0.2932997337975837,0.0362283997237682,0.7874205708503723,-0.615350604057312,-0.0791102722287178,-0.0090693403035402,0.0624128021299839
2024-11-02 11:38:20.177,1730518289.517511,0.2617751955986023,0.1535522937774658,0.0383453369140625,-0.9049169604366012,0.0591998044085707,-0.2907454212125704,0.0365493707358837,0.7863738536834717,-0.616668701171875,0.3845798373222351,-0.3009565770626068,0.2845076024532318
2024-11-02 11:38:20.187,1730518289.5275989,0.4625515043735504,0.0373474955558776,0.0988160967826843,-0.8992953192047418,0.0602518967900264,-0.2851520801248794,0.0374637506902217,0.782888650894165,-0.6210328340530396,0.6841058135032654,-0.3533132672309875,0.4512744843959808
2024-11-02 11:38:20.197,1730518289.5373158,0.4690399169921875,-0.1030807495117187,0.0361183881759643,-0.8916580771397258,0.0610124743458518,-0.279517207963252,0.0382995456457138,0.7781143188476562,-0.6269538998603821,0.7832512259483337,-0.3826104402542114,0.3219558596611023
2024-11-02 11:38:20.207,1730518289.547487,0.315136045217514,-0.0457973480224609,-0.0574797391891479,-0.884207246675067,0.0594726615383594,-0.2766816230229381,0.03767766430974,0.7734127044677734,-0.6327820420265198,0.6454017758369446,-0.3607245683670044,0.1408768892288208
2024-11-02 11:38:20.217,1730518289.557557,0.1403991430997848,0.1050980687141418,-0.0598407983779907,-0.8792615136103574,0.0567808084522155,-0.2763413651096382,0.0361908078193664,0.7702681422233582,-0.6366923451423645,0.348220020532608,-0.2205504179000854,-0.0492637678980827
2024-11-02 11:38:20.227,1730518289.56757,0.0340772084891796,0.203744351863861,0.0004326701164245,-0.876994252228757,0.052895634974726,-0.2792635311350221,0.0338091254234313,0.7688202857971191,-0.6385704278945923,0.1165322139859199,-0.1323960721492767,-0.2906766533851623
2024-11-02 11:38:20.237,1730518289.57761,-0.0182936005294322,0.0336535573005676,-0.0144257545471191,-0.8769482564219195,0.0477125669753546,-0.2844476349328068,0.0305006243288517,0.7687909007072449,-0.6387724876403809,-0.021264798939228,-0.1251826286315918,-0.3331974744796753
2024-11-02 11:38:20.247,1730518289.587573,0.0227925926446914,-0.2638366222381592,-0.0554106831550598,-0.8777434819782837,0.0412406382721724,-0.2897290473518035,0.0263407062739133,0.7692991495132446,-0.6383454203605652,-0.1280032247304916,-0.3859809339046478,-0.3588780760765075
2024-11-02 11:38:20.257,1730518289.597374,0.1353742480278015,-0.3225309252738952,-0.0602645277976989,-0.8794311297196412,0.0321249474980115,-0.2953324874706956,0.0204790029674768,0.7703763246536255,-0.6372604370117188,-0.1629066914319992,-0.5484631061553955,-0.3778297007083893
2024-11-02 11:38:20.267,1730518289.607372,0.1723708808422088,-0.1208733916282653,0.0191689729690551,-0.8807527402314094,0.0219466210672795,-0.3017718495474727,0.013969455845654,0.7712182402610779,-0.6364175081253052,-0.067163661122322,-0.467710942029953,-0.4441839754581451
2024-11-02 11:38:20.277,1730518289.6171942,0.0691919177770614,0.0861784219741821,0.0559077262878418,-0.8808881497812303,0.0129329753377829,-0.3086899283892784,0.0082311742007732,0.7713044881820679,-0.6364130973815918,0.0507577583193779,-0.2650952637195587,-0.4188506007194519
2024-11-02 11:38:20.287,1730518289.627792,-0.0634906217455864,0.1138802170753479,0.0147531032562255,-0.8801101779503986,0.0066088034364323,-0.3144669795465583,0.0042102145962417,0.7708090543746948,-0.6370522975921631,0.1044087335467338,-0.1255056709051132,-0.3165971934795379
2024-11-02 11:38:20.297,1730518289.6374831,-0.1049492806196212,0.0757579207420349,0.0105641484260559,-0.8791857779734539,0.0023674911721933,-0.3187531606366157,0.0015099334996193,0.7702198624610901,-0.6377766728401184,0.0759994834661483,-0.069179281592369,-0.2321809530258178
2024-11-02 11:38:20.307,1730518289.647241,-0.0694768130779266,0.0229708552360534,0.0203415155410766,-0.8784792386156278,-0.0005920915417332,-0.3217129773662638,-0.0003779453400056,0.769769012928009,-0.6383224129676819,0.0698041692376136,-0.0689353346824646,-0.1466133296489715
2024-11-02 11:38:20.317,1730518289.657195,-0.0307316146790981,-0.041991651058197,0.0041574239730834,-0.8777953795477138,-0.0025311768818159,-0.3233341916271627,-0.0016170374583452,0.7693323493003845,-0.6388466954231262,0.0702370256185531,-0.0637096762657165,-0.0607256926596164
2024-11-02 11:38:20.327,1730518289.667233,-0.0150807071477174,-0.0676873326301574,0.0011000037193298,-0.8771266952246416,-0.0031663145114588,-0.3237434108650602,-0.0020244212355464,0.768904983997345,-0.6393598914146423,0.0663376301527023,0.0052922889590263,0.0068938322365283
2024-11-02 11:38:20.337,1730518289.677374,-0.0246448740363121,-0.0114619731903076,0.0033138990402221,-0.8763923403047992,-0.0023099295239443,-0.3232733627776206,-0.0014781861100345,0.7684352397918701,-0.6399257779121399,0.0845484510064125,0.0897262170910835,0.0493823289871215
2024-11-02 11:38:20.347,1730518289.687182,-0.0402352213859558,0.0499184131622314,0.0078465342521667,-0.8755194125192493,-0.0005036952389847,-0.3223425077734787,-0.0003226661647204,0.7678763270378113,-0.640597939491272,0.0914050266146659,0.1226034685969352,0.0655325427651405
2024-11-02 11:38:20.357,1730518289.6971788,-0.0379884615540504,0.0438704490661621,0.0025305151939392,-0.8744330042759995,0.0014656497585072,-0.3213711099824354,0.0009401142597198,0.7671799659729004,-0.6414312720298767,0.1250253170728683,0.1177408024668693,0.0548091605305671
2024-11-02 11:38:20.367,1730518289.707128,-0.0149978185072541,0.0145686268806457,0.008877694606781,-0.8731571515550196,0.0030140852744667,-0.3207311562256218,0.0019362764433026,0.7663609385490417,-0.6424073576927185,0.1188012436032295,0.0966016948223114,0.0298904925584793
2024-11-02 11:38:20.377,1730518289.717207,0.0061032837256789,-0.0079079866409301,0.0206992030143737,-0.8724217876780437,0.0042245593031638,-0.3203581413679451,0.0027162721380591,0.7658883333206177,-0.6429678797721863,0.0245728567242622,0.0876966193318367,0.0239395555108785
2024-11-02 11:38:20.387,1730518289.727271,0.0091097364202141,-0.0163022279739379,0.0054532289505004,-0.872519682983487,0.0054348243279908,-0.3198169739295609,0.0034940240439027,0.7659512758255005,-0.642889142036438,-0.038002111017704,0.0705602467060089,0.0431230999529361
2024-11-02 11:38:20.397,1730518289.7371268,0.0011785570532083,-0.020096480846405,-0.0232541561126709,-0.8729389835645999,0.006690822204086,-0.3190086402729866,0.0042993398383259,0.76622074842453,-0.6425631046295166,-0.0302969701588153,0.0601544715464115,0.057778425514698
2024-11-02 11:38:20.407,1730518289.747174,-0.0009471904486417,-0.0171234607696533,-0.0175527334213256,-0.8729190203350705,0.0078379292096658,-0.3181772884660477,0.0050365449860692,0.7662079334259033,-0.6425729990005493,0.0288995057344436,0.0485942214727401,0.0487692169845104
2024-11-02 11:38:20.416,1730518289.75704,0.0037175556644797,0.0157578587532043,0.0108932256698608,-0.8723514973394861,0.0085751648899545,-0.3177347948713788,0.0055139986798167,0.7658431529998779,-0.6430038213729858,0.0854666829109191,0.0391426645219326,0.0165059249848127
2024-11-02 11:38:20.427,1730518289.767078,0.0043343175202608,0.0537843704223632,0.0228986740112304,-0.8712580884130633,0.0087436427743942,-0.3178222267104637,0.0056296489201486,0.7651395797729492,-0.6438398361206055,0.1665143966674804,0.0215623397380113,-0.0043423641473054
2024-11-02 11:38:20.437,1730518289.777272,0.0055238297209143,0.0480667352676391,0.0197958350181579,-0.8691919331992943,0.0083450416233892,-0.318227709359961,0.0053861937485635,0.7638076543807983,-0.6454214453697205,0.2673211693763733,-0.0164851769804954,-0.0238451715558767
2024-11-02 11:38:20.446,1730518289.787,0.0119283581152558,0.0296211242675781,0.0247242450714111,-0.8660971723227537,0.007520157925173,-0.3189368543202464,0.00487154815346,0.7618064880371094,-0.6477864384651184,0.3662741184234619,-0.0267780292779207,-0.0504493527114391
2024-11-02 11:38:20.456,1730518289.7970262,0.0142044275999069,0.0564800500869751,0.0373839139938354,-0.8622376753703619,0.006544451712665,-0.3198815605313893,0.0042587067000567,0.7593005895614624,-0.6507261395454407,0.4258239865303039,-0.026464307680726,-0.0671930685639381
2024-11-02 11:38:20.466,1730518289.806974,0.0080841351300477,0.0664302706718444,0.0396650433540344,-0.8580249348616811,0.0055814426282782,-0.320782778919557,0.0036498703993856,0.7565524578094482,-0.6539227962493896,0.4262079894542694,-0.0331616289913654,-0.0471802167594432
2024-11-02 11:38:20.477,1730518289.817052,0.001765935216099,0.0188637971878051,0.0238280296325683,-0.8541675876631224,0.0048149189674882,-0.3213047520239945,0.0031626501586288,0.7540243864059448,-0.6568388342857361,0.3030065596103668,-0.0245297886431217,-0.0241632591933012
2024-11-02 11:38:20.487,1730518289.827412,0.0006532568950206,-0.0141524076461792,0.0023307800292968,-0.8517954451752187,0.0044988123461791,-0.3216298158996309,0.0029630572535097,0.7524641752243042,-0.6586265563964844,0.1777967065572738,-0.003896681824699,-0.0132304513826966
2024-11-02 11:38:20.496,1730518289.836998,-0.010409090667963,-0.007797360420227,-0.0306035280227661,-0.8506266725298415,0.0044461456125152,-0.3215984350737204,0.0029322777409106,0.751693844795227,-0.6595056653022766,0.1167461723089218,-0.0181027818471193,0.0077408771030604
2024-11-02 11:38:20.506,1730518289.846936,-0.010104751214385,-0.0662820935249328,-0.015000581741333,-0.8502300965604591,0.0043528857742266,-0.3213864153485082,0.0028720698319375,0.7514322400093079,-0.6598040461540222,0.0366518720984458,-0.0294755436480045,0.011092466302216
2024-11-02 11:38:20.516,1730518289.856873,0.00080795167014,-0.0682122707366943,-0.0149062871932983,-0.8502878454183349,0.0042103840780374,-0.321233698787725,0.0027778637595474,0.7514703273773193,-0.6597610712051392,0.0099032558500766,-0.0256339348852634,0.0061122477054595
2024-11-02 11:38:20.527,1730518289.867082,0.0007671946659684,0.0217404961585998,-0.0024997591972351,-0.8504695125612541,0.004087957265089,-0.3211370614918838,0.0026965332217514,0.7515901923179626,-0.6596248745918274,0.0006517000729218,-0.02641530521214,9.880342986434698e-06
2024-11-02 11:38:20.537,1730518289.877404,-0.0023630240466445,0.0328219532966613,-0.0019733905792236,-0.8509268183773471,0.0039313843619927,-0.3210089384099562,0.0025919023901224,0.7518917918205261,-0.6592814922332764,-0.0259036030620336,-0.0242304485291242,0.0075243622995913
2024-11-02 11:38:20.546,1730518289.886843,-4.350556991994381e-05,0.0152925252914428,-0.0038872361183166,-0.8516866798945644,0.0037723627341974,-0.3209685058227293,0.0024849064648151,0.7523925304412842,-0.6587104201316833,-0.0625617504119873,-0.0226525254547595,-0.0049706567078828
2024-11-02 11:38:20.556,1730518289.896847,0.001814653398469,-0.0008855462074279,0.0001261234283447,-0.8526192480608646,0.0036424096150175,-0.3208100638558129,0.0023967481683939,0.7530064582824707,-0.6580087542533875,-0.1229702159762382,-0.0231071282178163,0.0228821188211441
2024-11-02 11:38:20.566,1730518289.906787,-0.0016720299609005,-0.0445168018341064,-0.004050850868225,-0.8542537254038,0.0037771322259691,-0.3202343339915661,0.0024807446170598,0.7540810108184814,-0.6567767858505249,-0.2060818821191787,-0.0391113944351673,0.0483355484902858
2024-11-02 11:38:20.576,1730518289.916784,-0.0029168634209781,-0.0562399625778198,-0.0055028796195983,-0.8568430942547343,0.004081580432018,-0.3192988841296404,0.0026727202348411,0.7557790875434875,-0.6548212170600891,-0.3363784253597259,-0.044970616698265,0.0810824185609817
2024-11-02 11:38:20.587,1730518289.927607,-0.0039532757364213,-0.0742862224578857,-0.0181115865707397,-0.8603146729688245,0.0047278876578172,-0.3176465809982479,0.003083512187004,0.7580478191375732,-0.6521917581558228,-0.3946558535099029,-0.0705521404743194,0.1361922621726989
2024-11-02 11:38:20.596,1730518289.936753,-0.004662599414587,-0.0486012697219848,-0.0244373679161071,-0.8636364997999139,0.0060494654902545,-0.3152561210194605,0.0039301766082644,0.7602101564407349,-0.6496654152870178,-0.3191958665847778,-0.0214897897094488,0.1644746214151382
2024-11-02 11:38:20.606,1730518289.946642,-0.0068414267152547,0.0285917520523071,-0.0148600339889526,-0.8665792759007757,0.0079038365405531,-0.3129679914522354,0.0051171858794987,0.7621186971664429,-0.6474171876907349,-0.2619038224220276,0.0446423552930355,0.1308833807706833
2024-11-02 11:38:20.616,1730518289.956836,-0.0175110939890146,0.0812028050422668,0.0216609239578247,-0.8689176425249171,0.0096567985788141,-0.3113126745034067,0.0062348484061658,0.7636305689811707,-0.6456233263015747,-0.2181648910045623,0.0427853353321552,0.0892882570624351
2024-11-02 11:38:20.626,1730518289.966888,-0.0238857921212911,0.0153443813323974,0.0368502140045166,-0.8711917750360224,0.0111230307928196,-0.3097924817079432,0.0071621402166783,0.76509690284729,-0.6438753008842468,-0.256604939699173,0.0255421679466962,0.1005158722400665
2024-11-02 11:38:20.637,1730518289.977603,-0.0021932171657681,-0.0537272691726684,-0.0082662105560302,-0.8742228393968532,0.0123133794997882,-0.3082833658353934,0.0078999809920787,0.7670451402664185,-0.6415445804595947,-0.3399083316326141,-0.0161008834838867,0.0891736820340156
2024-11-02 11:38:20.646,1730518289.986854,0.0176368243992328,-0.0155357122421264,-0.0070863962173461,-0.8766302422219915,0.0133369588258681,-0.3066813038202061,0.0085319969803094,0.7685874700546265,-0.6396878957748413,-0.1920437663793563,-0.007731900550425,0.1090826764702797
2024-11-02 11:38:20.656,1730518289.996849,0.0102184498682618,-0.0031400322914123,0.0017648339271545,-0.8781015642924067,0.0146550169931189,-0.3053194429332059,0.0093585513532161,0.7695279121398926,-0.6385445594787598,-0.119644284248352,0.0841247886419296,0.0570455230772495
2024-11-02 11:38:20.666,1730518290.006676,-0.0014309249818325,0.04081791639328,0.0369544625282287,-0.8785359370956736,0.0160602834398643,-0.30506759812229,0.0102504985406994,0.7698052525520325,-0.6381965279579163,-0.0197115652263164,0.1578083336353302,-0.0132933547720313
2024-11-02 11:38:20.676,1730518290.016613,-0.0285029225051403,0.0229794383049011,0.0580444931983947,-0.8779400463715743,0.017343481906103,-0.3053425101276401,0.0110773760825395,0.7694247364997864,-0.6386414170265198,0.0910160318017005,0.1508899629116058,-0.0030682012438774
2024-11-02 11:38:20.687,1730518290.027783,-0.020523015409708,-0.0915086269378662,0.053021490573883,-0.876533828021697,0.0187221652022065,-0.3054462709809531,0.0119780926033854,0.7685257792472839,-0.6397066116333008,0.1846991032361984,0.1438533663749694,-0.0121628958731889
2024-11-02 11:38:20.696,1730518290.0365891,0.0162921287119388,-0.0691598057746887,0.0555558204650878,-0.8744461112023673,0.0198955303869436,-0.3057508023173217,0.0127605870366096,0.7671883702278137,-0.6412949562072754,0.2612565457820892,0.1543728560209274,-0.0005520999548025
2024-11-02 11:38:20.706,1730518290.046589,0.0072215860709548,0.0180968046188354,0.066434621810913,-0.871490812125322,0.0215195729980247,-0.305649530505819,0.0138507857918739,0.7652894258499146,-0.6435372829437256,0.3522216081619262,0.1573569178581237,0.0386317893862724
2024-11-02 11:38:20.716,1730518290.0565429,-0.0182551890611648,0.0496602058410644,0.0427079200744628,-0.8676937553315895,0.0236571239269469,-0.3050104000264364,0.0152949756011366,0.7628397941589355,-0.6464066505432129,0.3713002800941467,0.1756855994462967,0.0528716035187244
2024-11-02 11:38:20.726,1730518290.0665588,-0.0166247989982366,0.039385974407196,0.0201222896575927,-0.8645686071853883,0.0257141245135601,-0.3046028723115822,0.01668581366539,0.7608153820037842,-0.648753821849823,0.2488944828510284,0.1653429418802261,0.0197679791599512
2024-11-02 11:38:20.737,1730518290.07762,-0.0028548892587423,0.0180903077125549,0.004592478275299,-0.8628219343383801,0.0272712419093133,-0.304362638903714,0.0177321899682283,0.7596806883811951,-0.6500545144081116,0.1005635112524032,0.1065683141350746,0.0271287951618433
2024-11-02 11:38:20.746,1730518290.0865111,0.0062674786895513,-0.029910922050476,-0.0431780219078063,-0.8625828441207719,0.0286049429441018,-0.3037857548094685,0.0186043474823236,0.7595251798629761,-0.6502118706703186,-0.0486432835459709,0.0828408822417259,0.0413721799850463
2024-11-02 11:38:20.756,1730518290.0964952,0.0112670753151178,-0.0023176074028015,-0.0682496428489685,-0.8637246751889258,0.0296147474165485,-0.3035460935322046,0.0192352328449487,0.760267436504364,-0.649325430393219,-0.120653748512268,0.1022989973425865,0.0018931614467874
2024-11-02 11:38:20.766,1730518290.106456,0.0006709452718496,0.0391582250595092,-0.0327379703521728,-0.86496679889102,0.0302563048002955,-0.3038702582024101,0.0196232255548238,0.7610737085342407,-0.6483685374259949,-0.1327849775552749,0.0795513391494751,-0.0337045155465602
2024-11-02 11:38:20.776,1730518290.116457,-0.002927815541625,-0.0282235741615295,-0.0119992494583129,-0.8662835401310417,0.0303938831114247,-0.3044462407852863,0.0196819528937339,0.7619271874427795,-0.647363543510437,-0.1209257096052169,0.0324203111231327,-0.0576685443520545
2024-11-02 11:38:20.787,1730518290.127743,0.0153306443244218,-0.052157700061798,0.0021397471427917,-0.8675460096841755,0.0298823457545547,-0.3054605769017625,0.0193220470100641,0.7627442479133606,-0.6464115977287292,-0.0667745843529701,0.0205114558339118,-0.0836593955755233
2024-11-02 11:38:20.796,1730518290.136393,0.022219993174076,-0.0008730292320251,0.0259865522384643,-0.8682306937494806,0.0290442246057258,-0.3068084549330192,0.0187650974839925,0.7631868720054626,-0.6459053754806519,-0.0188571773469448,0.031280480325222,-0.0779136791825294
2024-11-02 11:38:20.806,1730518290.146401,0.0083927139639854,0.0145010948181152,0.0316526889801025,-0.8687372183931504,0.0284986717782266,-0.3079976363215124,0.018401701003313,0.7635140419006348,-0.6455289721488953,-0.0667378827929496,0.0500693470239639,-0.0632513761520385
2024-11-02 11:38:20.816,1730518290.156376,-0.0050202142447233,0.010243535041809,0.0111125111579895,-0.8699198600256707,0.0284446322443963,-0.3087331893955372,0.0183411203324794,0.7642772793769836,-0.6446268558502197,-0.1526619642972946,0.0505535081028938,-0.0341698229312896
2024-11-02 11:38:20.826,1730518290.166426,-0.0127876121550798,0.0007023215293884,-0.0297383069992065,-0.8712766978545737,0.0286337936702225,-0.3090143170413723,0.0184333529323339,0.7651515603065491,-0.6435862183570862,-0.1563392579555511,0.0268202181905508,-0.0212209988385438
2024-11-02 11:38:20.837,1730518290.177921,-0.0088781956583261,-0.0190368890762329,-0.0370886921882629,-0.8725485055223008,0.0285772590102854,-0.309285546561066,0.0183691456913948,0.7659698128700256,-0.64261394739151,-0.1374473869800567,-0.0042285118252038,-0.0328099057078361
2024-11-02 11:38:20.846,1730518290.186348,0.0027063433080911,-0.0016071200370788,-0.0071024298667907,-0.873515702818303,0.0279635516570847,-0.3098107662819288,0.017954047769308,0.7665912508964539,-0.6418843865394592,-0.0574028939008712,-0.0364186726510524,-0.0413756966590881
2024-11-02 11:38:20.856,1730518290.196311,0.0117441434413194,0.0392959117889404,0.0112722516059875,-0.8733584634006435,0.0268340849240759,-0.3105899616670817,0.0172322839498519,0.7664902210235596,-0.64202481508255,0.0482723899185657,-0.0627908855676651,-0.0584194995462894
2024-11-02 11:38:20.866,1730518290.2062922,0.0131637193262577,0.0575668215751647,0.0258181095123291,-0.8720668787103759,0.0255106178825551,-0.3115495699586863,0.0164078082889318,0.7656601071357727,-0.6430361270904541,0.1640445291996002,-0.0715047493577003,-0.0807700827717781
2024-11-02 11:38:20.876,1730518290.216423,0.0123395379632711,0.0651888847351074,0.0384039878845214,-0.8699696841375976,0.0238615826726905,-0.3128314102855427,0.0153856743127107,0.7643094062805176,-0.6446661353111267,0.2796330749988556,-0.0864267125725746,-0.0991131290793418
2024-11-02 11:38:20.887,1730518290.22787,0.0092930532991886,0.0468263030052185,0.0320751667022705,-0.8670267120615537,0.0217421464606532,-0.3144889227428699,0.0140681536868214,0.7624083161354065,-0.6469433307647705,0.3549014627933502,-0.094350941479206,-0.113586351275444
2024-11-02 11:38:20.896,1730518290.236237,0.0094435419887304,0.0360321998596191,0.0319876670837402,-0.8632951102569341,0.0192786077464758,-0.3164259879512997,0.0125291012227535,0.7599883079528809,-0.6498160362243652,0.4198144972324371,-0.1034184768795967,-0.1211818978190422
2024-11-02 11:38:20.906,1730518290.2462091,0.0081004835665225,0.0315598249435424,0.0268834829330444,-0.8587782875500252,0.0166786464045435,-0.3184508808370912,0.0108967032283544,0.7570449113845825,-0.6532720327377319,0.4703266620635986,-0.1056595295667648,-0.1180391013622284
2024-11-02 11:38:20.916,1730518290.256094,0.004058695398271,0.0207869410514831,0.0218433141708374,-0.8540273818184226,0.0144476881523146,-0.3201351335129214,0.0094911092892289,0.7539322972297668,-0.6568835973739624,0.387445330619812,-0.0795986279845237,-0.0853781998157501
2024-11-02 11:38:20.926,1730518290.266072,0.0016666539013385,0.0251439809799194,0.0321191549301147,-0.8510931519707146,0.013352020433798,-0.3214286047632738,0.0088008763268589,0.7520014047622681,-0.659102737903595,0.2483369708061218,0.0203247684985399,-0.0819240808486938
2024-11-02 11:38:20.937,1730518290.2779942,-0.0221691243350505,0.032409131526947,-0.0251452922821044,-0.8491247110276652,0.0130010635253387,-0.3221799519900195,0.0085887871682643,0.750702440738678,-0.6605846285820007,0.2511511445045471,-0.0038332988042384,-0.0328169912099838
2024-11-02 11:38:20.946,1730518290.286055,-0.0326026454567909,-0.089792251586914,-0.0051621794700622,-0.847223386208896,0.0127142479441649,-0.3224199414645253,0.0084174526855349,0.7494450211524963,-0.6620131134986877,0.1890115886926651,-0.0245976988226175,-0.0105487005785107
2024-11-02 11:38:20.955,1730518290.296035,0.000951774418354,-0.1296988129615783,0.0034946799278259,-0.845710801255051,0.0125309655020378,-0.3225868425736259,0.008310311473906,0.7484427094459534,-0.6631473898887634,0.1780880987644195,0.0057876370847225,-0.0164502672851085
2024-11-02 11:38:20.965,1730518290.305993,0.0050440831109881,0.0394302606582641,0.0100355148315429,-0.843779227427571,0.0125222104095611,-0.3227334381669959,0.0083225928246974,0.7471603155136108,-0.6645917296409607,0.2411427050828933,0.0100921038538217,-7.368961814790964e-05
2024-11-02 11:38:20.975,1730518290.315992,-0.011711542494595,0.0472499728202819,0.0084670186042785,-0.8413611263304748,0.0126279317476444,-0.3227473206938225,0.008415644057095,0.7455509305000305,-0.6663954854011536,0.2806043624877929,0.0099927680566906,-0.0085665099322795
2024-11-02 11:38:20.988,1730518290.328106,-0.0072187883779406,0.0134524703025817,0.0090641379356384,-0.8383884954951236,0.0124620099618626,-0.3230729877069724,0.0083326557651162,0.7435665130615234,-0.6686099767684937,0.3302779197692871,-0.0001099333167076,-0.0272587053477764
2024-11-02 11:38:20.995,1730518290.336012,0.0056846151128411,0.0401896238327026,0.0202805399894714,-0.8351028140448351,0.0120611485423072,-0.3235450701792066,0.0080940574407577,0.7413654923439026,-0.6710525751113892,0.3308318555355072,-0.0082709239795804,-0.0258797202259302
2024-11-02 11:38:21.006,1730518290.346775,0.0073677478358149,0.032774806022644,0.0156020522117614,-0.8319238246993731,0.0117401426685284,-0.3239247064184358,0.007906274870038,0.739228367805481,-0.6734084486961365,0.299688309431076,0.0028698774985969,-0.0148425158113241
2024-11-02 11:38:21.015,1730518290.355927,0.003299368545413,0.0182235240936279,0.0119389295578002,-0.8291555199096842,0.0117413658153173,-0.3241545155393481,0.0079310955479741,0.7373611927032471,-0.6754521131515503,0.2508945763111114,0.023697130382061,-0.0083671994507312
2024-11-02 11:38:21.026,1730518290.367011,-0.0045618703588843,0.007094383239746,0.0063905715942382,-0.8271553279316148,0.0120808311894027,-0.3242659908847918,0.008178187534213,0.7360085844993591,-0.6769227385520935,0.1581332236528396,0.0514869466423988,-0.0078960862010717
2024-11-02 11:38:21.039,1730518290.379067,-0.0099358921870589,-0.0141274333000183,-0.0010653734207153,-0.826542280372611,0.0124375466240944,-0.3243363345605528,0.0084252655506134,0.7355934381484985,-0.6773708462715149,-0.0442912578582763,0.0416521579027175,0.0064524933695793
2024-11-02 11:38:21.046,1730518290.386267,-0.0073440596461296,-0.0620691776275634,-0.0242555737495422,-0.8274416717313532,0.0131744410217241,-0.3238606594698988,0.0089156944304704,0.7362024188041687,-0.676702618598938,-0.1076297536492347,0.0367066711187362,0.0441189110279083
2024-11-02 11:38:21.056,1730518290.396158,-0.0060694105923175,-0.0802468061447143,-0.0318794250488281,-0.8286666151273241,0.0140153673874126,-0.323264722365678,0.0094721037894487,0.7370308637619019,-0.6757926940917969,-0.1383892893791198,0.0412785187363624,0.042224284261465
2024-11-02 11:38:21.066,1730518290.406238,-0.0079112676903605,-0.0695806145668029,-0.0132384896278381,-0.8300896678909597,0.014912532884877,-0.3226270717733265,0.0100627467036247,0.7379918694496155,-0.6747345328330994,-0.1015670970082283,0.0520395524799823,0.0357538685202598
2024-11-02 11:38:21.075,1730518290.415964,-0.0078018670901656,-0.0078018903732299,0.0041868686676025,-0.8308875415777721,0.0155328638592887,-0.3222031112970077,0.0104721551761031,0.7385300397872925,-0.6741392016410828,-0.0770952329039573,0.0405213795602321,0.0184550955891609
2024-11-02 11:38:21.088,1730518290.428242,0.0031186388805508,0.0545081496238708,0.010547399520874,-0.8312372651672408,0.0158628877474878,-0.3222858111837325,0.0106905391439795,0.7387658357620239,-0.6738774180412292,-0.010609146207571,0.0355934686958789,-0.0255224853754043
2024-11-02 11:38:21.095,1730518290.4359431,0.0052299704402685,0.0834521651268005,0.004709243774414,-0.8309004623088351,0.0157355370625692,-0.3227865607607589,0.0106086358428001,0.7385388016700745,-0.6741276383399963,0.0882437229156494,0.0018235216848552,-0.0333468504250049
2024-11-02 11:38:21.105,1730518290.44593,0.0024319486692547,0.0150321125984191,0.0172349214553833,-0.8298368829448867,0.0150925966144133,-0.3234530361937686,0.0101870568469166,0.7378212809562683,-0.6749192476272583,0.1205960735678672,-0.0284579508006572,-0.0586285069584846
2024-11-02 11:38:21.115,1730518290.455873,0.0176801830530166,-0.0194447040557861,0.0207999944686889,-0.8285148045630139,0.0139125255213594,-0.3244717490507249,0.0094041610136628,0.7369282245635986,-0.6759055852890015,0.1347634047269821,-0.0506689809262752,-0.0668719485402107
2024-11-02 11:38:21.125,1730518290.465941,0.0236155018210411,0.0260319709777832,0.0324835181236267,-0.8268378157185137,0.0126032320764251,-0.3255873101223146,0.0085347574204206,0.7357935905456543,-0.6771520972251892,0.1579574048519134,-0.0461645126342773,-0.0746507719159126
2024-11-02 11:38:21.138,1730518290.4782429,0.0105358436703681,0.0001506805419921,0.0287973880767822,-0.8254903222257101,0.0116890375555527,-0.3265190501665896,0.0079272873699665,0.7348803877830505,-0.678150475025177,0.027571527287364,0.0231679584830999,-0.0278123226016759
2024-11-02 11:38:21.145,1730518290.485955,-0.0062002530321478,-0.0356650948524475,0.018639326095581,-0.8254729062793247,0.0127197012100008,-0.3260750638593561,0.008626390248537,0.734868586063385,-0.6781546473503113,-0.0190372541546821,0.0526659302413463,0.0484430342912673
2024-11-02 11:38:21.155,1730518290.495827,-0.0038245692849159,-0.0284323692321777,0.0107501745223999,-0.8256527988683848,0.013336739221574,-0.3256596561948305,0.0090430723503232,0.7349905967712402,-0.6780170202255249,-0.0168813001364469,0.0296122767031192,0.0090158926323056
2024-11-02 11:38:21.165,1730518290.505794,0.0103003596886992,-0.0192826390266418,0.010156512260437,-0.8259985898905295,0.0137539194774825,-0.3257651863262411,0.0093224309384822,0.7352250218391418,-0.6777589917182922,-0.0216345097869634,0.0675146505236625,-0.0158199481666088
2024-11-02 11:38:21.175,1730518290.515781,-0.0166070014238357,0.0056691169738769,0.0028221011161804,-0.8266237684584473,0.0146058697511073,-0.3258678582465051,0.0098931286484003,0.7356486320495605,-0.6772910952568054,-0.0611278861761093,0.1076916307210922,0.0026437465567141
2024-11-02 11:38:21.188,1730518290.528226,-0.0389811843633651,0.0032681822776794,-0.0078070163726806,-0.8275105527831209,0.0158222532658911,-0.3257108016415914,0.010706640779972,0.7362490296363831,-0.6766259670257568,-0.0970752388238906,0.0996100082993507,0.012998916208744
2024-11-02 11:38:21.195,1730518290.535764,-0.0246098823845386,-0.0277361869812011,-0.0033308863639831,-0.8287493740272275,0.0169989645425562,-0.325293805050742,0.0114873144775629,0.7370867729187012,-0.6757004857063293,-0.1500508338212967,0.0736393928527832,0.0364339351654052
2024-11-02 11:38:21.205,1730518290.545741,-0.0023511704057455,-0.0677754878997802,0.0128781199455261,-0.8308519178516561,0.0183792298491265,-0.3245210014623046,0.0123914396390318,0.738506019115448,-0.6741329431533813,-0.2486817985773086,0.0817985162138938,0.0457701794803142
2024-11-02 11:38:21.215,1730518290.555834,0.002112915739417,-0.1086658835411071,0.0183621644973754,-0.8339302610682133,0.0200640668585851,-0.3235919884500189,0.0134815527126193,0.7405781149864197,-0.6718350648880005,-0.3591910004615783,0.12120371311903,0.0705426856875419
2024-11-02 11:38:21.225,1730518290.565714,-0.0118336733430624,-0.1372720003128051,0.0089505910873413,-0.8379522751563863,0.022503516700217,-0.3221193170340658,0.0150532741099596,0.7432748079299927,-0.6688169240951538,-0.452945202589035,0.1502859592437744,0.1136648580431938
2024-11-02 11:38:21.238,1730518290.578351,-0.0240330025553703,-0.1112438440322876,-0.0021803379058837,-0.842645384722341,0.0257752244325953,-0.3200577633173067,0.0171512700617313,0.7464061975479126,-0.6652695536613464,-0.4928086400032043,0.1970382928848266,0.1367169767618179
2024-11-02 11:38:21.245,1730518290.585675,-0.0276458654552698,-0.0453571677207946,0.0067682266235351,-0.84705974239086,0.0293332481789609,-0.3178988586288738,0.019421374425292,0.7493366599082947,-0.6619043350219727,-0.4185077846050262,0.1839435249567031,0.1301155239343643
2024-11-02 11:38:21.255,1730518290.595796,-0.0118638407438993,-0.0193649530410766,0.0113447308540344,-0.8522267504788199,0.0329547608552413,-0.3157064160366235,0.0216904748231172,0.7527481317520142,-0.6579511761665344,-0.659442663192749,0.2376994341611862,0.1367851495742797
2024-11-02 11:38:21.265,1730518290.6056042,0.001313280314207,0.022181212902069,-0.0261156558990478,-0.8604060900373535,0.0377724095680967,-0.3131675548000637,0.024626649916172,0.7581074237823486,-0.6516644358634949,-0.9852327704429626,0.3299864828586578,0.1467078179121017
2024-11-02 11:38:21.275,1730518290.6156,-0.0311405509710311,0.0516155362129211,-0.0912903547286987,-0.8713797881654688,0.0435505474707917,-0.309743992715613,0.0280277300626039,0.7652179598808289,-0.643160879611969,-1.2199194431304932,0.2840275168418884,0.2116214632987976
2024-11-02 11:38:21.285,1730518290.6256309,-0.049470517784357,-0.1325777769088745,-0.1425612568855285,-0.8842611043421118,0.049371585620261,-0.3050940476820444,0.0312820151448249,0.7734468579292297,-0.6330887079238892,-1.3681983947753906,0.1638268083333969,0.2569194436073303
2024-11-02 11:38:21.295,1730518290.6356,-0.0133522450923919,-0.162782073020935,-0.1255398392677307,-0.8977931059652398,0.0548376438276589,-0.299631854335238,0.0341652147471904,0.7819531559944153,-0.6224002242088318,-1.3475855588912964,0.0921640694141388,0.2890333235263824
2024-11-02 11:38:21.305,1730518290.6455631,0.0010854452848434,0.0187852382659912,-0.0531623363494873,-0.9098999178255268,0.0609377345893284,-0.2930640580540707,0.0373819433152675,0.7894423007965088,-0.6126853823661804,-1.1186612844467163,0.1061595156788826,0.3934462964534759
2024-11-02 11:38:21.315,1730518290.655699,-0.0270455181598663,0.115557849407196,-0.0105529427528381,-0.9194523196845557,0.0692308786472821,-0.2842995591594794,0.0419380962848663,0.7952697277069092,-0.6048034429550171,-0.8455564975738525,0.1657837033271789,0.546240508556366
2024-11-02 11:38:21.325,1730518290.665543,-0.061924509704113,0.1924999356269836,-0.0040979385375976,-0.9260126452391398,0.0798099434838013,-0.2735786614297568,0.0479169152677059,0.7992298007011414,-0.5991125106811523,-0.5666418075561523,0.2539375126361847,0.6211403012275696
2024-11-02 11:38:21.335,1730518290.675523,-0.0934147089719772,0.289376437664032,0.0052437186241149,-0.9300629802143178,0.0781886723470284,-0.272350240034392,0.0466922968626022,0.8016576170921326,-0.5959572196006775,-0.2491488307714462,-0.9799327254295348,-0.8626968264579773
2024-11-02 11:38:21.345,1730518290.685523,-0.140464961528778,0.2811334729194641,0.0261579155921936,-0.930681213802304,0.0547104623034938,-0.2896769912319156,0.0326615944504737,0.8020269870758057,-0.5963941216468811,0.1648536771535873,-0.4544475972652435,-0.7042661905288696
2024-11-02 11:38:21.355,1730518290.695517,-0.4398597478866577,0.1402252316474914,0.0892771482467651,-0.9329982383156956,0.0573233855464578,-0.2905874719570034,0.0341132543981075,0.8034088015556335,-0.5944498777389526,-0.6329727172851562,0.8962419033050537,0.3983679711818695
2024-11-02 11:38:21.365,1730518290.705436,-0.3977208137512207,0.1616345047950744,-0.0754761695861816,-0.9388881120909264,0.0695458037990134,-0.2838394482840409,0.0410465970635414,0.8069018125534058,-0.5892577171325684,-0.4865225851535797,0.2785379290580749,0.2587847709655761
2024-11-02 11:38:21.375,1730518290.715492,0.0336632244288921,0.1187087893486023,0.040185809135437,-0.943115702370524,0.0708839832198904,-0.2805447932294219,0.0415931157767772,0.8093917965888977,-0.5857942700386047,-0.4340565800666809,-0.429939866065979,0.1218187659978866
2024-11-02 11:38:21.385,1730518290.725435,0.2559487223625183,-0.1289402246475219,0.1253705620765686,-0.9467343151041508,0.0696250728936379,-0.2770698248706657,0.0406515933573246,0.8115115761756897,-0.5829205513000488,-0.2666100561618805,-0.3434457182884216,0.2354044467210769
2024-11-02 11:38:21.395,1730518290.735424,0.239906907081604,0.0034209489822387,0.1055806875228881,-0.9477686345821146,0.0700220594203866,-0.2734389430732636,0.0408242642879486,0.8121155500411987,-0.5820668339729309,0.0010357267456129,-0.191720113158226,0.1483529508113861
2024-11-02 11:38:21.405,1730518290.74538,0.0309381261467933,0.1465954780578613,0.0625834465026855,-0.9474787535919794,0.069364373600933,-0.2720399930142524,0.0404577441513538,0.8119463324546814,-0.5823283195495605,0.0368714854121208,-0.1767949610948562,0.0338490195572376
2024-11-02 11:38:21.415,1730518290.755344,-0.0500505976378917,0.0773336887359619,0.07798433303833,-0.9470643477654273,0.067718513208634,-0.2717520561891392,0.0395220257341861,0.8117043972015381,-0.5827298164367676,0.0407859273254871,-0.2034417390823364,0.0136986887082457
2024-11-02 11:38:21.425,1730518290.765372,0.0225304178893566,-0.0652301311492919,0.1521053314208984,-0.9467003030562584,0.0656516063151122,-0.2715028087108145,0.0383368805050849,0.8114917278289795,-0.5831050872802734,0.0283159427344799,-0.2597478926181793,0.0204548612236976
2024-11-02 11:38:21.435,1730518290.775394,0.1236206442117691,-0.2156592011451721,0.1893878579139709,-0.946609507615105,0.0629996077025217,-0.2711766693245132,0.0367949903011322,0.8114386200904846,-0.583278238773346,-0.0055230101570487,-0.3207872807979584,0.0167619083076715
2024-11-02 11:38:21.445,1730518290.785698,0.1659378707408905,-0.2593068480491638,0.1936641335487365,-0.946335167462543,0.0597253775502351,-0.2712062923937523,0.0348982959985733,0.8112782835960388,-0.5836177468299866,0.0679432228207588,-0.3225564062595367,-0.0176109783351421
2024-11-02 11:38:21.455,1730518290.795456,0.1447414606809616,-0.2432724833488464,0.1527299880981445,-0.945244297598757,0.0559057275698053,-0.2721489773530738,0.0327182598412036,0.8106399774551392,-0.584630012512207,0.1768537908792495,-0.2868106663227081,-0.0824261903762817
2024-11-02 11:38:21.465,1730518290.805446,0.0973669737577438,-0.2140474319458007,0.0724344849586486,-0.9415715830483968,0.0514617118228786,-0.2742757667916514,0.0302727818489074,0.8084840178489685,-0.5877389311790466,0.6120949983596802,-0.2628502249717712,-0.1231153011322021
2024-11-02 11:38:21.475,1730518290.8154569,0.0732740014791488,-0.160164475440979,-0.0080142021179199,-0.9329812727136556,0.0469875664871593,-0.2766353229135141,0.0279680509120225,0.8033986687660217,-0.5947842597961426,1.0658913850784302,-0.2447087615728378,-0.050795666873455
2024-11-02 11:38:21.485,1730518290.825321,0.0774039030075073,-0.0902531147003173,-0.1095170974731445,-0.92247938687173,0.0443687426293709,-0.2770800733094067,0.0267830863595008,0.7971012592315674,-0.6032514572143555,0.9818310737609864,-0.2067195624113083,0.0924491062760353
2024-11-02 11:38:21.495,1730518290.835229,0.0945149213075637,0.0752120614051818,-0.1252890229225158,-0.914262696097656,0.043859105813997,-0.2756139477371349,0.0267619136720895,0.7921127676963806,-0.6097878813743591,0.6505663990974426,-0.1265325844287872,0.1402150243520736
2024-11-02 11:38:21.505,1730518290.845371,0.0724256113171577,0.219430387020111,-0.0626012086868286,-0.9091425274192364,0.0442572295976206,-0.2742473432522588,0.0271837618201971,0.7889772057533264,-0.6138208508491516,0.3851179182529449,-0.0122680626809597,0.0651668831706047
2024-11-02 11:38:21.515,1730518290.8552752,0.0017682574689388,0.1813163757324218,-0.0437686443328857,-0.9061146404360072,0.0448188645558011,-0.2740616635087448,0.0276354067027568,0.7871131896972656,-0.616189181804657,0.221551313996315,0.0846475660800933,-0.0054424623958766
2024-11-02 11:38:21.525,1730518290.865202,-0.0561143606901168,0.0375745296478271,-0.0580523014068603,-0.9047370984151484,0.0453927059508619,-0.2746250207666992,0.0280381757766008,0.7862627506256104,-0.6172558665275574,0.052831545472145,0.1102237701416015,-0.0475888513028621
2024-11-02 11:38:21.535,1730518290.8751512,-0.0613271445035934,-0.1112990379333496,-0.0541127920150756,-0.9053442959553036,0.0456906788819508,-0.2756572354364896,0.0282002855092287,0.7866377830505371,-0.6167703866958618,-0.1657439172267913,0.1120602861046791,-0.0861921682953834
2024-11-02 11:38:21.545,1730518290.8852282,-0.0343616008758544,-0.1710048913955688,-0.0190112590789794,-0.9061078764411205,0.0452841716298785,-0.2775642873200566,0.0279223639518022,0.7871090173721313,-0.6161816120147705,0.2771246135234833,0.1183482706546783,-0.1498694121837616
2024-11-02 11:38:21.555,1730518290.8955522,-0.0213598646223545,-0.1173463463783264,-0.0126820802688598,-0.90485793882156,0.0456056553415656,-0.2799335239580866,0.0281652826815843,0.7863373756408691,-0.6171548962593079,0.0013745282776653,0.2307464480400085,-0.114003874361515
2024-11-02 11:38:21.565,1730518290.905102,-0.0515714138746261,-0.0368230938911438,-0.126049518585205,-0.9048537307467266,0.0476561949430678,-0.2803263872448858,0.0294308867305517,0.7863348126411438,-0.6170992851257324,-0.0045059975236654,0.2150782793760299,0.0539121516048908
2024-11-02 11:38:21.575,1730518290.9150949,-0.0370730906724929,0.0898578763008117,-0.0739175677299499,-0.9048991136177802,0.0502515982213605,-0.2790779522178411,0.0310306139290332,0.7863628268241882,-0.6169851422309875,0.0130431372672319,0.1143183782696724,0.0833408832550048
2024-11-02 11:38:21.585,1730518290.925101,0.0272223874926567,0.1480540037155151,-0.0115113854408264,-0.904159788939994,0.0517938594768103,-0.2781462583820588,0.0320122130215168,0.7859058976173401,-0.6175169348716736,0.1358510851860046,0.0515138432383537,0.0431884042918682
2024-11-02 11:38:21.595,1730518290.935079,0.0418926477432251,0.0722762942314148,0.0249091386795043,-0.9021677660918158,0.0525151182295532,-0.2777758922327096,0.0325397066771984,0.7846725583076477,-0.6190558075904846,0.25072181224823,0.0426194183528423,0.0285650379955768
2024-11-02 11:38:21.605,1730518290.9455318,0.0186107009649276,-0.0128176808357238,0.0404049158096313,-0.8992616711476433,0.0532265911425102,-0.2776573521810369,0.0331013202667236,0.7828677296638489,-0.6213070154190063,0.3293524384498596,0.0828171744942665,0.0161259453743696
2024-11-02 11:38:21.614,1730518290.954997,-0.0068606920540332,-0.0212023258209228,0.0455924868583679,-0.8957011596120449,0.0542190210027425,-0.2778239785579238,0.0338687449693679,0.7806474566459656,-0.6240531206130981,0.3742763996124267,0.1385326385498047,0.000416811381001
2024-11-02 11:38:21.624,1730518290.965035,-0.0265179127454757,-0.0165694952011108,0.0369341969490051,-0.8921051238559154,0.0554921264077858,-0.2782113199074865,0.0348186790943145,0.7783949971199036,-0.6268084049224854,0.3406228125095367,0.1727949976921081,-0.0045039113610982
2024-11-02 11:38:21.635,1730518290.9751868,-0.024614181369543,-0.0098071694374084,0.018444538116455,-0.8893347606300415,0.0570790218503557,-0.2783719883341043,0.0359361991286277,0.7766528725624084,-0.6289029121398926,0.2041210979223251,0.1612041294574737,0.0167464092373847
2024-11-02 11:38:21.644,1730518290.985012,-0.0080999284982681,-0.0025405883789062,-0.0131354331970214,-0.8880464783469637,0.058774346157992,-0.2779432659756489,0.0370610803365707,0.775840699672699,-0.6298393607139587,0.0625330656766891,0.1024856865406036,0.0513059869408607
2024-11-02 11:38:21.655,1730518290.995556,0.0106882750988006,-0.0194240808486938,-0.0494806170463562,-0.8876472199143971,0.0600699883017828,-0.2769893887952238,0.0378956981003284,0.7755887508392334,-0.6301000714302063,0.0214712582528591,0.0067442441359162,0.0690808817744255
2024-11-02 11:38:21.664,1730518291.004956,0.0290475971996784,-0.0227395892143249,-0.0480405092239379,-0.8872430754143328,0.0605194773979474,-0.276090186011717,0.0381978712975978,0.77533358335495,-0.630395770072937,0.0675314292311668,-0.0505403503775596,0.0416817478835582
2024-11-02 11:38:21.674,1730518291.014905,0.0349955260753631,0.0296027064323425,-0.0090855360031127,-0.8863181756663278,0.0600928824761981,-0.2759458146166132,0.0379719883203506,0.7747491002082825,-0.6311274766921997,0.1352931708097458,-0.0613724924623966,-0.0171267092227935
2024-11-02 11:38:21.684,1730518291.0249949,0.023446749895811,0.0932477116584777,0.0202372670173645,-0.8845091046347864,0.0588468991947439,-0.2767494952056639,0.0372679531574249,0.7736040353775024,-0.6325724124908447,0.2526605427265167,-0.0705036669969558,-0.0620835274457931
2024-11-02 11:38:21.694,1730518291.034902,0.0118599124252796,0.071314513683319,0.025421142578125,-0.8812267536064606,0.0568428133128415,-0.2782958043559676,0.0361442193388938,0.7715198993682861,-0.6351776123046875,0.4199169874191284,-0.0906507521867752,-0.0935697108507156
2024-11-02 11:38:21.705,1730518291.045621,0.012522354722023,0.0204241871833801,0.0324773788452148,-0.8766142880041954,0.0542476858000805,-0.2804939969710365,0.0346883162856102,0.7685772776603699,-0.6388158798217773,0.5142991542816162,-0.0780835598707199,-0.1303064227104187
2024-11-02 11:38:21.714,1730518291.055039,0.0117305219173431,0.050291895866394,0.05445396900177,-0.8714923113147462,0.051468758709473,-0.2831362686621781,0.033115055412054,0.765290379524231,-0.64283287525177,0.5340394377708435,-0.0613863430917263,-0.1408192962408065
2024-11-02 11:38:21.724,1730518291.064883,-0.0004463270306587,0.0637491345405578,0.0416628122329711,-0.8662005472879836,0.0490014703612836,-0.2855287422577305,0.0317268222570419,0.7618734240531921,-0.6469483971595764,0.5352285504341125,-0.0710831731557846,-0.1082589551806449
2024-11-02 11:38:21.734,1730518291.07481,-0.0083473660051822,-0.0053339004516601,0.0066295862197875,-0.8610435377580185,0.0468264424779804,-0.2872863009699096,0.0305031258612871,0.7585229873657227,-0.6509319543838501,0.5020049214363098,-0.0978665873408317,-0.0697217434644699
2024-11-02 11:38:21.744,1730518291.084837,-8.765608072280884e-06,-0.0165873765945434,-0.0053412318229675,-0.8559424240039376,0.0449314075717121,-0.2884367903178443,0.0294429454952478,0.7551890015602112,-0.6548454761505127,0.4868568778038025,-0.1066001579165458,-0.0230346657335758
2024-11-02 11:38:21.755,1730518291.0957851,0.0063080601394176,0.0206436514854431,0.0177334547042846,-0.8523425277621278,0.0441431615192272,-0.2887639205280963,0.0290465392172336,0.7528243660926819,-0.6575801968574524,0.2686291635036468,-0.00711724255234,-0.0015505191404372
2024-11-02 11:38:21.764,1730518291.1048012,-0.0130532085895538,0.0396850109100341,-0.0199049711227417,-0.8495444411120732,0.0438372946323368,-0.2889030551391632,0.028937604278326,0.7509796619415283,-0.6596909165382385,0.2989077270030975,-0.0229217708110809,0.0131892785429954
2024-11-02 11:38:21.774,1730518291.114747,-0.0324471071362495,-0.028282344341278,-0.0203959941864013,-0.846990222634405,0.0436411234240557,-0.2888624495089453,0.0288917832076549,0.7492905855178833,-0.6616107821464539,0.1988408416509628,-0.0272025372833013,0.0160711389034986
2024-11-02 11:38:21.784,1730518291.124744,-0.0147200878709554,-0.1342947483062744,0.0140271782875061,-0.8456694321679215,0.0435355632474904,-0.288633301160825,0.0288649909198284,0.7484152913093567,-0.6626020073890686,0.0694418400526046,-0.0298875365406274,0.0261898189783096
2024-11-02 11:38:21.794,1730518291.134719,0.0015741903334856,-0.0018442869186401,-0.0018182396888732,-0.8454560689872885,0.0434821729794335,-0.2882156235754911,0.0288365539163351,0.7482737302780151,-0.6627630591392517,-0.0089475559070706,-0.042462982237339,0.0369864888489246
2024-11-02 11:38:21.805,1730518291.145754,0.0021489206701517,0.0396739840507507,-0.0155945420265197,-0.8461016409307388,0.0435907334427523,-0.2874583115814837,0.0288874469697475,0.7487018704414368,-0.6622771620750427,-0.11805060505867,-0.0592784509062767,0.0535665303468704
2024-11-02 11:38:21.814,1730518291.154818,0.0062146857380867,-0.0355806350708007,-0.0424343943595886,-0.8476656305286263,0.0437267214070292,-0.2861518864026684,0.0289262868463993,0.7497377395629883,-0.6611025929450989,-0.1922484338283538,-0.0919740721583366,0.1019132882356643
2024-11-02 11:38:21.824,1730518291.164674,0.0159615352749824,-0.0359797477722168,-0.0287686586380004,-0.8497931704652122,0.0441849163967333,-0.2842885657319957,0.0291586760431528,0.7511438727378845,-0.6594942212104797,-0.27353635430336,-0.1006410643458366,0.1279978901147842
2024-11-02 11:38:21.834,1730518291.17467,0.0135584697127342,-0.0397287607192993,-0.0205927491188049,-0.8529123458505717,0.0450041134839532,-0.2818622432387564,0.0295933727174997,0.7531993389129639,-0.6571263670921326,-0.366637647151947,-0.0979906842112541,0.1653494089841842
2024-11-02 11:38:21.844,1730518291.184802,0.0013707056641578,-0.0578386783599853,-0.0143784284591674,-0.8566979592772005,0.0464071380218194,-0.2786339902305857,0.0303828082978725,0.7556840777397156,-0.6542311310768127,-0.3642386794090271,-0.1184799820184707,0.2256170213222503
2024-11-02 11:38:21.855,1730518291.19588,-0.0120100192725658,-0.0818350911140441,-0.0228874087333679,-0.8596064927952336,0.0481766560822791,-0.2746534240978633,0.0314344577491283,0.7575857639312744,-0.6519782543182373,-0.2299191653728485,-0.1268838495016098,0.2582032084465027
2024-11-02 11:38:21.864,1730518291.204768,-0.009629737585783,-0.0201886892318725,0.0068711638450622,-0.860938592665819,0.0499158131021585,-0.2709460997839666,0.0325179174542427,0.7584546208381653,-0.6509141325950623,-0.0555311143398284,-0.0861739739775657,0.2054622024297714
2024-11-02 11:38:21.874,1730518291.214764,-0.0118609182536602,0.1002737283706665,0.0528408288955688,-0.861134860481601,0.0515738105423331,-0.2682013924537302,0.0335894152522087,0.7585824728012085,-0.6507106423377991,-0.0104769458994269,-0.0005906338337808,0.1535513401031494
2024-11-02 11:38:21.884,1730518291.2247748,-0.0305710360407829,0.1271131634712219,0.0393218994140625,-0.8607612947942243,0.0527043039382427,-0.2665820165122262,0.0343399383127689,0.7583390474319458,-0.6509551405906677,0.1280308663845062,-0.0723817273974418,0.023080950602889
2024-11-02 11:38:21.894,1730518291.234566,-0.02762296423316,0.0575904846191406,0.0097685456275939,-0.8588028234929417,0.0504048188922535,-0.2680241396887799,0.0329177528619766,0.7570609450340271,-0.6525144577026367,0.1813344359397888,-0.0831571444869041,-0.1037687137722969
2024-11-02 11:38:21.905,1730518291.245757,-0.0211398974061012,-0.0482696294784545,-0.0130431056022644,-0.8578143206109183,0.0508405539190446,-0.2682179911698916,0.0332400910556316,0.7564147114753723,-0.6532471776008606,-0.0040665743872523,0.175101563334465,0.0713298693299293
2024-11-02 11:38:21.914,1730518291.254519,-0.0243887789547443,-0.0548165440559387,0.019291877746582,-0.8579556679442036,0.0525992332212916,-0.2678705485871104,0.0343832671642303,0.756507158279419,-0.6530808806419373,0.029929868876934,0.1161431744694709,-0.0472735315561294
2024-11-02 11:38:21.924,1730518291.264544,0.0071110464632511,-0.0986930727958679,0.065810739994049,-0.8576405037028544,0.0530150972376398,-0.2691228662066947,0.0346674881875515,0.7563010454177856,-0.6533045172691345,0.0318888872861862,0.1507173925638198,-0.108462855219841
2024-11-02 11:38:21.934,1730518291.2745051,-0.0001285783946514,-0.1438262462615966,0.0703452825546264,-0.8573105964106313,0.0535191718493664,-0.2707303126921447,0.0350101478397846,0.7560851573944092,-0.6535361409187317,0.0187614783644676,0.1920981258153915,-0.088014893233776
2024-11-02 11:38:21.944,1730518291.284515,-0.0246047601103782,-0.0600867867469787,0.0402436256408691,-0.8573583784698537,0.0549715205416412,-0.2714651768432531,0.0359572879970073,0.7561164498329163,-0.6534485220909119,-0.0036852420307695,0.2049801051616668,-0.0035308985970914
2024-11-02 11:38:21.955,1730518291.2959108,-0.0309517569839954,0.0182951092720031,-0.0082268714904785,-0.8573855223670298,0.0571441148053113,-0.2711499639170341,0.0373757071793079,0.7561342120170593,-0.6533483862876892,0.029313251376152,0.1784478276968002,0.0358325913548469
2024-11-02 11:38:21.964,1730518291.304442,-0.0033213533461093,0.0623430609703063,-0.0131740570068359,-0.8569723419306408,0.059012736681304,-0.2708003897410744,0.0386149249970912,0.7558637261390686,-0.6535891890525818,0.080048069357872,0.1540002822875976,0.0155606111511588
2024-11-02 11:38:21.974,1730518291.314414,0.0145301781594753,0.0687794685363769,0.0101468563079833,-0.8557888098096693,0.0602397021141182,-0.2710600216429152,0.0394706614315509,0.7550883293151855,-0.6544339060783386,0.1579447537660598,0.1384759098291397,-0.0288542583584785
2024-11-02 11:38:21.984,1730518291.324414,0.0097255147993564,0.0125485062599182,0.0278199911117553,-0.8543273448163964,0.0609735675370689,-0.2718833684819563,0.040018118917942,0.7541293501853943,-0.6555055379867554,0.119565412402153,0.1362708210945129,-0.0540485605597496
2024-11-02 11:38:21.994,1730518291.3344731,0.003144271671772,-0.0347039103507995,0.0136185884475708,-0.8533226597945985,0.061445230592492,-0.2728428175854647,0.040373794734478,0.7534691691398621,-0.6562424898147583,0.089523360133171,0.1040215343236923,-0.0491203293204307
2024-11-02 11:38:22.005,1730518291.345967,0.0109211504459381,-0.0117674469947814,-0.0003864765167236,-0.8527620998629091,0.0619944350608965,-0.2735409132280374,0.040760364383459,0.7531004548072815,-0.6566417217254639,0.014649118296802,0.1158118769526481,-0.0394152365624904
2024-11-02 11:38:22.014,1730518291.354434,0.0146568045020103,-0.0030136704444885,-0.000747799873352,-0.8532101145500219,0.062960480392228,-0.2741141438432351,0.0413734540343284,0.753395140171051,-0.656265139579773,-0.1064457073807716,0.1635796725749969,-0.0403413772583007
2024-11-02 11:38:22.024,1730518291.364386,-0.0052033700048923,-0.006482183933258,-0.0123715996742248,-0.8548431499988202,0.0645127473701707,-0.2744585177597455,0.0423127263784408,0.7544679641723633,-0.6549714803695679,-0.2267185896635055,0.2028879225254058,-0.0132674146443605
2024-11-02 11:38:22.034,1730518291.3743691,-0.0186773054301738,-0.053530991077423,-0.02881920337677,-0.857926566912575,0.0664971208943053,-0.2743499778621611,0.0434575676918029,0.7564881443977356,-0.6525619626045227,-0.3973495662212372,0.1839075684547424,-0.0022388927172869
2024-11-02 11:38:22.044,1730518291.384642,-0.0087396241724491,-0.0724331736564636,-0.0605831146240234,-0.8623891058802632,0.068411780390169,-0.2738023646633441,0.0444757081568241,0.7593991160392761,-0.6491031050682068,-0.4623807668685913,0.116382859647274,0.0168434549123048
2024-11-02 11:38:22.056,1730518291.396091,0.0093870311975479,-0.0283393859863281,-0.0745777487754821,-0.8666744544458697,0.069774035821404,-0.2729749383881308,0.0451326183974742,0.7621803283691406,-0.6457896828651428,-0.3628755211830139,0.0344003736972808,0.0246816165745258
2024-11-02 11:38:22.064,1730518291.404269,0.0210533142089843,0.0109423398971557,-0.0300560593605041,-0.8694754740107203,0.0702767176588879,-0.2724899075678692,0.0453071482479572,0.763990581035614,-0.6436347365379333,-0.184569701552391,-0.0093998378142714,-0.0047923848032951
2024-11-02 11:38:22.074,1730518291.414253,0.0220363140106201,0.0770204067230224,0.0242257118225097,-0.8701971358795829,0.0697812064691235,-0.2727966532087152,0.0449497587978839,0.764456033706665,-0.6431068778038025,0.0320296585559845,-0.0423034615814685,-0.0423570163547992
2024-11-02 11:38:22.084,1730518291.424269,0.018443264067173,0.1232510805130004,0.0527533292770385,-0.8689017085459486,0.0684534633588136,-0.2738311796283844,0.0441635362803936,0.7636202573776245,-0.6441534161567688,0.2190551906824112,-0.0656343474984169,-0.073920801281929
2024-11-02 11:38:22.094,1730518291.43424,0.0157290697097778,0.0979753732681274,0.0669094324111938,-0.8661286742216258,0.0665504430274453,-0.2754635426597022,0.043078277260065,0.7618268728256226,-0.6463466882705688,0.3324459791183471,-0.0645075589418411,-0.1009354814887046
2024-11-02 11:38:22.106,1730518291.446132,0.0106973648071289,0.0580365657806396,0.0631008148193359,-0.8629411966891117,0.0644618264004943,-0.277386136076099,0.041884422302246,0.7597582340240479,-0.6488552093505859,0.2954147160053253,-0.0572531148791313,-0.1036156862974166
2024-11-02 11:38:22.114,1730518291.4541678,0.0042762272059917,0.0211977362632751,0.0247700214385986,-0.8602061953236799,0.0625409856506677,-0.2791429978245345,0.0407677181065082,0.7579770684242249,-0.6510059237480164,0.2438234984874725,-0.0557604134082794,-0.0875535309314727
2024-11-02 11:38:22.124,1730518291.464201,-0.0007869452238082,-0.0153635144233703,-0.0080633163452148,-0.8579885191597884,0.0608797750703125,-0.2805866704577513,0.0397883839905262,0.7565286755561829,-0.6527490615844727,0.1650029867887497,-0.0578435361385345,-0.0750419944524765
2024-11-02 11:38:22.134,1730518291.474246,-0.0020228400826454,-0.0480501055717468,-0.024057388305664,-0.8564533524245604,0.0593716777221739,-0.2817099199934785,0.0388727970421314,0.7555238604545593,-0.6539669036865234,0.1396149843931198,-0.0758334547281265,-0.0589453168213367
2024-11-02 11:38:22.144,1730518291.484321,0.0027515664696693,-0.0258535146713256,-0.0210904479026794,-0.8547623232717002,0.0578147517891071,-0.2826708813275796,0.0379283428192138,0.7544149160385132,-0.6553011536598206,0.2034219354391098,-0.0970484614372253,-0.0575149320065975
2024-11-02 11:38:22.156,1730518291.496274,0.0039928071200847,0.0044399499893188,-0.0015063285827636,-0.8527117857054914,0.0560447431780377,-0.2837515635095063,0.0368549712002277,0.7530673742294312,-0.6569104194641113,0.2554824948310852,-0.1024205908179283,-0.070897951722145
2024-11-02 11:38:22.164,1730518291.504147,0.00537820905447,0.0554690957069397,0.0229434967041015,-0.8497425229702431,0.053845836978579,-0.285092275665566,0.0355305820703506,0.7511104345321655,-0.6592196822166443,0.3686657845973968,-0.1352903842926025,-0.0732503235340118
2024-11-02 11:38:22.174,1730518291.514094,0.008506990969181,0.0646089911460876,0.0291014313697814,-0.8461904888030013,0.0515534349848012,-0.2863665601312098,0.0341565608978271,0.7487607598304749,-0.661959707736969,0.2967720925807953,-0.1056723073124885,-0.0620450787246227
2024-11-02 11:38:22.184,1730518291.524068,0.0091536231338977,0.0313356518745422,0.0338701009750366,-0.8434231851771247,0.0497067877794952,-0.2877230220570018,0.0330369248986244,0.7469236254692078,-0.6640886068344116,0.2941201329231262,-0.0765676870942115,-0.084018550813198
2024-11-02 11:38:22.194,1730518291.534061,-0.0078967846930027,0.0501024723052978,-0.0037413239479064,-0.8402182910719586,0.0480042052156166,-0.2891893374229228,0.032020915299654,0.7447888255119324,-0.666531503200531,0.3481780886650085,-0.051439169794321,-0.0810548290610313
2024-11-02 11:38:22.206,1730518291.54631,-0.0178845673799514,-0.0625402927398681,0.0172631740570068,-0.8369807592592861,0.0465897010975542,-0.290477159518679,0.0311902090907096,0.7426245212554932,-0.6689813137054443,0.3040615022182464,-0.0414962582290172,-0.0605524815618991
2024-11-02 11:38:22.214,1730518291.554088,-0.0114050731062889,-0.071470558643341,0.0048028230667114,-0.8338250980432272,0.0455036664646703,-0.2914346929855768,0.030570100992918,0.7405074238777161,-0.6713524460792542,0.3385235071182251,-0.0332308709621429,-0.0436405017971992
2024-11-02 11:38:22.223,1730518291.56396,-0.0040318667888641,0.0517909526824951,0.0115793943405151,-0.8303110971902607,0.0444858516033483,-0.2923500658520578,0.0300023108720779,0.7381412982940674,-0.6739786863327026,0.3693791627883911,-0.0369582287967205,-0.0466541349887847
2024-11-02 11:38:22.233,1730518291.573905,-0.0023717135190963,0.0375935435295105,0.0193440914154052,-0.8264390424298199,0.0434236992813284,-0.2932624017198846,0.0294102765619754,0.735523521900177,-0.6768605709075928,0.4137377142906189,-0.0452060401439666,-0.0398975908756256
2024-11-02 11:38:22.243,1730518291.584011,-0.0056364778429269,-0.0045773386955261,0.021876573562622,-0.8222753025409434,0.042464633233169,-0.2939527239830621,0.0288908705115318,0.7326961755752563,-0.6799423694610596,0.4104929268360138,-0.0453381314873695,-0.0188442338258028
2024-11-02 11:38:22.256,1730518291.596313,-0.0084304641932249,-0.0018227100372314,0.0304977893829345,-0.8184375015984993,0.0418231319838304,-0.2942928447173028,0.0285720415413379,0.7300789952278137,-0.6827651858329773,0.3657990396022796,-0.0222509205341339,0.0039635561406612
2024-11-02 11:38:22.264,1730518291.604084,-0.011422986164689,0.0152520537376403,0.0236566066741943,-0.8154498611647202,0.0418042083900972,-0.2942546930577244,0.0286501515656709,0.7280340790748596,-0.6849420070648193,0.1991267055273056,0.0137518197298049,0.0267197340726852
2024-11-02 11:38:22.274,1730518291.614078,-0.0148095618933439,0.001364529132843,-0.0041817426681518,-0.8140071410114156,0.0424063131657487,-0.2939409155592397,0.0291070491075515,0.7270442843437195,-0.6859732866287231,0.0853573083877563,0.0594628490507602,0.0253308955579996
2024-11-02 11:38:22.283,1730518291.623982,-0.0128550063818693,-0.0370587110519409,-0.028542935848236,-0.8138539621733416,0.0433536795739048,-0.2933788135739892,0.0297617278993129,0.7269390821456909,-0.6860566735267639,-0.0764065533876419,0.0602255761623382,0.0594558455049991
2024-11-02 11:38:22.293,1730518291.63392,-0.0062770377844572,-0.0804275870323181,-0.0427690744400024,-0.8147258397874405,0.0447719819539847,-0.2922849642175051,0.0307063572108745,0.7275375127792358,-0.6853803396224976,-0.1457906365394592,0.0681309103965759,0.0842632949352264
2024-11-02 11:38:22.306,1730518291.646687,0.0012851506471633,-0.0292614102363586,-0.0388409495353698,-0.815944928531574,0.046466384114472,-0.2909607166181655,0.0318264029920101,0.7283733487129211,-0.6844409108161926,-0.1056397631764411,0.0859453231096267,0.0769340097904205
2024-11-02 11:38:22.313,1730518291.653901,-0.0083577893674373,0.0128668546676635,-0.0060980319976806,-0.8163922079034874,0.0478036327899002,-0.290203702061148,0.0327260717749595,0.7286797761917114,-0.6840722560882568,0.0342977307736873,0.0696547701954841,0.0270422436296939
2024-11-02 11:38:22.323,1730518291.663847,-0.0162091851234436,-0.0181167125701904,0.035033643245697,-0.8160477761343579,0.0486456595507193,-0.2898728937851391,0.0333142690360546,0.7284438610076904,-0.684295117855072,0.0099071701988577,0.0353330112993717,0.0280526485294103
2024-11-02 11:38:22.333,1730518291.673838,0.0034563913941383,-0.0126013755798339,0.0226509571075439,-0.8159708909797779,0.0491811924404245,-0.2892043460526033,0.0336834788322448,0.728391170501709,-0.684333086013794,0.0212305560708045,-0.0127642098814249,0.0766404271125793
2024-11-02 11:38:22.343,1730518291.683803,0.0225829258561134,0.0466293096542358,0.0110090970993042,-0.8157762604299644,0.0497399996701569,-0.2879339429716072,0.0340729318559169,0.7282577753067017,-0.6844556927680969,0.0463151335716247,-0.0456577129662036,0.0933672040700912
2024-11-02 11:38:22.356,1730518291.696336,0.0200386308133602,-0.003293752670288,-0.0186699032783508,-0.8148583405479926,0.049641243927796,-0.2870809993027236,0.0340384952723979,0.7276284098625183,-0.6851264834403992,0.096779815852642,-0.0783030018210411,0.0531056970357894
2024-11-02 11:38:22.363,1730518291.703696,0.0194324925541877,-0.0126734375953674,-0.0038901567459106,-0.8139180488868424,0.0488069328998883,-0.2868606886600702,0.0335002355277538,0.7269830703735352,-0.6858376264572144,0.0692376717925071,-0.1050190329551696,-0.0041123200207948
2024-11-02 11:38:22.373,1730518291.713746,0.0264194272458553,0.0571090579032897,0.0071460008621215,-0.8127573818396394,0.0473938667613545,-0.287337517419189,0.0325710251927375,0.7261856198310852,-0.6867266893386841,0.0242181699723005,-0.1082206889986991,-0.0385966338217258
2024-11-02 11:38:22.383,1730518291.723841,0.0271491073071956,0.0577196478843688,0.0122928023338317,-0.812091289361983,0.0456549103546878,-0.2880580324663043,0.0313988551497459,0.7257275581359863,-0.6872652769088745,0.0728903636336326,-0.1198065057396888,-0.0516844727098941
2024-11-02 11:38:22.393,1730518291.7337918,0.0203923229128122,-0.014157235622406,-0.0010565519332885,-0.811415727023675,0.0436437427364163,-0.2892944359098535,0.0300379730761051,0.7252625823020935,-0.6878167390823364,0.0773139521479606,-0.1093298941850662,-0.1078671514987945
2024-11-02 11:38:22.403,1730518291.74372,0.00828742608428,-0.0443095564842224,0.0234566926956176,-0.8109075033302225,0.0413656600414807,-0.2910514388588537,0.0284862332046031,0.7249125838279724,-0.6882516145706177,0.0458058305084705,-0.0731798782944679,-0.1058298349380493
2024-11-02 11:38:22.413,1730518291.7538118,-0.0084623619914054,-0.0248151421546936,0.039612591266632,-0.8116479333309025,0.0413916342877751,-0.2911644777671096,0.0284818895161151,0.7254224419593811,-0.6877143979072571,-0.0769072994589805,0.0282170455902814,0.0201668143272399
2024-11-02 11:38:22.423,1730518291.763644,-0.013774124905467,-0.0464116334915161,0.0437366366386413,-0.8124097041550966,0.041138722230492,-0.2913075848199751,0.0282852239906787,0.7259465456008911,-0.6871692538261414,-0.050851471722126,-0.0542410798370838,-0.0514474511146545
2024-11-02 11:38:22.433,1730518291.773654,-0.0157171003520488,-0.0895711779594421,0.0134591460227966,-0.8139085174464397,0.0411224770167885,-0.2913730695158397,0.0282292980700731,0.7269765734672546,-0.6860818266868591,-0.2580834627151489,0.0492384396493434,0.0265090800821781
2024-11-02 11:38:22.443,1730518291.78377,-0.0567349605262279,-0.0550105571746826,-0.0132347345352172,-0.8171592537922604,0.0429419253451286,-0.2901952637907333,0.0293759368360042,0.7292048931121826,-0.6836646795272827,-0.4180986881256103,0.1259156465530395,0.084416314959526
2024-11-02 11:38:22.453,1730518291.793627,-0.0699858367443084,-0.0727277398109436,-0.0102490782737731,-0.8224167068722377,0.0458200821635833,-0.2884001724564498,0.0311674699187278,0.7327924370765686,-0.6797381043434143,-0.6147007942199707,0.1724695712327957,0.0967871844768524
2024-11-02 11:38:22.463,1730518291.8036652,-0.0548312775790691,-0.1620489358901977,-0.0105096101760864,-0.8297053715752191,0.0492576993673732,-0.2864065897661337,0.0332400873303413,0.7377325296401978,-0.6742742657661438,-0.825005054473877,0.2021201401948928,0.0969935730099678
2024-11-02 11:38:22.473,1730518291.813534,-0.0327016226947307,-0.1562162637710571,-0.0103015899658203,-0.838238224450725,0.053143860386185,-0.284100814590741,0.0355244912207126,0.7434660196304321,-0.6678295731544495,-0.9040854573249816,0.2316708415746688,0.124458223581314
2024-11-02 11:38:22.483,1730518291.8236442,-0.0256152860820293,-0.1334620714187622,-0.0153038501739501,-0.8471990536666141,0.0577573951743276,-0.2812681470495438,0.038219042122364,0.7494288682937622,-0.6609808802604675,-0.8767462372779846,0.2728542387485504,0.1519662886857986
2024-11-02 11:38:22.493,1730518291.833549,-0.0189583338797092,-0.0643732547760009,-0.0062893033027648,-0.8553768505100814,0.0630709318287171,-0.278021719892548,0.0413429513573646,0.7548181414604187,-0.6546298861503601,-0.862964391708374,0.3066383004188537,0.1777797639369964
2024-11-02 11:38:22.503,1730518291.843571,-0.008621446788311,0.0035130977630615,-0.0047870874404907,-0.8655088969589212,0.0695179192223966,-0.274161190842127,0.0450288914144039,0.761425256729126,-0.6466869115829468,-1.187393069267273,0.3974326252937317,0.1944847106933593
2024-11-02 11:38:22.513,1730518291.85376,-0.0154435560107231,0.0491102337837219,-0.0583469867706298,-0.8779278690779165,0.0775271499531086,-0.2692558297837613,0.049470629543066,0.7694169878959656,-0.6368281841278076,-1.306640625,0.4397103190422058,0.2582271993160248
2024-11-02 11:38:22.524,1730518291.8647208,-0.0367565900087356,-0.0430294275283813,-0.0934201478958129,-0.8909655567663255,0.0865858688818153,-0.2627727883499717,0.0543652102351188,0.7776791453361511,-0.6263063549995422,-1.371679186820984,0.3605164289474487,0.3487981259822845
2024-11-02 11:38:22.533,1730518291.873798,-0.0275565721094608,-0.205860435962677,-0.1026151180267334,-0.904632422803585,0.0960237118446527,-0.2543586738070631,0.059249073266983,0.786198079586029,-0.6151278614997864,-1.4469276666641235,0.2095977514982223,0.4465638697147369
2024-11-02 11:38:22.545,1730518291.885112,0.0066499710083007,-0.0328315496444702,-0.0880680084228515,-0.9183419747057804,0.1059343313615286,-0.2437927265882661,0.0641965791583061,0.7945960760116577,-0.6037349700927734,-1.3784856796264648,0.1118834465742111,0.5740853548049927
2024-11-02 11:38:22.553,1730518291.893837,0.0095919221639633,0.2021744847297668,-0.062176764011383,-0.929523573213702,0.1175366495698247,-0.2305377069344867,0.0701505094766616,0.8013350367546082,-0.5940884947776794,-0.9983522295951844,0.0848502367734909,0.7593386173248291
2024-11-02 11:38:22.563,1730518291.903677,-0.0151821449398994,0.2786706686019897,-0.01827073097229,-0.9339942244478032,0.1121681451556248,-0.2300030737108045,0.0665584802627563,0.8040014505386353,-0.590890645980835,0.0204879902303218,-1.067193865776062,-0.8096919655799866
2024-11-02 11:38:22.573,1730518291.913648,-0.0982553511857986,0.3088986873626709,0.0462716221809387,-0.9323788246360004,0.089154042489267,-0.2471050885976594,0.0530587993562221,0.8030397891998291,-0.5935586094856262,0.4913031756877899,-0.7024369239807129,-1.0764665603637695
2024-11-02 11:38:22.583,1730518291.923523,-0.4590482711791992,0.2514557242393493,0.0629739761352539,-0.9283079762863916,0.0821476191460167,-0.2562270538727461,0.0491666495800018,0.8006072640419006,-0.5971689224243164,0.3342176973819732,0.6980512738227844,0.1153284832835197
2024-11-02 11:38:22.593,1730518291.933398,-0.4900625348091125,0.2352935671806335,-0.0587742328643798,-0.926532627225893,0.0914279526020292,-0.2522678922267805,0.0548360645771026,0.7995421886444092,-0.5981013774871826,-0.0718788802623748,0.3299454748630523,0.2071209400892257
2024-11-02 11:38:22.603,1730518291.943375,-0.0611976906657218,0.1444528102874755,-0.0587737560272216,-0.9271767017920064,0.0912491449495663,-0.2512705088681782,0.0546821877360343,0.7999289035797119,-0.5975983142852783,0.0162208825349807,-0.4846422672271728,-0.0319449119269847
2024-11-02 11:38:22.613,1730518291.9535031,0.2498555779457092,-0.0142244100570678,0.1494083404541015,-0.9268226410216398,0.0860980790921859,-0.2508898674951409,0.0516275502741336,0.7997163534164429,-0.5981541275978088,-0.0047633070498704,-0.5190836191177368,0.0986335575580596
2024-11-02 11:38:22.623,1730518291.963573,0.24383345246315,-0.1383255124092102,0.2193019390106201,-0.9270791372196464,0.0834144355082065,-0.2488083602039911,0.0500050447881221,0.7998703122138977,-0.5980861186981201,-0.0319472551345825,-0.3725570142269134,0.1091708838939666
2024-11-02 11:38:22.633,1730518291.97328,0.0751864910125732,-0.0522636771202087,0.1719526648521423,-0.9263893503397014,0.0803416939940471,-0.2484104934833301,0.048211321234703,0.7994561791419983,-0.5987867712974548,0.1842371672391891,-0.3184026777744293,-0.0444481335580349
2024-11-02 11:38:22.643,1730518291.983168,-0.0512792840600013,0.0362280011177063,0.137042224407196,-0.923565066865996,0.0762092186319858,-0.2499632136142796,0.0459081679582595,0.7977563738822937,-0.6012298464775085,0.3982170820236206,-0.2590123414993286,-0.0886611342430114
2024-11-02 11:38:22.653,1730518291.993355,-0.0182147473096847,0.0108290910720825,0.0939387679100036,-0.9182328362188384,0.0718727071580486,-0.2523854507137266,0.0436053536832332,0.7945297956466675,-0.6056575179100037,0.6928567290306091,-0.2271769046783447,-0.1212277561426162
2024-11-02 11:38:22.663,1730518292.0034351,0.0746520012617111,-0.0470304489135742,0.0984010696411132,-0.9102554222204576,0.0678126736684427,-0.2549290061494397,0.0415741838514804,0.7896604537963867,-0.6121339201927185,0.899909496307373,-0.1793883442878723,-0.0651738047599792
2024-11-02 11:38:22.673,1730518292.0135732,0.1360416710376739,-0.1447064280509948,0.0971138477325439,-0.9013849121402896,0.0655149857477652,-0.2560429632063047,0.0406245775520801,0.7841870188713074,-0.6191932559013367,0.8396881818771362,-0.1051189079880714,0.0365853086113929
2024-11-02 11:38:22.683,1730518292.023462,0.168885663151741,-0.1466085910797119,0.0640321969985961,-0.8942772468323638,0.0645793006880285,-0.2561605643927389,0.0404038727283477,0.7797567844390869,-0.6247773766517639,0.5786802768707275,-0.0726097002625465,0.0272456016391515
2024-11-02 11:38:22.693,1730518292.033496,0.1746611893177032,-0.0724798440933227,0.0044591426849365,-0.889512054043453,0.0633365059960832,-0.2566910706521589,0.0398621037602424,0.7767645120620728,-0.6285282969474792,0.4013647437095642,-0.0966497883200645,-0.0289198774844408
2024-11-02 11:38:22.703,1730518292.043242,0.1491618901491165,-0.0722061395645141,-0.0754312872886657,-0.8859597033479902,0.061758055180486,-0.2574120211012848,0.0390400104224681,0.7745224237442017,-0.6313405632972717,0.306344211101532,-0.0987467616796493,-0.0092527000233531
2024-11-02 11:38:22.713,1730518292.053225,0.1184379905462265,-0.1167061924934387,-0.1175020337104797,-0.8835354636641666,0.0609130627460145,-0.2575859203845283,0.0386207103729248,0.7729867100715637,-0.6332456469535828,0.194329023361206,-0.034804530441761,0.0008982575964182
2024-11-02 11:38:22.723,1730518292.0635738,0.1029115170240402,-0.0215760469436645,-0.0451282262802124,-0.8816508287043117,0.0605701407953755,-0.258108538409379,0.0384916700422763,0.7717896699905396,-0.6347118616104126,0.208415538072586,0.0395376086235046,-0.0448031835258007
2024-11-02 11:38:22.733,1730518292.073145,0.0755231827497482,0.0979228019714355,0.0112609267234802,-0.8798655968926047,0.0603892882221642,-0.2589759417560857,0.0384599715471267,0.770653247833252,-0.6360930800437927,0.1275118142366409,0.0500999726355075,-0.0351895429193973
2024-11-02 11:38:22.743,1730518292.083179,0.0453716814517974,0.049263596534729,-0.014550507068634,-0.8793851868214688,0.0603064098934686,-0.259452448493521,0.0384295620024204,0.770346999168396,-0.6364657282829285,-0.0093645434826612,0.0035178246907889,-0.0237163808196783
2024-11-02 11:38:22.753,1730518292.093091,0.0421769171953201,-0.0299996733665466,-0.0129917860031127,-0.8798542940210812,0.0599897951978138,-0.259771637990958,0.0382063761353492,0.7706460356712341,-0.6361171007156372,-0.0806618109345436,-0.0143000548705458,-0.0258610248565673
2024-11-02 11:38:22.763,1730518292.103109,0.0285950787365436,-0.0686649680137634,0.0336992144584655,-0.8807878039927967,0.0595797985897412,-0.2601515502107161,0.0379027128219604,0.7712405920028687,-0.6354143023490906,-0.0891013741493225,-0.0079569378867745,-0.0350201688706874
2024-11-02 11:38:22.773,1730518292.113686,-0.0107299238443374,-0.0595515966415405,0.0405738353729248,-0.8814532763664121,0.059128146155369,-0.2607116342805039,0.0375853888690471,0.771664023399353,-0.6349189281463623,-0.043145190924406,0.0050832307897508,-0.040530726313591
2024-11-02 11:38:22.783,1730518292.123052,-0.0561085864901542,-0.0375707745552063,0.0068265795707702,-0.881776379224118,0.058861335627063,-0.2612160680735392,0.0374013148248195,0.7718694806098938,-0.6346799731254578,-0.0123358787968754,0.0196997243911027,-0.0227650459855794
2024-11-02 11:38:22.793,1730518292.133072,-0.0819665864109993,-0.0194571018218994,-0.0203220248222351,-0.8817739724161872,0.0589964956613885,-0.2614212063090803,0.0374872013926506,0.7718679308891296,-0.6346766352653503,0.0158455967903137,0.0389043092727661,-0.0014790929853916
2024-11-02 11:38:22.802,1730518292.143045,-0.0838831141591072,0.0159429907798767,-0.0277702808380126,-0.8816304586589903,0.0595535573410676,-0.2612969445865397,0.0378473475575447,0.7717766761779785,-0.6347663402557373,0.0227642245590686,0.0555213689804077,0.0130231501534581
2024-11-02 11:38:22.812,1730518292.153034,-0.0742554888129234,0.0637404322624206,-0.0194175243377685,-0.8809480365464416,0.0603699550149156,-0.2611597767500284,0.0383973233401775,0.7713425755500793,-0.6352607607841492,0.118041455745697,0.0884644091129303,0.0153357330709695
2024-11-02 11:38:22.823,1730518292.163646,-0.0612763427197933,0.0879687070846557,-0.0105530023574829,-0.8796585903389463,0.0615803307099089,-0.2609327468789384,0.0392273776233196,0.7705212831497192,-0.6362060308456421,0.135899543762207,0.1076828464865684,0.0218309164047241
2024-11-02 11:38:22.832,1730518292.172967,-0.0436075292527675,0.0498147010803222,-0.0095192193984985,-0.8784017589038965,0.0629490973046157,-0.2606614684633037,0.0401590466499328,0.7697196006774902,-0.6371177434921265,0.0989608615636825,0.1187621280550956,0.019755994901061
2024-11-02 11:38:22.842,1730518292.182982,-0.0221727453172206,0.0029323697090148,0.0132546424865722,-0.8775293050721956,0.0642286508999426,-0.2605846426365598,0.0410173274576664,0.7691622972488403,-0.6377357840538025,0.078965850174427,0.1207618936896324,-0.0031951272394508
2024-11-02 11:38:22.852,1730518292.192923,-0.0106634050607681,-0.0274869799613952,0.0224825739860534,-0.8769221152423569,0.0652510252445641,-0.2607720594363195,0.041699755936861,0.768774151802063,-0.638159453868866,0.0294431168586015,0.1129002422094345,-0.0074640149250626
2024-11-02 11:38:22.862,1730518292.203017,-0.0042402185499668,-0.0443809032440185,0.0137897729873657,-0.8768306222383587,0.0660818480058497,-0.2609436381274,0.0422345772385597,0.7687156200408936,-0.6381946802139282,-0.0109080346301198,0.0891238078474998,0.0094875385984778
2024-11-02 11:38:22.873,1730518292.2137651,0.0026866123080253,-0.049252450466156,-0.020904541015625,-0.8769322631702682,0.0666648993574015,-0.2609276226263521,0.042601466178894,0.7687806487083435,-0.6380919814109802,-0.0250196196138858,0.0512744262814521,0.0286328438669443
2024-11-02 11:38:22.882,1730518292.222913,0.00546495616436,-0.0491183996200561,-0.0624114274978637,-0.8772476523946504,0.0671427894031056,-0.2606339041226967,0.0428901314735412,0.7689822912216187,-0.637829601764679,-0.0332802161574363,0.027211969718337,0.0386535190045833
2024-11-02 11:38:22.892,1730518292.232881,0.0074286200106143,-0.0247177481651306,-0.0451592206954956,-0.877555106908932,0.0674622640002445,-0.2602984176718125,0.04307796433568,0.7691788077354431,-0.6375800371170044,-0.0154510727152228,0.0211769808083772,0.0372435376048088
2024-11-02 11:38:22.902,1730518292.2428489,0.0112714692950248,0.0210344791412353,-0.0080330967903137,-0.8777361461293515,0.0677440213767008,-0.26014032293737,0.0432481802999973,0.7692945003509521,-0.6374289393424988,0.0141302542760968,0.0381370522081851,0.0154927000403404
2024-11-02 11:38:22.912,1730518292.252872,0.0116756707429885,0.0578348040580749,0.0261050462722778,-0.8773363409823148,0.0680346401514225,-0.2603294207499927,0.0434543266892433,0.7690389752388,-0.6377230882644653,0.098588727414608,0.063849076628685,-0.007837975397706
2024-11-02 11:38:22.923,1730518292.263877,0.0119811408221721,0.0612326860427856,0.0400723218917846,-0.8760796300369119,0.0683136131115936,-0.2607513635233706,0.0436981655657291,0.7682350873947144,-0.6386746168136597,0.1525347828865051,0.0626160353422164,-0.0227594021707773
2024-11-02 11:38:22.932,1730518292.2729192,0.0105313174426555,0.0285987854003906,0.0273040533065795,-0.8743816264515311,0.0683180063382254,-0.2615168822131959,0.0437899567186832,0.7671470046043396,-0.6399748921394348,0.1963610351085662,0.0638541355729103,-0.0497943200170993
2024-11-02 11:38:22.942,1730518292.28281,0.0094955079257488,0.0178409218788146,0.0409097075462341,-0.8721255337443823,0.0681075056473654,-0.2626504127381237,0.043772917240858,0.7656978368759155,-0.6417092084884644,0.2451149821281433,0.0733208805322647,-0.0511916801333427
2024-11-02 11:38:22.952,1730518292.292639,-0.0022481977939605,0.0089126825332641,0.0275986194610595,-0.8693101821141292,0.0681556736994191,-0.2634103546624622,0.0439504645764827,0.7638839483261108,-0.6438552737236023,0.2900260984897613,0.0455371774733066,-0.0090505136176943
2024-11-02 11:38:22.962,1730518292.30284,-0.0038365572690963,0.0030103325843811,-0.0219994187355041,-0.8659314071478457,0.0681460055405357,-0.2636258208047214,0.0441197343170642,0.7616990804672241,-0.6464270353317261,0.328229159116745,-0.0145967314019799,0.0167336799204349
2024-11-02 11:38:22.973,1730518292.313898,0.015102632343769,0.0173746347427368,-0.0209812521934509,-0.8623035159140612,0.0676874145693124,-0.2638345718550696,0.0440098978579044,0.7593434453010559,-0.6491999626159668,0.3676483035087585,-0.0429972149431705,0.0023763119243085
2024-11-02 11:38:22.982,1730518292.322761,0.0257075205445289,0.0476571917533874,0.0099603533744812,-0.8586157478487516,0.066999497575984,-0.2641780739162533,0.0437504723668098,0.7569386959075928,-0.6520196795463562,0.3963587880134582,-0.0550698563456535,-0.0006940464372746
2024-11-02 11:38:22.992,1730518292.3327,0.0213497877120971,0.0591382980346679,0.0176167488098144,-0.8551105706635573,0.0664626179850193,-0.2642572309374,0.04357635602355,0.754643440246582,-0.654686450958252,0.4019387662410736,-0.0538048557937145,0.0329081229865551
2024-11-02 11:38:23.002,1730518292.342675,0.0223171152174472,0.0342958569526672,0.0144504308700561,-0.8519320869258201,0.0665132195332577,-0.2638998903901895,0.0437686890363693,0.7525541186332703,-0.6570742726325989,0.2937928438186645,-0.0053486377000808,0.0418875031173229
2024-11-02 11:38:23.012,1730518292.352713,0.0234861671924591,0.0055261254310607,0.0305328369140625,-0.849882687199565,0.066436133088429,-0.264213507734759,0.0438203290104866,0.7512030005455017,-0.6586151123046875,0.2291070967912674,0.0078076450154185,-0.0653382837772369
2024-11-02 11:38:23.023,1730518292.363943,-0.0068420059978961,-0.0038434863090515,-0.0004241466522216,-0.8482670979971535,0.0657727157903852,-0.2652942089777493,0.0434630922973156,0.750135600566864,-0.6598541736602783,0.17629075050354,0.0211093351244926,-0.0452497974038124
2024-11-02 11:38:23.032,1730518292.372658,-0.0426212176680564,-0.0767922401428222,-0.0117768049240112,-0.8470627064434311,0.0657943355506281,-0.2656572282004185,0.0435367301106452,0.7493386268615723,-0.6607542634010315,0.1306008547544479,0.0272551123052835,0.006183513905853
2024-11-02 11:38:23.042,1730518292.382677,-0.0332006439566612,-0.097764253616333,-0.0219644308090209,-0.8454608661942093,0.0658276612230909,-0.2657740584769838,0.0436376519501209,0.748276948928833,-0.6619496941566467,0.2016843408346176,5.704688373953104e-05,0.0002033857745118
2024-11-02 11:38:23.052,1730518292.3927732,-0.0169851966202259,-0.0210304856300354,-0.0312488079071044,-0.8432824631828113,0.0658111966045193,-0.2658578055851731,0.0437338501214981,0.7468300461769104,-0.6635754108428955,0.2328920513391494,0.0052161226049065,0.018077990040183
2024-11-02 11:38:23.062,1730518292.402657,-0.0112074241042137,0.0422523617744445,-0.013978362083435,-0.8412586079068571,0.0661286866865948,-0.2656524476723649,0.0440443120896816,0.7454826235771179,-0.6650682687759399,0.1955311000347137,0.0132620641961693,0.0228463802486658
2024-11-02 11:38:23.074,1730518292.41405,0.0007489323616027,0.0669147372245788,0.0029995441436767,-0.8398112580362576,0.0664209407375182,-0.2653611162243576,0.0443102456629276,0.7445171475410461,-0.6661312580108643,0.1320266872644424,-0.0056817987933754,0.0290615055710077
2024-11-02 11:38:23.082,1730518292.422738,0.0128697380423545,0.0257703065872192,-0.0002492666244506,-0.8389304407494045,0.0666909916071829,-0.2648377009768959,0.0445338226854801,0.7439287900924683,-0.6667733788490295,0.0612672977149486,-0.0262675005942583,0.0436857193708419
2024-11-02 11:38:23.092,1730518292.432733,0.0275563895702362,-0.0182476043701171,-0.0139315724372863,-0.8389477164877465,0.0669782239828329,-0.2641101877451394,0.0447244793176651,0.7439403533935547,-0.6667477488517761,-0.0429425872862339,-0.0343459360301494,0.0365772657096385
2024-11-02 11:38:23.102,1730518292.442732,0.032852116972208,-0.0321601033210754,-0.0144542455673217,-0.8396049075035462,0.0670717551874212,-0.2635422404821243,0.0447540618479251,0.7443793416023254,-0.666255533695221,-0.1023891344666481,-0.028898436576128,0.0380720980465412
2024-11-02 11:38:23.112,1730518292.4528232,0.0191208459436893,-0.0526797771453857,-0.0276391506195068,-0.8408345864108046,0.0671386345492836,-0.2627125056219553,0.0447371788322925,0.7451999187469482,-0.6653388142585754,-0.1968754231929779,-0.0562456399202346,0.0843011662364006
