Date,TimeStamp,GravityX,GravityY,GravityZ,UserAccelerationX,UserAccelerationY,UserAccelerationZ,RotationRateX,RotationRateY,RotationRateZ,AttitudeRoll,AttitudePitch,AttitudeYaw
2024-09-23 15:14:14.250,175138.722,0.014,0.658,-0.753,0.05,0.156,0.115,1.411,-0.303,0.222,0.018,-0.719,0.992
2024-09-23 15:14:14.261,175138.732,0.012,0.649,-0.761,0.041,0.151,0.102,0.986,-0.222,-0.084,0.016,-0.706,0.992
2024-09-23 15:14:14.271,175138.742,0.011,0.644,-0.765,-0.085,0.09,-0.004,0.326,-0.195,0.119,0.014,-0.7,0.992
2024-09-23 15:14:14.281,175138.752,0.01,0.644,-0.765,-0.067,-0.137,-0.044,-0.301,-0.097,0.103,0.014,-0.7,0.994
2024-09-23 15:14:14.291,175138.762,0.011,0.648,-0.761,0.04,-0.28,-0.074,-0.84,-0.003,0.15,0.014,-0.705,0.995
2024-09-23 15:14:14.301,175138.772,0.012,0.656,-0.754,-0.069,-0.193,-0.119,-1.316,0.269,0.051,0.016,-0.716,0.997
2024-09-23 15:14:14.311,175138.782,0.015,0.668,-0.744,-0.009,-0.203,-0.071,-1.632,0.349,0.128,0.021,-0.731,0.999
2024-09-23 15:14:14.320,175138.792,0.019,0.68,-0.733,-0.083,-0.195,-0.122,-1.595,0.393,0.091,0.025,-0.747,1.0
2024-09-23 15:14:14.330,175138.802,0.022,0.691,-0.723,-0.099,-0.177,-0.078,-1.421,0.464,0.051,0.031,-0.762,1.002
2024-09-23 15:14:14.340,175138.812,0.026,0.7,-0.714,-0.025,-0.077,-0.033,-1.106,0.442,0.056,0.036,-0.775,1.003
2024-09-23 15:14:14.351,175138.822,0.029,0.707,-0.707,-0.028,-0.011,0.033,-0.997,0.428,0.033,0.041,-0.785,1.005
2024-09-23 15:14:14.360,175138.832,0.032,0.714,-0.7,-0.031,0.085,0.058,-0.883,0.436,-0.044,0.046,-0.795,1.005
2024-09-23 15:14:14.370,175138.842,0.035,0.72,-0.694,0.01,0.119,0.073,-0.817,0.356,-0.055,0.05,-0.803,1.005
2024-09-23 15:14:14.380,175138.852,0.037,0.725,-0.688,-0.014,0.044,0.026,-0.765,0.3,-0.048,0.053,-0.811,1.005
2024-09-23 15:14:14.391,175138.862,0.038,0.73,-0.682,0.016,-0.061,-0.002,-0.708,0.268,-0.036,0.056,-0.819,1.005
2024-09-23 15:14:14.401,175138.872,0.04,0.735,-0.677,0.014,-0.071,-0.0,-0.656,0.264,-0.043,0.059,-0.825,1.005
2024-09-23 15:14:14.411,175138.882,0.041,0.739,-0.673,0.005,0.023,0.019,-0.562,0.219,-0.036,0.061,-0.831,1.005
2024-09-23 15:14:14.421,175138.892,0.042,0.742,-0.669,0.006,0.026,0.039,-0.399,0.166,-0.027,0.063,-0.836,1.005
2024-09-23 15:14:14.431,175138.902,0.043,0.744,-0.667,0.02,0.018,0.022,-0.235,0.104,-0.017,0.064,-0.839,1.005
2024-09-23 15:14:14.442,175138.912,0.043,0.745,-0.665,0.024,0.045,-0.013,-0.067,0.037,-0.012,0.065,-0.841,1.005
2024-09-23 15:14:14.451,175138.922,0.043,0.745,-0.665,0.019,0.042,-0.003,0.071,-0.018,0.006,0.065,-0.841,1.005
2024-09-23 15:14:14.459,175138.932,0.043,0.744,-0.666,0.019,0.037,0.024,0.16,-0.066,0.033,0.065,-0.84,1.005
2024-09-23 15:14:14.470,175138.942,0.043,0.743,-0.668,0.015,0.057,0.031,0.242,-0.081,0.059,0.064,-0.838,1.005
2024-09-23 15:14:14.480,175138.952,0.043,0.741,-0.67,0.007,0.045,0.03,0.315,-0.083,0.073,0.064,-0.835,1.006
2024-09-23 15:14:14.490,175138.962,0.043,0.739,-0.673,0.001,0.029,0.03,0.382,-0.091,0.082,0.064,-0.831,1.007
2024-09-23 15:14:14.500,175138.972,0.043,0.736,-0.676,-0.007,0.031,0.043,0.421,-0.105,0.08,0.063,-0.827,1.008
2024-09-23 15:14:14.510,175138.982,0.043,0.733,-0.679,-0.007,0.031,0.04,0.473,-0.114,0.098,0.063,-0.823,1.009
2024-09-23 15:14:14.520,175138.992,0.042,0.73,-0.682,-0.001,0.023,0.025,0.435,-0.148,0.068,0.062,-0.818,1.009
2024-09-23 15:14:14.530,175139.002,0.042,0.727,-0.685,0.015,0.012,0.006,0.347,-0.125,0.074,0.061,-0.814,1.01
2024-09-23 15:14:14.540,175139.012,0.042,0.725,-0.687,0.025,0.015,-0.005,0.264,-0.103,0.045,0.06,-0.811,1.011
2024-09-23 15:14:14.550,175139.022,0.041,0.724,-0.689,0.006,-0.007,0.004,0.163,-0.061,0.027,0.06,-0.809,1.011
2024-09-23 15:14:14.560,175139.032,0.041,0.723,-0.69,0.014,-0.019,-0.005,0.042,-0.022,0.007,0.06,-0.808,1.011
2024-09-23 15:14:14.570,175139.042,0.041,0.723,-0.69,-0.002,-0.027,-0.015,-0.092,0.023,-0.011,0.06,-0.808,1.011
2024-09-23 15:14:14.580,175139.052,0.041,0.724,-0.688,-0.016,-0.05,-0.02,-0.219,0.057,-0.005,0.06,-0.81,1.011
2024-09-23 15:14:14.590,175139.062,0.042,0.726,-0.686,-0.015,-0.055,-0.024,-0.296,0.074,-0.003,0.061,-0.812,1.011
2024-09-23 15:14:14.600,175139.072,0.042,0.728,-0.684,-0.024,-0.058,-0.025,-0.311,0.085,0.006,0.062,-0.816,1.012
2024-09-23 15:14:14.610,175139.082,0.043,0.73,-0.682,-0.018,-0.047,-0.017,-0.296,0.078,0.013,0.063,-0.819,1.012
2024-09-23 15:14:14.620,175139.092,0.044,0.732,-0.68,-0.013,-0.013,-0.005,-0.214,0.066,0.02,0.064,-0.821,1.012
2024-09-23 15:14:14.630,175139.101,0.044,0.733,-0.679,-0.006,0.01,0.004,-0.109,0.047,0.033,0.065,-0.823,1.013
2024-09-23 15:14:14.640,175139.111,0.045,0.733,-0.678,0.0,0.029,0.015,0.005,0.035,0.063,0.066,-0.823,1.014
2024-09-23 15:14:14.650,175139.121,0.045,0.733,-0.679,-0.002,0.043,0.028,0.12,0.017,0.077,0.067,-0.823,1.015
2024-09-23 15:14:14.660,175139.131,0.046,0.732,-0.68,-0.008,0.048,0.033,0.207,0.017,0.098,0.068,-0.821,1.016
2024-09-23 15:14:14.670,175139.141,0.047,0.73,-0.682,-0.002,0.054,0.034,0.234,0.036,0.111,0.069,-0.819,1.017
2024-09-23 15:14:14.680,175139.151,0.048,0.728,-0.684,-0.007,0.049,0.029,0.29,0.048,0.128,0.07,-0.816,1.018
2024-09-23 15:14:14.690,175139.161,0.049,0.726,-0.686,-0.018,0.047,0.026,0.303,0.052,0.135,0.072,-0.813,1.02
2024-09-23 15:14:14.700,175139.171,0.051,0.724,-0.688,-0.026,0.024,0.029,0.299,0.05,0.143,0.074,-0.81,1.022
2024-09-23 15:14:14.710,175139.181,0.052,0.722,-0.69,-0.012,0.031,0.031,0.263,0.046,0.134,0.075,-0.807,1.023
2024-09-23 15:14:14.720,175139.191,0.053,0.72,-0.691,-0.026,0.033,0.022,0.194,0.024,0.124,0.077,-0.804,1.025
2024-09-23 15:14:14.730,175139.201,0.054,0.719,-0.693,-0.027,0.027,0.031,0.165,-0.009,0.113,0.078,-0.803,1.026
2024-09-23 15:14:14.740,175139.211,0.055,0.718,-0.694,-0.029,0.012,0.028,0.171,-0.003,0.125,0.079,-0.801,1.028
2024-09-23 15:14:14.750,175139.221,0.056,0.717,-0.695,-0.023,0.008,0.026,0.142,-0.011,0.128,0.08,-0.799,1.03
2024-09-23 15:14:14.760,175139.231,0.057,0.716,-0.696,-0.009,0.03,0.011,0.079,-0.011,0.146,0.081,-0.798,1.031
2024-09-23 15:14:14.770,175139.241,0.057,0.716,-0.696,-0.027,0.019,0.019,0.007,-0.019,0.119,0.082,-0.798,1.033
2024-09-23 15:14:14.780,175139.251,0.058,0.716,-0.695,-0.036,0.009,0.029,-0.151,-0.009,0.13,0.083,-0.799,1.035
2024-09-23 15:14:14.790,175139.261,0.058,0.718,-0.694,-0.019,0.014,0.01,-0.291,-0.027,0.101,0.084,-0.801,1.036
2024-09-23 15:14:14.800,175139.271,0.058,0.72,-0.691,-0.044,0.012,0.007,-0.405,-0.064,0.066,0.084,-0.804,1.037
2024-09-23 15:14:14.810,175139.281,0.059,0.723,-0.689,-0.055,0.011,0.012,-0.287,-0.068,0.114,0.085,-0.808,1.04
2024-09-23 15:14:14.819,175139.291,0.059,0.725,-0.686,-0.023,0.011,0.026,-0.48,-0.003,0.176,0.085,-0.812,1.041
2024-09-23 15:14:14.830,175139.301,0.059,0.728,-0.683,-0.008,0.026,0.023,-0.395,-0.047,0.106,0.087,-0.816,1.043
2024-09-23 15:14:14.839,175139.311,0.06,0.73,-0.68,-0.059,0.031,0.075,-0.238,-0.04,0.155,0.088,-0.819,1.046
2024-09-23 15:14:14.850,175139.321,0.061,0.731,-0.679,-0.005,0.031,0.071,-0.058,-0.057,0.164,0.09,-0.82,1.048
2024-09-23 15:14:14.860,175139.331,0.062,0.731,-0.679,0.015,-0.026,0.025,0.037,-0.09,0.15,0.091,-0.82,1.051
2024-09-23 15:14:14.870,175139.341,0.062,0.731,-0.68,0.02,-0.017,-0.005,0.162,-0.133,0.118,0.091,-0.819,1.053
2024-09-23 15:14:14.879,175139.351,0.062,0.729,-0.682,0.039,-0.032,0.002,0.384,-0.18,0.07,0.09,-0.816,1.054
2024-09-23 15:14:14.890,175139.361,0.061,0.725,-0.686,0.059,-0.048,0.011,0.603,-0.181,0.046,0.088,-0.811,1.054
2024-09-23 15:14:14.899,175139.371,0.06,0.721,-0.691,0.073,-0.029,-0.007,0.716,-0.194,0.039,0.086,-0.805,1.054
2024-09-23 15:14:14.910,175139.381,0.059,0.716,-0.696,0.077,-0.022,-0.029,0.625,-0.196,0.015,0.084,-0.798,1.053
2024-09-23 15:14:14.919,175139.391,0.057,0.712,-0.7,0.088,-0.061,-0.032,0.461,-0.185,-0.033,0.082,-0.792,1.052
2024-09-23 15:14:14.930,175139.401,0.056,0.709,-0.703,0.084,-0.083,-0.032,0.332,-0.149,-0.079,0.079,-0.789,1.051
2024-09-23 15:14:14.939,175139.411,0.054,0.708,-0.705,0.052,-0.046,-0.048,0.153,-0.133,-0.164,0.076,-0.786,1.049
2024-09-23 15:14:14.949,175139.421,0.052,0.707,-0.705,0.033,-0.022,-0.054,0.043,-0.094,-0.146,0.074,-0.785,1.047
2024-09-23 15:14:14.960,175139.431,0.051,0.707,-0.705,0.029,-0.046,-0.039,-0.022,-0.069,-0.12,0.071,-0.785,1.045
2024-09-23 15:14:14.969,175139.441,0.049,0.707,-0.705,0.004,-0.03,-0.028,-0.03,-0.05,-0.089,0.07,-0.786,1.044
2024-09-23 15:14:14.980,175139.451,0.049,0.708,-0.705,-0.009,-0.029,-0.018,-0.014,-0.052,-0.049,0.069,-0.786,1.043
2024-09-23 15:14:14.989,175139.461,0.048,0.707,-0.705,-0.017,-0.023,-0.003,0.041,-0.077,-0.019,0.068,-0.786,1.042
2024-09-23 15:14:14.999,175139.471,0.047,0.707,-0.706,-0.023,0.008,0.001,0.106,-0.104,0.006,0.067,-0.785,1.042
2024-09-23 15:14:15.009,175139.481,0.046,0.706,-0.707,-0.011,0.013,0.02,0.144,-0.113,0.036,0.066,-0.784,1.042
2024-09-23 15:14:15.019,175139.491,0.046,0.705,-0.708,-0.005,0.034,0.022,0.153,-0.118,0.044,0.065,-0.782,1.043
2024-09-23 15:14:15.029,175139.501,0.046,0.704,-0.709,-0.004,0.044,0.017,0.117,-0.063,0.06,0.064,-0.781,1.043
2024-09-23 15:14:15.039,175139.511,0.046,0.703,-0.71,-0.0,0.023,0.016,0.112,-0.021,0.088,0.065,-0.78,1.044
2024-09-23 15:14:15.049,175139.521,0.047,0.702,-0.71,-0.006,0.005,0.017,0.075,0.021,0.118,0.066,-0.779,1.045
2024-09-23 15:14:15.059,175139.531,0.048,0.702,-0.71,-0.018,-0.002,0.015,-0.021,0.056,0.157,0.067,-0.778,1.047
2024-09-23 15:14:15.069,175139.541,0.049,0.702,-0.71,-0.025,0.002,-0.001,-0.053,0.045,0.197,0.07,-0.779,1.05
2024-09-23 15:14:15.080,175139.551,0.051,0.702,-0.71,-0.023,-0.026,-0.014,0.051,0.012,0.17,0.072,-0.779,1.052
2024-09-23 15:14:15.089,175139.561,0.052,0.701,-0.711,-0.008,-0.023,-0.006,0.234,-0.022,0.104,0.073,-0.777,1.054
2024-09-23 15:14:15.098,175139.571,0.052,0.699,-0.713,0.011,0.038,0.024,0.361,-0.051,0.03,0.073,-0.774,1.055
2024-09-23 15:14:15.109,175139.581,0.052,0.697,-0.716,0.025,0.082,0.049,0.364,-0.094,-0.036,0.072,-0.771,1.054
2024-09-23 15:14:15.119,175139.591,0.05,0.694,-0.718,0.025,0.057,0.04,0.291,-0.133,-0.073,0.07,-0.767,1.053
2024-09-23 15:14:15.129,175139.601,0.049,0.692,-0.72,0.023,-0.004,0.013,0.232,-0.091,-0.087,0.068,-0.765,1.052
2024-09-23 15:14:15.140,175139.611,0.048,0.691,-0.721,0.02,-0.042,-0.006,0.227,-0.039,-0.1,0.066,-0.763,1.05
2024-09-23 15:14:15.149,175139.621,0.047,0.689,-0.723,0.006,-0.021,-0.005,0.234,0.001,-0.117,0.065,-0.76,1.049
2024-09-23 15:14:15.159,175139.631,0.046,0.688,-0.724,-0.007,0.006,0.006,0.188,0.036,-0.121,0.064,-0.758,1.047
2024-09-23 15:14:15.169,175139.641,0.046,0.687,-0.725,-0.003,0.021,0.01,0.099,0.044,-0.121,0.063,-0.757,1.045
2024-09-23 15:14:15.179,175139.651,0.045,0.686,-0.726,-0.012,-0.007,-0.0,0.008,0.025,-0.115,0.062,-0.757,1.043
2024-09-23 15:14:15.189,175139.661,0.044,0.687,-0.726,-0.01,-0.043,-0.011,-0.025,0.012,-0.109,0.061,-0.757,1.042
2024-09-23 15:14:15.198,175139.671,0.044,0.687,-0.725,-0.004,-0.053,-0.01,0.005,0.041,-0.105,0.06,-0.757,1.04
2024-09-23 15:14:15.209,175139.681,0.044,0.687,-0.726,-0.001,-0.025,-0.003,0.068,0.062,-0.1,0.06,-0.757,1.039
2024-09-23 15:14:15.218,175139.69,0.043,0.686,-0.726,-0.004,0.014,0.007,0.08,0.075,-0.085,0.06,-0.756,1.038
2024-09-23 15:14:15.228,175139.7,0.043,0.686,-0.727,-0.004,0.035,0.015,0.078,0.061,-0.069,0.06,-0.755,1.036
2024-09-23 15:14:15.239,175139.71,0.043,0.685,-0.727,0.002,0.02,0.013,0.1,0.04,-0.05,0.06,-0.755,1.036
2024-09-23 15:14:15.249,175139.72,0.043,0.684,-0.728,0.002,-0.009,0.009,0.137,0.005,-0.03,0.059,-0.753,1.035
2024-09-23 15:14:15.259,175139.73,0.043,0.683,-0.729,0.005,-0.004,0.007,0.152,-0.034,-0.028,0.059,-0.752,1.035
2024-09-23 15:14:15.269,175139.74,0.042,0.682,-0.73,0.007,0.011,0.007,0.192,-0.08,-0.033,0.058,-0.75,1.034
2024-09-23 15:14:15.279,175139.75,0.041,0.68,-0.732,0.009,0.012,0.015,0.289,-0.13,-0.036,0.057,-0.748,1.033
2024-09-23 15:14:15.290,175139.76,0.04,0.677,-0.734,0.013,0.016,0.022,0.432,-0.142,-0.043,0.055,-0.744,1.033
2024-09-23 15:14:15.299,175139.77,0.039,0.674,-0.738,0.017,0.035,0.026,0.588,-0.17,-0.043,0.052,-0.739,1.032
2024-09-23 15:14:15.308,175139.78,0.037,0.669,-0.742,0.015,0.067,0.036,0.723,-0.215,-0.02,0.05,-0.733,1.031
2024-09-23 15:14:15.318,175139.79,0.035,0.663,-0.748,0.01,0.082,0.042,0.882,-0.281,0.007,0.047,-0.725,1.03
2024-09-23 15:14:15.329,175139.8,0.033,0.656,-0.754,0.019,0.065,0.05,1.05,-0.285,0.003,0.044,-0.715,1.03
2024-09-23 15:14:15.338,175139.81,0.031,0.648,-0.761,0.022,0.064,0.056,1.057,-0.255,0.096,0.041,-0.705,1.029
2024-09-23 15:14:15.350,175139.82,0.03,0.641,-0.767,0.025,0.087,0.059,0.783,-0.121,-0.072,0.039,-0.695,1.029
2024-09-23 15:14:15.359,175139.83,0.029,0.636,-0.771,-0.012,0.082,0.029,0.491,-0.174,0.026,0.037,-0.689,1.028
2024-09-23 15:14:15.369,175139.84,0.028,0.633,-0.773,-0.06,-0.041,-0.028,0.128,-0.148,0.011,0.036,-0.686,1.028
2024-09-23 15:14:15.379,175139.85,0.027,0.634,-0.773,0.029,-0.187,-0.01,-0.235,-0.199,0.164,0.035,-0.686,1.029
2024-09-23 15:14:15.389,175139.86,0.026,0.637,-0.77,-0.016,-0.127,-0.058,-0.566,-0.244,0.172,0.034,-0.69,1.032
2024-09-23 15:14:15.399,175139.87,0.026,0.641,-0.767,-0.001,-0.102,-0.058,-0.422,-0.219,0.333,0.033,-0.696,1.035
2024-09-23 15:14:15.409,175139.88,0.026,0.645,-0.764,-0.01,-0.148,-0.047,-0.599,-0.169,0.211,0.034,-0.701,1.039
2024-09-23 15:14:15.419,175139.89,0.027,0.65,-0.759,0.016,-0.088,-0.095,-0.849,0.045,0.198,0.035,-0.708,1.042
2024-09-23 15:14:15.428,175139.9,0.029,0.657,-0.753,-0.028,-0.018,-0.075,-1.018,0.304,0.131,0.039,-0.717,1.044
2024-09-23 15:14:15.438,175139.91,0.032,0.665,-0.747,-0.03,-0.1,-0.001,-0.898,0.381,0.075,0.043,-0.727,1.046
2024-09-23 15:14:15.449,175139.92,0.036,0.67,-0.741,-0.063,-0.063,0.018,-0.668,0.349,0.068,0.048,-0.735,1.048
2024-09-23 15:14:15.458,175139.93,0.038,0.674,-0.737,-0.035,-0.013,0.031,-0.495,0.33,0.023,0.052,-0.74,1.049
2024-09-23 15:14:15.469,175139.94,0.041,0.678,-0.734,0.022,0.093,0.028,-0.505,0.299,0.018,0.056,-0.745,1.049
2024-09-23 15:14:15.479,175139.95,0.043,0.682,-0.73,0.0,0.078,0.024,-0.611,0.235,-0.017,0.059,-0.751,1.05
2024-09-23 15:14:15.489,175139.96,0.044,0.687,-0.726,0.007,0.01,-0.003,-0.654,0.15,-0.039,0.061,-0.757,1.05
2024-09-23 15:14:15.499,175139.97,0.045,0.691,-0.721,-0.01,-0.09,-0.016,-0.598,0.109,-0.041,0.062,-0.763,1.05
2024-09-23 15:14:15.509,175139.98,0.045,0.695,-0.717,0.007,-0.089,-0.001,-0.467,0.074,-0.056,0.063,-0.769,1.05
2024-09-23 15:14:15.519,175139.99,0.045,0.698,-0.715,0.009,0.013,0.016,-0.267,0.02,-0.062,0.063,-0.772,1.049
2024-09-23 15:14:15.529,175140.0,0.044,0.699,-0.714,0.008,0.057,0.03,-0.01,-0.063,-0.053,0.062,-0.774,1.048
2024-09-23 15:14:15.538,175140.01,0.043,0.698,-0.715,0.018,0.068,0.032,0.282,-0.176,-0.049,0.06,-0.773,1.047
2024-09-23 15:14:15.548,175140.02,0.041,0.695,-0.718,0.027,0.091,0.038,0.61,-0.293,-0.053,0.057,-0.768,1.046
2024-09-23 15:14:15.558,175140.03,0.038,0.689,-0.723,0.034,0.107,0.054,0.934,-0.413,-0.045,0.053,-0.761,1.045
2024-09-23 15:14:15.568,175140.04,0.035,0.681,-0.731,0.04,0.129,0.071,1.251,-0.531,-0.04,0.047,-0.75,1.044
2024-09-23 15:14:15.578,175140.05,0.03,0.671,-0.741,0.047,0.142,0.081,1.572,-0.637,-0.018,0.041,-0.736,1.043
2024-09-23 15:14:15.588,175140.06,0.026,0.659,-0.751,0.047,0.152,0.091,1.465,-0.476,0.037,0.034,-0.72,1.041
2024-09-23 15:14:15.599,175140.07,0.025,0.651,-0.759,0.048,0.159,0.087,0.807,-0.092,0.063,0.033,-0.708,1.042
2024-09-23 15:14:15.608,175140.08,0.024,0.647,-0.762,0.012,0.161,0.054,0.034,-0.161,0.108,0.032,-0.704,1.042
2024-09-23 15:14:15.618,175140.09,0.025,0.651,-0.759,-0.142,-0.061,-0.1,-0.975,0.055,0.079,0.032,-0.709,1.044
2024-09-23 15:14:15.628,175140.1,0.026,0.66,-0.751,0.011,-0.394,-0.094,-1.407,0.216,0.108,0.034,-0.721,1.046
2024-09-23 15:14:15.638,175140.11,0.029,0.672,-0.74,-0.043,-0.436,-0.139,-1.821,0.393,0.059,0.039,-0.737,1.048
2024-09-23 15:14:15.648,175140.12,0.032,0.686,-0.727,-0.093,-0.257,-0.184,-1.839,0.376,0.161,0.045,-0.755,1.051
2024-09-23 15:14:15.658,175140.13,0.036,0.698,-0.715,-0.074,-0.249,-0.165,-1.622,0.395,0.092,0.05,-0.773,1.054
2024-09-23 15:14:15.668,175140.14,0.04,0.71,-0.703,-0.046,-0.164,-0.038,-1.718,0.465,0.095,0.056,-0.789,1.056
2024-09-23 15:14:15.678,175140.15,0.044,0.722,-0.691,0.002,-0.02,0.059,-1.745,0.547,0.035,0.063,-0.806,1.059
2024-09-23 15:14:15.688,175140.16,0.048,0.734,-0.678,-0.033,0.104,0.071,-1.714,0.478,0.059,0.07,-0.824,1.061
2024-09-23 15:14:15.698,175140.17,0.051,0.745,-0.665,-0.079,0.01,-0.015,-1.696,0.439,0.067,0.077,-0.841,1.064
2024-09-23 15:14:15.708,175140.18,0.054,0.756,-0.653,0.012,-0.12,-0.073,-1.544,0.405,0.07,0.083,-0.857,1.067
2024-09-23 15:14:15.718,175140.19,0.057,0.765,-0.642,0.006,-0.144,-0.044,-1.334,0.377,0.018,0.089,-0.871,1.069
2024-09-23 15:14:15.729,175140.2,0.06,0.773,-0.632,-0.016,0.014,0.007,-1.102,0.349,-0.036,0.094,-0.883,1.071
2024-09-23 15:14:15.737,175140.21,0.061,0.779,-0.624,-0.005,0.104,0.071,-0.879,0.312,-0.033,0.098,-0.893,1.072
2024-09-23 15:14:15.748,175140.22,0.063,0.784,-0.618,-0.002,0.147,0.09,-0.632,0.244,-0.008,0.101,-0.901,1.073
2024-09-23 15:14:15.758,175140.23,0.064,0.787,-0.614,0.013,0.117,0.039,-0.436,0.14,-0.028,0.104,-0.906,1.073
2024-09-23 15:14:15.768,175140.24,0.064,0.789,-0.611,0.008,0.072,0.011,-0.131,0.053,-0.042,0.105,-0.909,1.073
2024-09-23 15:14:15.778,175140.25,0.064,0.789,-0.611,0.009,0.081,0.042,0.148,0.001,-0.063,0.104,-0.909,1.072
2024-09-23 15:14:15.789,175140.26,0.063,0.787,-0.614,0.011,0.123,0.064,0.451,-0.07,-0.084,0.102,-0.906,1.07
2024-09-23 15:14:15.798,175140.27,0.062,0.783,-0.618,0.008,0.173,0.099,0.714,-0.116,-0.101,0.1,-0.9,1.068
2024-09-23 15:14:15.808,175140.279,0.06,0.779,-0.625,-0.001,0.156,0.103,0.818,-0.152,-0.062,0.096,-0.893,1.065
2024-09-23 15:14:15.818,175140.289,0.059,0.774,-0.631,-0.008,0.129,0.07,0.794,-0.192,-0.057,0.093,-0.884,1.063
2024-09-23 15:14:15.828,175140.299,0.057,0.769,-0.637,-0.032,0.083,0.072,0.688,-0.231,-0.106,0.089,-0.877,1.061
2024-09-23 15:14:15.838,175140.309,0.054,0.765,-0.641,-0.001,0.027,0.082,0.373,-0.297,-0.157,0.084,-0.872,1.058
2024-09-23 15:14:15.850,175140.319,0.051,0.765,-0.642,-0.011,-0.014,0.066,0.006,-0.274,-0.181,0.079,-0.87,1.055
2024-09-23 15:14:15.859,175140.329,0.047,0.765,-0.642,-0.052,-0.006,0.044,-0.205,-0.346,-0.194,0.074,-0.872,1.052
2024-09-23 15:14:15.868,175140.339,0.044,0.767,-0.641,-0.047,-0.001,0.058,-0.147,-0.341,-0.195,0.068,-0.874,1.05
2024-09-23 15:14:15.878,175140.349,0.04,0.767,-0.64,-0.051,-0.063,0.033,0.011,-0.331,-0.101,0.063,-0.874,1.047
2024-09-23 15:14:15.888,175140.359,0.038,0.767,-0.641,-0.066,-0.021,-0.038,0.043,-0.293,-0.088,0.059,-0.874,1.046
2024-09-23 15:14:15.898,175140.369,0.035,0.767,-0.641,-0.032,0.014,-0.091,-0.004,-0.268,-0.119,0.055,-0.874,1.044
2024-09-23 15:14:15.908,175140.379,0.032,0.767,-0.641,-0.044,-0.011,-0.084,-0.063,-0.216,-0.165,0.051,-0.874,1.042
2024-09-23 15:14:15.918,175140.389,0.03,0.768,-0.64,-0.047,-0.011,-0.039,-0.066,-0.16,-0.182,0.047,-0.875,1.039
2024-09-23 15:14:15.928,175140.399,0.028,0.768,-0.64,-0.047,0.036,0.012,0.012,-0.12,-0.155,0.043,-0.876,1.037
2024-09-23 15:14:15.938,175140.409,0.026,0.768,-0.64,-0.01,0.006,0.036,0.095,-0.045,-0.103,0.041,-0.875,1.035
2024-09-23 15:14:15.948,175140.419,0.025,0.767,-0.641,0.037,-0.055,0.034,0.181,-0.034,-0.076,0.039,-0.874,1.033
2024-09-23 15:14:15.958,175140.429,0.025,0.766,-0.643,0.052,-0.069,0.039,0.183,-0.003,-0.048,0.039,-0.872,1.032
2024-09-23 15:14:15.968,175140.439,0.025,0.764,-0.644,0.055,-0.055,0.059,0.152,0.021,-0.019,0.038,-0.87,1.032
2024-09-23 15:14:15.978,175140.449,0.025,0.764,-0.645,0.046,-0.029,0.045,0.121,0.102,0.021,0.039,-0.869,1.032
2024-09-23 15:14:15.988,175140.459,0.026,0.763,-0.646,0.039,-0.029,0.025,0.122,0.127,0.059,0.041,-0.868,1.032
2024-09-23 15:14:15.998,175140.469,0.028,0.762,-0.647,0.035,-0.003,0.016,0.172,0.126,0.078,0.043,-0.866,1.033
2024-09-23 15:14:16.008,175140.479,0.029,0.76,-0.649,0.043,-0.04,0.012,0.265,0.118,0.104,0.045,-0.864,1.035
2024-09-23 15:14:16.018,175140.489,0.031,0.758,-0.651,0.067,-0.078,-0.003,0.351,0.114,0.112,0.047,-0.861,1.036
2024-09-23 15:14:16.028,175140.499,0.032,0.756,-0.654,0.063,-0.067,-0.027,0.302,0.124,0.102,0.049,-0.857,1.037
2024-09-23 15:14:16.037,175140.509,0.034,0.755,-0.655,0.06,-0.025,-0.021,0.181,0.149,0.083,0.052,-0.855,1.039
2024-09-23 15:14:16.047,175140.519,0.036,0.754,-0.656,0.047,0.018,-0.007,0.099,0.147,0.074,0.054,-0.854,1.04
2024-09-23 15:14:16.057,175140.529,0.037,0.753,-0.657,0.03,0.041,-0.021,0.019,0.145,0.056,0.056,-0.853,1.041
2024-09-23 15:14:16.067,175140.539,0.038,0.754,-0.656,0.025,0.016,-0.055,-0.099,0.157,0.018,0.058,-0.853,1.041
2024-09-23 15:14:16.078,175140.549,0.039,0.755,-0.655,0.028,-0.003,-0.061,-0.171,0.121,0.01,0.06,-0.855,1.042
2024-09-23 15:14:16.087,175140.559,0.04,0.755,-0.654,0.016,0.0,-0.024,0.002,0.126,0.03,0.061,-0.856,1.042
2024-09-23 15:14:16.097,175140.569,0.041,0.755,-0.655,-0.001,-0.023,0.021,0.12,0.104,0.034,0.063,-0.855,1.043
2024-09-23 15:14:16.108,175140.579,0.042,0.753,-0.656,0.026,-0.03,0.008,0.279,0.052,0.041,0.064,-0.853,1.043
2024-09-23 15:14:16.117,175140.589,0.043,0.751,-0.659,0.023,-0.011,0.012,0.416,0.037,0.068,0.065,-0.85,1.043
2024-09-23 15:14:16.128,175140.599,0.044,0.748,-0.663,0.008,-0.004,0.026,0.585,0.004,0.107,0.066,-0.845,1.044
2024-09-23 15:14:16.137,175140.609,0.044,0.743,-0.668,0.016,0.037,0.043,0.733,-0.03,0.136,0.067,-0.838,1.046
2024-09-23 15:14:16.148,175140.619,0.045,0.738,-0.673,0.006,0.023,0.075,0.865,-0.073,0.159,0.067,-0.83,1.047
2024-09-23 15:14:16.158,175140.629,0.046,0.732,-0.68,0.001,0.028,0.078,0.985,-0.097,0.206,0.067,-0.821,1.049
2024-09-23 15:14:16.168,175140.639,0.047,0.724,-0.688,-0.01,0.038,0.052,1.175,-0.16,0.284,0.068,-0.81,1.051
2024-09-23 15:14:16.177,175140.649,0.047,0.717,-0.696,-0.015,0.021,0.026,0.988,-0.168,0.202,0.068,-0.799,1.053
2024-09-23 15:14:16.187,175140.659,0.048,0.71,-0.703,-0.005,0.023,0.004,0.909,-0.121,0.216,0.068,-0.79,1.055
2024-09-23 15:14:16.197,175140.669,0.049,0.704,-0.709,0.019,0.097,-0.042,0.753,-0.165,0.297,0.068,-0.781,1.058
2024-09-23 15:14:16.207,175140.679,0.049,0.699,-0.713,-0.038,0.114,-0.012,0.647,-0.181,0.23,0.069,-0.774,1.061
2024-09-23 15:14:16.217,175140.689,0.049,0.694,-0.718,0.016,-0.016,0.004,0.573,-0.155,0.146,0.068,-0.768,1.063
2024-09-23 15:14:16.227,175140.699,0.049,0.691,-0.721,0.014,-0.031,-0.009,0.424,-0.103,0.092,0.068,-0.763,1.064
2024-09-23 15:14:16.238,175140.709,0.049,0.688,-0.724,0.005,-0.028,0.008,0.252,-0.08,0.049,0.068,-0.759,1.065
2024-09-23 15:14:16.248,175140.719,0.049,0.687,-0.725,-0.01,-0.053,-0.005,0.132,-0.054,0.018,0.067,-0.757,1.065
2024-09-23 15:14:16.257,175140.729,0.049,0.686,-0.726,-0.017,-0.081,-0.026,0.025,0.015,-0.036,0.067,-0.756,1.065
2024-09-23 15:14:16.267,175140.739,0.048,0.687,-0.725,-0.012,-0.052,-0.022,-0.124,0.06,-0.065,0.067,-0.757,1.064
2024-09-23 15:14:16.277,175140.749,0.048,0.688,-0.724,-0.018,-0.026,-0.019,-0.271,0.059,-0.077,0.067,-0.759,1.064
2024-09-23 15:14:16.288,175140.759,0.048,0.691,-0.722,-0.017,-0.06,-0.03,-0.359,0.057,-0.106,0.067,-0.762,1.063
2024-09-23 15:14:16.297,175140.769,0.048,0.693,-0.719,-0.004,-0.07,-0.03,-0.361,0.058,-0.127,0.066,-0.766,1.061
2024-09-23 15:14:16.307,175140.779,0.047,0.696,-0.717,0.0,-0.048,-0.02,-0.28,0.051,-0.136,0.066,-0.769,1.06
2024-09-23 15:14:16.316,175140.789,0.047,0.697,-0.715,0.005,-0.02,0.002,-0.159,0.047,-0.143,0.065,-0.772,1.058
2024-09-23 15:14:16.326,175140.799,0.046,0.698,-0.715,0.008,0.024,0.016,-0.039,0.039,-0.13,0.064,-0.773,1.056
2024-09-23 15:14:16.337,175140.809,0.045,0.698,-0.715,0.007,0.053,0.021,0.074,0.012,-0.106,0.063,-0.773,1.055
2024-09-23 15:14:16.347,175140.819,0.045,0.697,-0.716,0.005,0.053,0.024,0.167,-0.025,-0.079,0.062,-0.771,1.053
2024-09-23 15:14:16.357,175140.829,0.044,0.696,-0.717,0.007,0.047,0.029,0.235,-0.07,-0.045,0.061,-0.769,1.052
2024-09-23 15:14:16.368,175140.839,0.043,0.694,-0.719,0.011,0.045,0.03,0.283,-0.072,-0.018,0.06,-0.767,1.052
2024-09-23 15:14:16.377,175140.849,0.043,0.692,-0.721,0.01,0.036,0.026,0.309,-0.056,-0.002,0.059,-0.764,1.051
2024-09-23 15:14:16.387,175140.859,0.042,0.689,-0.723,0.008,0.03,0.024,0.306,-0.018,-0.004,0.058,-0.761,1.051
2024-09-23 15:14:16.397,175140.868,0.042,0.687,-0.725,-0.004,0.021,0.017,0.282,0.011,-0.018,0.058,-0.758,1.051
2024-09-23 15:14:16.407,175140.878,0.042,0.685,-0.727,-0.009,0.003,0.011,0.238,0.058,-0.041,0.058,-0.755,1.05
2024-09-23 15:14:16.417,175140.888,0.042,0.684,-0.728,-0.007,-0.005,0.006,0.181,0.071,-0.057,0.058,-0.753,1.049
2024-09-23 15:14:16.427,175140.898,0.043,0.683,-0.729,-0.008,-0.017,0.002,0.117,0.078,-0.063,0.058,-0.752,1.048
2024-09-23 15:14:16.437,175140.908,0.043,0.682,-0.73,-0.006,-0.022,-0.002,0.057,0.075,-0.06,0.058,-0.751,1.047
2024-09-23 15:14:16.446,175140.918,0.043,0.682,-0.73,-0.005,-0.019,-0.006,0.021,0.048,-0.058,0.059,-0.751,1.046
2024-09-23 15:14:16.457,175140.928,0.043,0.682,-0.73,-0.004,-0.029,-0.005,0.006,0.055,-0.057,0.058,-0.751,1.046
2024-09-23 15:14:16.467,175140.938,0.043,0.682,-0.73,0.001,-0.011,-0.001,0.04,0.038,-0.047,0.058,-0.751,1.045
2024-09-23 15:14:16.477,175140.948,0.043,0.682,-0.73,0.002,-0.0,0.003,0.085,0.037,-0.039,0.058,-0.75,1.044
2024-09-23 15:14:16.488,175140.958,0.043,0.681,-0.731,-0.001,0.003,0.012,0.097,0.072,-0.019,0.059,-0.749,1.044
2024-09-23 15:14:16.497,175140.968,0.043,0.68,-0.732,0.003,0.021,0.017,0.103,0.065,-0.021,0.059,-0.748,1.043
2024-09-23 15:14:16.506,175140.978,0.043,0.68,-0.732,-0.007,0.021,0.01,0.096,0.032,-0.025,0.059,-0.747,1.043
2024-09-23 15:14:16.517,175140.988,0.043,0.679,-0.733,-0.005,0.005,0.006,0.084,0.023,-0.041,0.059,-0.746,1.042
2024-09-23 15:14:16.527,175140.998,0.043,0.678,-0.733,0.006,-0.007,0.007,0.06,-0.013,-0.054,0.059,-0.745,1.042
2024-09-23 15:14:16.537,175141.008,0.043,0.678,-0.734,0.005,-0.006,0.008,0.054,-0.035,-0.061,0.058,-0.745,1.041
2024-09-23 15:14:16.547,175141.018,0.042,0.678,-0.734,0.009,-0.011,0.002,0.052,-0.023,-0.043,0.057,-0.744,1.04
2024-09-23 15:14:16.557,175141.028,0.042,0.677,-0.735,0.013,-0.01,0.002,0.05,-0.018,-0.015,0.057,-0.744,1.04
2024-09-23 15:14:16.567,175141.038,0.041,0.677,-0.735,0.011,0.003,-0.002,0.034,-0.027,-0.02,0.056,-0.744,1.04
2024-09-23 15:14:16.576,175141.048,0.041,0.677,-0.735,0.014,-0.002,-0.003,0.027,-0.038,-0.022,0.056,-0.743,1.039
2024-09-23 15:14:16.586,175141.058,0.04,0.677,-0.735,0.005,-0.015,0.008,0.029,-0.064,-0.03,0.055,-0.743,1.039
2024-09-23 15:14:16.597,175141.068,0.04,0.676,-0.735,-0.006,-0.005,0.009,0.061,-0.073,-0.034,0.054,-0.743,1.038
2024-09-23 15:14:16.607,175141.078,0.039,0.676,-0.736,0.001,-0.007,0.013,0.114,-0.091,-0.042,0.053,-0.742,1.038
2024-09-23 15:14:16.618,175141.088,0.038,0.675,-0.737,0.005,0.011,0.016,0.18,-0.119,-0.025,0.051,-0.741,1.037
2024-09-23 15:14:16.626,175141.098,0.037,0.673,-0.739,0.004,0.03,0.019,0.271,-0.153,-0.016,0.05,-0.738,1.037
2024-09-23 15:14:16.636,175141.108,0.036,0.671,-0.741,0.012,0.024,0.02,0.388,-0.177,-0.009,0.048,-0.735,1.037
2024-09-23 15:14:16.646,175141.118,0.034,0.667,-0.744,0.012,0.034,0.023,0.539,-0.222,-0.012,0.046,-0.73,1.036
2024-09-23 15:14:16.656,175141.128,0.032,0.663,-0.748,0.015,0.054,0.03,0.72,-0.286,-0.005,0.043,-0.724,1.036
2024-09-23 15:14:16.666,175141.138,0.03,0.656,-0.754,0.011,0.063,0.04,0.901,-0.258,-0.048,0.04,-0.716,1.035
2024-09-23 15:14:16.676,175141.148,0.028,0.65,-0.76,0.026,0.074,0.053,0.913,-0.314,0.108,0.036,-0.707,1.034
2024-09-23 15:14:16.686,175141.158,0.026,0.643,-0.765,0.029,0.094,0.057,0.683,-0.204,-0.095,0.034,-0.699,1.034
2024-09-23 15:14:16.697,175141.168,0.024,0.639,-0.769,-0.003,0.07,0.031,0.448,-0.238,0.021,0.031,-0.693,1.034
2024-09-23 15:14:16.707,175141.178,0.022,0.637,-0.771,-0.045,-0.045,-0.013,0.169,-0.201,0.006,0.029,-0.69,1.034
2024-09-23 15:14:16.716,175141.188,0.021,0.636,-0.771,0.024,-0.146,-0.011,-0.076,-0.236,0.093,0.027,-0.69,1.034
2024-09-23 15:14:16.727,175141.198,0.02,0.638,-0.77,-0.014,-0.069,-0.044,-0.388,-0.228,0.156,0.026,-0.692,1.037
2024-09-23 15:14:16.736,175141.208,0.02,0.641,-0.767,0.001,-0.071,-0.034,-0.355,-0.275,0.317,0.025,-0.695,1.039
2024-09-23 15:14:16.747,175141.218,0.02,0.645,-0.764,-0.014,-0.116,-0.053,-0.64,-0.187,0.238,0.026,-0.7,1.043
2024-09-23 15:14:16.757,175141.228,0.021,0.65,-0.759,0.01,-0.109,-0.079,-0.911,0.066,0.282,0.027,-0.708,1.047
2024-09-23 15:14:16.767,175141.238,0.024,0.658,-0.753,-0.013,-0.083,-0.065,-1.038,0.449,0.221,0.032,-0.718,1.051
2024-09-23 15:14:16.777,175141.248,0.029,0.665,-0.747,-0.063,-0.118,-0.025,-0.887,0.551,0.119,0.039,-0.727,1.054
2024-09-23 15:14:16.787,175141.258,0.034,0.671,-0.741,-0.086,-0.009,0.004,-0.733,0.488,0.055,0.045,-0.735,1.055
2024-09-23 15:14:16.797,175141.268,0.037,0.676,-0.736,-0.06,0.052,0.021,-0.648,0.39,0.02,0.05,-0.742,1.056
2024-09-23 15:14:16.807,175141.278,0.04,0.68,-0.732,0.014,0.041,0.023,-0.619,0.295,0.044,0.054,-0.748,1.057
2024-09-23 15:14:16.817,175141.288,0.042,0.685,-0.727,0.016,0.012,0.015,-0.652,0.318,0.037,0.058,-0.754,1.058
2024-09-23 15:14:16.826,175141.298,0.045,0.69,-0.722,0.018,0.001,0.004,-0.766,0.305,-0.038,0.062,-0.762,1.059
2024-09-23 15:14:16.836,175141.308,0.046,0.696,-0.717,-0.006,-0.033,-0.016,-0.777,0.267,-0.06,0.064,-0.769,1.059
2024-09-23 15:14:16.846,175141.318,0.048,0.701,-0.712,-0.027,-0.108,-0.012,-0.69,0.259,-0.078,0.067,-0.777,1.058
2024-09-23 15:14:16.856,175141.328,0.049,0.705,-0.707,-0.012,-0.057,-0.002,-0.537,0.212,-0.098,0.069,-0.783,1.058
2024-09-23 15:14:16.866,175141.338,0.049,0.709,-0.704,0.002,0.031,0.009,-0.371,0.167,-0.103,0.07,-0.788,1.057
2024-09-23 15:14:16.877,175141.348,0.05,0.711,-0.702,0.007,0.041,0.021,-0.187,0.121,-0.083,0.071,-0.79,1.056
2024-09-23 15:14:16.886,175141.358,0.05,0.711,-0.701,0.015,0.056,0.031,0.008,0.054,-0.064,0.071,-0.791,1.055
2024-09-23 15:14:16.896,175141.368,0.05,0.711,-0.702,0.013,0.074,0.04,0.173,-0.015,-0.03,0.071,-0.791,1.054
2024-09-23 15:14:16.906,175141.378,0.049,0.709,-0.704,0.021,0.082,0.047,0.346,-0.105,-0.024,0.07,-0.788,1.053
2024-09-23 15:14:16.916,175141.388,0.048,0.706,-0.707,0.021,0.079,0.046,0.501,-0.169,-0.025,0.068,-0.784,1.052
2024-09-23 15:14:16.927,175141.398,0.046,0.702,-0.711,0.026,0.057,0.051,0.626,-0.237,-0.026,0.065,-0.778,1.052
2024-09-23 15:14:16.936,175141.408,0.044,0.697,-0.716,0.034,0.054,0.052,0.708,-0.321,-0.028,0.062,-0.771,1.051
2024-09-23 15:14:16.946,175141.418,0.041,0.692,-0.721,0.026,0.064,0.042,0.785,-0.405,-0.017,0.057,-0.764,1.05
2024-09-23 15:14:16.956,175141.428,0.038,0.686,-0.727,0.03,0.045,0.036,0.903,-0.516,-0.016,0.052,-0.756,1.049
2024-09-23 15:14:16.966,175141.438,0.034,0.678,-0.734,0.037,0.035,0.034,1.163,-0.615,-0.004,0.046,-0.746,1.048
2024-09-23 15:14:16.976,175141.448,0.029,0.669,-0.743,0.037,0.049,0.041,1.427,-0.708,0.027,0.039,-0.733,1.047
2024-09-23 15:14:16.986,175141.458,0.024,0.658,-0.752,0.038,0.086,0.042,1.223,-0.686,0.115,0.032,-0.719,1.046
2024-09-23 15:14:16.996,175141.467,0.021,0.651,-0.759,0.04,0.119,0.041,0.689,-0.239,-0.023,0.028,-0.709,1.047
2024-09-23 15:14:17.007,175141.477,0.019,0.648,-0.761,0.022,0.101,0.044,0.048,-0.271,0.078,0.025,-0.705,1.047
2024-09-23 15:14:17.016,175141.487,0.019,0.65,-0.76,-0.117,-0.078,-0.072,-0.556,-0.026,0.086,0.025,-0.708,1.049
2024-09-23 15:14:17.026,175141.497,0.02,0.656,-0.755,-0.001,-0.297,-0.073,-1.01,0.178,0.222,0.027,-0.715,1.051
2024-09-23 15:14:17.036,175141.507,0.024,0.665,-0.746,-0.044,-0.318,-0.124,-1.464,0.336,0.159,0.032,-0.728,1.054
2024-09-23 15:14:17.046,175141.517,0.027,0.676,-0.736,-0.087,-0.17,-0.125,-1.581,0.386,0.146,0.037,-0.743,1.057
2024-09-23 15:14:17.056,175141.527,0.031,0.688,-0.725,-0.098,-0.229,-0.06,-1.515,0.465,0.16,0.043,-0.759,1.06
2024-09-23 15:14:17.066,175141.537,0.036,0.698,-0.715,-0.072,-0.125,-0.024,-1.432,0.583,0.192,0.051,-0.773,1.063
2024-09-23 15:14:17.076,175141.547,0.042,0.709,-0.704,-0.062,0.0,-0.005,-1.525,0.682,0.175,0.06,-0.788,1.067
2024-09-23 15:14:17.086,175141.557,0.048,0.72,-0.693,-0.077,0.035,0.04,-1.675,0.695,0.148,0.069,-0.803,1.071
2024-09-23 15:14:17.096,175141.567,0.054,0.732,-0.679,-0.058,-0.001,0.015,-1.856,0.658,0.151,0.079,-0.821,1.075
2024-09-23 15:14:17.106,175141.577,0.059,0.744,-0.665,-0.059,-0.11,-0.07,-1.823,0.621,0.161,0.089,-0.839,1.079
2024-09-23 15:14:17.116,175141.587,0.064,0.755,-0.652,-0.027,-0.192,-0.084,-1.539,0.588,0.169,0.098,-0.856,1.084
2024-09-23 15:14:17.126,175141.597,0.069,0.764,-0.642,-0.026,-0.054,-0.031,-1.145,0.53,0.122,0.107,-0.869,1.089
2024-09-23 15:14:17.136,175141.607,0.073,0.77,-0.634,-0.019,0.105,0.043,-0.772,0.447,0.066,0.115,-0.878,1.092
2024-09-23 15:14:17.145,175141.617,0.076,0.773,-0.629,-0.028,0.222,0.111,-0.422,0.355,0.057,0.12,-0.884,1.094
2024-09-23 15:14:17.155,175141.627,0.079,0.775,-0.627,-0.015,0.242,0.114,-0.096,0.273,0.085,0.125,-0.887,1.095
2024-09-23 15:14:17.166,175141.637,0.081,0.774,-0.628,0.02,0.199,0.086,0.283,0.135,0.091,0.128,-0.886,1.097
2024-09-23 15:14:17.175,175141.647,0.079,0.772,-0.631,0.049,0.174,0.069,0.395,-0.403,-0.632,0.124,-0.881,1.093
2024-09-23 15:14:17.186,175141.657,0.076,0.771,-0.632,0.06,0.147,0.026,-0.006,-0.13,0.042,0.12,-0.881,1.091
2024-09-23 15:14:17.195,175141.667,0.074,0.771,-0.632,-0.165,0.119,0.043,-0.159,-0.346,-0.046,0.117,-0.881,1.09
2024-09-23 15:14:17.206,175141.677,0.072,0.774,-0.63,-0.132,0.265,0.172,-0.401,-0.369,-0.026,0.114,-0.884,1.09
2024-09-23 15:14:17.216,175141.687,0.069,0.776,-0.627,0.164,0.199,0.132,-0.442,-0.412,-0.029,0.11,-0.889,1.09
2024-09-23 15:14:17.226,175141.697,0.066,0.779,-0.624,-0.112,-0.047,0.128,-0.403,-0.449,-0.005,0.106,-0.893,1.091
2024-09-23 15:14:17.236,175141.707,0.064,0.781,-0.622,0.023,-0.009,0.142,-0.207,-0.392,0.087,0.103,-0.896,1.092
2024-09-23 15:14:17.246,175141.717,0.062,0.781,-0.621,0.006,-0.021,0.174,0.028,-0.393,0.113,0.1,-0.897,1.094
2024-09-23 15:14:17.257,175141.727,0.061,0.78,-0.623,0.005,0.032,0.101,0.426,-0.362,0.121,0.097,-0.894,1.095
2024-09-23 15:14:17.265,175141.737,0.06,0.776,-0.628,0.007,-0.037,0.042,0.879,-0.32,0.169,0.095,-0.888,1.096
2024-09-23 15:14:17.276,175141.747,0.059,0.769,-0.636,0.028,-0.067,-0.021,1.107,-0.291,0.179,0.093,-0.877,1.098
2024-09-23 15:14:17.286,175141.757,0.059,0.761,-0.646,0.045,-0.039,-0.062,1.297,-0.289,0.139,0.091,-0.865,1.098
2024-09-23 15:14:17.296,175141.767,0.058,0.752,-0.657,0.039,-0.106,-0.043,1.665,-0.297,0.095,0.088,-0.851,1.098
2024-09-23 15:14:17.306,175141.777,0.056,0.74,-0.671,0.044,-0.178,-0.018,1.948,-0.295,0.098,0.084,-0.832,1.097
2024-09-23 15:14:17.316,175141.787,0.055,0.727,-0.684,0.059,-0.162,-0.024,1.709,-0.316,0.127,0.081,-0.814,1.097
2024-09-23 15:14:17.326,175141.797,0.054,0.717,-0.695,0.094,-0.142,-0.023,1.279,-0.253,0.118,0.078,-0.799,1.097
2024-09-23 15:14:17.335,175141.807,0.054,0.708,-0.704,0.11,-0.156,0.013,1.06,-0.165,0.023,0.077,-0.786,1.098
2024-09-23 15:14:17.346,175141.817,0.053,0.701,-0.711,0.081,-0.06,-0.023,0.783,-0.086,-0.027,0.075,-0.777,1.097
2024-09-23 15:14:17.356,175141.827,0.052,0.696,-0.716,0.111,0.157,-0.228,0.594,-0.071,-0.09,0.073,-0.77,1.096
2024-09-23 15:14:17.366,175141.837,0.051,0.693,-0.719,-0.018,0.296,-0.189,0.344,-0.045,-0.217,0.071,-0.766,1.093
2024-09-23 15:14:17.376,175141.847,0.049,0.692,-0.72,-0.03,-0.095,0.002,0.035,-0.01,-0.254,0.068,-0.764,1.09
2024-09-23 15:14:17.386,175141.857,0.048,0.692,-0.72,0.081,-0.238,0.008,-0.097,0.046,-0.134,0.067,-0.764,1.087
2024-09-23 15:14:17.396,175141.867,0.047,0.693,-0.719,-0.039,-0.14,-0.07,-0.181,0.074,-0.163,0.066,-0.766,1.085
2024-09-23 15:14:17.406,175141.877,0.047,0.695,-0.718,0.014,-0.093,-0.085,-0.166,0.123,-0.163,0.065,-0.768,1.083
2024-09-23 15:14:17.415,175141.887,0.047,0.696,-0.716,0.003,-0.052,-0.034,-0.251,0.14,-0.138,0.065,-0.77,1.081
2024-09-23 15:14:17.426,175141.897,0.047,0.698,-0.714,-0.014,0.011,-0.019,-0.33,0.185,-0.086,0.066,-0.773,1.08
2024-09-23 15:14:17.436,175141.907,0.048,0.701,-0.712,-0.01,-0.006,-0.007,-0.394,0.171,-0.029,0.068,-0.777,1.079
2024-09-23 15:14:17.445,175141.917,0.049,0.704,-0.709,-0.031,-0.012,0.005,-0.394,0.174,-0.006,0.069,-0.781,1.08
2024-09-23 15:14:17.455,175141.927,0.051,0.706,-0.706,-0.041,0.018,0.026,-0.346,0.143,0.046,0.071,-0.784,1.08
2024-09-23 15:14:17.465,175141.937,0.052,0.708,-0.704,-0.046,0.032,0.032,-0.194,0.139,0.039,0.073,-0.787,1.081
2024-09-23 15:14:17.475,175141.947,0.053,0.709,-0.703,-0.037,0.003,0.025,-0.038,0.116,0.035,0.075,-0.788,1.082
2024-09-23 15:14:17.485,175141.957,0.054,0.709,-0.703,-0.013,0.039,0.03,0.062,0.075,0.011,0.076,-0.788,1.082
2024-09-23 15:14:17.495,175141.967,0.054,0.708,-0.704,0.003,0.064,0.034,0.094,0.07,0.002,0.077,-0.787,1.082
2024-09-23 15:14:17.505,175141.977,0.055,0.708,-0.705,0.013,0.044,0.022,0.134,0.059,0.013,0.078,-0.786,1.082
2024-09-23 15:14:17.515,175141.987,0.055,0.706,-0.706,0.014,0.028,0.015,0.206,0.063,0.024,0.078,-0.784,1.082
2024-09-23 15:14:17.525,175141.997,0.056,0.705,-0.707,0.004,0.006,0.018,0.238,0.062,0.02,0.079,-0.782,1.082
2024-09-23 15:14:17.536,175142.007,0.056,0.703,-0.709,0.006,0.044,0.018,0.206,0.056,-0.021,0.079,-0.78,1.082
2024-09-23 15:14:17.545,175142.017,0.057,0.702,-0.71,0.002,0.04,0.018,0.134,0.034,0.01,0.08,-0.778,1.082
2024-09-23 15:14:17.555,175142.027,0.057,0.701,-0.711,0.006,-0.036,0.011,0.111,0.021,-0.033,0.08,-0.777,1.081
2024-09-23 15:14:17.565,175142.037,0.056,0.7,-0.711,0.012,-0.029,-0.005,0.123,0.008,-0.079,0.079,-0.776,1.08
2024-09-23 15:14:17.575,175142.047,0.056,0.7,-0.712,0.005,0.008,-0.013,0.125,0.01,-0.112,0.078,-0.775,1.079
2024-09-23 15:14:17.585,175142.056,0.055,0.699,-0.713,0.015,-0.016,0.007,0.126,0.043,-0.122,0.077,-0.774,1.077
2024-09-23 15:14:17.595,175142.066,0.055,0.698,-0.714,0.008,0.005,0.009,0.145,0.034,-0.106,0.077,-0.773,1.075
2024-09-23 15:14:17.605,175142.076,0.054,0.697,-0.715,0.002,0.011,0.01,0.132,0.016,-0.09,0.076,-0.771,1.074
2024-09-23 15:14:17.615,175142.086,0.054,0.696,-0.716,-0.001,-0.002,0.015,0.114,-0.007,-0.057,0.075,-0.77,1.073
2024-09-23 15:14:17.625,175142.096,0.053,0.696,-0.717,-0.002,0.004,0.012,0.133,-0.02,-0.021,0.075,-0.769,1.072
2024-09-23 15:14:17.635,175142.106,0.053,0.694,-0.718,-0.005,-0.006,0.009,0.187,-0.026,-0.002,0.074,-0.768,1.072
2024-09-23 15:14:17.645,175142.116,0.053,0.693,-0.719,-0.005,0.008,0.015,0.23,-0.028,0.002,0.074,-0.765,1.072
2024-09-23 15:14:17.655,175142.126,0.053,0.691,-0.721,-0.003,0.033,0.018,0.27,-0.035,-0.007,0.073,-0.763,1.071
2024-09-23 15:14:17.665,175142.136,0.053,0.689,-0.723,0.002,0.026,0.019,0.281,-0.032,-0.015,0.073,-0.76,1.071
2024-09-23 15:14:17.675,175142.146,0.052,0.687,-0.725,0.004,0.026,0.016,0.252,-0.01,-0.021,0.072,-0.758,1.07
2024-09-23 15:14:17.685,175142.156,0.052,0.686,-0.726,0.009,0.014,0.012,0.203,0.018,-0.02,0.072,-0.755,1.07
2024-09-23 15:14:17.695,175142.166,0.052,0.684,-0.727,-0.0,-0.005,0.002,0.128,0.032,-0.021,0.072,-0.754,1.07
2024-09-23 15:14:17.705,175142.176,0.052,0.684,-0.728,-0.009,-0.022,-0.001,0.05,0.025,-0.014,0.072,-0.753,1.069
2024-09-23 15:14:17.715,175142.186,0.052,0.684,-0.728,-0.007,-0.027,-0.002,-0.005,0.005,-0.01,0.072,-0.753,1.069
2024-09-23 15:14:17.725,175142.196,0.052,0.684,-0.728,-0.007,-0.035,-0.006,-0.002,-0.019,-0.014,0.072,-0.753,1.069
2024-09-23 15:14:17.735,175142.206,0.052,0.684,-0.728,-0.002,-0.027,-0.003,0.041,-0.002,-0.027,0.071,-0.753,1.069
2024-09-23 15:14:17.745,175142.216,0.052,0.683,-0.728,0.006,-0.005,0.004,0.089,-0.005,-0.03,0.071,-0.753,1.068
2024-09-23 15:14:17.755,175142.226,0.051,0.683,-0.729,0.006,0.023,0.009,0.132,-0.019,-0.025,0.071,-0.752,1.068
2024-09-23 15:14:17.765,175142.236,0.051,0.682,-0.73,0.005,0.033,0.018,0.145,-0.007,-0.016,0.07,-0.75,1.067
2024-09-23 15:14:17.774,175142.246,0.051,0.681,-0.731,0.006,0.02,0.015,0.12,0.017,-0.002,0.07,-0.749,1.067
2024-09-23 15:14:17.783,175142.256,0.051,0.68,-0.731,-0.001,0.007,0.011,0.079,0.018,0.001,0.07,-0.748,1.067
2024-09-23 15:14:17.793,175142.266,0.052,0.68,-0.732,-0.009,-0.008,0.005,0.021,0.036,-0.004,0.07,-0.747,1.067
2024-09-23 15:14:17.805,175142.276,0.052,0.68,-0.732,-0.008,-0.025,0.002,-0.014,0.024,-0.014,0.07,-0.747,1.067
2024-09-23 15:14:17.814,175142.286,0.052,0.68,-0.732,-0.004,-0.029,-0.004,-0.031,0.017,-0.021,0.071,-0.747,1.066
2024-09-23 15:14:17.824,175142.296,0.052,0.68,-0.731,-0.002,-0.025,-0.001,-0.005,0.021,-0.031,0.07,-0.748,1.066
2024-09-23 15:14:17.835,175142.306,0.052,0.68,-0.731,0.006,-0.01,0.002,0.009,0.013,-0.029,0.07,-0.748,1.066
2024-09-23 15:14:17.845,175142.316,0.052,0.68,-0.731,0.002,0.009,0.005,0.009,0.031,-0.013,0.07,-0.748,1.065
2024-09-23 15:14:17.855,175142.326,0.052,0.68,-0.731,0.007,0.015,0.01,0.025,0.042,-0.006,0.071,-0.748,1.065
2024-09-23 15:14:17.865,175142.336,0.052,0.68,-0.732,-0.004,0.005,0.006,0.018,0.036,0.001,0.071,-0.747,1.065
2024-09-23 15:14:17.875,175142.346,0.052,0.68,-0.732,-0.009,0.003,0.007,-0.023,0.025,-0.005,0.071,-0.747,1.065
2024-09-23 15:14:17.885,175142.356,0.052,0.68,-0.731,-0.003,-0.005,0.008,-0.029,0.009,-0.014,0.071,-0.748,1.065
2024-09-23 15:14:17.895,175142.366,0.052,0.68,-0.731,-0.001,-0.023,0.002,-0.016,-0.005,-0.023,0.071,-0.748,1.065
2024-09-23 15:14:17.904,175142.376,0.052,0.68,-0.731,0.003,-0.013,0.003,-0.004,0.032,-0.016,0.071,-0.748,1.065
2024-09-23 15:14:17.914,175142.386,0.052,0.68,-0.731,0.006,0.007,0.007,0.016,0.02,-0.014,0.071,-0.748,1.064
2024-09-23 15:14:17.925,175142.396,0.052,0.68,-0.731,-0.002,0.012,0.006,0.008,0.035,-0.01,0.072,-0.748,1.064
2024-09-23 15:14:17.934,175142.406,0.053,0.68,-0.731,-0.002,0.009,0.009,-0.004,0.035,-0.005,0.072,-0.748,1.064
2024-09-23 15:14:17.945,175142.416,0.053,0.68,-0.731,-0.001,-0.002,0.006,0.001,0.02,-0.002,0.072,-0.748,1.064
2024-09-23 15:14:17.954,175142.426,0.053,0.68,-0.731,-0.007,-0.015,0.004,0.0,-0.003,-0.012,0.072,-0.748,1.064
2024-09-23 15:14:17.965,175142.436,0.053,0.68,-0.731,0.0,-0.01,0.008,0.04,-0.032,-0.021,0.072,-0.748,1.064
2024-09-23 15:14:17.975,175142.446,0.052,0.679,-0.732,0.003,0.002,0.008,0.11,-0.062,-0.037,0.071,-0.747,1.063
2024-09-23 15:14:17.984,175142.456,0.051,0.678,-0.733,0.01,0.009,0.011,0.189,-0.105,-0.043,0.07,-0.745,1.063
2024-09-23 15:14:17.995,175142.466,0.05,0.677,-0.735,0.014,0.033,0.017,0.262,-0.156,-0.051,0.068,-0.743,1.062
2024-09-23 15:14:18.005,175142.476,0.048,0.675,-0.737,0.016,0.037,0.022,0.346,-0.207,-0.042,0.065,-0.74,1.061
2024-09-23 15:14:18.015,175142.486,0.046,0.672,-0.739,0.015,0.035,0.026,0.455,-0.265,-0.034,0.062,-0.736,1.06
2024-09-23 15:14:18.026,175142.496,0.044,0.668,-0.743,0.016,0.038,0.032,0.612,-0.314,-0.034,0.059,-0.731,1.059
2024-09-23 15:14:18.034,175142.506,0.041,0.663,-0.748,0.019,0.045,0.036,0.752,-0.307,-0.094,0.055,-0.724,1.058
2024-09-23 15:14:18.044,175142.516,0.039,0.657,-0.753,0.022,0.063,0.041,0.647,-0.189,-0.029,0.052,-0.717,1.058
2024-09-23 15:14:18.054,175142.526,0.037,0.653,-0.756,0.02,0.085,0.045,0.447,-0.251,-0.02,0.049,-0.712,1.056
2024-09-23 15:14:18.064,175142.536,0.036,0.651,-0.758,-0.038,0.016,-0.012,0.21,-0.214,-0.044,0.047,-0.709,1.056
2024-09-23 15:14:18.074,175142.546,0.034,0.65,-0.759,0.005,-0.122,-0.011,0.066,-0.207,-0.01,0.044,-0.707,1.055
2024-09-23 15:14:18.084,175142.556,0.032,0.65,-0.759,0.003,-0.111,-0.032,-0.051,-0.204,-0.046,0.042,-0.707,1.055
2024-09-23 15:14:18.095,175142.566,0.031,0.65,-0.759,-0.001,-0.028,-0.026,-0.087,-0.262,0.141,0.04,-0.708,1.056
2024-09-23 15:14:18.104,175142.576,0.03,0.651,-0.759,0.004,-0.034,-0.009,-0.082,-0.24,0.107,0.039,-0.709,1.058
2024-09-23 15:14:18.114,175142.586,0.029,0.653,-0.757,0.007,-0.033,-0.029,-0.415,-0.279,0.228,0.038,-0.711,1.061
2024-09-23 15:14:18.124,175142.596,0.029,0.656,-0.754,0.021,-0.031,-0.042,-0.5,-0.146,0.197,0.038,-0.716,1.064
2024-09-23 15:14:18.134,175142.606,0.03,0.66,-0.751,0.004,-0.082,-0.019,-0.593,0.134,0.138,0.04,-0.721,1.066
2024-09-23 15:14:18.144,175142.616,0.033,0.665,-0.746,-0.042,-0.054,-0.019,-0.65,0.338,0.183,0.044,-0.727,1.069
2024-09-23 15:14:18.154,175142.626,0.036,0.669,-0.742,-0.044,-0.032,-0.02,-0.603,0.422,0.066,0.049,-0.733,1.07
2024-09-23 15:14:18.165,175142.636,0.04,0.674,-0.738,-0.077,0.007,-0.002,-0.558,0.392,0.103,0.054,-0.739,1.072
2024-09-23 15:14:18.174,175142.645,0.043,0.678,-0.734,-0.036,-0.018,-0.005,-0.487,0.304,0.117,0.059,-0.744,1.074
2024-09-23 15:14:18.184,175142.655,0.046,0.681,-0.731,0.0,-0.014,0.01,-0.429,0.24,0.056,0.063,-0.749,1.076
2024-09-23 15:14:18.194,175142.665,0.048,0.684,-0.728,-0.006,-0.019,0.031,-0.444,0.225,0.067,0.066,-0.753,1.077
2024-09-23 15:14:18.204,175142.675,0.05,0.687,-0.724,0.02,0.008,0.018,-0.552,0.267,0.062,0.069,-0.758,1.078
2024-09-23 15:14:18.214,175142.685,0.052,0.692,-0.72,-0.009,0.016,-0.007,-0.686,0.276,0.038,0.073,-0.764,1.08
2024-09-23 15:14:18.224,175142.695,0.055,0.697,-0.715,-0.033,-0.048,-0.025,-0.741,0.28,0.012,0.076,-0.771,1.081
2024-09-23 15:14:18.234,175142.705,0.057,0.702,-0.71,-0.02,-0.082,-0.038,-0.748,0.279,-0.007,0.08,-0.779,1.081
2024-09-23 15:14:18.244,175142.715,0.058,0.708,-0.704,-0.017,-0.052,-0.028,-0.703,0.254,-0.016,0.083,-0.786,1.082
2024-09-23 15:14:18.254,175142.725,0.06,0.712,-0.7,-0.009,-0.02,-0.01,-0.585,0.23,-0.04,0.085,-0.792,1.082
2024-09-23 15:14:18.264,175142.735,0.061,0.716,-0.696,-0.002,-0.006,0.003,-0.387,0.193,-0.044,0.088,-0.797,1.082
2024-09-23 15:14:18.274,175142.745,0.062,0.717,-0.694,0.012,0.021,0.018,-0.15,0.116,-0.034,0.089,-0.8,1.082
2024-09-23 15:14:18.285,175142.755,0.062,0.718,-0.694,0.017,0.06,0.035,0.082,0.083,-0.014,0.09,-0.8,1.082
2024-09-23 15:14:18.294,175142.765,0.063,0.716,-0.695,0.028,0.092,0.054,0.256,0.029,0.004,0.09,-0.799,1.082
2024-09-23 15:14:18.304,175142.775,0.063,0.714,-0.697,0.024,0.095,0.058,0.372,-0.039,0.006,0.09,-0.796,1.081
2024-09-23 15:14:18.314,175142.785,0.062,0.711,-0.7,0.014,0.081,0.051,0.413,-0.069,0.0,0.089,-0.792,1.081
2024-09-23 15:14:18.324,175142.795,0.062,0.709,-0.703,0.012,0.053,0.035,0.401,-0.101,-0.005,0.088,-0.788,1.08
2024-09-23 15:14:18.334,175142.805,0.061,0.706,-0.706,0.01,0.013,0.021,0.351,-0.079,-0.014,0.086,-0.784,1.08
2024-09-23 15:14:18.344,175142.815,0.06,0.704,-0.708,0.006,0.005,0.008,0.299,-0.061,-0.026,0.085,-0.781,1.079
2024-09-23 15:14:18.354,175142.825,0.06,0.702,-0.71,0.004,-0.01,-0.002,0.198,-0.026,-0.019,0.084,-0.778,1.078
2024-09-23 15:14:18.364,175142.835,0.06,0.701,-0.711,-0.004,-0.02,-0.0,0.08,0.001,-0.014,0.084,-0.777,1.078
2024-09-23 15:14:18.373,175142.845,0.06,0.701,-0.711,-0.005,-0.031,-0.003,-0.027,0.016,-0.018,0.084,-0.776,1.078
2024-09-23 15:14:18.384,175142.855,0.06,0.701,-0.71,-0.016,-0.048,-0.015,-0.099,0.011,-0.014,0.084,-0.777,1.078
2024-09-23 15:14:18.394,175142.865,0.06,0.702,-0.71,-0.014,-0.051,-0.015,-0.113,0.021,-0.008,0.084,-0.778,1.078
2024-09-23 15:14:18.404,175142.875,0.06,0.703,-0.709,-0.008,-0.034,-0.012,-0.067,0.004,-0.009,0.084,-0.779,1.078
2024-09-23 15:14:18.414,175142.885,0.06,0.703,-0.709,-0.004,-0.015,-0.005,-0.02,-0.008,-0.003,0.084,-0.78,1.078
2024-09-23 15:14:18.424,175142.895,0.06,0.703,-0.709,0.003,0.016,0.011,0.029,-0.004,0.004,0.084,-0.78,1.078
2024-09-23 15:14:18.434,175142.905,0.06,0.703,-0.709,0.008,0.025,0.017,0.078,0.009,0.01,0.084,-0.779,1.078
2024-09-23 15:14:18.444,175142.915,0.06,0.702,-0.71,0.006,0.019,0.019,0.115,0.005,0.017,0.084,-0.778,1.078
2024-09-23 15:14:18.454,175142.925,0.06,0.701,-0.711,0.003,0.023,0.019,0.114,-0.004,0.016,0.084,-0.777,1.078
2024-09-23 15:14:18.463,175142.935,0.06,0.7,-0.711,-0.003,0.014,0.013,0.089,-0.016,0.015,0.084,-0.776,1.078
2024-09-23 15:14:18.473,175142.945,0.06,0.7,-0.712,-0.003,-0.001,0.004,0.077,-0.04,0.013,0.084,-0.775,1.078
2024-09-23 15:14:18.483,175142.955,0.06,0.699,-0.713,-0.003,-0.011,0.003,0.082,-0.046,0.001,0.083,-0.774,1.078
2024-09-23 15:14:18.493,175142.965,0.059,0.698,-0.713,0.002,-0.008,0.005,0.091,-0.026,-0.005,0.083,-0.773,1.078
2024-09-23 15:14:18.503,175142.975,0.059,0.698,-0.714,0.007,0.001,0.01,0.112,-0.024,-0.017,0.083,-0.772,1.077
2024-09-23 15:14:18.513,175142.985,0.059,0.697,-0.715,0.004,0.004,0.008,0.133,-0.034,-0.022,0.082,-0.771,1.077
2024-09-23 15:14:18.523,175142.995,0.058,0.696,-0.716,0.004,0.012,0.009,0.147,-0.032,-0.022,0.081,-0.77,1.077
2024-09-23 15:14:18.533,175143.005,0.058,0.695,-0.717,0.008,0.009,0.012,0.174,-0.052,-0.013,0.081,-0.768,1.076
2024-09-23 15:14:18.544,175143.015,0.057,0.694,-0.718,0.001,0.005,0.012,0.194,-0.048,-0.008,0.08,-0.767,1.076
2024-09-23 15:14:18.553,175143.025,0.057,0.692,-0.719,0.0,0.007,0.015,0.205,-0.058,-0.001,0.079,-0.765,1.076
2024-09-23 15:14:18.563,175143.035,0.057,0.691,-0.721,0.002,0.017,0.016,0.185,-0.061,-0.014,0.078,-0.763,1.075
2024-09-23 15:14:18.573,175143.045,0.056,0.69,-0.722,-0.001,0.01,0.013,0.146,-0.042,-0.013,0.078,-0.761,1.075
2024-09-23 15:14:18.583,175143.055,0.056,0.689,-0.723,0.004,0.001,0.004,0.085,-0.037,-0.02,0.077,-0.76,1.075
2024-09-23 15:14:18.593,175143.065,0.055,0.689,-0.723,-0.002,-0.011,-0.005,0.007,-0.027,-0.021,0.076,-0.76,1.074
2024-09-23 15:14:18.603,175143.075,0.055,0.689,-0.723,-0.005,-0.026,-0.008,-0.044,0.011,-0.021,0.076,-0.76,1.074
2024-09-23 15:14:18.613,175143.085,0.055,0.689,-0.722,-0.003,-0.035,-0.01,-0.058,0.018,-0.028,0.076,-0.76,1.074
2024-09-23 15:14:18.623,175143.095,0.055,0.69,-0.722,-0.011,-0.034,-0.006,-0.046,0.028,-0.022,0.076,-0.761,1.074
2024-09-23 15:14:18.633,175143.105,0.055,0.69,-0.722,-0.005,-0.016,0.005,0.003,0.058,-0.02,0.077,-0.761,1.073
2024-09-23 15:14:18.643,175143.115,0.056,0.69,-0.722,-0.001,0.004,0.009,0.065,0.035,-0.011,0.077,-0.761,1.073
2024-09-23 15:14:18.653,175143.125,0.056,0.689,-0.722,-0.006,0.017,0.01,0.096,0.018,-0.002,0.077,-0.76,1.073
2024-09-23 15:14:18.663,175143.135,0.056,0.688,-0.723,0.002,0.029,0.016,0.108,0.005,0.007,0.077,-0.759,1.073
2024-09-23 15:14:18.673,175143.145,0.056,0.687,-0.724,0.005,0.02,0.015,0.138,-0.025,0.0,0.077,-0.758,1.073
2024-09-23 15:14:18.683,175143.155,0.056,0.686,-0.725,0.002,0.009,0.013,0.153,-0.034,-0.015,0.076,-0.756,1.072
2024-09-23 15:14:18.693,175143.165,0.055,0.685,-0.726,0.005,0.009,0.015,0.175,-0.054,-0.015,0.076,-0.755,1.072
2024-09-23 15:14:18.703,175143.175,0.055,0.684,-0.728,0.007,0.007,0.015,0.215,-0.079,-0.023,0.075,-0.753,1.072
2024-09-23 15:14:18.713,175143.185,0.054,0.682,-0.729,0.004,0.0,0.01,0.254,-0.107,-0.022,0.073,-0.75,1.071
2024-09-23 15:14:18.723,175143.195,0.053,0.68,-0.731,0.009,0.011,0.014,0.317,-0.151,-0.029,0.072,-0.748,1.07
2024-09-23 15:14:18.733,175143.205,0.051,0.677,-0.734,0.009,0.024,0.018,0.411,-0.204,-0.024,0.07,-0.744,1.07
2024-09-23 15:14:18.743,175143.215,0.049,0.674,-0.737,0.013,0.027,0.02,0.537,-0.258,-0.031,0.067,-0.74,1.069
2024-09-23 15:14:18.753,175143.225,0.047,0.67,-0.741,0.017,0.035,0.029,0.642,-0.299,-0.126,0.063,-0.734,1.068
2024-09-23 15:14:18.763,175143.235,0.045,0.665,-0.745,0.019,0.053,0.035,0.563,-0.259,-0.012,0.06,-0.728,1.067
2024-09-23 15:14:18.773,175143.244,0.042,0.662,-0.748,0.028,0.063,0.038,0.311,-0.324,-0.023,0.056,-0.724,1.066
2024-09-23 15:14:18.783,175143.254,0.04,0.661,-0.749,-0.017,0.006,-0.011,-0.026,-0.268,0.0,0.053,-0.722,1.066
2024-09-23 15:14:18.794,175143.264,0.038,0.661,-0.749,0.006,-0.109,-0.018,-0.023,-0.241,0.165,0.051,-0.723,1.067
2024-09-23 15:14:18.802,175143.274,0.038,0.663,-0.748,0.012,-0.106,-0.047,-0.483,-0.184,0.217,0.051,-0.725,1.07
2024-09-23 15:14:18.813,175143.284,0.039,0.668,-0.743,0.014,-0.039,-0.084,-0.854,0.027,0.157,0.052,-0.732,1.072
2024-09-23 15:14:18.823,175143.294,0.041,0.675,-0.736,0.016,-0.064,-0.072,-1.088,0.288,0.113,0.055,-0.741,1.076
2024-09-23 15:14:18.832,175143.304,0.044,0.684,-0.728,-0.076,-0.167,-0.031,-1.167,0.372,0.17,0.061,-0.753,1.078
2024-09-23 15:14:18.842,175143.314,0.048,0.692,-0.721,-0.079,-0.1,-0.055,-1.028,0.399,0.125,0.067,-0.764,1.081
2024-09-23 15:14:18.853,175143.324,0.052,0.698,-0.714,-0.086,-0.122,0.008,-0.856,0.397,0.15,0.072,-0.773,1.084
2024-09-23 15:14:18.863,175143.334,0.056,0.704,-0.708,-0.04,-0.028,0.015,-0.784,0.448,0.135,0.079,-0.781,1.087
2024-09-23 15:14:18.873,175143.344,0.06,0.71,-0.702,-0.007,0.052,0.022,-0.91,0.446,0.035,0.085,-0.789,1.089
2024-09-23 15:14:18.883,175143.354,0.062,0.717,-0.694,-0.028,0.05,-0.014,-1.189,0.39,-0.098,0.09,-0.8,1.09
2024-09-23 15:14:18.893,175143.364,0.064,0.726,-0.685,-0.018,-0.076,-0.039,-1.24,0.382,-0.063,0.094,-0.812,1.09
2024-09-23 15:14:18.903,175143.374,0.066,0.734,-0.676,-0.01,-0.169,-0.029,-1.249,0.352,-0.054,0.098,-0.824,1.091
2024-09-23 15:14:18.913,175143.384,0.068,0.742,-0.666,-0.026,-0.062,-0.027,-1.222,0.31,-0.03,0.102,-0.837,1.092
2024-09-23 15:14:18.924,175143.394,0.07,0.75,-0.658,0.009,-0.013,-0.021,-1.092,0.269,-0.0,0.106,-0.848,1.094
2024-09-23 15:14:18.933,175143.404,0.072,0.757,-0.65,0.003,-0.03,-0.007,-0.916,0.193,0.018,0.11,-0.858,1.096
2024-09-23 15:14:18.943,175143.414,0.073,0.762,-0.643,0.015,0.018,0.001,-0.754,0.12,0.039,0.113,-0.867,1.098
2024-09-23 15:14:18.953,175143.424,0.074,0.766,-0.638,0.025,0.033,0.02,-0.577,0.029,0.049,0.115,-0.873,1.1
2024-09-23 15:14:18.963,175143.434,0.074,0.769,-0.634,0.023,0.054,0.02,-0.379,-0.058,0.054,0.116,-0.878,1.101
2024-09-23 15:14:18.973,175143.444,0.074,0.771,-0.632,0.019,0.05,0.024,-0.181,-0.11,0.074,0.117,-0.881,1.103
2024-09-23 15:14:18.983,175143.454,0.074,0.772,-0.632,0.015,0.061,0.042,-0.032,-0.14,0.112,0.117,-0.881,1.104
2024-09-23 15:14:18.993,175143.464,0.074,0.771,-0.632,0.007,0.069,0.045,0.084,-0.169,0.13,0.116,-0.881,1.106
2024-09-23 15:14:19.002,175143.474,0.074,0.771,-0.633,-0.002,0.052,0.035,0.17,-0.169,0.126,0.116,-0.88,1.108
2024-09-23 15:14:19.012,175143.484,0.074,0.769,-0.635,-0.001,0.033,0.029,0.217,-0.166,0.125,0.116,-0.878,1.11
2024-09-23 15:14:19.023,175143.494,0.074,0.768,-0.637,-0.001,0.043,0.022,0.22,-0.142,0.12,0.115,-0.875,1.111
2024-09-23 15:14:19.032,175143.504,0.074,0.766,-0.638,-0.002,0.028,0.017,0.227,-0.132,0.127,0.115,-0.873,1.113
2024-09-23 15:14:19.042,175143.514,0.074,0.765,-0.64,0.003,0.011,0.01,0.229,-0.131,0.147,0.115,-0.871,1.114
2024-09-23 15:14:19.053,175143.524,0.074,0.763,-0.642,-0.004,0.015,0.01,0.21,-0.103,0.157,0.115,-0.868,1.116
2024-09-23 15:14:19.062,175143.534,0.075,0.762,-0.644,-0.009,0.028,0.008,0.249,-0.12,0.176,0.116,-0.866,1.118
2024-09-23 15:14:19.072,175143.544,0.076,0.76,-0.646,-0.018,0.023,0.005,0.307,-0.118,0.206,0.117,-0.863,1.121
2024-09-23 15:14:19.082,175143.554,0.076,0.757,-0.649,-0.017,0.011,0.009,0.333,-0.131,0.219,0.117,-0.859,1.123
2024-09-23 15:14:19.092,175143.564,0.077,0.755,-0.651,-0.008,0.032,0.022,0.376,-0.159,0.185,0.118,-0.855,1.126
2024-09-23 15:14:19.102,175143.574,0.077,0.752,-0.654,-0.006,0.051,0.032,0.426,-0.194,0.178,0.118,-0.851,1.128
2024-09-23 15:14:19.112,175143.584,0.077,0.749,-0.658,-0.008,0.02,0.032,0.468,-0.212,0.177,0.117,-0.847,1.13
2024-09-23 15:14:19.122,175143.594,0.077,0.746,-0.662,0.009,0.015,0.03,0.498,-0.231,0.144,0.116,-0.842,1.131
2024-09-23 15:14:19.132,175143.604,0.076,0.742,-0.666,0.006,0.046,0.037,0.495,-0.258,0.075,0.114,-0.837,1.132
2024-09-23 15:14:19.142,175143.614,0.075,0.739,-0.669,-0.007,0.066,0.039,0.425,-0.259,-0.026,0.111,-0.832,1.132
2024-09-23 15:14:19.152,175143.624,0.073,0.737,-0.672,-0.01,0.057,0.025,0.382,-0.246,-0.054,0.108,-0.828,1.131
2024-09-23 15:14:19.162,175143.634,0.07,0.734,-0.675,-0.015,0.023,0.014,0.395,-0.303,-0.28,0.103,-0.824,1.128
2024-09-23 15:14:19.172,175143.644,0.066,0.733,-0.677,-0.026,-0.01,0.004,0.06,-0.252,-0.157,0.097,-0.822,1.123
2024-09-23 15:14:19.181,175143.654,0.063,0.732,-0.678,-0.041,-0.044,-0.013,-0.001,-0.252,-0.245,0.093,-0.822,1.121
2024-09-23 15:14:19.191,175143.664,0.06,0.733,-0.678,-0.106,-0.019,0.001,-0.011,-0.261,-0.271,0.088,-0.822,1.117
2024-09-23 15:14:19.202,175143.674,0.056,0.733,-0.678,0.062,-0.006,-0.013,0.087,-0.275,-0.33,0.082,-0.822,1.113
2024-09-23 15:14:19.212,175143.684,0.051,0.732,-0.679,-0.044,0.023,-0.047,0.053,-0.282,-0.419,0.075,-0.822,1.107
2024-09-23 15:14:19.222,175143.694,0.046,0.733,-0.679,-0.036,0.102,-0.077,-0.101,-0.248,-0.434,0.068,-0.822,1.101
2024-09-23 15:14:19.232,175143.704,0.042,0.734,-0.678,0.012,0.1,-0.09,-0.31,-0.041,-0.319,0.062,-0.825,1.096
2024-09-23 15:14:19.242,175143.714,0.041,0.736,-0.675,-0.003,0.019,-0.09,-0.242,0.041,-0.159,0.06,-0.828,1.093
2024-09-23 15:14:19.252,175143.724,0.04,0.738,-0.674,0.024,-0.041,-0.053,-0.157,0.076,-0.104,0.059,-0.83,1.091
2024-09-23 15:14:19.262,175143.734,0.04,0.739,-0.672,0.042,-0.087,0.051,-0.264,0.093,-0.173,0.059,-0.832,1.089
2024-09-23 15:14:19.272,175143.744,0.039,0.741,-0.671,0.048,-0.069,0.104,-0.127,0.101,-0.097,0.059,-0.834,1.087
2024-09-23 15:14:19.282,175143.754,0.039,0.741,-0.671,-0.006,-0.114,0.117,0.059,0.043,-0.007,0.059,-0.834,1.087
2024-09-23 15:14:19.292,175143.764,0.04,0.74,-0.671,-0.026,-0.181,0.118,0.135,0.048,-0.015,0.059,-0.833,1.086
2024-09-23 15:14:19.302,175143.774,0.04,0.739,-0.672,0.041,-0.153,0.084,0.189,0.024,0.001,0.059,-0.832,1.086
2024-09-23 15:14:19.313,175143.784,0.04,0.738,-0.674,0.025,-0.027,0.07,0.222,0.029,0.037,0.059,-0.83,1.086
2024-09-23 15:14:19.321,175143.794,0.041,0.736,-0.676,0.02,0.007,0.066,0.289,0.047,0.061,0.06,-0.827,1.087
2024-09-23 15:14:19.332,175143.804,0.042,0.734,-0.678,0.049,0.008,0.068,0.374,0.073,0.071,0.061,-0.824,1.087
2024-09-23 15:14:19.342,175143.814,0.043,0.731,-0.681,0.048,0.004,0.064,0.413,0.116,0.091,0.063,-0.82,1.088
2024-09-23 15:14:19.352,175143.824,0.044,0.728,-0.684,0.04,-0.021,0.074,0.419,0.129,0.112,0.065,-0.816,1.089
2024-09-23 15:14:19.362,175143.833,0.047,0.724,-0.688,0.032,-0.057,0.086,0.813,0.129,0.294,0.068,-0.81,1.091
2024-09-23 15:14:19.372,175143.843,0.049,0.719,-0.694,0.019,-0.054,0.07,0.639,0.145,0.207,0.071,-0.802,1.093
2024-09-23 15:14:19.382,175143.853,0.052,0.714,-0.698,0.023,0.051,-0.074,0.561,0.156,0.172,0.074,-0.796,1.095
2024-09-23 15:14:19.392,175143.863,0.054,0.71,-0.702,0.042,0.307,-0.331,0.518,0.046,0.145,0.076,-0.79,1.097
2024-09-23 15:14:19.402,175143.873,0.055,0.707,-0.705,-0.13,0.168,-0.111,0.421,0.015,0.169,0.078,-0.785,1.099
2024-09-23 15:14:19.412,175143.883,0.056,0.704,-0.708,0.053,-0.14,0.041,0.343,-0.042,0.038,0.078,-0.781,1.099
2024-09-23 15:14:19.422,175143.893,0.055,0.702,-0.71,0.014,-0.004,0.006,0.235,-0.072,0.03,0.078,-0.779,1.1
2024-09-23 15:14:19.433,175143.903,0.055,0.701,-0.711,-0.026,-0.05,-0.023,0.158,-0.079,0.028,0.077,-0.777,1.1
2024-09-23 15:14:19.442,175143.913,0.055,0.7,-0.712,0.051,-0.071,0.007,0.102,-0.093,0.033,0.076,-0.775,1.1
2024-09-23 15:14:19.452,175143.923,0.054,0.699,-0.713,-0.004,-0.014,-0.006,0.088,-0.109,0.037,0.076,-0.774,1.1
2024-09-23 15:14:19.462,175143.933,0.053,0.698,-0.714,0.004,0.0,-0.012,0.108,-0.115,-0.0,0.075,-0.773,1.101
2024-09-23 15:14:19.472,175143.943,0.052,0.698,-0.714,0.003,-0.005,0.003,0.084,-0.135,-0.048,0.073,-0.772,1.1
2024-09-23 15:14:19.482,175143.953,0.051,0.697,-0.715,0.01,0.015,0.009,0.018,-0.169,-0.092,0.071,-0.772,1.099
2024-09-23 15:14:19.492,175143.963,0.049,0.698,-0.715,0.014,-0.002,0.004,-0.044,-0.199,-0.116,0.068,-0.772,1.098
2024-09-23 15:14:19.502,175143.973,0.047,0.698,-0.715,0.019,-0.038,-0.01,-0.062,-0.176,-0.123,0.065,-0.773,1.096
2024-09-23 15:14:19.512,175143.983,0.045,0.698,-0.714,0.018,-0.029,-0.013,-0.005,-0.107,-0.093,0.063,-0.773,1.095
2024-09-23 15:14:19.522,175143.993,0.044,0.698,-0.715,0.009,-0.004,-0.001,0.1,-0.053,-0.061,0.061,-0.773,1.093
2024-09-23 15:14:19.532,175144.003,0.043,0.697,-0.716,-0.011,0.021,0.014,0.174,-0.02,-0.032,0.06,-0.771,1.093
2024-09-23 15:14:19.542,175144.013,0.043,0.696,-0.717,-0.018,0.04,0.027,0.214,0.003,-0.017,0.06,-0.769,1.092
2024-09-23 15:14:19.552,175144.023,0.043,0.694,-0.719,-0.018,0.033,0.022,0.25,-0.011,-0.003,0.059,-0.767,1.092
2024-09-23 15:14:19.562,175144.033,0.043,0.692,-0.72,-0.011,-0.004,0.02,0.248,0.001,0.015,0.059,-0.765,1.092
2024-09-23 15:14:19.572,175144.043,0.043,0.691,-0.722,-0.003,0.001,0.017,0.193,0.005,0.031,0.06,-0.762,1.092
2024-09-23 15:14:19.581,175144.053,0.043,0.69,-0.723,-0.006,0.023,0.009,0.091,-0.005,0.032,0.06,-0.761,1.092
2024-09-23 15:14:19.591,175144.063,0.043,0.689,-0.723,-0.011,-0.01,-0.004,-0.037,-0.029,0.037,0.06,-0.761,1.093
2024-09-23 15:14:19.602,175144.073,0.044,0.69,-0.722,-0.002,-0.037,-0.013,-0.157,-0.007,0.06,0.06,-0.761,1.094
2024-09-23 15:14:19.611,175144.083,0.044,0.691,-0.721,-0.001,-0.057,-0.015,-0.189,-0.011,0.067,0.061,-0.763,1.095
2024-09-23 15:14:19.622,175144.093,0.045,0.693,-0.72,-0.009,-0.062,-0.015,-0.177,-0.016,0.131,0.062,-0.765,1.096
2024-09-23 15:14:19.631,175144.103,0.045,0.694,-0.719,-0.007,-0.039,-0.007,-0.061,-0.025,0.102,0.063,-0.766,1.098
2024-09-23 15:14:19.642,175144.113,0.046,0.693,-0.719,-0.002,0.033,0.004,0.085,-0.019,0.046,0.063,-0.766,1.099
2024-09-23 15:14:19.651,175144.123,0.046,0.692,-0.72,-0.003,0.04,0.02,0.17,-0.005,0.002,0.063,-0.765,1.099
2024-09-23 15:14:19.661,175144.133,0.045,0.691,-0.721,0.023,0.059,0.037,0.14,-0.029,-0.035,0.063,-0.763,1.099
2024-09-23 15:14:19.671,175144.143,0.045,0.691,-0.722,0.002,0.05,0.021,0.066,-0.06,-0.063,0.062,-0.762,1.098
2024-09-23 15:14:19.681,175144.153,0.044,0.69,-0.722,0.011,-0.017,-0.004,0.005,-0.046,-0.073,0.061,-0.762,1.097
2024-09-23 15:14:19.692,175144.163,0.043,0.69,-0.722,0.015,-0.037,-0.013,-0.002,-0.006,-0.064,0.06,-0.762,1.096
2024-09-23 15:14:19.702,175144.173,0.043,0.69,-0.722,0.008,-0.023,-0.005,0.02,0.016,-0.045,0.059,-0.762,1.095
2024-09-23 15:14:19.711,175144.183,0.043,0.69,-0.722,-0.008,-0.015,0.005,0.021,0.027,-0.028,0.059,-0.762,1.094
2024-09-23 15:14:19.722,175144.193,0.043,0.69,-0.723,-0.013,0.003,0.007,0.026,0.017,-0.03,0.059,-0.761,1.094
2024-09-23 15:14:19.731,175144.203,0.043,0.69,-0.723,-0.011,0.009,0.006,0.049,-0.004,-0.033,0.059,-0.761,1.094
2024-09-23 15:14:19.741,175144.213,0.042,0.689,-0.723,-0.006,-0.012,0.008,0.108,-0.008,-0.038,0.058,-0.76,1.093
2024-09-23 15:14:19.751,175144.223,0.042,0.688,-0.724,0.001,0.003,0.009,0.153,0.004,-0.046,0.058,-0.759,1.092
2024-09-23 15:14:19.761,175144.233,0.042,0.687,-0.725,0.001,0.025,0.01,0.168,-0.01,-0.045,0.057,-0.758,1.092
2024-09-23 15:14:19.771,175144.243,0.041,0.686,-0.726,-0.002,0.027,0.01,0.137,-0.001,-0.04,0.057,-0.756,1.091
2024-09-23 15:14:19.781,175144.253,0.041,0.685,-0.727,0.003,0.013,0.006,0.117,-0.014,-0.045,0.056,-0.755,1.09
2024-09-23 15:14:19.791,175144.263,0.041,0.684,-0.728,0.006,-0.005,0.001,0.099,-0.004,-0.051,0.056,-0.754,1.089
2024-09-23 15:14:19.801,175144.273,0.04,0.684,-0.729,0.004,-0.016,0.002,0.078,-0.005,-0.042,0.055,-0.753,1.089
2024-09-23 15:14:19.811,175144.283,0.04,0.683,-0.729,0.005,-0.011,0.004,0.065,-0.015,-0.037,0.054,-0.752,1.088
2024-09-23 15:14:19.822,175144.293,0.039,0.683,-0.73,-0.004,-0.012,0.002,0.068,-0.025,-0.04,0.054,-0.752,1.088
2024-09-23 15:14:19.832,175144.303,0.039,0.682,-0.73,0.0,-0.014,0.003,0.068,-0.044,-0.042,0.053,-0.751,1.087
2024-09-23 15:14:19.840,175144.313,0.038,0.682,-0.73,-0.001,-0.002,0.004,0.069,-0.033,-0.032,0.052,-0.75,1.086
2024-09-23 15:14:19.851,175144.323,0.038,0.682,-0.731,0.005,-0.001,0.009,0.074,0.01,-0.015,0.052,-0.75,1.086
2024-09-23 15:14:19.861,175144.333,0.038,0.681,-0.731,0.004,0.006,0.011,0.082,0.048,-0.004,0.052,-0.749,1.086
2024-09-23 15:14:19.872,175144.343,0.039,0.68,-0.732,-0.006,0.012,0.009,0.044,0.053,-0.009,0.053,-0.748,1.086
2024-09-23 15:14:19.881,175144.353,0.039,0.68,-0.732,-0.017,-0.001,0.001,-0.008,0.078,-0.014,0.053,-0.748,1.086
2024-09-23 15:14:19.892,175144.363,0.039,0.681,-0.732,-0.009,-0.018,-0.001,-0.046,0.062,-0.025,0.054,-0.749,1.085
2024-09-23 15:14:19.901,175144.373,0.04,0.681,-0.731,-0.013,-0.036,-0.006,-0.051,0.055,-0.03,0.054,-0.749,1.085
2024-09-23 15:14:19.911,175144.383,0.04,0.681,-0.731,-0.008,-0.027,-0.005,-0.032,0.035,-0.036,0.054,-0.749,1.085
2024-09-23 15:14:19.921,175144.393,0.04,0.681,-0.731,0.002,-0.007,-0.001,-0.008,0.013,-0.03,0.054,-0.75,1.084
2024-09-23 15:14:19.931,175144.403,0.04,0.681,-0.731,0.004,0.006,0.002,0.057,0.017,-0.016,0.054,-0.749,1.084
2024-09-23 15:14:19.941,175144.413,0.04,0.681,-0.732,0.012,0.008,0.003,0.105,0.009,-0.013,0.054,-0.749,1.084
2024-09-23 15:14:19.952,175144.423,0.04,0.68,-0.732,0.007,0.021,0.01,0.122,0.007,-0.01,0.054,-0.748,1.083
2024-09-23 15:14:19.961,175144.432,0.039,0.679,-0.733,0.009,0.031,0.014,0.152,-0.019,-0.024,0.054,-0.746,1.083
2024-09-23 15:14:19.971,175144.442,0.039,0.678,-0.734,0.005,0.008,0.01,0.166,-0.043,-0.027,0.053,-0.745,1.083
2024-09-23 15:14:19.981,175144.452,0.038,0.676,-0.736,0.006,-0.0,0.013,0.198,-0.079,-0.024,0.052,-0.743,1.082
2024-09-23 15:14:19.990,175144.462,0.037,0.675,-0.737,0.01,0.006,0.014,0.236,-0.094,-0.027,0.051,-0.741,1.081
2024-09-23 15:14:20.001,175144.472,0.037,0.673,-0.739,0.006,0.006,0.012,0.287,-0.129,-0.022,0.049,-0.738,1.081
2024-09-23 15:14:20.011,175144.482,0.035,0.671,-0.741,0.008,0.018,0.016,0.345,-0.164,-0.006,0.048,-0.735,1.081
2024-09-23 15:14:20.021,175144.492,0.034,0.668,-0.744,0.008,0.027,0.017,0.434,-0.206,0.012,0.046,-0.731,1.08
2024-09-23 15:14:20.031,175144.502,0.032,0.664,-0.747,0.017,0.03,0.02,0.538,-0.276,0.037,0.043,-0.726,1.08
2024-09-23 15:14:20.041,175144.512,0.03,0.66,-0.751,0.017,0.032,0.024,0.564,-0.332,0.027,0.04,-0.721,1.08
2024-09-23 15:14:20.051,175144.522,0.028,0.656,-0.754,0.022,0.039,0.029,0.449,-0.241,-0.056,0.038,-0.716,1.08
2024-09-23 15:14:20.060,175144.532,0.026,0.653,-0.757,0.02,0.043,0.029,0.337,-0.299,-0.007,0.034,-0.712,1.08
2024-09-23 15:14:20.071,175144.542,0.024,0.651,-0.758,-0.024,-0.033,-0.001,0.186,-0.27,0.013,0.032,-0.709,1.08
2024-09-23 15:14:20.081,175144.552,0.022,0.65,-0.76,0.016,-0.081,0.001,0.175,-0.314,0.093,0.029,-0.708,1.08
2024-09-23 15:14:20.090,175144.562,0.02,0.649,-0.76,0.004,-0.058,-0.015,0.032,-0.281,-0.006,0.026,-0.707,1.08
2024-09-23 15:14:20.101,175144.572,0.019,0.65,-0.76,0.006,-0.01,-0.006,-0.152,-0.309,0.178,0.024,-0.707,1.082
2024-09-23 15:14:20.111,175144.582,0.017,0.651,-0.759,0.01,-0.03,-0.02,-0.262,-0.238,0.158,0.023,-0.709,1.084
2024-09-23 15:14:20.121,175144.592,0.017,0.654,-0.757,0.0,-0.063,-0.038,-0.373,-0.099,0.155,0.023,-0.712,1.086
2024-09-23 15:14:20.131,175144.602,0.018,0.657,-0.754,-0.021,-0.063,-0.026,-0.509,0.2,0.154,0.024,-0.717,1.089
2024-09-23 15:14:20.141,175144.612,0.022,0.661,-0.75,-0.036,-0.039,-0.029,-0.569,0.429,0.119,0.029,-0.722,1.091
2024-09-23 15:14:20.151,175144.622,0.026,0.666,-0.746,-0.069,-0.029,-0.037,-0.652,0.52,0.09,0.035,-0.728,1.092
2024-09-23 15:14:20.160,175144.632,0.03,0.67,-0.741,-0.099,-0.045,-0.012,-0.662,0.415,0.11,0.041,-0.735,1.094
2024-09-23 15:14:20.170,175144.642,0.034,0.675,-0.737,-0.024,-0.017,0.018,-0.649,0.315,0.054,0.046,-0.741,1.095
2024-09-23 15:14:20.181,175144.652,0.036,0.68,-0.733,0.009,-0.041,0.001,-0.615,0.205,0.046,0.049,-0.748,1.096
2024-09-23 15:14:20.191,175144.662,0.037,0.684,-0.728,0.012,-0.018,-0.006,-0.642,0.208,0.008,0.051,-0.754,1.097
2024-09-23 15:14:20.202,175144.672,0.039,0.689,-0.723,0.025,0.002,-0.001,-0.71,0.217,-0.028,0.054,-0.76,1.098
2024-09-23 15:14:20.211,175144.682,0.04,0.695,-0.718,-0.014,-0.019,-0.011,-0.744,0.214,-0.037,0.056,-0.768,1.098
2024-09-23 15:14:20.221,175144.692,0.042,0.7,-0.713,-0.019,-0.068,-0.022,-0.7,0.239,-0.015,0.058,-0.775,1.098
2024-09-23 15:14:20.230,175144.702,0.043,0.704,-0.708,-0.005,-0.065,-0.007,-0.606,0.269,0.001,0.061,-0.782,1.098
2024-09-23 15:14:20.240,175144.712,0.045,0.708,-0.704,-0.013,-0.004,0.007,-0.487,0.254,0.002,0.064,-0.787,1.099
2024-09-23 15:14:20.250,175144.722,0.047,0.711,-0.701,-0.015,0.038,0.015,-0.349,0.205,-0.014,0.067,-0.791,1.099
2024-09-23 15:14:20.260,175144.732,0.048,0.713,-0.699,-0.007,0.037,0.017,-0.21,0.145,-0.016,0.068,-0.794,1.099
2024-09-23 15:14:20.271,175144.742,0.049,0.714,-0.698,0.007,0.037,0.019,-0.067,0.083,-0.022,0.069,-0.795,1.099
2024-09-23 15:14:20.280,175144.752,0.049,0.714,-0.698,0.011,0.043,0.024,0.089,0.024,-0.013,0.07,-0.795,1.099
2024-09-23 15:14:20.290,175144.762,0.049,0.713,-0.7,0.014,0.053,0.027,0.236,-0.021,-0.01,0.069,-0.794,1.098
2024-09-23 15:14:20.300,175144.772,0.048,0.711,-0.702,0.024,0.064,0.035,0.363,-0.054,-0.002,0.069,-0.791,1.098
2024-09-23 15:14:20.310,175144.782,0.048,0.708,-0.705,0.023,0.069,0.04,0.432,-0.082,0.004,0.068,-0.787,1.098
2024-09-23 15:14:20.321,175144.792,0.047,0.705,-0.708,0.017,0.052,0.038,0.452,-0.1,0.007,0.067,-0.782,1.097
2024-09-23 15:14:20.331,175144.802,0.047,0.702,-0.711,0.012,0.031,0.029,0.425,-0.114,-0.0,0.065,-0.778,1.097
2024-09-23 15:14:20.341,175144.812,0.046,0.699,-0.714,0.003,0.008,0.018,0.395,-0.099,-0.009,0.064,-0.774,1.097
2024-09-23 15:14:20.350,175144.822,0.045,0.696,-0.716,0.003,-0.008,0.007,0.369,-0.115,-0.021,0.063,-0.77,1.096
2024-09-23 15:14:20.360,175144.832,0.044,0.694,-0.719,-0.003,-0.009,0.002,0.328,-0.091,-0.017,0.061,-0.767,1.095
2024-09-23 15:14:20.370,175144.842,0.043,0.692,-0.721,0.001,-0.005,0.005,0.272,-0.045,-0.006,0.06,-0.764,1.095
2024-09-23 15:14:20.380,175144.852,0.043,0.69,-0.723,0.001,-0.003,0.003,0.233,-0.051,-0.016,0.06,-0.761,1.095
2024-09-23 15:14:20.390,175144.862,0.043,0.688,-0.724,-0.014,-0.012,-0.004,0.167,-0.062,-0.023,0.059,-0.759,1.094
2024-09-23 15:14:20.400,175144.872,0.042,0.687,-0.725,-0.002,-0.019,-0.001,0.119,-0.062,-0.021,0.058,-0.758,1.094
2024-09-23 15:14:20.410,175144.882,0.041,0.686,-0.726,0.004,-0.025,0.0,0.108,-0.083,-0.024,0.057,-0.757,1.093
2024-09-23 15:14:20.420,175144.892,0.04,0.686,-0.727,-0.003,-0.031,-0.005,0.147,-0.117,-0.027,0.055,-0.755,1.093
2024-09-23 15:14:20.430,175144.902,0.039,0.684,-0.728,0.002,-0.009,0.003,0.229,-0.171,-0.015,0.054,-0.754,1.093
2024-09-23 15:14:20.440,175144.912,0.038,0.682,-0.73,0.011,0.02,0.014,0.404,-0.258,0.001,0.051,-0.751,1.092
2024-09-23 15:14:20.450,175144.922,0.035,0.678,-0.734,0.017,0.032,0.025,0.724,-0.342,0.031,0.048,-0.745,1.092
2024-09-23 15:14:20.461,175144.932,0.033,0.672,-0.74,0.029,0.057,0.035,0.97,-0.461,0.019,0.044,-0.736,1.092
2024-09-23 15:14:20.470,175144.942,0.029,0.664,-0.747,0.042,0.102,0.035,0.997,-0.492,0.0,0.039,-0.726,1.091
2024-09-23 15:14:20.480,175144.952,0.027,0.657,-0.753,0.047,0.1,0.051,0.746,-0.254,-0.051,0.035,-0.717,1.091
2024-09-23 15:14:20.490,175144.962,0.024,0.653,-0.757,0.035,0.09,0.062,0.26,-0.274,0.039,0.032,-0.712,1.09
2024-09-23 15:14:20.500,175144.972,0.023,0.653,-0.757,-0.059,-0.01,-0.02,-0.221,-0.157,0.057,0.03,-0.712,1.091
2024-09-23 15:14:20.511,175144.982,0.023,0.656,-0.755,-0.014,-0.194,-0.053,-0.45,-0.026,0.254,0.031,-0.715,1.093
2024-09-23 15:14:20.521,175144.992,0.026,0.661,-0.75,-0.0,-0.212,-0.101,-0.9,0.146,0.243,0.034,-0.722,1.097
2024-09-23 15:14:20.530,175145.002,0.028,0.668,-0.743,-0.015,-0.07,-0.131,-1.138,0.284,0.171,0.038,-0.732,1.1
2024-09-23 15:14:20.540,175145.012,0.032,0.677,-0.735,-0.066,-0.144,-0.069,-1.222,0.476,0.14,0.044,-0.743,1.103
2024-09-23 15:14:20.550,175145.021,0.037,0.686,-0.726,-0.097,-0.169,-0.012,-1.321,0.466,0.062,0.05,-0.756,1.105
2024-09-23 15:14:20.560,175145.031,0.04,0.695,-0.718,-0.054,-0.038,-0.024,-1.077,0.422,0.098,0.056,-0.768,1.107
2024-09-23 15:14:20.570,175145.041,0.044,0.703,-0.71,-0.097,-0.115,0.03,-1.174,0.454,0.098,0.062,-0.779,1.109
2024-09-23 15:14:20.580,175145.051,0.048,0.711,-0.701,-0.016,-0.001,0.016,-1.266,0.512,0.007,0.068,-0.791,1.111
2024-09-23 15:14:20.590,175145.061,0.051,0.72,-0.692,-0.042,0.057,0.027,-1.333,0.477,0.001,0.074,-0.804,1.112
2024-09-23 15:14:20.600,175145.071,0.055,0.73,-0.682,-0.083,-0.04,-0.011,-1.351,0.461,0.034,0.08,-0.818,1.114
2024-09-23 15:14:20.610,175145.081,0.058,0.739,-0.672,-0.02,-0.133,-0.05,-1.308,0.477,0.062,0.086,-0.831,1.116
2024-09-23 15:14:20.620,175145.091,0.062,0.747,-0.662,-0.01,-0.086,-0.05,-1.188,0.464,0.096,0.093,-0.843,1.119
2024-09-23 15:14:20.630,175145.101,0.066,0.754,-0.653,-0.026,0.007,-0.028,-1.029,0.428,0.125,0.1,-0.854,1.123
2024-09-23 15:14:20.640,175145.111,0.069,0.76,-0.646,-0.0,0.018,0.015,-0.89,0.362,0.161,0.107,-0.864,1.126
2024-09-23 15:14:20.650,175145.121,0.073,0.765,-0.64,0.014,0.051,0.027,-0.661,0.288,0.182,0.113,-0.871,1.13
2024-09-23 15:14:20.660,175145.131,0.076,0.768,-0.636,-0.005,0.072,0.012,-0.367,0.205,0.167,0.118,-0.876,1.134
2024-09-23 15:14:20.670,175145.141,0.078,0.769,-0.634,-0.015,0.083,0.038,-0.059,0.13,0.166,0.122,-0.878,1.137
2024-09-23 15:14:20.680,175145.151,0.08,0.769,-0.635,0.005,0.146,0.079,0.251,0.084,0.17,0.125,-0.877,1.139
2024-09-23 15:14:20.690,175145.161,0.082,0.766,-0.638,-0.004,0.185,0.115,0.543,0.029,0.204,0.127,-0.873,1.141
2024-09-23 15:14:20.700,175145.171,0.083,0.762,-0.643,0.01,0.148,0.119,0.816,-0.017,0.221,0.129,-0.866,1.143
2024-09-23 15:14:20.710,175145.181,0.085,0.755,-0.65,0.032,0.135,0.085,1.028,-0.067,0.2,0.13,-0.856,1.145
2024-09-23 15:14:20.720,175145.191,0.082,0.749,-0.658,0.029,0.132,0.063,1.064,-0.679,-1.164,0.124,-0.846,1.14
2024-09-23 15:14:20.730,175145.201,0.079,0.746,-0.661,0.028,0.101,0.051,0.245,0.068,0.23,0.118,-0.843,1.136
2024-09-23 15:14:20.740,175145.211,0.077,0.746,-0.662,-0.191,0.041,0.071,-0.138,-0.36,-0.059,0.115,-0.842,1.135
2024-09-23 15:14:20.750,175145.221,0.074,0.748,-0.66,-0.238,0.126,0.153,-0.275,-0.358,-0.109,0.111,-0.844,1.134
2024-09-23 15:14:20.760,175145.231,0.071,0.749,-0.659,0.336,-0.035,0.076,-0.107,-0.318,-0.096,0.107,-0.846,1.133
2024-09-23 15:14:20.770,175145.241,0.068,0.749,-0.659,-0.132,-0.128,0.049,-0.001,-0.278,-0.167,0.103,-0.847,1.132
2024-09-23 15:14:20.780,175145.251,0.065,0.749,-0.66,-0.012,0.094,-0.037,0.211,-0.197,-0.118,0.099,-0.846,1.129
2024-09-23 15:14:20.789,175145.261,0.064,0.746,-0.662,0.005,-0.009,-0.012,0.505,-0.156,-0.044,0.096,-0.843,1.128
2024-09-23 15:14:20.800,175145.271,0.063,0.743,-0.666,-0.017,-0.054,-0.036,0.538,-0.111,-0.026,0.094,-0.837,1.126
2024-09-23 15:14:20.809,175145.281,0.062,0.74,-0.67,0.023,-0.037,-0.055,0.316,-0.072,-0.064,0.092,-0.833,1.125
2024-09-23 15:14:20.820,175145.291,0.061,0.739,-0.671,0.011,-0.022,-0.04,0.045,-0.018,-0.099,0.09,-0.831,1.124
2024-09-23 15:14:20.829,175145.301,0.06,0.739,-0.671,-0.001,-0.079,-0.028,-0.091,0.004,-0.108,0.089,-0.832,1.122
2024-09-23 15:14:20.841,175145.311,0.059,0.74,-0.67,0.007,-0.147,-0.044,-0.076,0.031,-0.098,0.088,-0.833,1.121
2024-09-23 15:14:20.849,175145.321,0.059,0.74,-0.67,0.02,-0.15,-0.065,-0.052,0.022,-0.104,0.088,-0.833,1.12
2024-09-23 15:14:20.858,175145.331,0.058,0.741,-0.669,0.03,-0.092,-0.079,-0.051,0.049,-0.121,0.087,-0.834,1.118
2024-09-23 15:14:20.868,175145.341,0.057,0.741,-0.669,0.021,-0.01,-0.064,-0.071,0.049,-0.147,0.086,-0.835,1.116
2024-09-23 15:14:20.879,175145.351,0.057,0.742,-0.668,0.005,0.079,-0.038,-0.123,0.092,-0.123,0.085,-0.836,1.114
2024-09-23 15:14:20.890,175145.361,0.057,0.743,-0.667,-0.004,0.101,-0.014,-0.099,0.08,-0.085,0.085,-0.837,1.113
2024-09-23 15:14:20.900,175145.371,0.057,0.743,-0.667,-0.002,0.055,0.023,-0.022,0.033,-0.026,0.085,-0.838,1.112
2024-09-23 15:14:20.910,175145.381,0.057,0.743,-0.667,0.009,-0.004,0.065,0.143,-0.033,-0.008,0.085,-0.837,1.112
2024-09-23 15:14:20.920,175145.391,0.056,0.741,-0.669,0.026,-0.059,0.095,0.358,-0.081,0.016,0.084,-0.835,1.111
2024-09-23 15:14:20.929,175145.401,0.056,0.738,-0.672,0.027,-0.083,0.095,0.563,-0.134,0.04,0.083,-0.83,1.111
2024-09-23 15:14:20.939,175145.411,0.055,0.734,-0.677,0.011,-0.055,0.062,0.643,-0.134,0.083,0.081,-0.824,1.111
2024-09-23 15:14:20.949,175145.421,0.055,0.73,-0.682,0.013,-0.026,0.027,0.603,-0.119,0.113,0.081,-0.818,1.112
2024-09-23 15:14:20.959,175145.431,0.055,0.726,-0.686,0.011,-0.007,0.022,0.539,-0.064,0.153,0.08,-0.812,1.113
2024-09-23 15:14:20.970,175145.441,0.056,0.722,-0.69,0.012,-0.024,0.025,0.479,-0.018,0.171,0.081,-0.807,1.115
2024-09-23 15:14:20.980,175145.451,0.057,0.718,-0.693,0.027,-0.015,0.019,0.509,0.008,0.166,0.083,-0.802,1.117
2024-09-23 15:14:20.990,175145.461,0.059,0.715,-0.697,0.032,-0.005,0.033,0.499,0.024,0.159,0.084,-0.796,1.119
2024-09-23 15:14:20.999,175145.471,0.06,0.71,-0.702,0.044,-0.036,0.022,0.644,0.039,0.151,0.085,-0.789,1.12
2024-09-23 15:14:21.010,175145.481,0.061,0.707,-0.705,0.04,-0.041,-0.024,0.35,-0.019,0.069,0.086,-0.785,1.121
2024-09-23 15:14:21.020,175145.491,0.061,0.705,-0.707,0.056,-0.007,-0.162,0.214,-0.101,0.05,0.086,-0.782,1.122
2024-09-23 15:14:21.029,175145.501,0.06,0.703,-0.708,0.033,0.087,-0.146,0.094,-0.13,0.003,0.085,-0.78,1.122
2024-09-23 15:14:21.039,175145.511,0.059,0.703,-0.709,0.018,-0.049,-0.007,0.004,-0.132,-0.08,0.083,-0.78,1.122
2024-09-23 15:14:21.050,175145.521,0.057,0.703,-0.708,0.055,-0.066,-0.002,-0.069,-0.092,-0.186,0.081,-0.78,1.12
2024-09-23 15:14:21.059,175145.531,0.056,0.704,-0.708,0.01,-0.025,-0.022,-0.133,-0.038,-0.189,0.078,-0.781,1.117
2024-09-23 15:14:21.078,175145.541,0.055,0.705,-0.707,0.012,-0.056,-0.007,-0.161,-0.008,-0.11,0.077,-0.783,1.115
2024-09-23 15:14:21.082,175145.551,0.054,0.707,-0.706,0.007,-0.071,-0.014,-0.137,0.003,-0.104,0.076,-0.785,1.114
2024-09-23 15:14:21.089,175145.561,0.053,0.707,-0.705,0.011,-0.016,-0.042,-0.115,-0.009,-0.119,0.075,-0.786,1.113
2024-09-23 15:14:21.099,175145.571,0.052,0.708,-0.704,0.005,0.01,-0.022,-0.101,-0.003,-0.13,0.074,-0.787,1.111
2024-09-23 15:14:21.109,175145.581,0.051,0.709,-0.703,0.011,0.001,-0.006,-0.043,-0.022,-0.106,0.072,-0.788,1.109
2024-09-23 15:14:21.119,175145.591,0.05,0.709,-0.704,0.009,-0.001,-0.004,0.079,-0.034,-0.075,0.071,-0.788,1.108
2024-09-23 15:14:21.129,175145.601,0.049,0.708,-0.705,0.007,0.028,-0.009,0.188,-0.049,-0.077,0.07,-0.787,1.107
2024-09-23 15:14:21.139,175145.61,0.048,0.706,-0.706,0.01,0.058,0.012,0.248,-0.043,-0.089,0.068,-0.785,1.105
2024-09-23 15:14:21.149,175145.62,0.047,0.705,-0.708,0.002,0.065,0.036,0.267,-0.059,-0.087,0.067,-0.782,1.104
2024-09-23 15:14:21.159,175145.63,0.046,0.703,-0.71,-0.009,0.044,0.045,0.273,-0.075,-0.075,0.065,-0.779,1.103
2024-09-23 15:14:21.169,175145.64,0.045,0.701,-0.712,-0.019,0.02,0.042,0.295,-0.082,-0.069,0.064,-0.776,1.101
2024-09-23 15:14:21.179,175145.65,0.044,0.699,-0.714,-0.009,0.02,0.031,0.305,-0.083,-0.07,0.062,-0.774,1.1
2024-09-23 15:14:21.189,175145.66,0.043,0.697,-0.716,-0.008,0.021,0.021,0.307,-0.07,-0.084,0.06,-0.771,1.099
2024-09-23 15:14:21.199,175145.67,0.042,0.694,-0.718,-0.008,0.002,0.017,0.281,-0.063,-0.073,0.059,-0.768,1.097
2024-09-23 15:14:21.209,175145.68,0.041,0.693,-0.72,-0.006,0.006,0.016,0.214,-0.037,-0.061,0.057,-0.765,1.096
2024-09-23 15:14:21.219,175145.69,0.041,0.692,-0.721,-0.005,-0.003,0.005,0.133,0.026,-0.045,0.057,-0.764,1.095
2024-09-23 15:14:21.229,175145.7,0.041,0.691,-0.722,-0.007,-0.017,-0.007,0.074,0.034,-0.041,0.057,-0.763,1.095
2024-09-23 15:14:21.239,175145.71,0.041,0.691,-0.722,-0.019,-0.028,-0.004,0.026,0.049,-0.029,0.057,-0.762,1.094
2024-09-23 15:14:21.249,175145.72,0.041,0.691,-0.722,-0.023,-0.031,0.002,-0.016,0.06,-0.011,0.057,-0.762,1.094
2024-09-23 15:14:21.259,175145.73,0.042,0.691,-0.722,-0.016,-0.021,-0.001,-0.02,0.046,-0.001,0.057,-0.763,1.094
2024-09-23 15:14:21.269,175145.74,0.042,0.691,-0.722,-0.018,-0.027,0.0,-0.003,0.05,-0.011,0.058,-0.763,1.094
2024-09-23 15:14:21.279,175145.75,0.042,0.691,-0.722,-0.007,-0.015,0.003,0.031,0.068,-0.022,0.058,-0.763,1.093
2024-09-23 15:14:21.290,175145.76,0.042,0.691,-0.722,0.001,0.013,0.005,0.046,0.067,-0.029,0.059,-0.762,1.093
2024-09-23 15:14:21.298,175145.77,0.043,0.69,-0.722,0.002,0.025,0.009,0.04,0.065,-0.03,0.059,-0.762,1.093
2024-09-23 15:14:21.308,175145.78,0.043,0.69,-0.723,0.009,0.01,0.006,0.04,0.064,-0.039,0.059,-0.762,1.092
2024-09-23 15:14:21.319,175145.79,0.043,0.69,-0.723,0.005,-0.004,0.005,0.048,0.039,-0.029,0.059,-0.761,1.092
2024-09-23 15:14:21.329,175145.8,0.043,0.689,-0.723,0.002,-0.012,0.006,0.044,0.019,-0.027,0.059,-0.761,1.091
2024-09-23 15:14:21.339,175145.81,0.043,0.689,-0.724,-0.001,-0.004,0.005,0.047,0.017,-0.019,0.059,-0.76,1.091
2024-09-23 15:14:21.349,175145.82,0.043,0.688,-0.724,-0.001,-0.0,0.001,0.078,-0.016,-0.016,0.059,-0.759,1.09
2024-09-23 15:14:21.359,175145.83,0.043,0.688,-0.725,-0.001,-0.001,0.003,0.101,0.004,-0.014,0.059,-0.759,1.09
2024-09-23 15:14:21.368,175145.84,0.042,0.687,-0.725,0.004,0.012,0.01,0.129,-0.003,-0.011,0.058,-0.757,1.09
2024-09-23 15:14:21.379,175145.85,0.042,0.686,-0.726,0.009,0.019,0.015,0.144,0.004,-0.012,0.058,-0.756,1.089
2024-09-23 15:14:21.388,175145.86,0.042,0.685,-0.727,0.001,0.013,0.01,0.154,0.024,-0.013,0.058,-0.755,1.089
2024-09-23 15:14:21.398,175145.87,0.043,0.684,-0.728,0.004,0.003,0.006,0.138,0.033,-0.019,0.058,-0.753,1.089
2024-09-23 15:14:21.409,175145.88,0.043,0.683,-0.729,-0.001,-0.004,0.005,0.102,0.021,-0.03,0.058,-0.752,1.088
2024-09-23 15:14:21.419,175145.89,0.043,0.683,-0.73,-0.006,-0.005,0.002,0.068,0.015,-0.026,0.058,-0.751,1.088
2024-09-23 15:14:21.429,175145.9,0.042,0.682,-0.73,-0.003,-0.011,0.003,0.046,-0.002,-0.031,0.058,-0.751,1.088
2024-09-23 15:14:21.439,175145.91,0.042,0.682,-0.73,-0.001,-0.016,0.002,0.029,-0.012,-0.04,0.058,-0.75,1.087
2024-09-23 15:14:21.449,175145.92,0.042,0.682,-0.73,-0.002,-0.01,0.0,0.064,0.003,-0.029,0.057,-0.75,1.087
2024-09-23 15:14:21.459,175145.93,0.042,0.681,-0.731,0.004,-0.006,0.001,0.112,-0.011,-0.024,0.057,-0.749,1.086
2024-09-23 15:14:21.469,175145.94,0.041,0.68,-0.732,0.001,0.009,0.005,0.157,-0.026,-0.003,0.057,-0.748,1.086
2024-09-23 15:14:21.481,175145.95,0.041,0.679,-0.733,0.008,0.031,0.01,0.147,-0.032,-0.003,0.056,-0.747,1.086
2024-09-23 15:14:21.487,175145.96,0.041,0.678,-0.734,0.013,0.016,0.008,0.166,-0.041,-0.003,0.056,-0.745,1.086
2024-09-23 15:14:21.498,175145.97,0.041,0.677,-0.735,0.012,-0.007,0.009,0.198,-0.069,-0.006,0.055,-0.743,1.085
2024-09-23 15:14:21.507,175145.98,0.04,0.675,-0.737,0.002,-0.004,0.014,0.223,-0.067,0.005,0.054,-0.741,1.085
2024-09-23 15:14:21.518,175145.99,0.04,0.673,-0.738,0.007,0.018,0.017,0.213,-0.059,0.008,0.054,-0.739,1.085
2024-09-23 15:14:21.528,175146.0,0.039,0.672,-0.74,0.005,0.018,0.012,0.213,-0.062,0.006,0.053,-0.737,1.085
2024-09-23 15:14:21.538,175146.01,0.039,0.67,-0.741,-0.008,0.003,0.008,0.198,-0.04,0.003,0.052,-0.735,1.085
2024-09-23 15:14:21.548,175146.02,0.039,0.669,-0.742,-0.006,0.001,0.008,0.19,-0.008,0.002,0.052,-0.733,1.085
2024-09-23 15:14:21.558,175146.03,0.039,0.668,-0.743,-0.006,-0.001,0.01,0.19,0.003,-0.004,0.052,-0.731,1.085
2024-09-23 15:14:21.568,175146.04,0.039,0.666,-0.745,-0.016,-0.007,0.01,0.181,-0.007,-0.007,0.052,-0.729,1.085
2024-09-23 15:14:21.578,175146.05,0.039,0.665,-0.746,-0.012,-0.003,0.011,0.192,-0.04,-0.008,0.052,-0.728,1.084
2024-09-23 15:14:21.588,175146.06,0.038,0.664,-0.747,-0.003,-0.001,0.01,0.226,-0.068,-0.02,0.051,-0.726,1.084
2024-09-23 15:14:21.598,175146.07,0.037,0.662,-0.749,0.007,-0.005,0.008,0.292,-0.106,-0.009,0.05,-0.723,1.084
2024-09-23 15:14:21.609,175146.08,0.036,0.659,-0.751,0.009,0.016,0.012,0.4,-0.13,0.001,0.048,-0.72,1.083
2024-09-23 15:14:21.618,175146.09,0.035,0.656,-0.754,0.013,0.031,0.024,0.519,-0.18,0.028,0.047,-0.715,1.083
2024-09-23 15:14:21.628,175146.1,0.034,0.652,-0.758,0.014,0.048,0.034,0.603,-0.209,-0.023,0.045,-0.71,1.083
2024-09-23 15:14:21.638,175146.11,0.033,0.647,-0.762,0.012,0.057,0.034,0.569,-0.2,0.093,0.043,-0.704,1.084
2024-09-23 15:14:21.648,175146.12,0.031,0.643,-0.765,0.023,0.064,0.033,0.431,-0.252,0.021,0.041,-0.699,1.084
2024-09-23 15:14:21.658,175146.13,0.03,0.64,-0.767,-0.005,0.016,0.004,0.255,-0.256,0.058,0.039,-0.695,1.085
2024-09-23 15:14:21.668,175146.14,0.028,0.639,-0.769,-0.004,-0.063,-0.008,0.083,-0.295,0.06,0.036,-0.693,1.085
2024-09-23 15:14:21.678,175146.15,0.026,0.639,-0.768,0.019,-0.085,-0.011,-0.192,-0.352,0.249,0.034,-0.694,1.087
2024-09-23 15:14:21.688,175146.16,0.025,0.642,-0.767,-0.005,-0.07,-0.021,-0.373,-0.385,0.165,0.032,-0.697,1.09
2024-09-23 15:14:21.698,175146.17,0.023,0.645,-0.764,0.009,-0.088,-0.044,-0.536,-0.349,0.232,0.03,-0.701,1.092
2024-09-23 15:14:21.707,175146.18,0.023,0.65,-0.76,-0.008,-0.083,-0.027,-0.705,-0.161,0.238,0.03,-0.707,1.096
2024-09-23 15:14:21.717,175146.19,0.024,0.655,-0.755,0.032,-0.078,-0.031,-0.74,-0.081,0.249,0.031,-0.714,1.099
2024-09-23 15:14:21.728,175146.2,0.026,0.66,-0.751,-0.052,-0.042,-0.06,-0.602,0.284,0.172,0.034,-0.721,1.102
2024-09-23 15:14:21.738,175146.209,0.029,0.665,-0.747,-0.04,-0.061,-0.034,-0.598,0.432,0.03,0.039,-0.727,1.104
2024-09-23 15:14:21.748,175146.219,0.032,0.669,-0.743,-0.052,0.018,-0.032,-0.562,0.385,0.016,0.044,-0.733,1.105
2024-09-23 15:14:21.758,175146.229,0.035,0.673,-0.739,-0.066,0.009,0.017,-0.479,0.278,0.019,0.047,-0.738,1.106
2024-09-23 15:14:21.768,175146.239,0.037,0.676,-0.736,0.01,-0.034,0.026,-0.387,0.206,-0.017,0.05,-0.742,1.106
2024-09-23 15:14:21.778,175146.249,0.038,0.679,-0.733,0.009,-0.014,0.012,-0.362,0.195,-0.008,0.052,-0.746,1.106
2024-09-23 15:14:21.788,175146.259,0.04,0.681,-0.731,0.019,0.016,0.015,-0.413,0.235,-0.022,0.054,-0.75,1.106
2024-09-23 15:14:21.798,175146.269,0.041,0.685,-0.728,-0.009,0.033,0.003,-0.472,0.221,-0.031,0.056,-0.754,1.106
2024-09-23 15:14:21.808,175146.279,0.043,0.688,-0.724,-0.028,-0.04,-0.011,-0.476,0.273,-0.013,0.059,-0.759,1.106
2024-09-23 15:14:21.818,175146.289,0.045,0.692,-0.721,-0.01,-0.07,-0.008,-0.428,0.272,-0.001,0.062,-0.764,1.106
2024-09-23 15:14:21.828,175146.299,0.046,0.694,-0.718,-0.015,-0.022,-0.004,-0.403,0.253,-0.014,0.065,-0.768,1.107
2024-09-23 15:14:21.838,175146.309,0.048,0.697,-0.715,-0.021,0.017,0.005,-0.346,0.196,-0.042,0.067,-0.771,1.106
2024-09-23 15:14:21.848,175146.319,0.049,0.699,-0.713,0.004,0.004,0.002,-0.251,0.13,-0.07,0.068,-0.774,1.106
2024-09-23 15:14:21.858,175146.329,0.049,0.701,-0.712,0.008,-0.003,0.004,-0.145,0.107,-0.063,0.069,-0.777,1.105
2024-09-23 15:14:21.868,175146.339,0.049,0.701,-0.711,0.021,0.025,0.016,-0.024,0.065,-0.034,0.069,-0.777,1.105
2024-09-23 15:14:21.878,175146.349,0.049,0.701,-0.711,0.018,0.047,0.026,0.094,0.017,-0.012,0.069,-0.777,1.104
2024-09-23 15:14:21.888,175146.359,0.049,0.7,-0.712,0.012,0.045,0.031,0.165,-0.041,-0.005,0.069,-0.776,1.104
2024-09-23 15:14:21.898,175146.369,0.049,0.699,-0.714,0.015,0.051,0.033,0.212,-0.106,-0.002,0.068,-0.774,1.104
2024-09-23 15:14:21.907,175146.379,0.048,0.697,-0.715,0.013,0.033,0.022,0.253,-0.171,-0.008,0.067,-0.772,1.103
2024-09-23 15:14:21.918,175146.389,0.046,0.695,-0.717,0.014,0.012,0.015,0.323,-0.234,-0.029,0.064,-0.769,1.103
2024-09-23 15:14:21.928,175146.399,0.044,0.693,-0.72,0.017,0.012,0.014,0.424,-0.32,-0.05,0.061,-0.765,1.102
2024-09-23 15:14:21.938,175146.409,0.041,0.689,-0.723,0.022,0.029,0.019,0.53,-0.394,-0.069,0.056,-0.76,1.101
2024-09-23 15:14:21.948,175146.419,0.037,0.685,-0.728,0.031,0.045,0.032,0.649,-0.49,-0.064,0.051,-0.755,1.099
2024-09-23 15:14:21.957,175146.429,0.033,0.68,-0.733,0.03,0.054,0.038,0.78,-0.595,-0.039,0.045,-0.747,1.098
2024-09-23 15:14:21.968,175146.439,0.028,0.673,-0.739,0.036,0.048,0.044,0.999,-0.53,-0.113,0.038,-0.739,1.097
2024-09-23 15:14:21.977,175146.449,0.024,0.667,-0.745,0.047,0.065,0.045,0.722,-0.482,0.257,0.033,-0.73,1.098
2024-09-23 15:14:21.987,175146.459,0.023,0.663,-0.748,0.059,0.094,0.041,0.15,-0.244,0.017,0.03,-0.725,1.099
2024-09-23 15:14:21.998,175146.469,0.022,0.664,-0.747,-0.019,0.046,-0.018,-0.351,-0.192,0.161,0.029,-0.726,1.1
2024-09-23 15:14:22.007,175146.479,0.023,0.669,-0.743,-0.114,-0.173,-0.108,-0.865,0.134,0.218,0.03,-0.732,1.103
2024-09-23 15:14:22.018,175146.489,0.026,0.676,-0.736,0.03,-0.282,-0.073,-1.173,0.362,0.224,0.035,-0.742,1.106
2024-09-23 15:14:22.028,175146.499,0.03,0.685,-0.728,-0.097,-0.179,-0.145,-1.39,0.502,0.129,0.042,-0.755,1.109
2024-09-23 15:14:22.038,175146.509,0.035,0.696,-0.717,-0.103,-0.133,-0.093,-1.526,0.631,0.13,0.049,-0.769,1.112
2024-09-23 15:14:22.048,175146.519,0.041,0.707,-0.706,-0.085,-0.192,-0.05,-1.601,0.705,0.07,0.058,-0.785,1.115
2024-09-23 15:14:22.058,175146.529,0.047,0.719,-0.694,-0.066,-0.045,-0.037,-1.865,0.794,0.077,0.067,-0.802,1.117
2024-09-23 15:14:22.067,175146.539,0.052,0.732,-0.679,-0.071,-0.051,-0.013,-2.066,0.846,-0.077,0.077,-0.821,1.119
2024-09-23 15:14:22.078,175146.549,0.057,0.747,-0.663,-0.076,-0.043,0.006,-2.247,0.835,-0.122,0.086,-0.843,1.12
2024-09-23 15:14:22.088,175146.559,0.062,0.762,-0.645,-0.042,-0.118,-0.073,-2.406,0.809,-0.109,0.095,-0.866,1.122
2024-09-23 15:14:22.098,175146.569,0.066,0.778,-0.625,-0.015,-0.19,-0.123,-2.482,0.799,-0.114,0.105,-0.891,1.124
2024-09-23 15:14:22.107,175146.579,0.07,0.793,-0.606,0.014,-0.15,-0.113,-2.425,0.749,-0.138,0.115,-0.915,1.126
2024-09-23 15:14:22.118,175146.589,0.073,0.807,-0.586,0.013,-0.034,-0.101,-2.201,0.678,-0.178,0.123,-0.939,1.128
2024-09-23 15:14:22.128,175146.599,0.075,0.819,-0.569,0.028,0.021,-0.073,-2.044,0.587,-0.156,0.131,-0.96,1.13
2024-09-23 15:14:22.137,175146.609,0.077,0.83,-0.552,0.061,0.032,-0.068,-1.949,0.521,-0.157,0.138,-0.98,1.132
2024-09-23 15:14:22.148,175146.619,0.078,0.841,-0.536,0.071,0.038,-0.088,-1.799,0.453,-0.151,0.145,-0.998,1.134
2024-09-23 15:14:22.157,175146.629,0.079,0.85,-0.521,0.057,0.047,-0.085,-1.627,0.366,-0.143,0.151,-1.016,1.136
2024-09-23 15:14:22.168,175146.639,0.08,0.858,-0.508,0.064,0.071,-0.069,-1.502,0.303,-0.123,0.156,-1.031,1.138
2024-09-23 15:14:22.177,175146.649,0.08,0.865,-0.495,0.063,0.055,-0.038,-1.26,0.233,-0.118,0.16,-1.045,1.14
2024-09-23 15:14:22.187,175146.659,0.08,0.871,-0.485,0.061,0.036,-0.016,-1.094,0.183,-0.075,0.164,-1.057,1.142
2024-09-23 15:14:22.198,175146.669,0.08,0.876,-0.476,0.072,0.036,-0.022,-0.947,0.146,-0.065,0.167,-1.067,1.144
2024-09-23 15:14:22.207,175146.679,0.081,0.88,-0.468,0.082,0.042,-0.042,-0.833,0.139,-0.041,0.17,-1.076,1.146
2024-09-23 15:14:22.218,175146.689,0.081,0.884,-0.461,0.077,0.018,-0.041,-0.727,0.132,-0.054,0.174,-1.084,1.148
2024-09-23 15:14:22.229,175146.699,0.081,0.886,-0.456,0.079,0.022,-0.039,-0.201,0.164,-0.118,0.175,-1.089,1.149
2024-09-23 15:14:22.240,175146.709,0.08,0.886,-0.457,0.079,0.007,-0.021,0.314,0.106,-0.103,0.174,-1.088,1.146
2024-09-23 15:14:22.246,175146.719,0.08,0.883,-0.462,0.079,-0.004,-0.09,0.755,0.119,-0.128,0.172,-1.083,1.141
2024-09-23 15:14:22.257,175146.729,0.079,0.879,-0.47,0.088,0.015,-0.154,1.134,0.115,-0.129,0.167,-1.074,1.135
2024-09-23 15:14:22.266,175146.739,0.079,0.873,-0.481,0.072,0.036,-0.078,1.517,0.098,-0.131,0.162,-1.061,1.128
2024-09-23 15:14:22.277,175146.749,0.078,0.865,-0.496,0.07,0.055,-0.033,1.891,0.073,-0.101,0.156,-1.044,1.12
2024-09-23 15:14:22.287,175146.759,0.078,0.855,-0.513,0.1,0.094,0.011,2.038,0.067,-0.053,0.15,-1.025,1.113
2024-09-23 15:14:22.297,175146.769,0.078,0.844,-0.53,0.116,0.117,0.006,1.919,0.046,0.02,0.146,-1.005,1.107
2024-09-23 15:14:22.307,175146.779,0.079,0.835,-0.545,0.114,0.121,-0.02,1.626,0.024,0.079,0.143,-0.988,1.103
2024-09-23 15:14:22.318,175146.789,0.08,0.827,-0.557,0.115,0.076,-0.041,1.252,0.03,0.111,0.142,-0.973,1.101
2024-09-23 15:14:22.327,175146.798,0.081,0.821,-0.566,0.098,0.038,-0.02,0.932,0.058,0.106,0.142,-0.962,1.1
2024-09-23 15:14:22.337,175146.808,0.082,0.816,-0.573,0.099,0.024,0.049,0.741,0.04,0.076,0.142,-0.954,1.1
2024-09-23 15:14:22.347,175146.818,0.082,0.812,-0.578,0.109,0.009,0.119,0.677,0.016,0.067,0.142,-0.947,1.099
2024-09-23 15:14:22.357,175146.828,0.083,0.808,-0.584,0.085,-0.009,0.146,0.714,-0.023,0.044,0.141,-0.94,1.099
2024-09-23 15:14:22.367,175146.838,0.083,0.803,-0.59,0.076,-0.019,0.134,0.819,-0.076,0.061,0.14,-0.932,1.098
2024-09-23 15:14:22.378,175146.848,0.083,0.798,-0.597,0.058,-0.001,0.125,0.8,-0.133,0.094,0.138,-0.924,1.097
2024-09-23 15:14:22.387,175146.858,0.083,0.794,-0.603,0.043,0.012,0.114,0.698,-0.183,0.123,0.137,-0.917,1.097
2024-09-23 15:14:22.396,175146.868,0.083,0.79,-0.608,0.046,-0.009,0.122,0.597,-0.224,0.141,0.135,-0.91,1.098
2024-09-23 15:14:22.407,175146.878,0.082,0.786,-0.612,0.048,-0.027,0.14,0.489,-0.253,0.112,0.133,-0.905,1.099
2024-09-23 15:14:22.417,175146.888,0.081,0.783,-0.616,0.055,-0.024,0.157,0.39,-0.285,0.076,0.131,-0.9,1.099
2024-09-23 15:14:22.427,175146.898,0.08,0.781,-0.619,0.046,-0.041,0.179,0.346,-0.336,0.03,0.128,-0.896,1.099
2024-09-23 15:14:22.437,175146.908,0.078,0.779,-0.622,0.016,-0.074,0.192,0.39,-0.393,0.001,0.124,-0.893,1.099
2024-09-23 15:14:22.447,175146.918,0.075,0.776,-0.626,-0.006,-0.105,0.19,0.47,-0.429,-0.033,0.119,-0.889,1.098
2024-09-23 15:14:22.457,175146.928,0.072,0.773,-0.63,-0.018,-0.108,0.161,0.536,-0.464,-0.034,0.114,-0.884,1.096
2024-09-23 15:14:22.467,175146.938,0.069,0.77,-0.635,-0.035,-0.102,0.115,0.497,-0.451,-0.038,0.108,-0.878,1.095
2024-09-23 15:14:22.477,175146.948,0.066,0.767,-0.638,-0.03,-0.107,0.081,0.296,-0.424,-0.028,0.103,-0.874,1.094
2024-09-23 15:14:22.487,175146.958,0.063,0.766,-0.64,-0.027,-0.113,0.062,0.024,-0.381,-0.041,0.098,-0.873,1.093
2024-09-23 15:14:22.497,175146.968,0.06,0.767,-0.639,-0.036,-0.103,0.077,-0.224,-0.329,-0.062,0.094,-0.874,1.092
2024-09-23 15:14:22.507,175146.978,0.058,0.769,-0.637,-0.066,-0.1,0.109,-0.3,-0.295,-0.083,0.09,-0.877,1.092
2024-09-23 15:14:22.517,175146.988,0.055,0.77,-0.635,-0.105,-0.11,0.117,-0.224,-0.277,-0.101,0.087,-0.88,1.09
2024-09-23 15:14:22.527,175146.998,0.053,0.772,-0.634,-0.131,-0.096,0.103,-0.084,-0.26,-0.123,0.083,-0.881,1.089
2024-09-23 15:14:22.537,175147.008,0.05,0.772,-0.634,-0.138,-0.052,0.07,0.062,-0.243,-0.152,0.079,-0.881,1.087
2024-09-23 15:14:22.547,175147.018,0.047,0.771,-0.635,-0.132,-0.008,0.031,0.108,-0.235,-0.134,0.074,-0.881,1.084
2024-09-23 15:14:22.557,175147.028,0.045,0.771,-0.636,-0.134,0.016,-0.016,0.042,-0.179,-0.118,0.071,-0.88,1.082
2024-09-23 15:14:22.567,175147.038,0.043,0.771,-0.636,-0.13,-0.014,-0.033,-0.056,-0.142,-0.112,0.068,-0.88,1.081
2024-09-23 15:14:22.577,175147.048,0.042,0.772,-0.635,-0.115,-0.047,-0.006,-0.216,-0.083,-0.117,0.065,-0.881,1.079
2024-09-23 15:14:22.587,175147.058,0.04,0.773,-0.633,-0.107,-0.043,0.036,-0.28,-0.052,-0.154,0.063,-0.884,1.077
2024-09-23 15:14:22.597,175147.068,0.038,0.775,-0.631,-0.117,-0.044,0.059,-0.21,-0.077,-0.179,0.061,-0.887,1.075
2024-09-23 15:14:22.607,175147.078,0.036,0.776,-0.63,-0.139,-0.044,0.068,-0.033,-0.11,-0.223,0.058,-0.888,1.072
2024-09-23 15:14:22.617,175147.088,0.034,0.775,-0.631,-0.133,-0.015,0.033,0.222,-0.135,-0.234,0.053,-0.887,1.068
2024-09-23 15:14:22.627,175147.098,0.031,0.773,-0.633,-0.128,0.033,-0.032,0.394,-0.151,-0.226,0.049,-0.884,1.064
2024-09-23 15:14:22.637,175147.108,0.029,0.771,-0.636,-0.118,0.087,-0.084,0.277,-0.177,-0.147,0.045,-0.881,1.061
2024-09-23 15:14:22.647,175147.118,0.027,0.77,-0.637,-0.09,0.105,-0.097,0.006,-0.139,-0.096,0.042,-0.879,1.059
2024-09-23 15:14:22.656,175147.128,0.025,0.77,-0.637,-0.042,0.087,-0.065,0.058,-0.088,-0.014,0.04,-0.879,1.058
2024-09-23 15:14:22.667,175147.138,0.026,0.769,-0.639,-0.007,0.146,-0.054,0.488,0.012,0.139,0.04,-0.877,1.059
2024-09-23 15:14:22.677,175147.148,0.028,0.765,-0.643,0.008,0.317,-0.137,0.523,0.153,0.188,0.043,-0.871,1.061
2024-09-23 15:14:22.687,175147.158,0.03,0.762,-0.646,0.016,0.481,-0.222,0.349,0.16,0.178,0.046,-0.867,1.064
2024-09-23 15:14:22.697,175147.168,0.032,0.76,-0.649,-0.016,0.339,-0.12,0.312,0.146,0.195,0.05,-0.864,1.066
2024-09-23 15:14:22.707,175147.178,0.035,0.758,-0.652,0.003,-0.04,0.056,0.406,0.118,0.165,0.053,-0.86,1.069
2024-09-23 15:14:22.717,175147.188,0.036,0.755,-0.655,0.043,-0.113,0.084,0.505,0.103,0.129,0.056,-0.855,1.071
2024-09-23 15:14:22.726,175147.198,0.038,0.751,-0.659,0.024,-0.061,0.067,0.56,0.081,0.076,0.057,-0.85,1.072
2024-09-23 15:14:22.737,175147.208,0.039,0.748,-0.663,0.058,-0.023,0.051,0.542,0.081,0.045,0.058,-0.845,1.072
2024-09-23 15:14:22.746,175147.218,0.04,0.744,-0.667,0.061,-0.04,0.047,0.512,0.095,0.025,0.059,-0.839,1.072
2024-09-23 15:14:22.756,175147.228,0.041,0.741,-0.671,0.058,-0.058,0.053,0.523,0.107,0.05,0.06,-0.834,1.072
2024-09-23 15:14:22.767,175147.238,0.042,0.737,-0.675,0.041,-0.061,0.056,0.59,0.108,0.086,0.062,-0.829,1.073
2024-09-23 15:14:22.776,175147.248,0.043,0.732,-0.68,0.019,-0.046,0.065,0.742,0.085,0.129,0.064,-0.822,1.074
2024-09-23 15:14:22.786,175147.258,0.045,0.727,-0.685,-0.013,-0.0,0.059,0.842,0.056,0.161,0.065,-0.814,1.075
2024-09-23 15:14:22.796,175147.268,0.046,0.721,-0.691,-0.048,0.052,0.027,0.836,0.014,0.182,0.067,-0.805,1.077
2024-09-23 15:14:22.806,175147.278,0.047,0.715,-0.697,-0.057,0.08,-0.008,0.748,-0.041,0.163,0.068,-0.797,1.079
2024-09-23 15:14:22.817,175147.288,0.048,0.71,-0.702,-0.051,0.048,-0.004,0.671,-0.084,0.109,0.068,-0.79,1.08
2024-09-23 15:14:22.826,175147.298,0.048,0.706,-0.707,-0.045,0.005,0.012,0.599,-0.105,0.03,0.068,-0.784,1.08
2024-09-23 15:14:22.836,175147.308,0.047,0.702,-0.711,-0.05,-0.002,0.014,0.54,-0.115,-0.052,0.066,-0.778,1.079
2024-09-23 15:14:22.846,175147.318,0.045,0.698,-0.714,-0.051,-0.005,0.024,0.424,-0.113,-0.114,0.064,-0.773,1.078
2024-09-23 15:14:22.856,175147.328,0.044,0.696,-0.717,-0.043,-0.036,0.024,0.297,-0.09,-0.137,0.061,-0.77,1.076
2024-09-23 15:14:22.866,175147.338,0.042,0.694,-0.718,-0.026,-0.072,-0.002,0.119,-0.058,-0.143,0.059,-0.768,1.074
2024-09-23 15:14:22.876,175147.348,0.041,0.694,-0.719,-0.022,-0.099,-0.041,0.005,-0.002,-0.137,0.057,-0.767,1.072
2024-09-23 15:14:22.886,175147.358,0.04,0.694,-0.719,-0.023,-0.045,-0.053,-0.042,0.043,-0.127,0.056,-0.767,1.07
2024-09-23 15:14:22.896,175147.368,0.04,0.695,-0.718,-0.029,0.004,-0.047,-0.07,0.088,-0.097,0.056,-0.768,1.068
2024-09-23 15:14:22.905,175147.378,0.04,0.695,-0.718,-0.023,0.037,-0.047,-0.059,0.09,-0.105,0.056,-0.769,1.067
2024-09-23 15:14:22.916,175147.388,0.04,0.696,-0.717,-0.004,0.042,-0.026,-0.04,0.095,-0.131,0.056,-0.769,1.065
2024-09-23 15:14:22.926,175147.397,0.04,0.696,-0.717,-0.005,0.007,0.003,-0.111,0.123,-0.143,0.055,-0.77,1.063
2024-09-23 15:14:22.936,175147.407,0.04,0.697,-0.716,0.004,-0.004,0.023,-0.136,0.114,-0.113,0.055,-0.771,1.062
2024-09-23 15:14:22.946,175147.417,0.04,0.698,-0.715,-0.01,-0.015,0.028,-0.089,0.077,-0.069,0.055,-0.773,1.06
2024-09-23 15:14:22.956,175147.427,0.04,0.698,-0.715,-0.019,-0.019,0.022,0.009,0.038,-0.047,0.056,-0.773,1.06
2024-09-23 15:14:22.966,175147.437,0.04,0.698,-0.715,-0.005,0.024,0.005,0.049,-0.004,-0.035,0.055,-0.773,1.059
2024-09-23 15:14:22.976,175147.447,0.039,0.698,-0.715,0.002,0.052,-0.003,0.061,0.006,-0.002,0.055,-0.772,1.059
2024-09-23 15:14:22.986,175147.457,0.039,0.697,-0.716,0.009,0.013,0.005,0.063,-0.001,-0.031,0.055,-0.772,1.058
2024-09-23 15:14:22.996,175147.467,0.039,0.697,-0.716,0.013,-0.012,-0.01,0.07,0.031,-0.057,0.054,-0.771,1.058
2024-09-23 15:14:23.006,175147.477,0.039,0.696,-0.717,0.021,0.008,-0.015,0.078,0.065,-0.089,0.054,-0.77,1.057
2024-09-23 15:14:23.016,175147.487,0.039,0.696,-0.717,0.022,0.008,-0.003,0.064,0.085,-0.119,0.054,-0.77,1.055
2024-09-23 15:14:23.025,175147.497,0.039,0.696,-0.717,0.012,-0.003,0.006,-0.019,0.126,-0.115,0.054,-0.769,1.054
2024-09-23 15:14:23.035,175147.507,0.039,0.696,-0.717,0.004,-0.009,0.007,-0.067,0.136,-0.123,0.054,-0.77,1.052
2024-09-23 15:14:23.045,175147.517,0.039,0.697,-0.716,-0.006,-0.028,0.002,-0.177,0.131,-0.095,0.054,-0.771,1.05
2024-09-23 15:14:23.055,175147.527,0.039,0.699,-0.714,-0.016,-0.049,-0.009,-0.29,0.121,-0.081,0.055,-0.774,1.049
2024-09-23 15:14:23.065,175147.537,0.04,0.701,-0.712,-0.015,-0.058,-0.021,-0.278,0.092,-0.051,0.055,-0.777,1.049
2024-09-23 15:14:23.075,175147.547,0.04,0.703,-0.71,-0.011,-0.037,-0.031,-0.206,0.082,-0.08,0.056,-0.779,1.048
2024-09-23 15:14:23.085,175147.557,0.04,0.704,-0.709,0.001,0.003,-0.011,-0.122,0.095,-0.095,0.056,-0.781,1.047
2024-09-23 15:14:23.095,175147.567,0.04,0.705,-0.709,0.005,0.007,0.015,-0.055,0.087,-0.079,0.056,-0.782,1.046
2024-09-23 15:14:23.106,175147.577,0.04,0.705,-0.708,0.006,0.024,0.018,0.007,0.077,-0.078,0.056,-0.782,1.045
2024-09-23 15:14:23.116,175147.587,0.04,0.705,-0.709,0.005,0.035,0.011,0.04,0.071,-0.076,0.056,-0.782,1.044
2024-09-23 15:14:23.126,175147.597,0.04,0.704,-0.709,0.007,0.022,0.013,0.046,0.045,-0.069,0.056,-0.781,1.042
2024-09-23 15:14:23.136,175147.607,0.039,0.704,-0.709,0.004,-0.001,0.016,0.048,0.006,-0.071,0.056,-0.781,1.041
2024-09-23 15:14:23.147,175147.617,0.039,0.703,-0.71,0.003,-0.007,0.012,0.078,-0.021,-0.077,0.055,-0.78,1.04
2024-09-23 15:14:23.155,175147.627,0.038,0.703,-0.711,0.004,-0.002,0.006,0.113,-0.024,-0.09,0.054,-0.779,1.039
2024-09-23 15:14:23.164,175147.637,0.037,0.702,-0.711,0.008,0.006,0.011,0.158,0.008,-0.082,0.053,-0.778,1.038
2024-09-23 15:14:23.174,175147.647,0.037,0.701,-0.713,0.011,0.028,0.012,0.198,0.021,-0.074,0.052,-0.776,1.037
2024-09-23 15:14:23.185,175147.657,0.037,0.699,-0.714,0.006,0.027,0.009,0.192,0.022,-0.063,0.051,-0.774,1.036
2024-09-23 15:14:23.195,175147.667,0.036,0.698,-0.715,0.005,0.02,0.012,0.139,0.001,-0.05,0.051,-0.773,1.035
2024-09-23 15:14:23.205,175147.677,0.036,0.697,-0.716,0.004,0.007,0.01,0.074,-0.024,-0.036,0.05,-0.772,1.034
2024-09-23 15:14:23.216,175147.687,0.036,0.697,-0.716,-0.008,-0.022,0.002,0.045,-0.055,-0.034,0.05,-0.771,1.033
2024-09-23 15:14:23.226,175147.697,0.035,0.697,-0.717,-0.008,-0.043,-0.0,0.082,-0.081,-0.044,0.049,-0.771,1.033
2024-09-23 15:14:23.235,175147.707,0.034,0.696,-0.718,0.0,-0.026,0.004,0.184,-0.131,-0.057,0.047,-0.769,1.032
2024-09-23 15:14:23.246,175147.717,0.032,0.694,-0.719,0.008,0.01,0.008,0.349,-0.202,-0.076,0.045,-0.767,1.031
2024-09-23 15:14:23.255,175147.727,0.03,0.691,-0.723,0.019,0.038,0.019,0.577,-0.264,-0.083,0.041,-0.762,1.03
2024-09-23 15:14:23.265,175147.737,0.027,0.686,-0.727,0.036,0.066,0.032,0.789,-0.339,-0.071,0.037,-0.756,1.028
2024-09-23 15:14:23.276,175147.747,0.024,0.679,-0.733,0.039,0.102,0.049,0.992,-0.443,-0.041,0.033,-0.747,1.027
2024-09-23 15:14:23.285,175147.757,0.02,0.671,-0.741,0.036,0.102,0.058,1.256,-0.381,-0.099,0.028,-0.736,1.026
2024-09-23 15:14:23.295,175147.767,0.017,0.662,-0.749,0.038,0.079,0.05,1.09,-0.465,0.135,0.022,-0.724,1.025
2024-09-23 15:14:23.305,175147.777,0.014,0.656,-0.755,0.046,0.09,0.04,0.598,-0.268,-0.071,0.019,-0.715,1.025
2024-09-23 15:14:23.316,175147.787,0.012,0.654,-0.756,-0.016,0.03,0.005,-0.155,-0.172,0.013,0.016,-0.713,1.025
2024-09-23 15:14:23.326,175147.797,0.012,0.657,-0.754,-0.068,-0.129,-0.068,-0.453,0.009,0.147,0.016,-0.717,1.026
2024-09-23 15:14:23.336,175147.807,0.014,0.662,-0.75,0.004,-0.309,-0.065,-0.796,0.158,0.118,0.018,-0.723,1.028
2024-09-23 15:14:23.346,175147.817,0.016,0.669,-0.743,-0.052,-0.187,-0.115,-1.044,0.228,0.109,0.021,-0.732,1.029
2024-09-23 15:14:23.355,175147.827,0.018,0.676,-0.737,-0.047,-0.111,-0.072,-0.945,0.272,0.078,0.025,-0.743,1.031
2024-09-23 15:14:23.365,175147.837,0.021,0.682,-0.731,-0.103,-0.17,-0.011,-0.773,0.292,0.114,0.029,-0.751,1.033
2024-09-23 15:14:23.375,175147.847,0.024,0.687,-0.726,-0.044,-0.018,-0.014,-0.563,0.317,0.102,0.033,-0.758,1.034
2024-09-23 15:14:23.385,175147.857,0.027,0.691,-0.722,-0.031,0.077,0.036,-0.521,0.38,0.038,0.037,-0.763,1.036
2024-09-23 15:14:23.395,175147.867,0.03,0.695,-0.719,-0.031,0.073,0.082,-0.495,0.394,0.019,0.042,-0.768,1.036
2024-09-23 15:14:23.406,175147.877,0.033,0.699,-0.715,-0.028,0.042,0.058,-0.577,0.349,0.022,0.046,-0.774,1.037
2024-09-23 15:14:23.415,175147.887,0.035,0.703,-0.711,-0.019,-0.038,-0.006,-0.575,0.283,0.024,0.05,-0.779,1.038
2024-09-23 15:14:23.425,175147.897,0.037,0.707,-0.707,0.012,-0.044,-0.052,-0.515,0.224,0.019,0.053,-0.785,1.038
2024-09-23 15:14:23.435,175147.907,0.039,0.71,-0.703,0.012,-0.026,-0.023,-0.415,0.155,-0.003,0.055,-0.789,1.039
2024-09-23 15:14:23.445,175147.917,0.039,0.712,-0.701,0.034,0.001,-0.008,-0.242,0.068,0.007,0.056,-0.793,1.039
2024-09-23 15:14:23.455,175147.927,0.04,0.713,-0.7,0.028,0.017,0.007,-0.063,-0.016,0.007,0.057,-0.794,1.039
2024-09-23 15:14:23.465,175147.937,0.039,0.713,-0.7,0.04,0.035,0.023,0.132,-0.104,0.001,0.056,-0.794,1.039
2024-09-23 15:14:23.475,175147.947,0.038,0.711,-0.702,0.042,0.061,0.031,0.363,-0.202,-0.003,0.054,-0.791,1.039
2024-09-23 15:14:23.485,175147.957,0.036,0.708,-0.705,0.032,0.077,0.045,0.584,-0.293,-0.014,0.052,-0.787,1.039
2024-09-23 15:14:23.495,175147.967,0.034,0.703,-0.71,0.036,0.092,0.049,0.777,-0.389,-0.01,0.048,-0.78,1.038
2024-09-23 15:14:23.505,175147.977,0.031,0.697,-0.716,0.038,0.102,0.048,1.007,-0.437,0.008,0.043,-0.771,1.037
2024-09-23 15:14:23.516,175147.986,0.028,0.689,-0.724,0.041,0.09,0.044,1.212,-0.514,0.011,0.038,-0.76,1.037
2024-09-23 15:14:23.525,175147.996,0.024,0.679,-0.733,0.038,0.089,0.04,1.395,-0.561,0.014,0.032,-0.747,1.036
2024-09-23 15:14:23.536,175148.006,0.02,0.669,-0.743,0.037,0.086,0.042,1.242,-0.479,-0.003,0.027,-0.733,1.035
2024-09-23 15:14:23.545,175148.016,0.018,0.661,-0.75,0.033,0.076,0.049,0.879,-0.147,-0.062,0.024,-0.722,1.035
2024-09-23 15:14:23.555,175148.026,0.016,0.656,-0.754,0.003,0.073,0.048,0.412,-0.194,0.025,0.022,-0.716,1.035
2024-09-23 15:14:23.565,175148.036,0.016,0.655,-0.756,-0.136,-0.075,-0.038,0.005,-0.07,0.016,0.021,-0.714,1.035
2024-09-23 15:14:23.575,175148.046,0.015,0.655,-0.755,-0.015,-0.235,-0.03,-0.104,-0.047,0.011,0.02,-0.715,1.035
2024-09-23 15:14:23.585,175148.056,0.015,0.656,-0.755,-0.041,-0.182,-0.063,-0.069,-0.031,0.024,0.02,-0.716,1.036
2024-09-23 15:14:23.595,175148.066,0.015,0.656,-0.755,-0.01,-0.021,-0.035,-0.016,-0.039,0.085,0.02,-0.715,1.036
2024-09-23 15:14:23.605,175148.076,0.015,0.656,-0.754,-0.001,-0.013,0.008,-0.061,-0.028,0.013,0.02,-0.716,1.036
2024-09-23 15:14:23.615,175148.086,0.015,0.656,-0.754,0.002,0.024,-0.017,0.078,-0.045,0.025,0.02,-0.716,1.037
2024-09-23 15:14:23.625,175148.096,0.015,0.655,-0.755,-0.021,-0.01,0.04,0.206,-0.06,0.055,0.02,-0.714,1.037
2024-09-23 15:14:23.635,175148.106,0.015,0.653,-0.757,0.018,0.025,0.041,0.235,-0.068,0.066,0.02,-0.712,1.038
2024-09-23 15:14:23.645,175148.116,0.015,0.652,-0.758,0.006,0.066,0.026,0.152,-0.061,0.065,0.02,-0.71,1.039
2024-09-23 15:14:23.655,175148.126,0.015,0.652,-0.758,-0.01,0.01,0.022,-0.064,-0.031,0.054,0.02,-0.71,1.039
2024-09-23 15:14:23.665,175148.136,0.016,0.653,-0.757,-0.012,-0.043,0.003,-0.381,0.167,0.052,0.021,-0.712,1.04
2024-09-23 15:14:23.675,175148.146,0.018,0.658,-0.753,-0.016,-0.07,-0.03,-0.814,0.323,0.083,0.024,-0.718,1.041
2024-09-23 15:14:23.685,175148.156,0.021,0.667,-0.745,-0.032,-0.141,-0.063,-1.616,0.296,-0.002,0.028,-0.73,1.043
2024-09-23 15:14:23.695,175148.166,0.024,0.678,-0.735,-0.059,-0.17,-0.084,-1.409,0.357,0.124,0.033,-0.745,1.044
2024-09-23 15:14:23.705,175148.176,0.028,0.687,-0.726,-0.082,-0.166,-0.038,-1.077,0.441,0.059,0.038,-0.758,1.047
2024-09-23 15:14:23.715,175148.186,0.031,0.694,-0.719,-0.051,-0.095,-0.013,-0.956,0.367,0.038,0.043,-0.767,1.048
2024-09-23 15:14:23.725,175148.196,0.034,0.702,-0.712,0.036,0.133,-0.023,-1.152,0.372,-0.033,0.047,-0.778,1.048
2024-09-23 15:14:23.735,175148.206,0.036,0.71,-0.703,0.012,0.056,0.037,-1.211,0.333,-0.042,0.051,-0.79,1.049
2024-09-23 15:14:23.745,175148.216,0.038,0.718,-0.695,-0.015,-0.045,-0.005,-1.143,0.293,-0.023,0.054,-0.802,1.049
2024-09-23 15:14:23.755,175148.226,0.039,0.726,-0.687,-0.013,-0.117,-0.05,-0.982,0.221,0.001,0.057,-0.812,1.05
2024-09-23 15:14:23.765,175148.236,0.041,0.732,-0.68,0.01,-0.07,-0.052,-0.771,0.162,0.018,0.06,-0.821,1.051
2024-09-23 15:14:23.775,175148.246,0.042,0.736,-0.675,0.017,0.025,-0.015,-0.516,0.107,0.024,0.062,-0.827,1.051
2024-09-23 15:14:23.786,175148.256,0.043,0.739,-0.673,0.022,0.064,0.028,-0.209,0.031,0.043,0.063,-0.831,1.052
2024-09-23 15:14:23.795,175148.266,0.043,0.739,-0.672,0.021,0.075,0.04,0.051,-0.023,0.049,0.064,-0.832,1.053
2024-09-23 15:14:23.805,175148.276,0.043,0.738,-0.673,0.032,0.083,0.047,0.292,-0.078,0.042,0.064,-0.83,1.053
2024-09-23 15:14:23.815,175148.286,0.042,0.735,-0.677,0.03,0.094,0.058,0.554,-0.132,0.044,0.063,-0.826,1.054
2024-09-23 15:14:23.824,175148.296,0.042,0.731,-0.681,0.019,0.096,0.06,0.663,-0.157,0.041,0.061,-0.819,1.054
2024-09-23 15:14:23.835,175148.306,0.041,0.726,-0.686,0.027,0.087,0.055,0.673,-0.17,0.052,0.06,-0.813,1.054
2024-09-23 15:14:23.845,175148.316,0.04,0.722,-0.691,0.02,0.061,0.036,0.621,-0.159,0.039,0.058,-0.806,1.054
2024-09-23 15:14:23.855,175148.326,0.039,0.718,-0.695,0.004,0.027,0.015,0.509,-0.133,0.031,0.057,-0.801,1.054
2024-09-23 15:14:23.865,175148.336,0.039,0.715,-0.698,0.004,-0.004,0.006,0.348,-0.076,0.028,0.056,-0.796,1.054
2024-09-23 15:14:23.874,175148.346,0.039,0.713,-0.7,-0.001,-0.032,-0.002,0.153,-0.055,0.016,0.055,-0.794,1.054
2024-09-23 15:14:23.884,175148.356,0.038,0.713,-0.701,-0.02,-0.062,-0.017,-0.037,-0.047,0.008,0.055,-0.793,1.054
2024-09-23 15:14:23.894,175148.366,0.038,0.713,-0.7,-0.017,-0.077,-0.029,-0.138,-0.059,-0.005,0.054,-0.794,1.054
2024-09-23 15:14:23.904,175148.376,0.037,0.714,-0.699,-0.004,-0.087,-0.033,-0.121,-0.072,-0.029,0.053,-0.795,1.054
2024-09-23 15:14:23.915,175148.386,0.037,0.715,-0.699,-0.001,-0.057,-0.021,0.025,-0.084,-0.006,0.052,-0.796,1.054
2024-09-23 15:14:23.924,175148.396,0.036,0.714,-0.699,0.01,-0.006,-0.0,0.162,-0.088,0.013,0.052,-0.795,1.054
2024-09-23 15:14:23.934,175148.406,0.035,0.712,-0.701,0.016,0.037,0.009,0.345,-0.159,0.021,0.05,-0.793,1.054
2024-09-23 15:14:23.944,175148.416,0.034,0.709,-0.704,0.012,0.059,0.021,0.574,-0.227,0.038,0.049,-0.788,1.054
2024-09-23 15:14:23.954,175148.426,0.033,0.704,-0.709,0.007,0.061,0.049,0.831,-0.305,0.047,0.046,-0.781,1.054
2024-09-23 15:14:23.964,175148.436,0.031,0.697,-0.716,0.024,0.097,0.056,1.121,-0.395,0.047,0.043,-0.771,1.054
2024-09-23 15:14:23.974,175148.446,0.028,0.688,-0.725,0.02,0.102,0.057,1.354,-0.336,-0.152,0.038,-0.759,1.054
2024-09-23 15:14:23.983,175148.456,0.025,0.679,-0.734,0.036,0.108,0.057,1.118,-0.246,0.072,0.034,-0.747,1.053
2024-09-23 15:14:23.993,175148.466,0.024,0.672,-0.74,0.048,0.114,0.058,0.74,-0.132,-0.085,0.032,-0.737,1.052
2024-09-23 15:14:24.003,175148.476,0.023,0.669,-0.743,-0.031,0.045,0.009,0.218,-0.001,-0.058,0.031,-0.732,1.051
2024-09-23 15:14:24.014,175148.486,0.023,0.668,-0.744,-0.064,-0.154,-0.042,-0.031,0.023,0.017,0.03,-0.732,1.051
2024-09-23 15:14:24.024,175148.496,0.023,0.669,-0.743,-0.026,-0.261,-0.028,-0.1,0.077,0.011,0.031,-0.732,1.051
2024-09-23 15:14:24.034,175148.506,0.024,0.669,-0.743,-0.056,-0.065,-0.061,-0.032,0.089,-0.024,0.032,-0.733,1.051
2024-09-23 15:14:24.045,175148.516,0.024,0.669,-0.743,-0.002,-0.014,-0.003,0.093,0.117,-0.009,0.033,-0.733,1.05
2024-09-23 15:14:24.054,175148.526,0.025,0.668,-0.743,-0.006,0.015,0.006,0.017,0.079,-0.011,0.034,-0.732,1.05
2024-09-23 15:14:24.064,175148.536,0.025,0.669,-0.743,0.012,0.038,-0.01,-0.008,0.012,0.042,0.034,-0.732,1.05
2024-09-23 15:14:24.074,175148.546,0.026,0.668,-0.743,-0.01,-0.024,0.007,0.006,-0.078,0.121,0.035,-0.732,1.051
2024-09-23 15:14:24.084,175148.556,0.026,0.668,-0.744,-0.018,-0.023,0.015,0.065,-0.105,0.082,0.035,-0.732,1.053
2024-09-23 15:14:24.094,175148.566,0.025,0.668,-0.744,0.006,0.025,0.013,-0.007,-0.142,0.086,0.034,-0.731,1.054
2024-09-23 15:14:24.104,175148.576,0.025,0.668,-0.743,0.02,-0.014,0.01,-0.142,-0.18,0.149,0.034,-0.732,1.055
2024-09-23 15:14:24.115,175148.585,0.024,0.67,-0.742,0.029,-0.018,-0.017,-0.131,-0.08,0.045,0.033,-0.734,1.056
2024-09-23 15:14:24.124,175148.595,0.025,0.67,-0.742,0.005,-0.047,-0.049,-0.119,0.148,-0.007,0.033,-0.735,1.057
2024-09-23 15:14:24.134,175148.605,0.027,0.671,-0.741,-0.017,-0.019,-0.008,-0.13,0.296,0.043,0.036,-0.736,1.057
2024-09-23 15:14:24.144,175148.615,0.029,0.672,-0.74,-0.024,0.029,-0.027,-0.076,0.388,-0.021,0.04,-0.737,1.057
2024-09-23 15:14:24.154,175148.625,0.032,0.673,-0.739,-0.071,0.03,0.04,0.003,0.453,-0.069,0.044,-0.738,1.057
2024-09-23 15:14:24.164,175148.635,0.035,0.672,-0.739,-0.032,0.026,0.113,0.093,0.415,-0.017,0.048,-0.737,1.056
2024-09-23 15:14:24.174,175148.645,0.038,0.672,-0.74,-0.019,0.044,0.054,0.202,0.487,-0.079,0.051,-0.737,1.055
2024-09-23 15:14:24.183,175148.655,0.041,0.671,-0.741,-0.028,-0.019,0.02,0.091,0.445,-0.035,0.055,-0.735,1.055
2024-09-23 15:14:24.194,175148.665,0.044,0.671,-0.741,-0.031,-0.075,0.014,-0.063,0.377,-0.026,0.059,-0.735,1.054
2024-09-23 15:14:24.204,175148.675,0.047,0.672,-0.739,-0.009,0.023,-0.072,-0.348,0.36,-0.021,0.063,-0.737,1.054
2024-09-23 15:14:24.214,175148.685,0.049,0.676,-0.735,0.007,-0.064,-0.029,-0.89,0.33,-0.051,0.066,-0.743,1.054
2024-09-23 15:14:24.224,175148.695,0.051,0.685,-0.727,0.006,-0.097,-0.052,-1.442,0.391,-0.053,0.07,-0.755,1.054
2024-09-23 15:14:24.234,175148.705,0.054,0.697,-0.715,-0.034,-0.135,-0.081,-1.764,0.457,-0.041,0.075,-0.771,1.055
2024-09-23 15:14:24.244,175148.715,0.057,0.71,-0.702,-0.05,-0.259,-0.072,-1.99,0.497,-0.029,0.081,-0.789,1.057
2024-09-23 15:14:24.254,175148.725,0.06,0.724,-0.687,-0.058,-0.186,-0.072,-2.083,0.511,-0.025,0.088,-0.81,1.059
2024-09-23 15:14:24.264,175148.735,0.064,0.738,-0.672,-0.045,-0.107,-0.071,-1.994,0.508,-0.009,0.094,-0.83,1.061
2024-09-23 15:14:24.274,175148.745,0.067,0.751,-0.657,-0.034,-0.086,-0.054,-1.824,0.445,-0.043,0.101,-0.849,1.064
2024-09-23 15:14:24.284,175148.755,0.069,0.762,-0.644,-0.021,-0.025,-0.03,-1.624,0.332,0.026,0.107,-0.866,1.066
2024-09-23 15:14:24.294,175148.765,0.071,0.771,-0.632,-0.016,0.017,-0.004,-1.348,0.179,0.035,0.112,-0.881,1.069
2024-09-23 15:14:24.303,175148.775,0.072,0.779,-0.623,0.0,0.031,0.002,-0.935,0.035,0.047,0.115,-0.892,1.072
2024-09-23 15:14:24.314,175148.785,0.072,0.783,-0.618,0.012,0.074,0.023,-0.586,-0.044,-0.003,0.116,-0.9,1.073
2024-09-23 15:14:24.324,175148.795,0.072,0.786,-0.614,0.001,0.164,0.061,-0.324,-0.156,0.04,0.116,-0.904,1.075
2024-09-23 15:14:24.334,175148.805,0.071,0.787,-0.613,-0.049,0.19,0.073,-0.028,-0.24,0.064,0.115,-0.906,1.076
2024-09-23 15:14:24.344,175148.815,0.069,0.786,-0.614,0.01,0.131,0.099,0.235,-0.313,0.002,0.113,-0.905,1.077
2024-09-23 15:14:24.354,175148.825,0.067,0.784,-0.617,-0.005,0.119,0.096,0.346,-0.361,0.039,0.109,-0.902,1.076
2024-09-23 15:14:24.364,175148.835,0.064,0.782,-0.62,-0.012,0.185,0.07,0.338,-0.446,-0.144,0.104,-0.898,1.075
2024-09-23 15:14:24.374,175148.845,0.061,0.78,-0.622,0.007,0.161,0.075,0.316,-0.508,-0.126,0.097,-0.895,1.072
2024-09-23 15:14:24.384,175148.855,0.056,0.778,-0.625,-0.009,0.11,0.085,0.336,-0.555,-0.103,0.089,-0.892,1.069
2024-09-23 15:14:24.394,175148.865,0.05,0.777,-0.627,-0.02,0.083,0.059,-0.001,-0.61,-0.136,0.079,-0.891,1.065
2024-09-23 15:14:24.404,175148.875,0.044,0.778,-0.627,0.003,0.093,0.026,-0.236,-0.598,-0.208,0.07,-0.892,1.062
2024-09-23 15:14:24.414,175148.885,0.04,0.78,-0.624,-0.064,0.085,0.072,-0.322,-0.496,-0.117,0.064,-0.895,1.06
2024-09-23 15:14:24.425,175148.895,0.036,0.782,-0.623,0.014,0.067,0.086,-0.123,-0.461,0.001,0.058,-0.897,1.059
2024-09-23 15:14:24.434,175148.905,0.034,0.782,-0.622,-0.012,-0.042,0.067,-0.008,-0.411,0.045,0.054,-0.898,1.06
2024-09-23 15:14:24.444,175148.915,0.032,0.782,-0.623,0.044,-0.048,0.013,0.008,-0.379,0.04,0.051,-0.898,1.06
2024-09-23 15:14:24.453,175148.925,0.03,0.782,-0.623,0.034,-0.048,-0.044,0.042,-0.353,-0.013,0.047,-0.898,1.061
2024-09-23 15:14:24.463,175148.935,0.027,0.781,-0.624,0.0,-0.102,-0.039,0.15,-0.328,-0.058,0.043,-0.897,1.06
2024-09-23 15:14:24.473,175148.945,0.025,0.78,-0.626,0.013,-0.152,-0.007,0.426,-0.274,-0.026,0.04,-0.894,1.059
2024-09-23 15:14:24.483,175148.955,0.023,0.775,-0.631,0.017,-0.187,0.007,0.859,-0.216,0.039,0.037,-0.887,1.059
2024-09-23 15:14:24.493,175148.965,0.023,0.769,-0.638,0.047,-0.198,-0.006,0.977,-0.139,0.089,0.036,-0.878,1.059
2024-09-23 15:14:24.503,175148.975,0.023,0.763,-0.646,0.086,-0.16,-0.049,0.915,-0.05,0.102,0.035,-0.869,1.06
2024-09-23 15:14:24.513,175148.985,0.024,0.758,-0.652,0.085,-0.087,-0.049,0.796,0.038,0.098,0.036,-0.86,1.061
2024-09-23 15:14:24.523,175148.995,0.025,0.753,-0.657,0.07,0.019,-0.004,0.626,0.087,0.069,0.037,-0.853,1.062
2024-09-23 15:14:24.533,175149.005,0.026,0.749,-0.662,0.05,0.078,0.034,0.591,0.098,0.062,0.039,-0.847,1.063
2024-09-23 15:14:24.543,175149.015,0.027,0.745,-0.667,0.03,0.034,0.064,0.669,0.09,0.078,0.04,-0.84,1.064
2024-09-23 15:14:24.554,175149.025,0.028,0.74,-0.672,0.032,-0.02,0.07,0.758,0.086,0.097,0.042,-0.833,1.064
2024-09-23 15:14:24.564,175149.035,0.029,0.735,-0.678,0.038,-0.023,0.053,0.863,0.08,0.118,0.043,-0.825,1.066
2024-09-23 15:14:24.573,175149.045,0.031,0.728,-0.684,0.015,0.01,0.025,0.92,0.11,0.13,0.045,-0.816,1.067
2024-09-23 15:14:24.584,175149.055,0.033,0.722,-0.691,-0.005,0.075,-0.02,0.823,0.108,0.129,0.047,-0.807,1.068
2024-09-23 15:14:24.593,175149.065,0.034,0.717,-0.696,-0.025,0.129,-0.073,0.798,0.091,0.029,0.049,-0.799,1.069
2024-09-23 15:14:24.603,175149.075,0.035,0.712,-0.701,-0.027,0.06,-0.06,0.571,0.072,0.031,0.05,-0.793,1.069
2024-09-23 15:14:24.613,175149.085,0.036,0.709,-0.704,-0.022,-0.024,-0.057,0.371,0.091,0.004,0.051,-0.788,1.069
2024-09-23 15:14:24.623,175149.095,0.036,0.707,-0.706,-0.029,-0.018,-0.061,0.146,0.163,-0.025,0.051,-0.785,1.069
2024-09-23 15:14:24.632,175149.105,0.037,0.707,-0.707,-0.013,-0.088,-0.019,0.008,0.191,-0.027,0.053,-0.785,1.068
2024-09-23 15:14:24.642,175149.115,0.038,0.707,-0.707,-0.022,-0.09,-0.032,-0.034,0.186,-0.057,0.054,-0.785,1.067
2024-09-23 15:14:24.652,175149.125,0.039,0.707,-0.706,-0.014,-0.05,-0.027,-0.09,0.189,-0.114,0.055,-0.785,1.066
2024-09-23 15:14:24.662,175149.135,0.04,0.708,-0.705,0.0,-0.015,-0.011,-0.207,0.185,-0.153,0.056,-0.787,1.064
2024-09-23 15:14:24.672,175149.145,0.04,0.71,-0.703,-0.005,-0.021,-0.014,-0.308,0.159,-0.142,0.056,-0.79,1.063
2024-09-23 15:14:24.683,175149.155,0.04,0.712,-0.701,-0.002,-0.071,-0.023,-0.295,0.142,-0.12,0.057,-0.793,1.061
2024-09-23 15:14:24.693,175149.165,0.04,0.714,-0.699,0.004,-0.059,-0.02,-0.167,0.11,-0.087,0.057,-0.795,1.06
2024-09-23 15:14:24.703,175149.174,0.04,0.714,-0.699,0.008,0.009,-0.003,0.062,0.065,-0.094,0.057,-0.796,1.059
2024-09-23 15:14:24.713,175149.184,0.04,0.713,-0.7,0.006,0.061,0.02,0.251,0.032,-0.096,0.057,-0.794,1.057
2024-09-23 15:14:24.723,175149.194,0.039,0.711,-0.702,0.021,0.089,0.044,0.361,-0.001,-0.084,0.056,-0.791,1.055
2024-09-23 15:14:24.733,175149.204,0.038,0.708,-0.705,0.023,0.101,0.051,0.426,-0.045,-0.068,0.054,-0.787,1.054
2024-09-23 15:14:24.743,175149.214,0.038,0.705,-0.708,0.018,0.057,0.038,0.448,-0.043,-0.05,0.053,-0.783,1.053
2024-09-23 15:14:24.753,175149.224,0.037,0.702,-0.711,0.019,0.036,0.025,0.416,-0.037,-0.057,0.052,-0.779,1.052
2024-09-23 15:14:24.763,175149.234,0.036,0.7,-0.714,0.006,0.021,0.015,0.324,-0.02,-0.056,0.051,-0.775,1.051
2024-09-23 15:14:24.773,175149.244,0.036,0.698,-0.715,-0.006,-0.011,0.006,0.21,0.016,-0.052,0.05,-0.772,1.05
2024-09-23 15:14:24.783,175149.254,0.036,0.697,-0.717,-0.008,-0.037,-0.01,0.115,0.031,-0.046,0.05,-0.771,1.049
2024-09-23 15:14:24.793,175149.264,0.036,0.696,-0.717,-0.016,-0.047,-0.021,0.053,0.037,-0.063,0.05,-0.77,1.048
2024-09-23 15:14:24.803,175149.274,0.035,0.696,-0.717,-0.012,-0.046,-0.016,0.01,0.025,-0.074,0.049,-0.77,1.047
2024-09-23 15:14:24.813,175149.284,0.035,0.696,-0.717,-0.005,-0.039,-0.01,-0.009,0.008,-0.077,0.049,-0.77,1.046
2024-09-23 15:14:24.823,175149.294,0.034,0.696,-0.717,0.008,-0.023,-0.004,-0.035,0.002,-0.074,0.048,-0.77,1.045
2024-09-23 15:14:24.833,175149.304,0.034,0.696,-0.717,0.015,-0.015,-0.005,-0.002,0.049,-0.055,0.048,-0.77,1.044
2024-09-23 15:14:24.843,175149.314,0.034,0.696,-0.717,0.017,-0.005,-0.004,0.06,0.059,-0.03,0.048,-0.77,1.044
2024-09-23 15:14:24.853,175149.324,0.035,0.696,-0.718,0.0,-0.001,0.003,0.101,0.072,-0.019,0.048,-0.769,1.043
2024-09-23 15:14:24.863,175149.334,0.035,0.695,-0.718,-0.006,0.023,0.014,0.111,0.062,-0.019,0.049,-0.768,1.043
2024-09-23 15:14:24.873,175149.344,0.035,0.694,-0.719,-0.009,0.029,0.016,0.152,0.02,-0.022,0.049,-0.767,1.042
2024-09-23 15:14:24.883,175149.354,0.035,0.693,-0.721,-0.014,0.002,0.013,0.227,-0.018,-0.033,0.048,-0.765,1.042
2024-09-23 15:14:24.893,175149.364,0.034,0.691,-0.722,0.003,0.005,0.015,0.298,-0.067,-0.03,0.048,-0.762,1.041
2024-09-23 15:14:24.903,175149.374,0.034,0.688,-0.725,0.012,0.024,0.025,0.42,-0.123,-0.036,0.046,-0.759,1.041
2024-09-23 15:14:24.913,175149.384,0.032,0.684,-0.728,0.015,0.033,0.03,0.562,-0.2,-0.024,0.044,-0.754,1.04
2024-09-23 15:14:24.923,175149.394,0.03,0.68,-0.733,0.018,0.043,0.036,0.761,-0.28,-0.003,0.041,-0.747,1.039
2024-09-23 15:14:24.933,175149.404,0.028,0.673,-0.739,0.022,0.059,0.041,1.008,-0.39,0.032,0.038,-0.739,1.039
2024-09-23 15:14:24.943,175149.414,0.025,0.665,-0.746,0.023,0.078,0.048,1.079,-0.47,0.045,0.034,-0.728,1.038
2024-09-23 15:14:24.952,175149.424,0.023,0.659,-0.752,0.033,0.101,0.05,0.642,-0.292,-0.01,0.031,-0.719,1.039
2024-09-23 15:14:24.962,175149.434,0.021,0.656,-0.755,0.043,0.108,0.035,0.024,-0.335,0.091,0.027,-0.715,1.04
2024-09-23 15:14:24.973,175149.444,0.019,0.658,-0.753,-0.054,-0.069,-0.039,-0.553,-0.108,0.092,0.026,-0.718,1.041
2024-09-23 15:14:24.982,175149.454,0.021,0.664,-0.748,-0.002,-0.266,-0.067,-0.971,0.112,0.229,0.027,-0.726,1.043
2024-09-23 15:14:24.992,175149.464,0.023,0.672,-0.74,-0.025,-0.278,-0.116,-1.277,0.334,0.092,0.031,-0.737,1.046
2024-09-23 15:14:25.002,175149.474,0.027,0.681,-0.732,-0.064,-0.161,-0.136,-1.099,0.451,0.136,0.037,-0.749,1.049
2024-09-23 15:14:25.013,175149.484,0.031,0.688,-0.725,-0.08,-0.151,-0.045,-0.793,0.47,0.038,0.043,-0.759,1.05
2024-09-23 15:14:25.023,175149.494,0.035,0.693,-0.72,-0.08,-0.045,0.019,-0.722,0.469,0.096,0.049,-0.766,1.052
2024-09-23 15:14:25.033,175149.504,0.039,0.699,-0.714,-0.035,0.157,0.076,-0.89,0.433,0.025,0.054,-0.774,1.053
2024-09-23 15:14:25.043,175149.514,0.042,0.706,-0.707,-0.018,0.066,0.041,-0.943,0.378,0.018,0.059,-0.783,1.054
2024-09-23 15:14:25.052,175149.524,0.044,0.712,-0.701,-0.029,-0.082,-0.022,-0.909,0.322,-0.011,0.063,-0.793,1.055
2024-09-23 15:14:25.062,175149.534,0.046,0.718,-0.695,0.0,-0.114,-0.033,-0.759,0.242,-0.0,0.066,-0.801,1.056
2024-09-23 15:14:25.073,175149.544,0.048,0.722,-0.69,-0.003,-0.007,-0.017,-0.541,0.166,0.003,0.069,-0.807,1.056
