Date,TimeStamp,GravityX,GravityY,GravityZ,UserAccelerationX,UserAccelerationY,UserAccelerationZ,RotationRateX,RotationRateY,RotationRateZ,AttitudeRoll,AttitudePitch,AttitudeYaw
2024-09-23 14:36:49.425,172893.892,0.097,0.791,-0.604,-0.008,-0.003,-0.026,-0.224,-0.135,-0.01,0.159,-0.913,0.74
2024-09-23 14:36:49.435,172893.902,0.096,0.793,-0.602,0.001,-0.03,-0.03,-0.237,-0.192,0.004,0.157,-0.915,0.741
2024-09-23 14:36:49.445,172893.912,0.094,0.794,-0.6,0.01,-0.019,-0.015,-0.295,-0.244,0.023,0.156,-0.918,0.742
2024-09-23 14:36:49.455,172893.922,0.093,0.796,-0.598,0.013,-0.034,-0.004,-0.329,-0.239,0.034,0.154,-0.921,0.743
2024-09-23 14:36:49.465,172893.932,0.092,0.798,-0.595,0.019,-0.017,0.003,-0.283,-0.207,0.052,0.153,-0.924,0.744
2024-09-23 14:36:49.475,172893.942,0.091,0.8,-0.593,0.005,-0.005,0.003,-0.309,-0.15,0.045,0.153,-0.927,0.746
2024-09-23 14:36:49.485,172893.952,0.091,0.802,-0.591,-0.002,-0.017,0.005,-0.401,-0.111,0.023,0.153,-0.93,0.747
2024-09-23 14:36:49.496,172893.962,0.091,0.804,-0.588,-0.009,-0.009,0.009,-0.389,-0.085,0.025,0.153,-0.934,0.749
2024-09-23 14:36:49.504,172893.972,0.09,0.806,-0.584,-0.008,-0.043,-0.001,-0.412,-0.057,-0.028,0.153,-0.938,0.75
2024-09-23 14:36:49.515,172893.982,0.09,0.809,-0.581,0.001,-0.081,-0.001,-0.392,-0.017,-0.043,0.153,-0.942,0.75
2024-09-23 14:36:49.525,172893.992,0.089,0.811,-0.578,-0.003,-0.039,-0.003,-0.27,0.01,-0.035,0.153,-0.946,0.75
2024-09-23 14:36:49.534,172894.002,0.089,0.812,-0.577,-0.009,-0.009,0.006,-0.188,0.114,-0.051,0.153,-0.948,0.75
2024-09-23 14:36:49.545,172894.012,0.09,0.813,-0.575,-0.007,-0.004,0.025,-0.171,0.184,-0.038,0.155,-0.95,0.75
2024-09-23 14:36:49.555,172894.022,0.091,0.814,-0.573,-0.015,0.036,0.031,-0.171,0.195,-0.025,0.157,-0.951,0.75
2024-09-23 14:36:49.565,172894.032,0.091,0.815,-0.572,-0.035,0.029,0.002,-0.172,0.184,-0.024,0.159,-0.953,0.75
2024-09-23 14:36:49.575,172894.042,0.092,0.816,-0.57,-0.017,-0.013,-0.003,-0.163,0.18,-0.03,0.16,-0.955,0.75
2024-09-23 14:36:49.585,172894.052,0.093,0.817,-0.569,-0.0,-0.016,-0.0,-0.16,0.169,-0.039,0.162,-0.956,0.75
2024-09-23 14:36:49.595,172894.062,0.094,0.818,-0.568,-0.001,0.014,0.004,-0.114,0.156,-0.064,0.163,-0.958,0.749
2024-09-23 14:36:49.605,172894.072,0.094,0.818,-0.567,0.001,0.011,0.002,-0.054,0.141,-0.083,0.164,-0.959,0.748
2024-09-23 14:36:49.615,172894.082,0.094,0.819,-0.566,0.008,0.008,0.006,-0.015,0.107,-0.098,0.164,-0.959,0.747
2024-09-23 14:36:49.625,172894.092,0.093,0.819,-0.566,0.006,0.033,0.015,0.023,0.063,-0.102,0.163,-0.959,0.745
2024-09-23 14:36:49.635,172894.102,0.093,0.819,-0.567,0.007,0.033,0.013,0.085,0.037,-0.102,0.162,-0.959,0.743
2024-09-23 14:36:49.645,172894.112,0.092,0.818,-0.568,0.011,0.01,0.009,0.174,0.017,-0.098,0.161,-0.958,0.741
2024-09-23 14:36:49.655,172894.122,0.091,0.817,-0.57,0.011,0.021,0.018,0.243,-0.02,-0.091,0.159,-0.956,0.739
2024-09-23 14:36:49.664,172894.131,0.09,0.815,-0.572,0.007,0.043,0.027,0.291,-0.061,-0.088,0.157,-0.953,0.737
2024-09-23 14:36:49.675,172894.141,0.089,0.814,-0.574,0.008,0.034,0.025,0.343,-0.089,-0.069,0.154,-0.95,0.734
2024-09-23 14:36:49.685,172894.151,0.088,0.812,-0.577,0.011,0.011,0.021,0.398,-0.091,-0.062,0.152,-0.947,0.732
2024-09-23 14:36:49.695,172894.161,0.087,0.809,-0.581,0.008,0.017,0.021,0.462,-0.078,-0.065,0.149,-0.943,0.73
2024-09-23 14:36:49.705,172894.171,0.086,0.807,-0.585,0.003,0.048,0.026,0.52,-0.09,-0.077,0.147,-0.938,0.728
2024-09-23 14:36:49.715,172894.181,0.085,0.803,-0.589,0.002,0.038,0.028,0.578,-0.118,-0.097,0.143,-0.933,0.725
2024-09-23 14:36:49.725,172894.191,0.083,0.8,-0.594,0.004,0.021,0.024,0.651,-0.138,-0.119,0.14,-0.927,0.722
2024-09-23 14:36:49.735,172894.201,0.082,0.796,-0.6,0.013,0.029,0.026,0.632,0.002,-0.07,0.136,-0.921,0.719
2024-09-23 14:36:49.745,172894.211,0.082,0.793,-0.603,0.017,0.031,0.033,0.367,0.01,-0.024,0.135,-0.916,0.717
2024-09-23 14:36:49.755,172894.221,0.081,0.791,-0.606,-0.002,0.032,0.023,0.325,-0.09,-0.04,0.134,-0.913,0.716
2024-09-23 14:36:49.765,172894.231,0.081,0.789,-0.608,-0.032,-0.004,-0.03,0.251,-0.105,-0.038,0.132,-0.91,0.715
2024-09-23 14:36:49.774,172894.241,0.08,0.788,-0.61,0.014,-0.125,-0.008,0.25,-0.067,-0.031,0.13,-0.908,0.713
2024-09-23 14:36:49.784,172894.251,0.079,0.787,-0.612,0.007,-0.037,-0.007,0.204,-0.043,-0.001,0.129,-0.905,0.713
2024-09-23 14:36:49.794,172894.261,0.079,0.786,-0.614,-0.018,0.073,0.005,0.101,-0.027,0.012,0.128,-0.904,0.712
2024-09-23 14:36:49.805,172894.271,0.079,0.785,-0.614,-0.0,0.019,-0.006,0.047,-0.03,0.053,0.128,-0.903,0.713
2024-09-23 14:36:49.815,172894.281,0.079,0.785,-0.615,0.009,-0.025,-0.014,0.018,-0.046,0.055,0.128,-0.902,0.714
2024-09-23 14:36:49.824,172894.291,0.079,0.785,-0.615,0.006,-0.034,-0.005,0.062,-0.033,0.041,0.129,-0.902,0.714
2024-09-23 14:36:49.834,172894.301,0.08,0.784,-0.616,0.005,-0.003,0.006,0.132,-0.009,0.067,0.129,-0.901,0.715
2024-09-23 14:36:49.844,172894.311,0.081,0.783,-0.617,0.008,0.02,0.001,0.165,0.037,0.083,0.13,-0.899,0.716
2024-09-23 14:36:49.854,172894.321,0.081,0.782,-0.618,0.009,0.039,0.012,0.198,-0.059,0.068,0.131,-0.898,0.717
2024-09-23 14:36:49.864,172894.331,0.081,0.781,-0.62,0.012,0.033,0.027,0.192,-0.086,0.06,0.13,-0.895,0.717
2024-09-23 14:36:49.874,172894.341,0.081,0.779,-0.621,0.007,-0.018,0.017,0.161,-0.164,0.087,0.13,-0.894,0.718
2024-09-23 14:36:49.884,172894.351,0.08,0.779,-0.622,0.005,-0.03,0.023,0.024,-0.176,0.028,0.128,-0.893,0.719
2024-09-23 14:36:49.895,172894.361,0.079,0.779,-0.622,0.006,-0.049,0.016,-0.175,-0.19,0.011,0.127,-0.893,0.719
2024-09-23 14:36:49.904,172894.371,0.078,0.781,-0.62,-0.015,-0.064,-0.006,-0.412,-0.164,0.032,0.126,-0.896,0.72
2024-09-23 14:36:49.915,172894.381,0.078,0.784,-0.616,-0.042,-0.144,-0.015,-0.615,-0.066,0.101,0.126,-0.901,0.722
2024-09-23 14:36:49.925,172894.391,0.079,0.788,-0.611,-0.047,-0.186,-0.028,-0.705,0.031,0.182,0.129,-0.908,0.726
2024-09-23 14:36:49.934,172894.401,0.081,0.792,-0.605,-0.059,-0.109,-0.039,-0.672,0.137,0.269,0.134,-0.914,0.731
2024-09-23 14:36:49.944,172894.411,0.085,0.796,-0.6,-0.065,-0.017,-0.04,-0.681,0.359,0.339,0.141,-0.92,0.737
2024-09-23 14:36:49.954,172894.421,0.091,0.8,-0.593,-0.068,0.062,-0.03,-0.873,0.527,0.355,0.152,-0.927,0.745
2024-09-23 14:36:49.964,172894.431,0.097,0.805,-0.585,-0.084,0.102,-0.026,-1.028,0.54,0.361,0.164,-0.936,0.754
2024-09-23 14:36:49.974,172894.441,0.102,0.811,-0.576,-0.113,-0.025,-0.066,-1.076,0.391,0.172,0.175,-0.946,0.761
2024-09-23 14:36:49.984,172894.451,0.105,0.817,-0.567,-0.067,-0.177,-0.073,-1.035,0.336,0.153,0.183,-0.956,0.767
2024-09-23 14:36:49.994,172894.461,0.108,0.822,-0.559,-0.067,-0.109,-0.066,-0.834,0.262,0.059,0.19,-0.965,0.772
2024-09-23 14:36:50.007,172894.471,0.108,0.826,-0.553,-0.097,0.04,-0.049,-0.592,0.215,-0.116,0.194,-0.973,0.773
2024-09-23 14:36:50.014,172894.481,0.108,0.829,-0.549,-0.059,0.096,-0.029,-0.372,0.184,-0.141,0.195,-0.977,0.773
2024-09-23 14:36:50.024,172894.491,0.109,0.831,-0.546,-0.075,0.107,-0.02,-0.185,0.162,-0.073,0.196,-0.98,0.772
2024-09-23 14:36:50.033,172894.501,0.108,0.832,-0.544,-0.115,0.101,0.025,-0.195,0.136,-0.156,0.197,-0.982,0.771
2024-09-23 14:36:50.043,172894.511,0.108,0.833,-0.542,-0.092,0.088,0.061,-0.25,0.121,-0.22,0.196,-0.985,0.768
2024-09-23 14:36:50.053,172894.521,0.107,0.835,-0.54,-0.053,0.098,0.085,-0.349,0.142,-0.162,0.195,-0.988,0.766
2024-09-23 14:36:50.063,172894.531,0.106,0.837,-0.536,-0.063,0.051,0.094,-0.443,0.153,-0.146,0.195,-0.992,0.764
2024-09-23 14:36:50.074,172894.541,0.106,0.84,-0.532,-0.044,-0.032,0.098,-0.498,0.196,-0.075,0.197,-0.997,0.764
2024-09-23 14:36:50.084,172894.551,0.107,0.842,-0.528,-0.018,-0.049,0.102,-0.425,0.229,0.012,0.2,-1.002,0.765
2024-09-23 14:36:50.094,172894.561,0.108,0.845,-0.524,-0.021,-0.025,0.068,-0.357,0.202,0.03,0.204,-1.006,0.767
2024-09-23 14:36:50.104,172894.571,0.109,0.846,-0.522,-0.019,-0.01,0.025,-0.248,0.17,0.013,0.207,-1.009,0.769
2024-09-23 14:36:50.114,172894.581,0.11,0.847,-0.52,0.005,0.001,0.005,-0.174,0.114,-0.043,0.209,-1.011,0.769
2024-09-23 14:36:50.124,172894.591,0.11,0.848,-0.519,0.012,0.025,0.011,-0.064,0.128,-0.023,0.21,-1.012,0.769
2024-09-23 14:36:50.136,172894.601,0.111,0.848,-0.519,0.008,0.033,0.021,0.103,0.215,0.125,0.212,-1.012,0.77
2024-09-23 14:36:50.144,172894.611,0.113,0.847,-0.519,0.01,0.011,0.026,0.16,0.208,0.053,0.215,-1.01,0.771
2024-09-23 14:36:50.154,172894.621,0.115,0.846,-0.521,0.053,-0.0,0.031,0.255,0.186,0.03,0.217,-1.008,0.771
2024-09-23 14:36:50.164,172894.631,0.116,0.844,-0.523,0.066,0.01,0.042,0.339,0.168,0.061,0.218,-1.005,0.77
2024-09-23 14:36:50.174,172894.641,0.117,0.842,-0.526,0.034,0.001,0.034,0.389,0.141,0.095,0.22,-1.001,0.77
2024-09-23 14:36:50.184,172894.651,0.119,0.84,-0.529,0.05,0.003,0.017,0.392,0.117,0.139,0.221,-0.997,0.771
2024-09-23 14:36:50.194,172894.661,0.121,0.838,-0.532,0.066,-0.012,0.001,0.359,0.074,0.163,0.224,-0.993,0.772
2024-09-23 14:36:50.204,172894.671,0.123,0.836,-0.535,0.071,-0.061,-0.024,0.365,0.025,0.122,0.225,-0.989,0.773
2024-09-23 14:36:50.214,172894.681,0.124,0.833,-0.539,0.08,-0.064,-0.037,0.463,0.043,0.084,0.225,-0.985,0.773
2024-09-23 14:36:50.224,172894.691,0.124,0.831,-0.543,0.065,-0.001,-0.015,0.538,0.081,0.041,0.225,-0.98,0.772
2024-09-23 14:36:50.234,172894.701,0.125,0.827,-0.548,0.04,0.117,0.0,0.676,0.063,0.093,0.225,-0.974,0.771
2024-09-23 14:36:50.244,172894.711,0.126,0.823,-0.553,0.018,0.169,0.022,0.662,0.002,0.105,0.224,-0.967,0.77
2024-09-23 14:36:50.254,172894.721,0.127,0.82,-0.559,0.026,0.044,0.043,0.642,-0.051,0.115,0.223,-0.961,0.769
2024-09-23 14:36:50.265,172894.73,0.128,0.816,-0.564,0.054,-0.027,0.029,0.642,-0.101,0.14,0.222,-0.954,0.769
2024-09-23 14:36:50.274,172894.74,0.128,0.812,-0.569,0.028,0.003,0.024,0.661,-0.101,0.171,0.222,-0.948,0.769
2024-09-23 14:36:50.284,172894.75,0.129,0.808,-0.575,-0.003,0.008,0.032,0.631,-0.123,0.138,0.221,-0.941,0.769
2024-09-23 14:36:50.294,172894.76,0.129,0.804,-0.58,-0.003,-0.02,0.035,0.569,-0.097,0.098,0.219,-0.935,0.769
2024-09-23 14:36:50.304,172894.77,0.129,0.802,-0.584,0.002,-0.023,0.021,0.384,-0.066,0.072,0.218,-0.93,0.769
2024-09-23 14:36:50.314,172894.78,0.129,0.8,-0.587,0.009,-0.005,0.003,0.298,-0.114,0.044,0.217,-0.927,0.768
2024-09-23 14:36:50.324,172894.79,0.129,0.798,-0.589,0.009,-0.022,-0.005,0.281,-0.139,0.013,0.215,-0.924,0.768
2024-09-23 14:36:50.334,172894.8,0.128,0.796,-0.591,0.029,-0.094,-0.015,0.283,-0.148,-0.021,0.213,-0.921,0.767
2024-09-23 14:36:50.344,172894.81,0.127,0.794,-0.594,0.058,-0.053,-0.016,0.311,-0.197,-0.037,0.21,-0.918,0.765
2024-09-23 14:36:50.354,172894.82,0.125,0.793,-0.597,0.038,0.033,-0.005,0.302,-0.203,-0.076,0.207,-0.915,0.763
2024-09-23 14:36:50.363,172894.83,0.123,0.792,-0.599,0.032,0.035,0.01,0.112,-0.185,-0.12,0.203,-0.913,0.761
2024-09-23 14:36:50.374,172894.84,0.121,0.792,-0.599,0.055,-0.053,-0.005,-0.073,-0.195,-0.131,0.199,-0.913,0.759
2024-09-23 14:36:50.384,172894.85,0.119,0.793,-0.598,0.055,-0.116,-0.051,-0.171,-0.199,-0.132,0.196,-0.915,0.757
2024-09-23 14:36:50.394,172894.86,0.116,0.794,-0.597,0.034,-0.073,-0.062,-0.207,-0.17,-0.167,0.193,-0.917,0.756
2024-09-23 14:36:50.404,172894.87,0.114,0.795,-0.595,0.038,-0.005,-0.027,-0.216,-0.197,-0.157,0.189,-0.92,0.754
2024-09-23 14:36:50.414,172894.88,0.112,0.797,-0.594,0.01,0.009,0.003,-0.232,-0.208,-0.169,0.186,-0.922,0.752
2024-09-23 14:36:50.423,172894.89,0.109,0.798,-0.592,0.003,-0.008,-0.007,-0.178,-0.173,-0.175,0.182,-0.924,0.749
2024-09-23 14:36:50.434,172894.9,0.107,0.799,-0.591,0.021,-0.004,0.001,-0.106,-0.088,-0.146,0.179,-0.926,0.747
2024-09-23 14:36:50.444,172894.91,0.106,0.8,-0.591,0.0,-0.012,0.012,-0.053,-0.015,-0.117,0.177,-0.927,0.745
2024-09-23 14:36:50.454,172894.92,0.105,0.8,-0.591,-0.027,0.028,0.022,-0.018,-0.03,-0.096,0.175,-0.928,0.744
2024-09-23 14:36:50.463,172894.93,0.104,0.8,-0.59,-0.034,0.059,0.028,-0.048,-0.032,-0.102,0.174,-0.928,0.742
2024-09-23 14:36:50.473,172894.94,0.103,0.801,-0.59,-0.009,0.01,0.01,-0.085,-0.041,-0.092,0.172,-0.929,0.741
2024-09-23 14:36:50.483,172894.95,0.102,0.802,-0.589,0.011,-0.015,0.007,-0.096,-0.031,-0.093,0.171,-0.93,0.739
2024-09-23 14:36:50.494,172894.96,0.101,0.802,-0.589,-0.003,-0.016,0.001,-0.084,-0.027,-0.086,0.17,-0.931,0.738
2024-09-23 14:36:50.503,172894.97,0.1,0.803,-0.588,-0.005,-0.008,0.0,-0.071,-0.031,-0.072,0.169,-0.932,0.737
2024-09-23 14:36:50.514,172894.98,0.099,0.803,-0.587,-0.006,-0.003,0.01,-0.081,-0.015,-0.059,0.168,-0.933,0.736
2024-09-23 14:36:50.524,172894.99,0.099,0.804,-0.587,-0.005,-0.011,0.003,-0.111,0.013,-0.043,0.167,-0.934,0.736
2024-09-23 14:36:50.534,172895.0,0.099,0.805,-0.585,-0.007,-0.026,0.003,-0.163,0.038,-0.023,0.167,-0.935,0.736
2024-09-23 14:36:50.543,172895.01,0.099,0.806,-0.584,-0.019,-0.027,-0.002,-0.216,0.054,-0.002,0.168,-0.937,0.736
2024-09-23 14:36:50.554,172895.02,0.099,0.807,-0.582,-0.022,-0.017,-0.012,-0.23,0.047,0.017,0.169,-0.939,0.737
2024-09-23 14:36:50.563,172895.03,0.1,0.808,-0.58,-0.013,-0.033,-0.013,-0.221,0.046,0.03,0.17,-0.941,0.738
2024-09-23 14:36:50.573,172895.04,0.1,0.81,-0.578,-0.006,-0.022,-0.007,-0.189,0.059,0.031,0.172,-0.943,0.739
2024-09-23 14:36:50.583,172895.05,0.101,0.81,-0.577,-0.002,0.016,0.004,-0.122,0.058,0.026,0.173,-0.945,0.74
2024-09-23 14:36:50.594,172895.06,0.101,0.811,-0.576,-0.005,0.023,0.007,-0.04,0.045,0.012,0.174,-0.946,0.74
2024-09-23 14:36:50.603,172895.07,0.102,0.811,-0.576,-0.005,0.017,0.011,0.008,0.055,-0.006,0.174,-0.946,0.74
2024-09-23 14:36:50.613,172895.08,0.102,0.811,-0.577,0.002,0.026,0.022,0.041,0.044,-0.011,0.175,-0.945,0.74
2024-09-23 14:36:50.623,172895.09,0.102,0.81,-0.577,-0.0,0.015,0.019,0.055,0.035,-0.012,0.175,-0.945,0.739
2024-09-23 14:36:50.634,172895.1,0.102,0.81,-0.578,-0.001,0.004,0.012,0.05,0.028,-0.009,0.174,-0.944,0.739
2024-09-23 14:36:50.643,172895.11,0.102,0.81,-0.578,0.001,0.008,0.012,0.054,0.02,-0.005,0.174,-0.943,0.738
2024-09-23 14:36:50.654,172895.12,0.102,0.809,-0.579,0.001,0.01,0.005,0.061,0.024,-0.009,0.174,-0.943,0.738
2024-09-23 14:36:50.663,172895.13,0.102,0.809,-0.579,0.0,-0.003,0.005,0.071,0.028,-0.01,0.174,-0.942,0.738
2024-09-23 14:36:50.673,172895.14,0.102,0.808,-0.58,0.0,0.002,0.006,0.093,0.025,-0.016,0.174,-0.942,0.737
2024-09-23 14:36:50.683,172895.15,0.102,0.808,-0.58,-0.002,0.017,0.007,0.14,0.014,-0.033,0.174,-0.941,0.736
2024-09-23 14:36:50.693,172895.16,0.102,0.807,-0.582,0.001,0.018,0.006,0.189,0.008,-0.046,0.173,-0.939,0.735
2024-09-23 14:36:50.703,172895.17,0.101,0.806,-0.583,0.006,0.015,0.011,0.239,0.034,-0.056,0.172,-0.937,0.734
2024-09-23 14:36:50.713,172895.18,0.101,0.805,-0.585,0.005,0.021,0.018,0.184,0.058,-0.032,0.171,-0.935,0.733
2024-09-23 14:36:50.723,172895.19,0.101,0.804,-0.586,-0.001,0.024,0.019,0.143,0.013,-0.016,0.171,-0.934,0.732
2024-09-23 14:36:50.733,172895.2,0.101,0.803,-0.587,-0.015,0.033,-0.005,0.14,-0.016,-0.033,0.17,-0.933,0.731
2024-09-23 14:36:50.743,172895.21,0.101,0.803,-0.588,0.003,-0.005,-0.004,0.087,-0.029,-0.036,0.17,-0.932,0.73
2024-09-23 14:36:50.753,172895.22,0.1,0.802,-0.588,0.011,-0.053,0.007,0.043,-0.06,-0.029,0.169,-0.931,0.73
2024-09-23 14:36:50.763,172895.23,0.099,0.802,-0.589,0.003,-0.007,-0.002,0.015,-0.098,-0.039,0.167,-0.931,0.729
2024-09-23 14:36:50.774,172895.24,0.098,0.803,-0.588,0.011,0.002,-0.006,-0.071,-0.126,-0.026,0.166,-0.932,0.729
2024-09-23 14:36:50.783,172895.25,0.097,0.803,-0.588,0.013,-0.019,-0.006,-0.132,-0.182,-0.01,0.164,-0.933,0.729
2024-09-23 14:36:50.794,172895.26,0.096,0.804,-0.586,0.015,-0.018,-0.011,-0.186,-0.242,0.009,0.163,-0.934,0.729
2024-09-23 14:36:50.802,172895.27,0.095,0.806,-0.585,0.015,-0.03,-0.023,-0.255,-0.245,0.016,0.161,-0.937,0.73
2024-09-23 14:36:50.812,172895.28,0.094,0.807,-0.583,0.021,-0.005,-0.021,-0.321,-0.277,0.066,0.159,-0.94,0.731
2024-09-23 14:36:50.823,172895.29,0.093,0.809,-0.58,0.017,-0.002,-0.013,-0.296,-0.28,0.09,0.159,-0.943,0.734
2024-09-23 14:36:50.833,172895.3,0.092,0.811,-0.578,-0.001,-0.029,-0.021,-0.257,-0.149,0.122,0.158,-0.945,0.736
2024-09-23 14:36:50.842,172895.31,0.093,0.812,-0.577,0.004,-0.029,0.003,-0.181,-0.097,0.08,0.159,-0.947,0.739
2024-09-23 14:36:50.853,172895.32,0.093,0.813,-0.575,-0.004,-0.011,0.017,-0.187,-0.085,0.023,0.16,-0.949,0.74
2024-09-23 14:36:50.863,172895.329,0.093,0.814,-0.574,-0.008,-0.002,0.013,-0.248,-0.055,0.003,0.16,-0.951,0.741
2024-09-23 14:36:50.873,172895.339,0.092,0.815,-0.572,-0.023,-0.018,0.029,-0.235,-0.03,-0.019,0.16,-0.953,0.742
2024-09-23 14:36:50.883,172895.349,0.092,0.816,-0.57,-0.024,-0.049,0.015,-0.233,0.014,-0.017,0.16,-0.955,0.742
2024-09-23 14:36:50.893,172895.359,0.092,0.818,-0.568,-0.024,-0.052,0.016,-0.204,0.056,-0.003,0.161,-0.957,0.743
2024-09-23 14:36:50.903,172895.369,0.093,0.818,-0.567,-0.027,0.002,0.013,-0.142,0.095,-0.009,0.162,-0.959,0.743
2024-09-23 14:36:50.912,172895.379,0.093,0.819,-0.566,-0.023,0.019,0.006,-0.131,0.184,-0.009,0.164,-0.96,0.743
2024-09-23 14:36:50.921,172895.389,0.095,0.82,-0.565,-0.018,-0.0,0.013,-0.156,0.237,0.011,0.166,-0.961,0.744
2024-09-23 14:36:50.931,172895.399,0.096,0.821,-0.563,-0.032,0.008,0.012,-0.18,0.25,0.019,0.169,-0.963,0.744
2024-09-23 14:36:50.941,172895.409,0.098,0.822,-0.561,-0.037,0.001,-0.003,-0.173,0.249,0.01,0.172,-0.964,0.745
2024-09-23 14:36:50.952,172895.419,0.099,0.823,-0.56,-0.012,-0.034,-0.006,-0.169,0.23,0.008,0.175,-0.966,0.746
2024-09-23 14:36:50.962,172895.429,0.1,0.824,-0.558,-0.006,-0.022,-0.002,-0.148,0.192,-0.018,0.178,-0.968,0.746
2024-09-23 14:36:50.972,172895.439,0.101,0.824,-0.557,0.004,0.021,-0.007,-0.069,0.143,-0.054,0.179,-0.969,0.746
2024-09-23 14:36:50.982,172895.449,0.101,0.824,-0.557,0.016,0.042,-0.007,0.044,0.1,-0.091,0.179,-0.969,0.745
2024-09-23 14:36:50.992,172895.459,0.1,0.824,-0.558,0.023,0.038,0.012,0.177,0.08,-0.126,0.178,-0.968,0.742
2024-09-23 14:36:51.003,172895.469,0.1,0.823,-0.56,0.022,0.042,0.03,0.289,0.045,-0.15,0.176,-0.966,0.739
2024-09-23 14:36:51.013,172895.479,0.098,0.821,-0.562,0.016,0.054,0.037,0.393,-0.008,-0.177,0.173,-0.963,0.735
2024-09-23 14:36:51.023,172895.489,0.097,0.819,-0.566,0.015,0.065,0.038,0.469,-0.053,-0.189,0.169,-0.959,0.731
2024-09-23 14:36:51.033,172895.499,0.095,0.816,-0.57,0.02,0.046,0.034,0.535,-0.103,-0.168,0.165,-0.955,0.726
2024-09-23 14:36:51.041,172895.509,0.093,0.813,-0.575,0.021,0.026,0.031,0.553,-0.139,-0.146,0.16,-0.949,0.722
2024-09-23 14:36:51.052,172895.519,0.091,0.81,-0.579,0.016,0.026,0.033,0.486,0.012,-0.071,0.157,-0.944,0.719
2024-09-23 14:36:51.063,172895.529,0.091,0.808,-0.582,0.016,0.024,0.032,0.245,0.027,-0.023,0.156,-0.941,0.717
2024-09-23 14:36:51.073,172895.539,0.091,0.807,-0.584,-0.015,0.012,0.025,0.222,-0.03,-0.051,0.155,-0.939,0.716
2024-09-23 14:36:51.084,172895.549,0.09,0.806,-0.585,-0.036,-0.004,-0.033,0.153,-0.006,-0.038,0.153,-0.937,0.715
2024-09-23 14:36:51.093,172895.559,0.09,0.805,-0.586,0.003,-0.121,-0.014,0.132,0.021,-0.018,0.153,-0.936,0.714
2024-09-23 14:36:51.102,172895.569,0.09,0.804,-0.588,-0.024,-0.061,-0.018,0.165,0.014,-0.03,0.152,-0.934,0.713
2024-09-23 14:36:51.112,172895.579,0.09,0.803,-0.589,-0.01,0.062,0.003,0.157,-0.028,-0.039,0.151,-0.933,0.712
2024-09-23 14:36:51.121,172895.589,0.089,0.802,-0.59,-0.001,0.016,0.004,0.135,-0.049,-0.033,0.15,-0.931,0.711
2024-09-23 14:36:51.131,172895.599,0.089,0.802,-0.591,0.012,-0.007,0.005,0.035,-0.041,-0.018,0.149,-0.93,0.71
2024-09-23 14:36:51.141,172895.609,0.089,0.802,-0.591,0.016,-0.011,0.001,-0.046,-0.026,0.021,0.149,-0.93,0.71
2024-09-23 14:36:51.152,172895.619,0.089,0.802,-0.59,-0.006,-0.005,-0.025,-0.142,-0.006,0.044,0.149,-0.931,0.711
2024-09-23 14:36:51.161,172895.629,0.089,0.803,-0.589,-0.007,-0.014,-0.018,-0.189,0.023,0.082,0.151,-0.933,0.713
2024-09-23 14:36:51.171,172895.639,0.09,0.804,-0.587,-0.002,-0.04,-0.019,-0.158,0.066,0.105,0.153,-0.935,0.715
2024-09-23 14:36:51.181,172895.649,0.092,0.805,-0.586,0.002,0.002,-0.02,-0.046,0.068,0.128,0.155,-0.935,0.717
2024-09-23 14:36:51.191,172895.659,0.093,0.805,-0.587,0.013,0.015,-0.0,0.106,0.064,0.077,0.157,-0.935,0.718
2024-09-23 14:36:51.201,172895.669,0.094,0.804,-0.588,0.017,0.021,0.017,0.231,0.001,0.06,0.158,-0.933,0.719
2024-09-23 14:36:51.212,172895.679,0.094,0.802,-0.59,0.014,0.026,0.047,0.33,-0.119,0.087,0.158,-0.93,0.719
2024-09-23 14:36:51.222,172895.689,0.094,0.8,-0.593,0.003,0.011,0.039,0.375,-0.218,0.095,0.157,-0.927,0.72
2024-09-23 14:36:51.232,172895.699,0.093,0.797,-0.597,0.026,0.047,0.02,0.373,-0.244,0.061,0.154,-0.923,0.72
2024-09-23 14:36:51.241,172895.709,0.092,0.795,-0.599,0.021,0.024,0.029,0.192,-0.227,0.012,0.152,-0.92,0.72
2024-09-23 14:36:51.251,172895.719,0.091,0.795,-0.6,-0.007,-0.051,0.035,-0.063,-0.178,0.008,0.15,-0.919,0.72
2024-09-23 14:36:51.262,172895.729,0.09,0.796,-0.598,-0.029,-0.066,0.02,-0.363,-0.096,0.07,0.149,-0.921,0.721
2024-09-23 14:36:51.272,172895.739,0.09,0.799,-0.594,-0.062,-0.129,-0.015,-0.599,-0.015,0.108,0.151,-0.926,0.724
2024-09-23 14:36:51.282,172895.749,0.092,0.803,-0.589,-0.059,-0.171,-0.046,-0.75,0.068,0.151,0.154,-0.932,0.728
2024-09-23 14:36:51.293,172895.759,0.094,0.807,-0.583,-0.05,-0.123,-0.05,-0.638,0.184,0.22,0.159,-0.939,0.733
2024-09-23 14:36:51.302,172895.769,0.097,0.811,-0.578,-0.045,-0.048,-0.038,-0.746,0.359,0.24,0.167,-0.945,0.738
2024-09-23 14:36:51.313,172895.779,0.102,0.815,-0.57,-0.042,0.033,-0.007,-0.94,0.414,0.321,0.177,-0.953,0.745
2024-09-23 14:36:51.322,172895.789,0.107,0.82,-0.562,-0.079,0.07,-0.024,-1.051,0.366,0.352,0.188,-0.962,0.754
2024-09-23 14:36:51.332,172895.799,0.11,0.826,-0.553,-0.079,-0.054,-0.077,-1.04,0.217,0.167,0.197,-0.972,0.762
2024-09-23 14:36:51.342,172895.809,0.113,0.831,-0.545,-0.038,-0.096,-0.069,-0.881,0.162,0.166,0.204,-0.981,0.768
2024-09-23 14:36:51.352,172895.819,0.115,0.835,-0.538,-0.093,0.015,-0.045,-0.671,0.122,0.13,0.21,-0.988,0.774
2024-09-23 14:36:51.362,172895.829,0.116,0.838,-0.533,-0.134,0.106,-0.028,-0.498,0.003,-0.011,0.214,-0.994,0.777
2024-09-23 14:36:51.372,172895.839,0.113,0.841,-0.529,-0.095,0.098,0.007,-0.553,-0.11,-0.29,0.211,-1.0,0.776
2024-09-23 14:36:51.382,172895.849,0.113,0.843,-0.526,-0.072,0.077,0.038,-0.153,-0.052,0.138,0.211,-1.003,0.777
2024-09-23 14:36:51.392,172895.859,0.113,0.844,-0.525,-0.114,0.058,0.055,-0.086,-0.123,-0.057,0.211,-1.004,0.778
2024-09-23 14:36:51.402,172895.869,0.112,0.844,-0.525,-0.039,-0.008,0.02,0.096,-0.054,-0.028,0.21,-1.004,0.777
2024-09-23 14:36:51.412,172895.879,0.111,0.843,-0.526,0.037,0.108,0.052,0.093,-0.089,-0.045,0.208,-1.003,0.776
2024-09-23 14:36:51.422,172895.889,0.11,0.843,-0.527,-0.022,0.133,0.039,0.089,-0.125,-0.08,0.206,-1.002,0.775
2024-09-23 14:36:51.432,172895.899,0.109,0.842,-0.528,0.017,0.028,0.036,0.107,-0.12,-0.075,0.203,-1.002,0.773
2024-09-23 14:36:51.442,172895.909,0.108,0.842,-0.529,0.032,-0.025,0.051,0.16,-0.09,-0.064,0.201,-1.0,0.771
2024-09-23 14:36:51.452,172895.919,0.107,0.841,-0.531,0.029,-0.004,0.052,0.226,-0.05,-0.06,0.198,-0.999,0.769
2024-09-23 14:36:51.462,172895.928,0.106,0.839,-0.533,0.047,0.001,0.051,0.302,-0.054,-0.015,0.196,-0.996,0.767
2024-09-23 14:36:51.472,172895.938,0.106,0.838,-0.536,0.051,-0.056,0.055,0.357,-0.074,0.027,0.195,-0.993,0.766
2024-09-23 14:36:51.482,172895.948,0.106,0.835,-0.539,0.059,-0.092,0.07,0.445,-0.12,0.105,0.194,-0.989,0.766
2024-09-23 14:36:51.492,172895.958,0.106,0.833,-0.543,0.091,-0.082,0.07,0.417,-0.242,0.107,0.192,-0.984,0.767
2024-09-23 14:36:51.502,172895.968,0.105,0.831,-0.547,0.131,-0.107,0.045,0.413,-0.395,0.075,0.189,-0.98,0.767
2024-09-23 14:36:51.512,172895.978,0.103,0.828,-0.551,0.145,-0.149,0.034,0.415,-0.491,0.111,0.185,-0.976,0.767
2024-09-23 14:36:51.521,172895.988,0.101,0.826,-0.555,0.116,-0.136,0.01,0.367,-0.448,0.133,0.181,-0.972,0.768
2024-09-23 14:36:51.531,172895.998,0.1,0.824,-0.558,0.105,-0.053,-0.037,0.323,-0.41,0.079,0.177,-0.968,0.769
2024-09-23 14:36:51.543,172896.008,0.097,0.822,-0.561,0.082,0.045,-0.056,0.283,-0.425,-0.109,0.171,-0.966,0.766
2024-09-23 14:36:51.552,172896.018,0.094,0.821,-0.564,0.035,0.144,-0.029,0.333,-0.305,-0.178,0.165,-0.963,0.763
2024-09-23 14:36:51.562,172896.028,0.092,0.818,-0.567,-0.006,0.215,-0.044,0.481,-0.108,-0.089,0.16,-0.959,0.76
2024-09-23 14:36:51.572,172896.038,0.09,0.816,-0.571,0.042,0.18,-0.039,0.457,-0.151,-0.194,0.156,-0.955,0.756
2024-09-23 14:36:51.582,172896.048,0.087,0.813,-0.575,0.064,0.033,-0.02,0.599,-0.165,-0.281,0.15,-0.95,0.751
2024-09-23 14:36:51.592,172896.058,0.083,0.81,-0.581,0.013,-0.055,0.036,0.574,-0.289,-0.268,0.143,-0.944,0.744
2024-09-23 14:36:51.602,172896.068,0.079,0.807,-0.585,-0.023,-0.059,0.051,0.519,-0.23,-0.309,0.135,-0.939,0.738
2024-09-23 14:36:51.612,172896.078,0.076,0.804,-0.589,-0.006,-0.009,0.038,0.442,-0.172,-0.29,0.128,-0.935,0.732
2024-09-23 14:36:51.622,172896.088,0.073,0.802,-0.593,-0.012,0.023,0.043,0.413,-0.044,-0.295,0.122,-0.931,0.726
2024-09-23 14:36:51.631,172896.098,0.071,0.8,-0.596,-0.041,0.019,0.03,0.392,0.1,-0.175,0.119,-0.927,0.722
2024-09-23 14:36:51.642,172896.108,0.071,0.798,-0.599,-0.057,0.037,0.022,0.382,0.202,0.031,0.119,-0.923,0.72
2024-09-23 14:36:51.652,172896.118,0.073,0.795,-0.602,-0.038,0.111,-0.015,0.328,0.268,0.095,0.121,-0.92,0.72
2024-09-23 14:36:51.662,172896.128,0.076,0.794,-0.603,0.019,0.095,-0.033,0.206,0.329,0.139,0.125,-0.917,0.722
2024-09-23 14:36:51.672,172896.138,0.079,0.793,-0.604,0.007,0.02,-0.023,0.059,0.286,0.116,0.13,-0.916,0.723
2024-09-23 14:36:51.682,172896.148,0.081,0.793,-0.604,-0.038,-0.039,-0.005,-0.054,0.182,0.039,0.133,-0.915,0.725
2024-09-23 14:36:51.692,172896.158,0.082,0.793,-0.603,-0.047,-0.106,-0.0,-0.133,0.097,0.036,0.135,-0.916,0.725
2024-09-23 14:36:51.701,172896.168,0.083,0.794,-0.602,-0.048,-0.141,-0.002,-0.154,0.067,0.035,0.137,-0.918,0.726
2024-09-23 14:36:51.712,172896.178,0.083,0.795,-0.601,-0.028,-0.104,-0.007,-0.103,0.05,0.01,0.138,-0.919,0.727
2024-09-23 14:36:51.722,172896.188,0.084,0.795,-0.6,-0.0,-0.028,0.005,-0.004,0.051,-0.015,0.138,-0.92,0.727
2024-09-23 14:36:51.732,172896.198,0.084,0.795,-0.601,0.006,0.027,0.023,0.1,0.058,-0.054,0.139,-0.919,0.727
2024-09-23 14:36:51.741,172896.208,0.084,0.794,-0.602,0.005,0.036,0.029,0.207,0.049,-0.085,0.138,-0.918,0.725
2024-09-23 14:36:51.751,172896.218,0.083,0.793,-0.604,0.006,0.047,0.03,0.289,0.035,-0.091,0.137,-0.915,0.723
2024-09-23 14:36:51.762,172896.228,0.083,0.791,-0.606,0.007,0.05,0.041,0.321,0.012,-0.078,0.135,-0.912,0.721
2024-09-23 14:36:51.771,172896.238,0.082,0.789,-0.609,-0.005,0.012,0.039,0.311,0.007,-0.055,0.134,-0.909,0.719
2024-09-23 14:36:51.781,172896.248,0.082,0.788,-0.611,-0.01,-0.011,0.029,0.157,-0.027,-0.003,0.133,-0.907,0.718
2024-09-23 14:36:51.791,172896.258,0.082,0.787,-0.612,-0.013,-0.014,0.027,0.073,-0.047,-0.016,0.132,-0.906,0.718
2024-09-23 14:36:51.802,172896.268,0.081,0.787,-0.612,-0.001,-0.012,0.014,0.012,0.004,-0.022,0.132,-0.905,0.717
2024-09-23 14:36:51.811,172896.278,0.081,0.787,-0.612,0.005,-0.033,-0.002,-0.05,0.059,-0.01,0.132,-0.906,0.717
2024-09-23 14:36:51.821,172896.288,0.082,0.787,-0.611,-0.013,-0.019,-0.022,-0.12,0.065,-0.01,0.133,-0.907,0.717
2024-09-23 14:36:51.831,172896.298,0.082,0.788,-0.61,-0.015,-0.006,-0.027,-0.194,0.055,-0.014,0.133,-0.908,0.717
2024-09-23 14:36:51.841,172896.308,0.082,0.79,-0.608,-0.006,-0.03,-0.03,-0.227,0.032,0.002,0.134,-0.91,0.718
2024-09-23 14:36:51.851,172896.318,0.082,0.791,-0.606,0.007,-0.037,-0.028,-0.24,0.031,0.003,0.135,-0.913,0.718
2024-09-23 14:36:51.861,172896.328,0.082,0.793,-0.604,0.007,-0.028,-0.026,-0.222,0.023,0.017,0.136,-0.915,0.719
2024-09-23 14:36:51.871,172896.338,0.083,0.794,-0.602,0.005,-0.006,-0.01,-0.198,0.013,0.028,0.136,-0.917,0.72
2024-09-23 14:36:51.881,172896.348,0.083,0.795,-0.601,-0.004,0.005,0.0,-0.163,-0.005,0.029,0.137,-0.919,0.721
2024-09-23 14:36:51.891,172896.358,0.083,0.796,-0.6,-0.001,0.001,0.0,-0.11,-0.026,0.019,0.138,-0.92,0.721
2024-09-23 14:36:51.901,172896.368,0.083,0.796,-0.6,0.003,0.01,0.004,-0.035,-0.029,-0.012,0.137,-0.921,0.721
2024-09-23 14:36:51.911,172896.378,0.083,0.796,-0.6,0.006,0.022,0.013,0.05,-0.003,-0.036,0.137,-0.92,0.721
2024-09-23 14:36:51.921,172896.388,0.082,0.795,-0.601,0.004,0.027,0.024,0.119,0.008,-0.041,0.136,-0.919,0.72
2024-09-23 14:36:51.932,172896.398,0.082,0.794,-0.602,-0.006,0.031,0.026,0.156,-0.004,-0.049,0.135,-0.918,0.719
2024-09-23 14:36:51.941,172896.408,0.081,0.793,-0.604,-0.006,0.042,0.021,0.216,-0.017,-0.066,0.134,-0.916,0.718
2024-09-23 14:36:51.951,172896.418,0.081,0.792,-0.606,0.007,0.035,0.015,0.264,-0.017,-0.077,0.133,-0.914,0.716
2024-09-23 14:36:51.961,172896.428,0.08,0.79,-0.608,0.003,0.013,0.019,0.325,-0.025,-0.083,0.131,-0.911,0.714
2024-09-23 14:36:51.971,172896.438,0.079,0.788,-0.611,0.001,0.023,0.02,0.364,-0.017,-0.095,0.129,-0.907,0.712
2024-09-23 14:36:51.981,172896.448,0.079,0.786,-0.614,0.005,0.036,0.018,0.367,0.107,-0.098,0.128,-0.904,0.71
2024-09-23 14:36:51.991,172896.458,0.079,0.784,-0.616,0.007,0.035,0.024,0.252,0.124,-0.072,0.127,-0.901,0.708
2024-09-23 14:36:52.001,172896.468,0.079,0.783,-0.617,-0.029,0.034,0.014,0.136,0.048,-0.072,0.127,-0.9,0.706
2024-09-23 14:36:52.011,172896.478,0.079,0.783,-0.617,-0.022,0.017,-0.014,0.016,-0.019,-0.021,0.127,-0.899,0.705
2024-09-23 14:36:52.021,172896.488,0.078,0.783,-0.617,0.018,-0.097,0.01,0.026,-0.034,0.0,0.126,-0.899,0.705
2024-09-23 14:36:52.031,172896.498,0.078,0.783,-0.618,0.01,-0.075,-0.006,0.018,-0.047,0.019,0.126,-0.899,0.705
2024-09-23 14:36:52.041,172896.508,0.078,0.783,-0.618,0.02,0.032,-0.013,-0.037,-0.113,0.052,0.126,-0.899,0.706
2024-09-23 14:36:52.051,172896.518,0.078,0.783,-0.617,0.002,0.017,-0.033,-0.084,-0.2,0.093,0.125,-0.899,0.707
2024-09-23 14:36:52.060,172896.527,0.077,0.784,-0.617,0.018,-0.021,-0.032,-0.125,-0.199,0.191,0.125,-0.9,0.709
2024-09-23 14:36:52.070,172896.537,0.078,0.784,-0.616,0.033,-0.027,-0.026,-0.146,-0.086,0.236,0.127,-0.901,0.713
2024-09-23 14:36:52.080,172896.547,0.08,0.785,-0.614,0.033,-0.037,-0.029,-0.152,-0.043,0.255,0.129,-0.903,0.718
2024-09-23 14:36:52.091,172896.557,0.082,0.786,-0.613,0.002,-0.012,-0.057,-0.178,0.018,0.236,0.132,-0.904,0.722
2024-09-23 14:36:52.101,172896.567,0.083,0.787,-0.611,-0.011,0.036,-0.028,-0.29,-0.031,0.163,0.135,-0.906,0.726
2024-09-23 14:36:52.111,172896.577,0.084,0.789,-0.609,-0.011,-0.007,-0.011,-0.392,-0.036,0.113,0.137,-0.909,0.729
2024-09-23 14:36:52.121,172896.587,0.085,0.792,-0.605,-0.026,-0.076,0.002,-0.49,-0.043,0.065,0.139,-0.913,0.731
2024-09-23 14:36:52.131,172896.597,0.085,0.795,-0.601,-0.011,-0.121,0.015,-0.479,-0.006,0.03,0.14,-0.918,0.733
2024-09-23 14:36:52.141,172896.607,0.085,0.797,-0.597,-0.02,-0.075,0.019,-0.491,-0.003,-0.006,0.141,-0.923,0.734
2024-09-23 14:36:52.151,172896.617,0.085,0.8,-0.594,-0.027,-0.03,0.043,-0.426,-0.004,-0.036,0.142,-0.928,0.735
2024-09-23 14:36:52.161,172896.627,0.085,0.802,-0.591,-0.045,-0.044,0.04,-0.31,0.105,-0.044,0.142,-0.931,0.735
2024-09-23 14:36:52.171,172896.637,0.085,0.804,-0.588,-0.034,-0.016,0.05,-0.295,0.213,-0.002,0.144,-0.934,0.736
2024-09-23 14:36:52.181,172896.647,0.087,0.806,-0.585,-0.029,0.054,0.037,-0.316,0.208,0.025,0.147,-0.937,0.737
2024-09-23 14:36:52.191,172896.657,0.088,0.808,-0.583,-0.047,0.079,0.002,-0.3,0.184,-0.013,0.15,-0.94,0.737
2024-09-23 14:36:52.199,172896.667,0.089,0.809,-0.58,-0.012,0.009,-0.02,-0.247,0.204,-0.019,0.152,-0.943,0.738
2024-09-23 14:36:52.210,172896.677,0.09,0.811,-0.578,0.001,-0.049,0.006,-0.193,0.236,-0.023,0.155,-0.945,0.738
2024-09-23 14:36:52.220,172896.687,0.091,0.812,-0.577,-0.018,-0.01,0.023,-0.129,0.235,-0.029,0.157,-0.947,0.738
2024-09-23 14:36:52.233,172896.697,0.092,0.812,-0.576,-0.016,0.024,0.02,-0.113,0.213,-0.041,0.159,-0.948,0.738
2024-09-23 14:36:52.258,172896.707,0.093,0.813,-0.575,-0.006,0.017,0.013,-0.087,0.129,-0.037,0.16,-0.949,0.737
2024-09-23 14:36:52.264,172896.717,0.093,0.813,-0.574,0.006,0.025,0.005,-0.015,0.078,-0.041,0.161,-0.95,0.737
2024-09-23 14:36:52.267,172896.727,0.093,0.813,-0.574,0.021,0.023,0.002,0.09,0.051,-0.058,0.161,-0.95,0.736
2024-09-23 14:36:52.271,172896.737,0.093,0.812,-0.576,0.029,0.039,0.008,0.202,0.018,-0.086,0.16,-0.948,0.734
2024-09-23 14:36:52.281,172896.747,0.092,0.811,-0.578,0.023,0.056,0.016,0.302,-0.028,-0.116,0.158,-0.946,0.732
2024-09-23 14:36:52.290,172896.757,0.091,0.809,-0.581,0.016,0.061,0.028,0.409,-0.088,-0.137,0.155,-0.943,0.729
2024-09-23 14:36:52.300,172896.767,0.089,0.807,-0.584,0.028,0.051,0.031,0.488,-0.13,-0.14,0.151,-0.938,0.725
2024-09-23 14:36:52.311,172896.777,0.087,0.804,-0.589,0.03,0.033,0.031,0.558,-0.157,-0.135,0.147,-0.933,0.722
2024-09-23 14:36:52.321,172896.787,0.085,0.8,-0.594,0.022,0.032,0.033,0.651,-0.176,-0.142,0.142,-0.928,0.718
2024-09-23 14:36:52.330,172896.797,0.083,0.797,-0.599,0.018,0.051,0.036,0.586,0.0,-0.08,0.138,-0.922,0.714
2024-09-23 14:36:52.340,172896.807,0.083,0.794,-0.602,0.014,0.039,0.033,0.331,-0.056,0.012,0.137,-0.917,0.713
2024-09-23 14:36:52.350,172896.817,0.082,0.792,-0.605,-0.016,0.016,0.038,0.342,-0.073,-0.082,0.135,-0.914,0.712
2024-09-23 14:36:52.360,172896.827,0.081,0.79,-0.608,-0.028,-0.012,-0.038,0.31,-0.075,-0.017,0.133,-0.911,0.71
2024-09-23 14:36:52.370,172896.837,0.081,0.788,-0.61,0.004,-0.094,-0.021,0.316,-0.057,0.003,0.132,-0.908,0.71
2024-09-23 14:36:52.380,172896.847,0.081,0.786,-0.613,-0.035,-0.055,-0.002,0.322,-0.054,0.012,0.131,-0.905,0.709
2024-09-23 14:36:52.390,172896.857,0.08,0.784,-0.615,0.007,0.056,0.009,0.283,-0.044,0.049,0.13,-0.902,0.709
2024-09-23 14:36:52.400,172896.867,0.081,0.783,-0.617,0.003,0.029,0.004,0.222,-0.04,0.094,0.13,-0.899,0.71
2024-09-23 14:36:52.410,172896.877,0.082,0.782,-0.619,0.015,0.002,-0.012,0.164,0.009,0.168,0.131,-0.897,0.711
2024-09-23 14:36:52.420,172896.887,0.083,0.781,-0.619,0.013,-0.004,-0.006,0.04,0.036,0.171,0.134,-0.896,0.714
2024-09-23 14:36:52.430,172896.897,0.085,0.781,-0.619,0.004,-0.023,-0.025,0.02,0.066,0.139,0.136,-0.896,0.716
2024-09-23 14:36:52.441,172896.907,0.086,0.78,-0.619,-0.003,-0.013,-0.04,-0.031,0.057,0.136,0.139,-0.895,0.718
2024-09-23 14:36:52.451,172896.917,0.088,0.781,-0.619,-0.017,-0.05,-0.023,-0.018,0.043,0.08,0.141,-0.896,0.72
2024-09-23 14:36:52.460,172896.927,0.088,0.78,-0.619,0.007,-0.036,-0.01,0.045,0.062,-0.051,0.141,-0.895,0.72
2024-09-23 14:36:52.470,172896.937,0.088,0.78,-0.619,0.006,0.003,-0.005,0.0,-0.005,0.059,0.141,-0.895,0.72
2024-09-23 14:36:52.480,172896.947,0.088,0.78,-0.62,-0.035,0.004,0.001,0.106,-0.13,0.036,0.141,-0.895,0.721
2024-09-23 14:36:52.490,172896.957,0.088,0.779,-0.62,-0.055,-0.012,-0.012,0.07,-0.082,0.021,0.14,-0.894,0.721
2024-09-23 14:36:52.500,172896.967,0.087,0.779,-0.621,0.021,-0.026,0.006,0.131,-0.133,0.041,0.139,-0.893,0.721
2024-09-23 14:36:52.510,172896.977,0.087,0.778,-0.622,0.007,0.029,0.019,-0.005,-0.115,0.05,0.139,-0.892,0.722
2024-09-23 14:36:52.519,172896.987,0.087,0.778,-0.622,-0.03,-0.013,0.034,-0.125,-0.056,0.033,0.138,-0.892,0.723
2024-09-23 14:36:52.530,172896.997,0.087,0.78,-0.62,-0.001,-0.079,0.09,-0.349,0.035,0.035,0.139,-0.894,0.724
2024-09-23 14:36:52.540,172897.007,0.087,0.783,-0.616,-0.025,-0.12,0.075,-0.522,0.103,0.005,0.141,-0.899,0.725
2024-09-23 14:36:52.550,172897.017,0.089,0.786,-0.611,-0.075,-0.113,0.032,-0.779,0.128,0.085,0.144,-0.905,0.728
2024-09-23 14:36:52.560,172897.027,0.09,0.791,-0.605,-0.092,-0.122,0.023,-0.729,0.163,0.124,0.148,-0.912,0.731
2024-09-23 14:36:52.571,172897.037,0.093,0.795,-0.599,-0.099,-0.113,-0.027,-0.813,0.42,0.188,0.154,-0.92,0.736
2024-09-23 14:36:52.580,172897.047,0.098,0.801,-0.591,-0.038,0.001,-0.007,-1.082,0.437,0.241,0.164,-0.929,0.742
2024-09-23 14:36:52.590,172897.057,0.102,0.807,-0.581,-0.06,0.095,-0.035,-1.208,0.283,0.211,0.173,-0.94,0.749
2024-09-23 14:36:52.600,172897.067,0.105,0.814,-0.571,-0.092,-0.02,-0.11,-1.129,0.234,0.221,0.181,-0.951,0.756
2024-09-23 14:36:52.610,172897.077,0.108,0.819,-0.563,-0.044,-0.153,-0.107,-0.902,0.243,0.22,0.189,-0.96,0.763
2024-09-23 14:36:52.620,172897.087,0.111,0.823,-0.557,-0.04,0.008,-0.063,-0.596,0.225,0.208,0.197,-0.967,0.769
2024-09-23 14:36:52.630,172897.097,0.114,0.826,-0.552,-0.07,0.156,-0.027,-0.421,0.163,0.147,0.203,-0.972,0.774
2024-09-23 14:36:52.640,172897.107,0.115,0.828,-0.549,-0.071,0.143,0.0,-0.251,0.024,0.128,0.207,-0.975,0.777
2024-09-23 14:36:52.651,172897.117,0.116,0.829,-0.547,-0.046,0.114,0.004,-0.246,-0.03,0.085,0.209,-0.977,0.78
2024-09-23 14:36:52.660,172897.126,0.117,0.829,-0.546,-0.07,0.087,0.029,-0.062,0.043,0.045,0.211,-0.978,0.782
2024-09-23 14:36:52.670,172897.136,0.117,0.83,-0.545,-0.025,0.122,0.055,-0.095,-0.039,-0.026,0.211,-0.979,0.782
2024-09-23 14:36:52.680,172897.146,0.116,0.83,-0.545,-0.019,0.048,0.064,-0.026,-0.07,-0.069,0.21,-0.98,0.782
2024-09-23 14:36:52.690,172897.156,0.115,0.83,-0.545,-0.058,-0.037,0.108,0.095,-0.068,-0.088,0.208,-0.98,0.78
2024-09-23 14:36:52.700,172897.166,0.114,0.829,-0.547,-0.067,0.009,0.09,0.218,-0.065,-0.119,0.205,-0.978,0.778
2024-09-23 14:36:52.710,172897.176,0.112,0.828,-0.549,-0.028,0.065,0.048,0.319,-0.056,-0.14,0.202,-0.976,0.775
2024-09-23 14:36:52.720,172897.186,0.111,0.826,-0.552,0.016,0.073,0.043,0.357,-0.07,-0.115,0.198,-0.973,0.771
2024-09-23 14:36:52.730,172897.196,0.11,0.825,-0.555,0.03,0.045,0.049,0.349,-0.073,-0.088,0.195,-0.969,0.768
2024-09-23 14:36:52.740,172897.206,0.109,0.823,-0.558,0.034,0.006,0.045,0.323,-0.079,-0.077,0.192,-0.966,0.766
2024-09-23 14:36:52.750,172897.216,0.108,0.821,-0.56,0.052,-0.023,0.042,0.28,-0.102,-0.062,0.19,-0.964,0.763
2024-09-23 14:36:52.760,172897.226,0.106,0.82,-0.563,0.057,-0.04,0.042,0.247,-0.132,-0.039,0.187,-0.961,0.762
2024-09-23 14:36:52.770,172897.236,0.105,0.819,-0.565,0.058,-0.07,0.021,0.2,-0.151,-0.025,0.185,-0.959,0.76
2024-09-23 14:36:52.780,172897.246,0.105,0.818,-0.566,0.073,-0.092,0.004,0.198,-0.128,0.055,0.183,-0.957,0.76
2024-09-23 14:36:52.790,172897.256,0.104,0.816,-0.568,0.101,-0.095,-0.0,0.196,-0.137,0.038,0.182,-0.955,0.76
2024-09-23 14:36:52.800,172897.266,0.104,0.815,-0.57,0.132,-0.093,-0.008,0.187,-0.103,-0.046,0.18,-0.953,0.76
2024-09-23 14:36:52.810,172897.276,0.103,0.814,-0.571,0.159,-0.066,-0.006,0.165,-0.074,-0.088,0.178,-0.952,0.758
2024-09-23 14:36:52.820,172897.286,0.101,0.814,-0.572,0.12,-0.011,-0.023,0.083,-0.08,-0.1,0.175,-0.95,0.756
2024-09-23 14:36:52.829,172897.296,0.1,0.814,-0.573,0.087,0.004,-0.058,0.014,-0.1,-0.093,0.173,-0.95,0.754
2024-09-23 14:36:52.838,172897.306,0.099,0.814,-0.573,0.065,-0.017,-0.067,-0.016,-0.083,-0.058,0.171,-0.95,0.753
2024-09-23 14:36:52.848,172897.316,0.098,0.814,-0.573,0.038,-0.015,-0.057,-0.032,-0.051,-0.043,0.17,-0.951,0.752
2024-09-23 14:36:52.859,172897.326,0.098,0.814,-0.572,0.007,0.017,-0.049,-0.051,-0.043,-0.032,0.169,-0.951,0.752
2024-09-23 14:36:52.869,172897.336,0.097,0.814,-0.572,-0.022,0.029,-0.03,-0.041,-0.03,-0.029,0.169,-0.952,0.752
2024-09-23 14:36:52.879,172897.346,0.097,0.814,-0.572,-0.036,0.02,0.001,-0.014,-0.005,-0.016,0.169,-0.952,0.752
2024-09-23 14:36:52.889,172897.356,0.097,0.814,-0.572,-0.039,0.009,0.023,0.043,-0.001,-0.011,0.168,-0.952,0.751
2024-09-23 14:36:52.899,172897.366,0.097,0.814,-0.573,-0.039,0.014,0.036,0.083,0.005,-0.003,0.168,-0.951,0.751
2024-09-23 14:36:52.910,172897.376,0.097,0.813,-0.573,-0.036,0.017,0.042,0.119,-0.001,-0.012,0.168,-0.95,0.751
2024-09-23 14:36:52.919,172897.386,0.097,0.813,-0.575,-0.024,0.016,0.04,0.143,0.005,-0.002,0.168,-0.949,0.75
2024-09-23 14:36:52.929,172897.396,0.097,0.812,-0.576,-0.017,0.022,0.03,0.152,-0.002,0.002,0.167,-0.947,0.75
2024-09-23 14:36:52.939,172897.406,0.097,0.811,-0.577,-0.007,0.02,0.021,0.168,0.015,-0.0,0.167,-0.946,0.75
2024-09-23 14:36:52.950,172897.416,0.098,0.81,-0.578,-0.003,0.012,0.017,0.139,0.03,0.003,0.167,-0.944,0.749
2024-09-23 14:36:52.959,172897.426,0.098,0.809,-0.579,-0.002,0.01,0.009,0.079,0.016,0.013,0.167,-0.943,0.749
2024-09-23 14:36:52.969,172897.436,0.098,0.809,-0.58,-0.003,-0.008,0.001,0.02,-0.003,0.007,0.167,-0.943,0.749
2024-09-23 14:36:52.979,172897.446,0.098,0.809,-0.579,-0.003,-0.038,-0.009,-0.015,-0.003,0.006,0.167,-0.943,0.749
2024-09-23 14:36:52.990,172897.456,0.098,0.809,-0.579,0.003,-0.039,-0.022,-0.009,0.003,0.006,0.167,-0.943,0.749
2024-09-23 14:36:52.999,172897.466,0.098,0.809,-0.579,-0.0,-0.008,-0.02,-0.009,-0.004,-0.004,0.167,-0.943,0.749
2024-09-23 14:36:53.009,172897.476,0.097,0.809,-0.579,-0.001,0.004,-0.005,0.015,-0.007,-0.01,0.167,-0.943,0.749
2024-09-23 14:36:53.018,172897.486,0.097,0.809,-0.579,0.006,0.004,0.004,0.067,-0.01,-0.025,0.166,-0.943,0.748
2024-09-23 14:36:53.029,172897.496,0.097,0.809,-0.58,0.01,0.007,0.006,0.156,-0.006,-0.031,0.166,-0.942,0.748
2024-09-23 14:36:53.039,172897.506,0.097,0.808,-0.582,0.004,0.022,0.016,0.236,-0.014,-0.041,0.165,-0.94,0.747
2024-09-23 14:36:53.049,172897.516,0.096,0.806,-0.584,0.002,0.038,0.024,0.322,-0.037,-0.049,0.163,-0.938,0.745
2024-09-23 14:36:53.059,172897.526,0.095,0.804,-0.587,0.003,0.04,0.024,0.4,-0.042,-0.06,0.161,-0.934,0.743
2024-09-23 14:36:53.069,172897.536,0.095,0.801,-0.591,0.006,0.035,0.026,0.48,-0.057,-0.072,0.159,-0.93,0.741
2024-09-23 14:36:53.080,172897.546,0.094,0.798,-0.595,0.006,0.044,0.027,0.55,-0.057,-0.085,0.156,-0.925,0.738
2024-09-23 14:36:53.089,172897.556,0.093,0.795,-0.599,0.002,0.046,0.033,0.495,0.054,-0.028,0.154,-0.92,0.736
2024-09-23 14:36:53.098,172897.566,0.093,0.793,-0.602,0.005,0.04,0.036,0.377,-0.013,-0.058,0.153,-0.916,0.734
2024-09-23 14:36:53.108,172897.576,0.093,0.791,-0.605,-0.003,0.031,0.036,0.388,-0.01,-0.048,0.152,-0.912,0.732
2024-09-23 14:36:53.118,172897.586,0.092,0.789,-0.608,-0.027,0.008,-0.024,0.322,-0.053,-0.014,0.151,-0.909,0.731
2024-09-23 14:36:53.128,172897.596,0.092,0.787,-0.61,-0.01,-0.042,-0.03,0.278,-0.055,-0.018,0.149,-0.906,0.73
2024-09-23 14:36:53.139,172897.606,0.091,0.786,-0.612,-0.005,-0.057,-0.015,0.267,-0.053,-0.008,0.148,-0.904,0.729
2024-09-23 14:36:53.149,172897.616,0.091,0.784,-0.614,0.005,0.009,-0.003,0.215,-0.056,0.017,0.147,-0.901,0.729
2024-09-23 14:36:53.159,172897.626,0.091,0.783,-0.615,0.01,0.026,-0.021,0.08,-0.057,0.034,0.147,-0.899,0.729
2024-09-23 14:36:53.168,172897.636,0.09,0.783,-0.616,0.02,-0.008,-0.047,0.011,-0.158,0.039,0.146,-0.899,0.729
2024-09-23 14:36:53.179,172897.646,0.09,0.783,-0.616,0.012,-0.023,-0.066,-0.019,-0.106,0.07,0.145,-0.899,0.73
2024-09-23 14:36:53.188,172897.656,0.09,0.783,-0.615,0.005,-0.006,-0.061,-0.124,-0.176,0.079,0.145,-0.9,0.732
2024-09-23 14:36:53.199,172897.666,0.089,0.784,-0.614,0.005,-0.027,-0.05,-0.191,-0.165,0.078,0.144,-0.901,0.733
2024-09-23 14:36:53.209,172897.676,0.089,0.785,-0.613,-0.011,-0.086,-0.015,-0.286,-0.143,0.068,0.144,-0.903,0.735
2024-09-23 14:36:53.219,172897.686,0.089,0.787,-0.61,-0.009,-0.103,0.032,-0.358,-0.105,0.06,0.144,-0.906,0.737
2024-09-23 14:36:53.229,172897.696,0.089,0.789,-0.608,-0.023,-0.081,0.048,-0.309,-0.059,0.061,0.145,-0.909,0.738
2024-09-23 14:36:53.239,172897.706,0.089,0.791,-0.605,-0.026,-0.018,0.043,-0.353,0.018,0.056,0.146,-0.913,0.74
2024-09-23 14:36:53.249,172897.716,0.089,0.793,-0.602,-0.016,-0.003,0.029,-0.345,-0.005,0.029,0.147,-0.916,0.742
2024-09-23 14:36:53.259,172897.725,0.09,0.795,-0.6,-0.007,-0.005,0.028,-0.253,0.043,0.018,0.148,-0.919,0.743
2024-09-23 14:36:53.269,172897.735,0.09,0.796,-0.598,-0.009,-0.002,0.043,-0.184,0.065,0.004,0.149,-0.921,0.743
2024-09-23 14:36:53.279,172897.745,0.091,0.797,-0.597,-0.015,0.008,0.042,-0.187,0.152,0.003,0.151,-0.923,0.744
2024-09-23 14:36:53.289,172897.755,0.092,0.799,-0.595,-0.016,0.016,0.044,-0.271,0.203,0.006,0.153,-0.925,0.745
2024-09-23 14:36:53.299,172897.765,0.093,0.8,-0.592,-0.022,0.005,0.048,-0.347,0.201,0.006,0.156,-0.928,0.745
2024-09-23 14:36:53.309,172897.775,0.094,0.803,-0.589,-0.037,-0.031,0.021,-0.4,0.185,0.021,0.159,-0.932,0.747
2024-09-23 14:36:53.319,172897.785,0.096,0.805,-0.586,-0.029,-0.059,-0.017,-0.409,0.165,0.02,0.162,-0.936,0.748
2024-09-23 14:36:53.329,172897.795,0.097,0.807,-0.582,-0.018,-0.04,-0.035,-0.348,0.142,0.021,0.164,-0.939,0.749
2024-09-23 14:36:53.339,172897.805,0.097,0.809,-0.58,-0.011,-0.007,-0.03,-0.245,0.126,0.008,0.167,-0.942,0.751
2024-09-23 14:36:53.349,172897.815,0.098,0.81,-0.578,0.0,0.033,-0.031,-0.122,0.084,-0.011,0.168,-0.944,0.751
2024-09-23 14:36:53.359,172897.825,0.098,0.81,-0.578,0.015,0.059,-0.018,0.012,0.072,-0.035,0.169,-0.945,0.751
2024-09-23 14:36:53.369,172897.835,0.098,0.81,-0.578,0.021,0.052,0.021,0.135,0.066,-0.053,0.169,-0.944,0.75
2024-09-23 14:36:53.379,172897.845,0.098,0.809,-0.58,0.02,0.049,0.045,0.236,0.037,-0.068,0.168,-0.942,0.748
2024-09-23 14:36:53.389,172897.855,0.098,0.807,-0.582,0.017,0.048,0.047,0.331,-0.011,-0.077,0.166,-0.94,0.746
2024-09-23 14:36:53.399,172897.865,0.097,0.805,-0.585,0.014,0.048,0.039,0.418,-0.056,-0.084,0.164,-0.936,0.744
2024-09-23 14:36:53.409,172897.875,0.096,0.803,-0.589,0.022,0.049,0.021,0.492,-0.08,-0.097,0.161,-0.932,0.741
2024-09-23 14:36:53.418,172897.885,0.094,0.8,-0.593,0.022,0.049,0.015,0.555,-0.106,-0.105,0.158,-0.927,0.738
2024-09-23 14:36:53.429,172897.895,0.093,0.796,-0.598,0.012,0.055,0.025,0.627,-0.143,-0.109,0.154,-0.921,0.735
2024-09-23 14:36:53.439,172897.905,0.091,0.792,-0.603,0.015,0.042,0.029,0.685,-0.08,-0.103,0.15,-0.915,0.732
2024-09-23 14:36:53.448,172897.915,0.091,0.789,-0.608,0.018,0.028,0.03,0.464,-0.004,0.011,0.148,-0.909,0.73
2024-09-23 14:36:53.458,172897.925,0.09,0.786,-0.611,0.007,0.033,0.047,0.438,-0.019,-0.131,0.146,-0.905,0.727
2024-09-23 14:36:53.469,172897.935,0.089,0.784,-0.614,-0.036,0.023,0.018,0.311,-0.029,-0.031,0.145,-0.901,0.725
2024-09-23 14:36:53.478,172897.945,0.089,0.782,-0.616,-0.048,-0.057,-0.079,0.208,-0.076,-0.037,0.143,-0.898,0.724
2024-09-23 14:36:53.488,172897.955,0.088,0.781,-0.618,-0.025,-0.101,-0.042,0.215,-0.034,-0.036,0.142,-0.897,0.723
2024-09-23 14:36:53.498,172897.965,0.088,0.78,-0.62,-0.002,-0.036,-0.01,0.22,-0.001,-0.006,0.141,-0.894,0.722
2024-09-23 14:36:53.508,172897.975,0.088,0.779,-0.621,0.004,0.023,-0.003,0.132,-0.033,0.014,0.14,-0.893,0.722
2024-09-23 14:36:53.518,172897.985,0.088,0.778,-0.622,-0.006,0.016,-0.019,0.15,0.03,0.051,0.14,-0.891,0.722
2024-09-23 14:36:53.528,172897.995,0.088,0.777,-0.623,-0.008,-0.002,-0.002,0.085,0.032,0.051,0.141,-0.89,0.723
2024-09-23 14:36:53.538,172898.005,0.089,0.777,-0.624,-0.0,0.005,-0.033,0.031,0.042,0.081,0.142,-0.889,0.723
2024-09-23 14:36:53.548,172898.015,0.09,0.777,-0.623,-0.008,0.042,-0.048,-0.084,0.014,0.044,0.143,-0.889,0.725
2024-09-23 14:36:53.558,172898.025,0.09,0.777,-0.623,-0.001,-0.039,-0.019,-0.113,-0.015,0.04,0.144,-0.89,0.725
2024-09-23 14:36:53.568,172898.035,0.09,0.778,-0.622,0.018,-0.027,-0.011,-0.105,-0.016,0.029,0.144,-0.891,0.726
2024-09-23 14:36:53.578,172898.045,0.09,0.778,-0.621,0.009,-0.038,0.014,-0.08,-0.011,0.028,0.145,-0.892,0.727
2024-09-23 14:36:53.588,172898.055,0.09,0.779,-0.621,-0.0,-0.055,0.035,-0.012,-0.058,0.014,0.145,-0.893,0.727
2024-09-23 14:36:53.599,172898.065,0.09,0.779,-0.62,-0.001,-0.04,0.024,-0.117,-0.046,0.021,0.144,-0.894,0.727
2024-09-23 14:36:53.608,172898.075,0.09,0.78,-0.62,0.001,-0.046,0.004,-0.084,-0.054,0.054,0.144,-0.894,0.728
2024-09-23 14:36:53.618,172898.085,0.09,0.78,-0.619,-0.034,-0.033,0.059,-0.161,-0.018,0.03,0.145,-0.895,0.729
2024-09-23 14:36:53.628,172898.095,0.091,0.782,-0.617,-0.03,-0.081,0.074,-0.205,0.019,0.074,0.146,-0.897,0.73
2024-09-23 14:36:53.638,172898.105,0.091,0.783,-0.615,-0.023,-0.022,0.067,-0.337,0.046,0.088,0.147,-0.9,0.732
2024-09-23 14:36:53.648,172898.115,0.093,0.785,-0.612,-0.06,-0.054,0.044,-0.423,0.096,0.11,0.15,-0.903,0.735
2024-09-23 14:36:53.658,172898.125,0.094,0.788,-0.608,-0.062,-0.057,0.013,-0.551,0.181,0.157,0.154,-0.908,0.738
2024-09-23 14:36:53.668,172898.135,0.097,0.792,-0.603,-0.058,-0.041,-0.013,-0.694,0.259,0.17,0.16,-0.914,0.742
2024-09-23 14:36:53.678,172898.145,0.1,0.796,-0.597,-0.063,-0.008,-0.025,-0.799,0.258,0.174,0.166,-0.921,0.747
2024-09-23 14:36:53.688,172898.155,0.103,0.801,-0.59,-0.076,0.042,-0.064,-0.816,0.188,0.186,0.172,-0.928,0.752
2024-09-23 14:36:53.698,172898.165,0.105,0.805,-0.584,-0.065,-0.015,-0.106,-0.694,0.144,0.181,0.178,-0.935,0.757
2024-09-23 14:36:53.708,172898.175,0.107,0.808,-0.579,-0.027,-0.049,-0.093,-0.492,0.059,-0.052,0.182,-0.941,0.761
2024-09-23 14:36:53.719,172898.185,0.106,0.81,-0.576,-0.0,0.061,-0.066,-0.275,0.004,-0.018,0.182,-0.945,0.76
2024-09-23 14:36:53.728,172898.195,0.106,0.812,-0.574,-0.034,0.137,-0.071,-0.128,-0.023,0.025,0.183,-0.947,0.762
2024-09-23 14:36:53.738,172898.205,0.106,0.812,-0.573,-0.132,0.124,-0.027,-0.123,-0.017,-0.047,0.183,-0.948,0.762
2024-09-23 14:36:53.748,172898.215,0.106,0.813,-0.573,-0.011,0.041,0.038,-0.035,-0.001,-0.032,0.183,-0.949,0.761
2024-09-23 14:36:53.758,172898.225,0.105,0.813,-0.573,-0.007,-0.019,0.079,0.029,-0.019,-0.018,0.182,-0.949,0.761
2024-09-23 14:36:53.768,172898.235,0.105,0.813,-0.573,-0.06,0.029,0.123,0.082,-0.025,-0.01,0.181,-0.949,0.76
2024-09-23 14:36:53.778,172898.245,0.105,0.812,-0.574,-0.091,0.017,0.125,0.11,-0.022,-0.027,0.181,-0.948,0.76
2024-09-23 14:36:53.788,172898.255,0.105,0.811,-0.575,-0.056,0.031,0.076,0.11,-0.028,-0.035,0.18,-0.947,0.759
2024-09-23 14:36:53.798,172898.265,0.104,0.811,-0.576,-0.018,0.039,0.053,0.083,-0.051,-0.035,0.179,-0.946,0.758
2024-09-23 14:36:53.808,172898.275,0.103,0.811,-0.576,-0.001,0.01,0.051,0.053,-0.064,-0.045,0.178,-0.945,0.757
2024-09-23 14:36:53.818,172898.285,0.103,0.81,-0.577,0.01,-0.02,0.047,0.04,-0.093,-0.047,0.176,-0.945,0.756
2024-09-23 14:36:53.828,172898.295,0.102,0.81,-0.577,0.026,-0.025,0.029,0.037,-0.138,-0.042,0.174,-0.944,0.755
2024-09-23 14:36:53.837,172898.305,0.1,0.81,-0.578,0.042,-0.042,0.028,0.043,-0.155,-0.028,0.172,-0.944,0.755
2024-09-23 14:36:53.848,172898.315,0.099,0.81,-0.578,0.062,-0.059,0.037,0.074,-0.148,-0.01,0.17,-0.944,0.754
2024-09-23 14:36:53.858,172898.324,0.099,0.809,-0.579,0.079,-0.063,0.031,0.196,-0.128,0.046,0.169,-0.942,0.754
2024-09-23 14:36:53.868,172898.334,0.098,0.808,-0.581,0.096,-0.042,0.015,0.213,-0.109,-0.002,0.167,-0.94,0.754
2024-09-23 14:36:53.878,172898.344,0.098,0.807,-0.583,0.134,-0.005,-0.007,0.206,-0.075,0.019,0.166,-0.938,0.753
2024-09-23 14:36:53.888,172898.354,0.097,0.806,-0.584,0.122,0.026,-0.035,0.159,-0.068,-0.041,0.165,-0.937,0.753
2024-09-23 14:36:53.898,172898.364,0.097,0.805,-0.586,0.111,0.025,-0.064,0.1,-0.023,-0.051,0.163,-0.935,0.752
2024-09-23 14:36:53.908,172898.374,0.096,0.805,-0.586,0.095,0.008,-0.058,0.019,-0.017,-0.039,0.162,-0.935,0.751
2024-09-23 14:36:53.918,172898.384,0.096,0.805,-0.586,0.046,-0.023,-0.037,-0.055,-0.032,-0.032,0.162,-0.935,0.75
2024-09-23 14:36:53.928,172898.394,0.095,0.805,-0.585,0.006,-0.071,-0.027,-0.068,-0.019,-0.028,0.161,-0.936,0.75
2024-09-23 14:36:53.938,172898.404,0.095,0.805,-0.585,-0.012,-0.067,-0.018,-0.048,-0.001,-0.017,0.161,-0.936,0.75
2024-09-23 14:36:53.948,172898.414,0.095,0.806,-0.585,-0.027,-0.01,-0.012,0.001,0.022,-0.011,0.161,-0.937,0.75
2024-09-23 14:36:53.958,172898.424,0.095,0.805,-0.585,-0.037,0.033,-0.001,0.036,0.043,-0.014,0.162,-0.936,0.75
2024-09-23 14:36:53.968,172898.434,0.096,0.805,-0.585,-0.033,0.047,0.017,0.087,0.032,-0.022,0.162,-0.936,0.749
2024-09-23 14:36:53.978,172898.444,0.096,0.804,-0.586,-0.025,0.037,0.036,0.156,0.041,-0.012,0.162,-0.935,0.749
2024-09-23 14:36:53.988,172898.454,0.096,0.803,-0.588,-0.017,0.032,0.035,0.209,0.044,-0.014,0.162,-0.933,0.748
2024-09-23 14:36:53.997,172898.464,0.096,0.802,-0.59,-0.013,0.031,0.022,0.253,0.011,-0.02,0.162,-0.931,0.747
2024-09-23 14:36:54.008,172898.474,0.096,0.8,-0.592,-0.011,0.031,0.019,0.314,-0.027,-0.036,0.16,-0.928,0.746
2024-09-23 14:36:54.018,172898.484,0.095,0.798,-0.595,0.0,0.021,0.015,0.376,-0.036,-0.048,0.159,-0.924,0.745
2024-09-23 14:36:54.028,172898.494,0.095,0.796,-0.598,0.014,0.024,0.002,0.443,-0.049,-0.057,0.157,-0.92,0.743
2024-09-23 14:36:54.038,172898.504,0.094,0.793,-0.602,0.011,0.04,0.007,0.501,-0.055,-0.075,0.154,-0.916,0.74
2024-09-23 14:36:54.048,172898.514,0.093,0.79,-0.606,0.013,0.036,0.018,0.505,0.024,-0.064,0.152,-0.911,0.738
2024-09-23 14:36:54.058,172898.524,0.092,0.788,-0.609,0.017,0.033,0.025,0.36,-0.008,-0.061,0.151,-0.907,0.736
2024-09-23 14:36:54.067,172898.534,0.092,0.786,-0.612,0.01,0.029,0.036,0.339,-0.01,-0.058,0.149,-0.904,0.734
2024-09-23 14:36:54.077,172898.544,0.091,0.784,-0.614,-0.021,0.013,-0.008,0.283,-0.032,-0.021,0.148,-0.901,0.733
2024-09-23 14:36:54.087,172898.554,0.091,0.783,-0.616,-0.013,-0.024,-0.049,0.204,-0.063,-0.003,0.147,-0.899,0.732
2024-09-23 14:36:54.097,172898.564,0.091,0.782,-0.617,-0.007,-0.052,-0.025,0.185,-0.07,0.002,0.146,-0.897,0.731
2024-09-23 14:36:54.108,172898.574,0.09,0.78,-0.619,0.002,-0.033,-0.017,0.174,-0.06,0.01,0.145,-0.895,0.731
2024-09-23 14:36:54.117,172898.584,0.09,0.78,-0.62,0.012,-0.0,-0.024,0.107,-0.036,0.016,0.144,-0.894,0.731
2024-09-23 14:36:54.127,172898.594,0.089,0.779,-0.621,0.006,0.013,-0.04,0.132,-0.173,0.02,0.143,-0.893,0.731
2024-09-23 14:36:54.138,172898.604,0.089,0.778,-0.622,-0.012,0.008,-0.04,0.11,-0.041,0.052,0.142,-0.891,0.731
2024-09-23 14:36:54.147,172898.614,0.089,0.778,-0.622,-0.005,-0.008,-0.033,-0.029,-0.175,0.041,0.142,-0.891,0.732
2024-09-23 14:36:54.157,172898.624,0.088,0.778,-0.622,0.008,-0.009,-0.011,-0.028,-0.13,0.077,0.141,-0.891,0.733
2024-09-23 14:36:54.168,172898.634,0.088,0.778,-0.622,-0.014,-0.057,-0.001,-0.105,-0.104,0.065,0.141,-0.892,0.734
2024-09-23 14:36:54.177,172898.644,0.088,0.779,-0.621,0.005,-0.021,0.01,-0.096,-0.119,0.07,0.141,-0.893,0.736
2024-09-23 14:36:54.188,172898.654,0.088,0.78,-0.62,-0.026,-0.034,0.019,-0.187,-0.042,0.064,0.142,-0.894,0.737
2024-09-23 14:36:54.197,172898.664,0.089,0.781,-0.618,-0.02,-0.061,0.035,-0.178,-0.05,0.063,0.142,-0.896,0.738
2024-09-23 14:36:54.207,172898.674,0.089,0.782,-0.617,-0.01,-0.01,0.046,-0.27,0.043,0.054,0.144,-0.898,0.74
2024-09-23 14:36:54.217,172898.684,0.09,0.784,-0.614,-0.02,-0.05,0.033,-0.353,0.026,0.045,0.145,-0.901,0.741
2024-09-23 14:36:54.228,172898.694,0.09,0.786,-0.611,-0.008,-0.028,0.052,-0.349,0.071,0.06,0.147,-0.904,0.743
2024-09-23 14:36:54.238,172898.704,0.092,0.788,-0.609,-0.023,-0.059,0.042,-0.371,0.129,0.04,0.149,-0.908,0.745
2024-09-23 14:36:54.246,172898.714,0.093,0.79,-0.606,-0.01,-0.037,0.027,-0.416,0.144,0.041,0.152,-0.911,0.746
2024-09-23 14:36:54.256,172898.724,0.094,0.793,-0.602,-0.029,0.015,0.019,-0.46,0.17,0.02,0.155,-0.916,0.748
2024-09-23 14:36:54.266,172898.734,0.095,0.796,-0.598,-0.031,-0.016,-0.004,-0.423,0.089,0.003,0.157,-0.92,0.749
2024-09-23 14:36:54.277,172898.744,0.095,0.798,-0.595,-0.022,-0.012,-0.038,-0.345,0.063,0.011,0.159,-0.924,0.75
2024-09-23 14:36:54.287,172898.754,0.096,0.8,-0.593,-0.013,-0.026,-0.051,-0.266,0.073,0.007,0.16,-0.927,0.751
2024-09-23 14:36:54.297,172898.764,0.096,0.801,-0.591,0.016,0.003,-0.023,-0.163,0.054,0.012,0.161,-0.929,0.752
2024-09-23 14:36:54.307,172898.774,0.096,0.802,-0.59,0.009,0.052,0.008,-0.061,0.063,0.003,0.162,-0.93,0.752
2024-09-23 14:36:54.317,172898.784,0.097,0.802,-0.59,0.006,0.058,0.031,0.01,0.072,-0.007,0.163,-0.93,0.752
2024-09-23 14:36:54.327,172898.794,0.097,0.802,-0.59,0.018,0.056,0.036,0.064,0.078,-0.019,0.163,-0.93,0.752
2024-09-23 14:36:54.337,172898.804,0.097,0.801,-0.59,0.011,0.047,0.038,0.07,0.076,-0.032,0.164,-0.929,0.751
2024-09-23 14:36:54.347,172898.814,0.098,0.801,-0.591,0.003,0.016,0.026,0.071,0.069,-0.044,0.164,-0.929,0.751
2024-09-23 14:36:54.358,172898.824,0.098,0.8,-0.591,0.002,0.001,0.017,0.092,0.062,-0.054,0.163,-0.928,0.749
2024-09-23 14:36:54.367,172898.834,0.097,0.8,-0.592,-0.003,0.004,0.008,0.134,0.032,-0.063,0.163,-0.927,0.748
2024-09-23 14:36:54.377,172898.844,0.097,0.799,-0.594,-0.003,0.004,0.005,0.197,-0.007,-0.073,0.162,-0.925,0.747
2024-09-23 14:36:54.387,172898.854,0.096,0.798,-0.596,0.002,0.014,-0.002,0.285,-0.058,-0.085,0.16,-0.923,0.745
2024-09-23 14:36:54.397,172898.864,0.095,0.796,-0.598,0.01,0.031,-0.004,0.408,-0.123,-0.093,0.157,-0.92,0.743
2024-09-23 14:36:54.407,172898.874,0.093,0.793,-0.602,0.018,0.047,0.007,0.571,-0.164,-0.097,0.154,-0.916,0.74
2024-09-23 14:36:54.417,172898.884,0.092,0.789,-0.607,0.025,0.062,0.022,0.69,-0.188,-0.104,0.15,-0.91,0.737
2024-09-23 14:36:54.427,172898.894,0.091,0.785,-0.612,0.028,0.061,0.038,0.595,-0.032,0.001,0.147,-0.903,0.734
2024-09-23 14:36:54.437,172898.904,0.09,0.782,-0.617,0.014,0.06,0.058,0.511,-0.082,-0.1,0.145,-0.898,0.732
2024-09-23 14:36:54.447,172898.914,0.089,0.779,-0.62,-0.021,0.041,0.053,0.38,-0.098,-0.003,0.142,-0.894,0.73
2024-09-23 14:36:54.457,172898.924,0.088,0.778,-0.623,-0.053,-0.038,-0.069,0.258,-0.125,-0.007,0.141,-0.891,0.73
2024-09-23 14:36:54.467,172898.933,0.087,0.776,-0.625,-0.023,-0.125,-0.041,0.211,-0.084,0.011,0.139,-0.888,0.729
2024-09-23 14:36:54.477,172898.943,0.087,0.775,-0.626,-0.004,-0.049,-0.003,0.186,-0.03,0.016,0.138,-0.886,0.729
2024-09-23 14:36:54.488,172898.953,0.087,0.774,-0.627,0.01,0.027,-0.016,0.007,-0.036,0.008,0.138,-0.885,0.729
2024-09-23 14:36:54.497,172898.963,0.087,0.775,-0.627,0.009,0.004,-0.052,-0.094,-0.057,0.022,0.138,-0.886,0.729
2024-09-23 14:36:54.507,172898.973,0.087,0.775,-0.626,-0.011,0.015,-0.08,-0.186,-0.039,0.015,0.138,-0.887,0.73
2024-09-23 14:36:54.517,172898.983,0.087,0.777,-0.624,-0.005,-0.04,-0.024,-0.176,-0.036,-0.022,0.138,-0.889,0.73
2024-09-23 14:36:54.527,172898.993,0.086,0.778,-0.623,0.02,-0.066,-0.025,-0.203,-0.007,0.006,0.138,-0.891,0.731
2024-09-23 14:36:54.537,172899.003,0.086,0.779,-0.621,0.013,0.004,-0.024,-0.081,-0.031,-0.028,0.137,-0.893,0.731
2024-09-23 14:36:54.547,172899.013,0.086,0.779,-0.621,-0.007,0.003,0.028,-0.106,0.04,-0.018,0.137,-0.894,0.73
2024-09-23 14:36:54.557,172899.023,0.086,0.78,-0.62,-0.024,-0.017,0.035,-0.046,-0.092,0.055,0.138,-0.894,0.731
2024-09-23 14:36:54.567,172899.033,0.086,0.78,-0.62,-0.034,-0.032,0.024,0.004,-0.051,0.053,0.138,-0.895,0.732
2024-09-23 14:36:54.576,172899.043,0.086,0.78,-0.62,-0.03,-0.065,0.062,0.065,-0.01,0.043,0.138,-0.894,0.733
2024-09-23 14:36:54.587,172899.053,0.087,0.779,-0.62,0.015,-0.036,0.079,-0.004,-0.005,0.088,0.139,-0.894,0.734
2024-09-23 14:36:54.596,172899.063,0.087,0.78,-0.62,-0.022,0.028,0.055,-0.165,0.031,0.055,0.14,-0.894,0.735
2024-09-23 14:36:54.607,172899.073,0.088,0.781,-0.618,-0.049,-0.053,0.083,-0.291,0.095,0.102,0.142,-0.897,0.737
2024-09-23 14:36:54.617,172899.083,0.09,0.783,-0.615,-0.047,-0.078,0.035,-0.434,0.111,0.123,0.145,-0.9,0.739
2024-09-23 14:36:54.627,172899.093,0.091,0.786,-0.611,-0.059,-0.057,0.013,-0.536,0.141,0.135,0.148,-0.905,0.742
2024-09-23 14:36:54.636,172899.103,0.094,0.789,-0.607,-0.056,-0.083,-0.009,-0.581,0.194,0.161,0.153,-0.91,0.746
2024-09-23 14:36:54.646,172899.113,0.096,0.793,-0.602,-0.039,-0.061,-0.016,-0.647,0.28,0.144,0.159,-0.916,0.75
2024-09-23 14:36:54.657,172899.123,0.099,0.797,-0.596,-0.036,0.027,-0.029,-0.768,0.224,0.135,0.164,-0.922,0.754
2024-09-23 14:36:54.666,172899.133,0.101,0.801,-0.59,-0.057,0.082,-0.099,-0.63,0.22,-0.029,0.169,-0.93,0.757
2024-09-23 14:36:54.677,172899.143,0.102,0.805,-0.585,-0.062,-0.007,-0.121,-0.556,0.22,0.117,0.173,-0.935,0.76
2024-09-23 14:36:54.687,172899.153,0.103,0.808,-0.58,-0.059,0.002,-0.095,-0.591,0.128,-0.189,0.176,-0.94,0.761
2024-09-23 14:36:54.697,172899.163,0.103,0.811,-0.576,-0.05,0.09,-0.057,-0.382,0.166,0.003,0.177,-0.946,0.761
2024-09-23 14:36:54.707,172899.173,0.104,0.813,-0.573,-0.054,0.031,-0.033,-0.294,0.136,-0.055,0.179,-0.949,0.762
2024-09-23 14:36:54.716,172899.183,0.104,0.814,-0.571,-0.138,-0.004,0.026,-0.117,0.154,-0.098,0.18,-0.951,0.761
2024-09-23 14:36:54.726,172899.193,0.104,0.814,-0.571,-0.067,0.005,0.077,0.004,0.13,-0.101,0.181,-0.952,0.759
2024-09-23 14:36:54.736,172899.203,0.104,0.814,-0.571,-0.098,0.078,0.084,0.114,0.14,-0.11,0.18,-0.951,0.757
2024-09-23 14:36:54.747,172899.213,0.104,0.814,-0.572,-0.108,0.084,0.053,0.131,0.123,-0.142,0.18,-0.95,0.755
2024-09-23 14:36:54.756,172899.223,0.103,0.813,-0.573,-0.079,0.105,0.052,0.104,0.093,-0.142,0.178,-0.949,0.752
2024-09-23 14:36:54.766,172899.233,0.103,0.813,-0.574,-0.05,0.079,0.059,0.082,0.056,-0.121,0.177,-0.949,0.75
2024-09-23 14:36:54.776,172899.243,0.102,0.812,-0.574,-0.035,0.027,0.054,0.064,0.026,-0.094,0.176,-0.948,0.748
2024-09-23 14:36:54.786,172899.253,0.102,0.812,-0.575,-0.015,-0.007,0.052,0.117,0.033,-0.053,0.175,-0.947,0.746
2024-09-23 14:36:54.796,172899.263,0.101,0.811,-0.576,0.007,-0.005,0.069,0.128,-0.0,-0.028,0.174,-0.946,0.745
2024-09-23 14:36:54.807,172899.273,0.101,0.811,-0.577,0.027,-0.021,0.077,0.112,-0.013,-0.04,0.174,-0.945,0.744
2024-09-23 14:36:54.816,172899.283,0.101,0.81,-0.578,0.049,-0.047,0.075,0.142,-0.028,-0.031,0.173,-0.944,0.743
2024-09-23 14:36:54.826,172899.293,0.1,0.809,-0.579,0.06,-0.041,0.069,0.14,-0.068,-0.051,0.171,-0.943,0.742
2024-09-23 14:36:54.836,172899.303,0.099,0.808,-0.58,0.066,-0.049,0.052,0.137,-0.077,-0.044,0.169,-0.941,0.741
2024-09-23 14:36:54.846,172899.313,0.099,0.808,-0.581,0.077,-0.073,0.034,0.198,-0.065,0.018,0.168,-0.94,0.74
2024-09-23 14:36:54.856,172899.323,0.099,0.806,-0.583,0.086,-0.076,0.01,0.208,-0.063,0.017,0.167,-0.938,0.74
2024-09-23 14:36:54.866,172899.333,0.098,0.805,-0.585,0.124,-0.057,-0.037,0.161,-0.073,-0.009,0.166,-0.936,0.739
2024-09-23 14:36:54.876,172899.343,0.098,0.804,-0.586,0.165,-0.021,-0.066,0.126,-0.077,0.04,0.165,-0.935,0.739
2024-09-23 14:36:54.886,172899.353,0.098,0.804,-0.587,0.147,-0.002,-0.063,0.059,-0.08,0.002,0.165,-0.934,0.74
2024-09-23 14:36:54.896,172899.363,0.097,0.804,-0.587,0.15,-0.021,-0.081,-0.01,-0.046,-0.034,0.164,-0.934,0.739
2024-09-23 14:36:54.906,172899.373,0.096,0.804,-0.587,0.135,-0.007,-0.075,-0.084,-0.07,-0.023,0.163,-0.934,0.739
2024-09-23 14:36:54.916,172899.383,0.096,0.805,-0.586,0.054,-0.015,-0.055,-0.104,-0.043,-0.028,0.162,-0.935,0.739
2024-09-23 14:36:54.926,172899.393,0.096,0.805,-0.585,0.014,-0.015,-0.03,-0.131,-0.01,-0.019,0.162,-0.936,0.739
2024-09-23 14:36:54.936,172899.403,0.096,0.806,-0.584,0.007,0.006,-0.014,-0.117,-0.008,-0.019,0.162,-0.938,0.739
2024-09-23 14:36:54.946,172899.413,0.095,0.807,-0.583,-0.023,0.016,0.004,-0.058,-0.01,-0.033,0.162,-0.938,0.739
2024-09-23 14:36:54.956,172899.423,0.095,0.807,-0.583,-0.032,0.02,0.011,0.004,-0.009,-0.038,0.162,-0.939,0.738
2024-09-23 14:36:54.966,172899.433,0.095,0.807,-0.583,-0.033,0.029,0.005,0.056,-0.002,-0.016,0.161,-0.938,0.738
2024-09-23 14:36:54.976,172899.443,0.095,0.806,-0.584,-0.04,0.031,0.007,0.064,-0.001,0.001,0.161,-0.938,0.738
2024-09-23 14:36:54.986,172899.453,0.095,0.806,-0.585,-0.035,0.042,0.011,0.091,0.014,0.019,0.161,-0.937,0.738
2024-09-23 14:36:54.996,172899.463,0.096,0.805,-0.585,-0.029,0.05,0.011,0.099,0.038,0.017,0.162,-0.936,0.738
2024-09-23 14:36:55.006,172899.473,0.096,0.805,-0.586,-0.022,0.039,0.005,0.083,0.06,0.012,0.162,-0.935,0.738
2024-09-23 14:36:55.015,172899.483,0.096,0.804,-0.587,-0.016,0.028,0.005,0.072,0.06,0.008,0.163,-0.934,0.738
2024-09-23 14:36:55.025,172899.493,0.097,0.804,-0.587,-0.016,-0.009,0.013,0.057,0.063,0.004,0.163,-0.934,0.738
2024-09-23 14:36:55.035,172899.503,0.097,0.803,-0.587,-0.008,-0.046,0.022,0.071,0.032,-0.013,0.164,-0.933,0.738
2024-09-23 14:36:55.045,172899.513,0.097,0.803,-0.588,-0.004,-0.05,0.025,0.134,-0.003,-0.02,0.163,-0.932,0.737
2024-09-23 14:36:55.055,172899.523,0.097,0.802,-0.59,-0.001,-0.032,0.014,0.217,-0.045,-0.029,0.162,-0.93,0.736
2024-09-23 14:36:55.065,172899.532,0.096,0.8,-0.592,0.004,0.003,0.005,0.302,-0.08,-0.037,0.161,-0.928,0.735
2024-09-23 14:36:55.076,172899.542,0.095,0.799,-0.594,0.01,0.036,0.007,0.371,-0.101,-0.031,0.158,-0.925,0.733
2024-09-23 14:36:55.086,172899.552,0.094,0.796,-0.598,0.012,0.053,0.025,0.45,-0.102,-0.045,0.156,-0.921,0.731
2024-09-23 14:36:55.096,172899.562,0.093,0.793,-0.601,0.013,0.058,0.048,0.517,-0.092,-0.055,0.153,-0.916,0.729
2024-09-23 14:36:55.106,172899.572,0.092,0.79,-0.606,0.008,0.043,0.051,0.563,-0.014,-0.036,0.151,-0.911,0.727
2024-09-23 14:36:55.116,172899.582,0.092,0.787,-0.609,0.002,0.034,0.049,0.36,0.017,0.021,0.15,-0.907,0.726
2024-09-23 14:36:55.126,172899.592,0.092,0.785,-0.612,-0.001,0.034,0.05,0.35,-0.025,-0.083,0.149,-0.903,0.725
2024-09-23 14:36:55.136,172899.602,0.092,0.783,-0.615,-0.02,0.022,-0.005,0.323,-0.008,-0.003,0.148,-0.9,0.723
2024-09-23 14:36:55.146,172899.612,0.091,0.782,-0.617,-0.027,-0.023,-0.083,0.256,-0.058,-0.004,0.147,-0.897,0.723
2024-09-23 14:36:55.155,172899.622,0.091,0.78,-0.619,-0.015,-0.049,-0.056,0.238,-0.052,-0.012,0.146,-0.895,0.722
2024-09-23 14:36:55.166,172899.632,0.09,0.779,-0.621,0.003,-0.019,-0.025,0.243,-0.065,0.004,0.145,-0.893,0.721
2024-09-23 14:36:55.175,172899.642,0.09,0.777,-0.623,0.009,-0.0,-0.012,0.23,-0.065,0.011,0.144,-0.89,0.721
2024-09-23 14:36:55.186,172899.652,0.09,0.776,-0.625,0.007,-0.019,-0.012,0.222,-0.104,0.016,0.143,-0.888,0.72
2024-09-23 14:36:55.196,172899.662,0.089,0.775,-0.626,0.006,-0.007,-0.017,0.152,-0.067,0.051,0.142,-0.886,0.721
2024-09-23 14:36:55.206,172899.672,0.089,0.774,-0.627,-0.003,0.002,-0.019,-0.039,-0.139,0.064,0.141,-0.885,0.721
2024-09-23 14:36:55.216,172899.682,0.089,0.775,-0.626,-0.001,-0.033,-0.011,-0.159,-0.13,0.058,0.141,-0.886,0.723
2024-09-23 14:36:55.226,172899.692,0.088,0.776,-0.625,-0.001,-0.037,-0.019,-0.173,-0.157,0.047,0.14,-0.888,0.724
2024-09-23 14:36:55.236,172899.702,0.088,0.777,-0.624,-0.007,-0.034,-0.02,-0.141,-0.053,0.049,0.14,-0.889,0.725
2024-09-23 14:36:55.246,172899.712,0.088,0.778,-0.622,-0.017,-0.028,-0.033,-0.235,-0.019,0.026,0.141,-0.891,0.726
2024-09-23 14:36:55.256,172899.722,0.088,0.779,-0.62,-0.007,0.021,-0.009,-0.283,-0.047,0.062,0.141,-0.894,0.727
2024-09-23 14:36:55.265,172899.732,0.088,0.781,-0.618,-0.019,-0.04,-0.001,-0.344,0.02,0.048,0.142,-0.896,0.729
2024-09-23 14:36:55.275,172899.742,0.089,0.783,-0.615,-0.007,-0.091,0.058,-0.372,0.036,0.051,0.143,-0.9,0.73
2024-09-23 14:36:55.285,172899.752,0.09,0.786,-0.612,0.002,-0.065,0.085,-0.442,0.044,0.053,0.145,-0.904,0.732
2024-09-23 14:36:55.295,172899.762,0.09,0.788,-0.609,-0.016,-0.082,0.074,-0.378,0.018,0.04,0.147,-0.908,0.734
2024-09-23 14:36:55.306,172899.772,0.091,0.79,-0.606,-0.018,-0.07,0.032,-0.363,0.124,0.065,0.149,-0.911,0.735
2024-09-23 14:36:55.315,172899.782,0.092,0.792,-0.603,-0.018,0.009,0.002,-0.409,0.133,0.032,0.152,-0.915,0.737
2024-09-23 14:36:55.325,172899.792,0.093,0.795,-0.6,-0.021,0.082,-0.011,-0.4,0.111,0.007,0.154,-0.919,0.738
2024-09-23 14:36:55.335,172899.802,0.094,0.797,-0.596,-0.037,0.035,-0.038,-0.341,0.123,-0.004,0.156,-0.923,0.739
2024-09-23 14:36:55.345,172899.812,0.094,0.799,-0.594,-0.019,-0.019,-0.037,-0.278,0.124,-0.017,0.158,-0.926,0.74
2024-09-23 14:36:55.355,172899.822,0.095,0.801,-0.592,-0.006,0.005,-0.012,-0.223,0.119,-0.005,0.159,-0.928,0.74
2024-09-23 14:36:55.365,172899.832,0.096,0.802,-0.59,0.001,0.011,0.018,-0.176,0.124,-0.003,0.161,-0.93,0.741
2024-09-23 14:36:55.375,172899.842,0.096,0.803,-0.589,0.016,0.001,0.037,-0.146,0.141,-0.003,0.162,-0.932,0.741
2024-09-23 14:36:55.386,172899.852,0.097,0.803,-0.587,0.016,0.005,0.032,-0.115,0.119,-0.006,0.164,-0.933,0.742
2024-09-23 14:36:55.395,172899.862,0.098,0.804,-0.587,0.003,0.004,0.026,-0.065,0.099,-0.028,0.165,-0.934,0.741
2024-09-23 14:36:55.406,172899.872,0.098,0.804,-0.586,-0.004,-0.011,0.016,-0.008,0.09,-0.036,0.165,-0.934,0.741
2024-09-23 14:36:55.415,172899.882,0.098,0.804,-0.586,-0.006,0.002,-0.017,0.046,0.045,-0.036,0.166,-0.934,0.74
2024-09-23 14:36:55.425,172899.892,0.098,0.804,-0.587,-0.01,0.045,-0.033,0.128,0.018,-0.045,0.165,-0.933,0.739
2024-09-23 14:36:55.436,172899.902,0.097,0.803,-0.588,0.001,0.068,-0.014,0.211,-0.017,-0.056,0.164,-0.932,0.738
2024-09-23 14:36:55.446,172899.912,0.097,0.801,-0.59,0.016,0.061,0.015,0.293,-0.057,-0.07,0.162,-0.929,0.736
2024-09-23 14:36:55.455,172899.922,0.096,0.799,-0.593,0.026,0.034,0.027,0.363,-0.072,-0.075,0.16,-0.926,0.734
2024-09-23 14:36:55.465,172899.932,0.095,0.797,-0.596,0.023,0.022,0.043,0.405,-0.094,-0.078,0.158,-0.923,0.732
2024-09-23 14:36:55.475,172899.942,0.094,0.795,-0.6,0.019,0.031,0.056,0.477,-0.123,-0.08,0.155,-0.919,0.73
2024-09-23 14:36:55.485,172899.952,0.092,0.792,-0.604,0.014,0.022,0.053,0.557,-0.146,-0.09,0.151,-0.914,0.727
2024-09-23 14:36:55.495,172899.962,0.091,0.788,-0.609,0.007,0.013,0.042,0.629,-0.035,-0.048,0.148,-0.908,0.725
2024-09-23 14:36:55.505,172899.972,0.091,0.785,-0.612,-0.002,0.023,0.027,0.302,-0.061,-0.012,0.147,-0.903,0.723
2024-09-23 14:36:55.516,172899.982,0.09,0.783,-0.615,-0.011,0.03,0.025,0.359,-0.05,-0.11,0.145,-0.9,0.721
2024-09-23 14:36:55.525,172899.992,0.089,0.782,-0.617,-0.047,0.013,-0.031,0.264,-0.059,-0.003,0.143,-0.897,0.72
2024-09-23 14:36:55.535,172900.002,0.088,0.78,-0.619,-0.062,-0.076,-0.113,0.184,-0.081,-0.034,0.141,-0.895,0.719
2024-09-23 14:36:55.545,172900.012,0.088,0.779,-0.621,-0.033,-0.061,-0.036,0.193,-0.07,-0.007,0.14,-0.893,0.718
2024-09-23 14:36:55.555,172900.022,0.087,0.778,-0.622,-0.003,-0.008,0.002,0.19,-0.052,0.009,0.139,-0.891,0.718
2024-09-23 14:36:55.565,172900.032,0.087,0.777,-0.624,0.016,0.007,-0.006,0.143,-0.053,0.001,0.138,-0.89,0.718
2024-09-23 14:36:55.575,172900.042,0.087,0.776,-0.625,0.021,0.021,-0.008,0.063,-0.054,0.0,0.138,-0.889,0.717
2024-09-23 14:36:55.585,172900.052,0.086,0.776,-0.625,0.017,0.011,-0.004,-0.034,-0.039,0.003,0.137,-0.888,0.717
2024-09-23 14:36:55.595,172900.062,0.086,0.777,-0.624,0.017,-0.0,-0.012,-0.139,-0.031,0.003,0.137,-0.889,0.718
2024-09-23 14:36:55.606,172900.072,0.086,0.778,-0.623,0.011,-0.005,-0.038,-0.148,-0.1,0.004,0.137,-0.891,0.718
2024-09-23 14:36:55.615,172900.082,0.086,0.778,-0.622,-0.0,-0.015,-0.045,-0.076,-0.038,0.04,0.137,-0.892,0.719
2024-09-23 14:36:55.625,172900.092,0.086,0.779,-0.621,-0.0,-0.025,-0.02,-0.099,-0.021,0.032,0.137,-0.893,0.719
2024-09-23 14:36:55.635,172900.102,0.085,0.779,-0.621,0.008,-0.036,0.004,-0.055,-0.085,0.031,0.137,-0.893,0.72
2024-09-23 14:36:55.645,172900.112,0.085,0.78,-0.62,-0.001,-0.053,0.008,-0.077,-0.052,0.045,0.137,-0.894,0.721
2024-09-23 14:36:55.655,172900.122,0.085,0.78,-0.62,-0.011,-0.052,0.033,-0.052,-0.08,-0.011,0.136,-0.894,0.721
2024-09-23 14:36:55.665,172900.131,0.085,0.78,-0.62,-0.002,-0.041,0.047,0.059,-0.039,0.004,0.136,-0.894,0.721
2024-09-23 14:36:55.675,172900.141,0.085,0.78,-0.621,-0.013,0.019,0.006,0.007,-0.034,-0.015,0.135,-0.894,0.721
2024-09-23 14:36:55.685,172900.151,0.084,0.78,-0.62,-0.028,0.041,0.066,-0.143,-0.003,-0.011,0.135,-0.894,0.721
2024-09-23 14:36:55.695,172900.161,0.084,0.781,-0.619,-0.02,-0.03,0.08,-0.324,0.031,0.024,0.136,-0.897,0.721
2024-09-23 14:36:55.705,172900.171,0.085,0.784,-0.615,-0.033,-0.056,0.051,-0.556,0.07,0.023,0.137,-0.901,0.723
2024-09-23 14:36:55.715,172900.181,0.086,0.788,-0.61,-0.064,-0.106,0.004,-0.727,0.138,0.022,0.14,-0.907,0.725
2024-09-23 14:36:55.725,172900.191,0.087,0.792,-0.604,-0.068,-0.126,-0.022,-0.853,0.232,0.039,0.143,-0.915,0.727
2024-09-23 14:36:55.735,172900.201,0.089,0.798,-0.596,-0.046,-0.087,-0.046,-1.1,0.332,0.059,0.149,-0.924,0.73
2024-09-23 14:36:55.745,172900.211,0.092,0.805,-0.586,-0.026,-0.032,-0.074,-1.369,0.402,0.012,0.155,-0.936,0.734
2024-09-23 14:36:55.754,172900.221,0.094,0.814,-0.573,-0.024,-0.001,-0.107,-1.604,0.418,0.006,0.163,-0.951,0.738
2024-09-23 14:36:55.765,172900.231,0.096,0.824,-0.559,-0.04,-0.062,-0.134,-1.751,0.423,-0.015,0.171,-0.968,0.743
2024-09-23 14:36:55.775,172900.241,0.099,0.833,-0.544,-0.03,-0.134,-0.112,-1.812,0.456,-0.025,0.179,-0.985,0.748
2024-09-23 14:36:55.785,172900.251,0.101,0.843,-0.528,-0.0,-0.096,-0.073,-1.791,0.482,-0.027,0.189,-1.003,0.753
2024-09-23 14:36:55.794,172900.261,0.103,0.852,-0.513,0.017,-0.029,-0.059,-1.791,0.492,-0.024,0.199,-1.021,0.759
2024-09-23 14:36:55.805,172900.271,0.106,0.861,-0.497,0.028,0.009,-0.044,-1.8,0.487,-0.009,0.21,-1.038,0.766
2024-09-23 14:36:55.815,172900.281,0.108,0.87,-0.481,0.043,0.026,-0.015,-1.772,0.466,-0.002,0.221,-1.056,0.774
2024-09-23 14:36:55.825,172900.291,0.11,0.878,-0.465,0.061,0.032,-0.008,-1.725,0.44,-0.012,0.232,-1.073,0.782
2024-09-23 14:36:55.835,172900.301,0.112,0.886,-0.449,0.074,0.036,-0.022,-1.728,0.433,-0.02,0.244,-1.089,0.79
2024-09-23 14:36:55.845,172900.311,0.114,0.894,-0.433,0.082,0.047,-0.034,-1.789,0.437,-0.035,0.256,-1.107,0.799
2024-09-23 14:36:55.855,172900.321,0.115,0.902,-0.416,0.085,0.092,-0.043,-1.852,0.399,-0.076,0.269,-1.124,0.809
2024-09-23 14:36:55.865,172900.331,0.115,0.91,-0.399,0.086,0.133,-0.05,-1.878,0.334,-0.109,0.282,-1.142,0.818
2024-09-23 14:36:55.875,172900.341,0.116,0.917,-0.381,0.091,0.106,-0.064,-1.917,0.284,-0.081,0.295,-1.161,0.829
2024-09-23 14:36:55.884,172900.351,0.116,0.924,-0.364,0.104,0.065,-0.073,-1.835,0.234,-0.047,0.309,-1.179,0.842
2024-09-23 14:36:55.895,172900.361,0.116,0.93,-0.347,0.112,0.062,-0.064,-1.628,0.151,-0.061,0.323,-1.196,0.855
2024-09-23 14:36:55.905,172900.371,0.116,0.936,-0.333,0.116,0.049,-0.054,-1.404,0.087,-0.066,0.336,-1.21,0.867
2024-09-23 14:36:55.915,172900.381,0.116,0.94,-0.321,0.118,0.045,-0.039,-1.106,0.078,-0.055,0.346,-1.222,0.877
2024-09-23 14:36:55.925,172900.391,0.116,0.943,-0.312,0.111,0.093,-0.001,-0.828,0.05,-0.005,0.355,-1.232,0.886
2024-09-23 14:36:55.934,172900.401,0.116,0.945,-0.306,0.102,0.102,0.037,-0.369,0.076,0.107,0.363,-1.237,0.894
2024-09-23 14:36:55.944,172900.411,0.118,0.945,-0.304,0.086,0.05,0.089,-0.072,0.07,0.209,0.371,-1.238,0.901
2024-09-23 14:36:55.954,172900.421,0.12,0.945,-0.304,0.091,-0.0,0.111,0.136,0.066,0.213,0.377,-1.237,0.907
2024-09-23 14:36:55.964,172900.431,0.123,0.944,-0.306,0.123,0.007,0.126,0.245,0.071,0.24,0.381,-1.235,0.911
2024-09-23 14:36:55.974,172900.441,0.125,0.943,-0.309,0.119,0.018,0.142,0.258,0.001,0.238,0.385,-1.231,0.915
2024-09-23 14:36:55.984,172900.451,0.127,0.942,-0.311,0.099,0.029,0.127,0.266,-0.078,0.254,0.388,-1.228,0.919
2024-09-23 14:36:55.993,172900.461,0.129,0.941,-0.314,0.078,0.038,0.123,0.253,-0.174,0.272,0.391,-1.225,0.923
2024-09-23 14:36:56.004,172900.471,0.131,0.94,-0.316,0.072,0.029,0.107,0.253,-0.31,0.291,0.393,-1.221,0.928
2024-09-23 14:36:56.014,172900.481,0.133,0.938,-0.319,0.073,0.021,0.088,0.282,-0.387,0.343,0.395,-1.218,0.933
2024-09-23 14:36:56.025,172900.491,0.135,0.937,-0.323,0.072,0.004,0.058,0.331,-0.446,0.392,0.396,-1.213,0.939
2024-09-23 14:36:56.034,172900.501,0.137,0.935,-0.327,0.066,-0.018,0.036,0.423,-0.485,0.416,0.398,-1.208,0.946
2024-09-23 14:36:56.044,172900.511,0.14,0.933,-0.332,0.054,-0.028,0.036,0.535,-0.478,0.419,0.398,-1.202,0.951
2024-09-23 14:36:56.054,172900.521,0.142,0.93,-0.338,0.049,-0.02,0.052,0.692,-0.492,0.393,0.397,-1.195,0.955
2024-09-23 14:36:56.065,172900.531,0.144,0.927,-0.346,0.042,-0.024,0.07,0.807,-0.462,0.36,0.394,-1.187,0.957
2024-09-23 14:36:56.074,172900.541,0.145,0.924,-0.355,0.034,-0.057,0.081,0.893,-0.451,0.34,0.389,-1.178,0.957
2024-09-23 14:36:56.084,172900.551,0.147,0.92,-0.364,0.022,-0.091,0.086,0.961,-0.451,0.298,0.383,-1.168,0.955
2024-09-23 14:36:56.094,172900.561,0.148,0.916,-0.373,0.008,-0.11,0.089,0.933,-0.437,0.252,0.377,-1.158,0.953
2024-09-23 14:36:56.104,172900.571,0.148,0.912,-0.382,-0.01,-0.128,0.078,0.859,-0.448,0.224,0.37,-1.149,0.95
2024-09-23 14:36:56.114,172900.581,0.148,0.909,-0.39,-0.027,-0.128,0.063,0.838,-0.446,0.188,0.363,-1.14,0.948
2024-09-23 14:36:56.124,172900.591,0.148,0.905,-0.398,-0.045,-0.117,0.035,0.756,-0.436,0.151,0.356,-1.132,0.945
2024-09-23 14:36:56.134,172900.601,0.147,0.902,-0.405,-0.06,-0.114,0.002,0.617,-0.454,0.105,0.349,-1.125,0.942
2024-09-23 14:36:56.144,172900.611,0.146,0.9,-0.411,-0.064,-0.098,-0.01,0.488,-0.491,0.049,0.342,-1.12,0.939
2024-09-23 14:36:56.154,172900.621,0.144,0.898,-0.416,-0.063,-0.096,0.005,0.416,-0.501,0.018,0.335,-1.115,0.937
2024-09-23 14:36:56.164,172900.631,0.143,0.896,-0.42,-0.064,-0.114,0.014,0.37,-0.459,0.0,0.327,-1.112,0.934
2024-09-23 14:36:56.174,172900.641,0.141,0.895,-0.424,-0.068,-0.111,0.024,0.35,-0.449,-0.027,0.32,-1.108,0.931
2024-09-23 14:36:56.184,172900.651,0.138,0.894,-0.427,-0.084,-0.084,0.026,0.313,-0.402,-0.045,0.313,-1.105,0.928
2024-09-23 14:36:56.194,172900.661,0.136,0.892,-0.43,-0.108,-0.046,0.008,0.295,-0.322,-0.065,0.307,-1.102,0.925
2024-09-23 14:36:56.204,172900.671,0.135,0.891,-0.433,-0.13,-0.002,-0.023,0.187,-0.207,-0.062,0.301,-1.1,0.922
2024-09-23 14:36:56.214,172900.681,0.133,0.891,-0.434,-0.157,0.036,-0.052,-0.031,-0.167,-0.05,0.298,-1.1,0.92
2024-09-23 14:36:56.224,172900.691,0.132,0.892,-0.433,-0.173,0.064,-0.066,-0.306,-0.212,-0.093,0.296,-1.101,0.92
2024-09-23 14:36:56.234,172900.701,0.13,0.894,-0.429,-0.171,0.049,-0.075,-0.623,-0.239,-0.133,0.294,-1.106,0.92
2024-09-23 14:36:56.244,172900.711,0.128,0.897,-0.423,-0.156,-0.009,-0.06,-0.684,-0.282,-0.154,0.293,-1.113,0.922
2024-09-23 14:36:56.254,172900.721,0.125,0.9,-0.418,-0.158,-0.059,-0.033,-0.492,-0.287,-0.131,0.291,-1.119,0.922
2024-09-23 14:36:56.264,172900.73,0.123,0.901,-0.416,-0.151,-0.086,-0.021,-0.068,-0.273,-0.128,0.287,-1.123,0.922
2024-09-23 14:36:56.274,172900.74,0.12,0.9,-0.418,-0.126,-0.047,0.026,0.559,-0.276,-0.164,0.28,-1.121,0.917
2024-09-23 14:36:56.285,172900.75,0.118,0.897,-0.427,-0.115,0.005,0.056,1.232,-0.218,-0.201,0.269,-1.112,0.907
2024-09-23 14:36:56.294,172900.76,0.115,0.891,-0.44,-0.107,0.062,0.061,1.696,-0.156,-0.202,0.256,-1.099,0.894
2024-09-23 14:36:56.304,172900.77,0.112,0.883,-0.456,-0.099,0.128,0.058,1.972,-0.198,-0.248,0.241,-1.081,0.88
2024-09-23 14:36:56.314,172900.78,0.109,0.874,-0.474,-0.107,0.125,0.061,2.025,-0.287,-0.255,0.226,-1.062,0.865
2024-09-23 14:36:56.322,172900.79,0.105,0.864,-0.492,-0.094,0.034,0.047,1.875,-0.324,-0.248,0.211,-1.044,0.852
2024-09-23 14:36:56.333,172900.8,0.102,0.856,-0.507,-0.038,-0.026,0.046,1.63,-0.323,-0.219,0.198,-1.027,0.84
2024-09-23 14:36:56.343,172900.81,0.098,0.848,-0.52,-0.02,-0.012,0.056,1.444,-0.268,-0.176,0.187,-1.013,0.831
2024-09-23 14:36:56.353,172900.82,0.096,0.841,-0.532,-0.043,0.034,0.049,1.31,-0.178,-0.095,0.179,-0.999,0.824
2024-09-23 14:36:56.363,172900.83,0.095,0.835,-0.543,-0.05,0.058,0.027,1.13,-0.121,-0.051,0.173,-0.988,0.818
2024-09-23 14:36:56.373,172900.84,0.094,0.829,-0.551,-0.046,0.055,0.006,0.972,-0.066,-0.014,0.169,-0.977,0.815
2024-09-23 14:36:56.384,172900.85,0.093,0.824,-0.559,-0.039,0.049,0.013,0.832,-0.068,-0.02,0.166,-0.968,0.812
2024-09-23 14:36:56.393,172900.86,0.093,0.82,-0.565,-0.046,0.03,0.006,0.695,-0.057,-0.021,0.163,-0.961,0.809
2024-09-23 14:36:56.404,172900.87,0.092,0.816,-0.57,-0.036,0.041,-0.009,0.586,-0.032,-0.023,0.161,-0.955,0.807
2024-09-23 14:36:56.424,172900.88,0.092,0.813,-0.575,-0.022,0.06,-0.014,0.454,-0.051,-0.006,0.159,-0.95,0.805
2024-09-23 14:36:56.429,172900.89,0.092,0.811,-0.578,-0.014,0.02,-0.041,0.29,-0.03,0.008,0.158,-0.946,0.804
2024-09-23 14:36:56.434,172900.9,0.092,0.81,-0.58,0.002,-0.02,-0.049,0.125,0.023,0.057,0.158,-0.944,0.804
2024-09-23 14:36:56.444,172900.91,0.093,0.81,-0.58,0.012,-0.045,-0.038,-0.081,0.016,0.056,0.159,-0.943,0.805
2024-09-23 14:36:56.454,172900.92,0.093,0.81,-0.579,0.006,-0.077,-0.035,-0.182,0.02,0.009,0.159,-0.945,0.806
2024-09-23 14:36:56.464,172900.93,0.094,0.811,-0.577,-0.001,-0.082,-0.042,-0.23,0.073,0.098,0.161,-0.947,0.807
2024-09-23 14:36:56.474,172900.94,0.094,0.814,-0.574,-0.006,-0.057,-0.058,-0.428,0.014,-0.119,0.162,-0.95,0.808
2024-09-23 14:36:56.484,172900.95,0.093,0.816,-0.57,0.015,-0.017,-0.081,-0.408,0.047,-0.119,0.161,-0.955,0.807
2024-09-23 14:36:56.493,172900.96,0.092,0.818,-0.567,0.04,-0.002,-0.081,-0.299,0.069,-0.065,0.161,-0.958,0.806
2024-09-23 14:36:56.504,172900.97,0.092,0.82,-0.565,-0.013,0.068,-0.038,-0.281,0.052,-0.066,0.162,-0.961,0.806
2024-09-23 14:36:56.514,172900.98,0.092,0.821,-0.563,-0.042,0.049,-0.011,-0.238,0.038,-0.098,0.162,-0.964,0.806
2024-09-23 14:36:56.524,172900.99,0.091,0.822,-0.561,0.022,-0.017,0.027,-0.079,0.023,-0.078,0.161,-0.966,0.804
2024-09-23 14:36:56.534,172901.0,0.091,0.823,-0.561,0.04,-0.046,0.07,0.082,0.031,-0.034,0.16,-0.966,0.804
2024-09-23 14:36:56.544,172901.01,0.091,0.822,-0.563,0.018,-0.002,0.067,0.24,0.065,0.004,0.16,-0.964,0.803
2024-09-23 14:36:56.553,172901.02,0.092,0.82,-0.565,-0.005,0.086,0.048,0.366,0.081,0.023,0.161,-0.961,0.802
2024-09-23 14:36:56.563,172901.03,0.092,0.818,-0.568,-0.022,0.122,0.036,0.466,0.087,0.02,0.161,-0.957,0.801
2024-09-23 14:36:56.573,172901.04,0.093,0.815,-0.573,-0.019,0.112,0.027,0.54,0.085,0.007,0.161,-0.952,0.8
2024-09-23 14:36:56.583,172901.05,0.093,0.811,-0.577,-0.005,0.087,0.029,0.58,0.084,-0.002,0.16,-0.947,0.799
2024-09-23 14:36:56.593,172901.06,0.094,0.808,-0.582,0.001,0.044,0.033,0.604,0.122,-0.025,0.16,-0.941,0.797
2024-09-23 14:36:56.604,172901.07,0.094,0.804,-0.586,0.006,0.01,0.032,0.607,0.157,-0.046,0.159,-0.935,0.795
2024-09-23 14:36:56.613,172901.08,0.095,0.801,-0.591,0.002,0.005,0.024,0.524,0.18,-0.085,0.159,-0.929,0.792
2024-09-23 14:36:56.623,172901.09,0.095,0.799,-0.594,-0.013,0.015,0.011,0.379,0.185,-0.093,0.159,-0.925,0.79
2024-09-23 14:36:56.633,172901.1,0.095,0.797,-0.597,-0.015,0.025,-0.015,0.22,0.159,-0.091,0.159,-0.922,0.787
2024-09-23 14:36:56.643,172901.11,0.096,0.796,-0.598,-0.015,-0.007,-0.028,0.067,0.133,-0.094,0.159,-0.921,0.785
2024-09-23 14:36:56.653,172901.12,0.096,0.796,-0.597,-0.01,-0.075,-0.026,-0.09,0.119,-0.091,0.159,-0.921,0.784
2024-09-23 14:36:56.664,172901.13,0.096,0.797,-0.596,-0.004,-0.093,-0.029,-0.173,0.119,-0.07,0.159,-0.923,0.783
2024-09-23 14:36:56.673,172901.14,0.096,0.798,-0.594,-0.011,-0.05,-0.027,-0.203,0.122,-0.039,0.16,-0.925,0.782
2024-09-23 14:36:56.683,172901.15,0.096,0.8,-0.593,-0.014,-0.038,-0.015,-0.214,0.126,-0.018,0.161,-0.927,0.783
2024-09-23 14:36:56.692,172901.16,0.097,0.801,-0.591,-0.013,-0.024,-0.007,-0.153,0.144,-0.008,0.163,-0.929,0.783
2024-09-23 14:36:56.703,172901.17,0.098,0.801,-0.59,-0.013,0.019,0.001,-0.09,0.142,0.009,0.165,-0.93,0.783
2024-09-23 14:36:56.713,172901.18,0.099,0.802,-0.589,-0.013,0.024,0.01,-0.046,0.122,0.01,0.166,-0.93,0.783
2024-09-23 14:36:56.723,172901.19,0.099,0.802,-0.589,-0.01,0.022,0.018,-0.06,0.075,0.011,0.167,-0.931,0.784
2024-09-23 14:36:56.733,172901.2,0.1,0.803,-0.588,-0.003,0.011,0.015,-0.066,0.036,0.013,0.168,-0.931,0.784
2024-09-23 14:36:56.743,172901.21,0.1,0.803,-0.588,0.003,-0.009,0.003,-0.114,0.006,0.012,0.169,-0.932,0.785
2024-09-23 14:36:56.753,172901.22,0.1,0.804,-0.586,0.002,-0.02,-0.001,-0.181,-0.027,0.017,0.169,-0.934,0.785
2024-09-23 14:36:56.763,172901.23,0.1,0.805,-0.585,-0.002,-0.007,-0.006,-0.224,-0.066,0.003,0.169,-0.936,0.786
2024-09-23 14:36:56.773,172901.24,0.099,0.806,-0.583,0.002,-0.002,-0.012,-0.193,-0.065,-0.006,0.169,-0.938,0.787
2024-09-23 14:36:56.783,172901.25,0.099,0.807,-0.582,0.008,-0.031,-0.008,-0.159,-0.007,-0.008,0.169,-0.939,0.787
2024-09-23 14:36:56.793,172901.26,0.099,0.808,-0.581,0.0,-0.021,0.001,-0.136,0.024,-0.007,0.169,-0.941,0.787
2024-09-23 14:36:56.803,172901.27,0.099,0.809,-0.58,-0.015,0.04,0.008,-0.154,0.037,-0.015,0.17,-0.942,0.787
2024-09-23 14:36:56.813,172901.28,0.099,0.81,-0.578,-0.017,0.029,0.009,-0.18,0.05,-0.012,0.17,-0.944,0.788
2024-09-23 14:36:56.823,172901.29,0.1,0.811,-0.577,-0.005,-0.034,-0.002,-0.209,0.048,-0.011,0.171,-0.946,0.788
2024-09-23 14:36:56.833,172901.3,0.1,0.812,-0.575,-0.005,-0.047,-0.003,-0.241,0.036,-0.022,0.172,-0.948,0.788
2024-09-23 14:36:56.843,172901.31,0.1,0.813,-0.573,-0.011,-0.016,-0.005,-0.242,0.009,-0.031,0.172,-0.95,0.789
2024-09-23 14:36:56.853,172901.32,0.099,0.815,-0.571,-0.007,-0.006,-0.012,-0.184,-0.025,-0.041,0.172,-0.952,0.789
2024-09-23 14:36:56.863,172901.329,0.099,0.815,-0.571,0.002,-0.009,-0.007,-0.076,-0.041,-0.059,0.171,-0.953,0.788
2024-09-23 14:36:56.873,172901.339,0.098,0.815,-0.571,0.007,0.016,0.01,0.051,-0.037,-0.069,0.17,-0.953,0.787
2024-09-23 14:36:56.883,172901.349,0.097,0.815,-0.571,0.007,0.045,0.029,0.16,-0.023,-0.069,0.168,-0.953,0.785
2024-09-23 14:36:56.893,172901.359,0.096,0.814,-0.573,0.004,0.058,0.034,0.214,-0.015,-0.053,0.167,-0.951,0.784
2024-09-23 14:36:56.903,172901.369,0.096,0.813,-0.575,-0.003,0.055,0.033,0.227,-0.014,-0.042,0.165,-0.949,0.782
2024-09-23 14:36:56.913,172901.379,0.096,0.811,-0.577,-0.005,0.03,0.028,0.181,-0.015,-0.03,0.164,-0.947,0.781
2024-09-23 14:36:56.923,172901.389,0.095,0.811,-0.578,-0.007,-0.002,0.011,0.123,-0.01,-0.015,0.163,-0.945,0.78
2024-09-23 14:36:56.933,172901.399,0.095,0.81,-0.579,-0.011,-0.019,-0.002,0.065,-0.012,-0.018,0.163,-0.944,0.78
2024-09-23 14:36:56.943,172901.409,0.095,0.81,-0.579,-0.011,-0.021,-0.008,0.061,-0.028,-0.025,0.162,-0.944,0.779
2024-09-23 14:36:56.953,172901.419,0.094,0.809,-0.58,-0.009,-0.019,-0.007,0.081,-0.043,-0.043,0.161,-0.943,0.778
2024-09-23 14:36:56.963,172901.429,0.094,0.809,-0.581,-0.004,-0.019,-0.002,0.173,-0.059,-0.054,0.16,-0.942,0.777
2024-09-23 14:36:56.973,172901.439,0.093,0.808,-0.582,0.002,0.005,0.009,0.284,-0.092,-0.072,0.158,-0.94,0.776
2024-09-23 14:36:56.983,172901.449,0.091,0.806,-0.585,0.005,0.034,0.019,0.396,-0.139,-0.098,0.155,-0.937,0.774
2024-09-23 14:36:56.993,172901.459,0.09,0.804,-0.589,0.011,0.064,0.031,0.508,-0.189,-0.116,0.151,-0.933,0.771
2024-09-23 14:36:57.003,172901.469,0.088,0.8,-0.593,0.016,0.069,0.035,0.641,-0.156,-0.108,0.147,-0.928,0.767
2024-09-23 14:36:57.013,172901.479,0.086,0.797,-0.598,0.018,0.054,0.033,0.511,-0.065,-0.065,0.143,-0.922,0.764
2024-09-23 14:36:57.023,172901.489,0.085,0.794,-0.601,0.011,0.055,0.046,0.297,-0.029,-0.066,0.141,-0.918,0.762
2024-09-23 14:36:57.033,172901.499,0.085,0.793,-0.603,-0.042,0.072,-0.012,0.16,0.015,-0.057,0.14,-0.916,0.761
2024-09-23 14:36:57.043,172901.509,0.085,0.793,-0.603,-0.044,-0.021,-0.04,-0.091,0.093,-0.033,0.14,-0.915,0.76
2024-09-23 14:36:57.053,172901.519,0.085,0.794,-0.601,-0.004,-0.157,-0.022,-0.294,0.189,-0.056,0.141,-0.918,0.76
2024-09-23 14:36:57.062,172901.529,0.086,0.796,-0.599,-0.032,-0.05,-0.019,-0.297,0.193,-0.009,0.143,-0.921,0.76
2024-09-23 14:36:57.073,172901.539,0.087,0.797,-0.597,-0.049,-0.041,0.01,-0.218,0.203,0.027,0.145,-0.923,0.761
2024-09-23 14:36:57.082,172901.549,0.089,0.799,-0.595,-0.014,-0.103,-0.005,-0.235,0.171,0.081,0.148,-0.925,0.762
2024-09-23 14:36:57.093,172901.559,0.091,0.8,-0.593,0.001,-0.066,0.007,-0.27,0.114,0.112,0.152,-0.927,0.764
2024-09-23 14:36:57.103,172901.569,0.092,0.802,-0.591,-0.001,-0.075,0.011,-0.361,0.05,0.104,0.155,-0.93,0.767
2024-09-23 14:36:57.113,172901.579,0.093,0.804,-0.587,0.012,-0.069,0.01,-0.417,0.025,0.109,0.157,-0.934,0.77
2024-09-23 14:36:57.123,172901.589,0.094,0.806,-0.584,-0.004,-0.042,-0.011,-0.396,0.125,0.159,0.16,-0.938,0.773
2024-09-23 14:36:57.132,172901.599,0.097,0.808,-0.581,-0.009,-0.039,-0.017,-0.422,0.221,0.185,0.165,-0.941,0.777
2024-09-23 14:36:57.142,172901.609,0.1,0.811,-0.577,-0.033,0.028,-0.011,-0.443,0.205,0.17,0.171,-0.946,0.781
2024-09-23 14:36:57.152,172901.619,0.102,0.813,-0.573,-0.059,0.109,-0.023,-0.422,0.123,0.141,0.176,-0.95,0.785
2024-09-23 14:36:57.163,172901.629,0.103,0.815,-0.57,-0.02,-0.001,-0.025,-0.349,0.07,0.106,0.179,-0.953,0.788
2024-09-23 14:36:57.173,172901.639,0.104,0.817,-0.568,0.018,-0.084,-0.016,-0.186,0.044,0.084,0.182,-0.956,0.791
2024-09-23 14:36:57.183,172901.649,0.105,0.817,-0.567,0.016,0.015,0.012,-0.006,0.034,0.042,0.183,-0.956,0.792
2024-09-23 14:36:57.191,172901.659,0.105,0.817,-0.567,0.008,0.084,0.034,0.125,0.008,-0.002,0.184,-0.956,0.792
2024-09-23 14:36:57.201,172901.669,0.105,0.816,-0.569,0.012,0.091,0.04,0.213,-0.034,-0.035,0.183,-0.954,0.791
2024-09-23 14:36:57.211,172901.679,0.105,0.815,-0.571,0.016,0.074,0.041,0.243,-0.066,-0.055,0.181,-0.952,0.79
2024-09-23 14:36:57.221,172901.689,0.104,0.813,-0.573,0.017,0.029,0.027,0.241,-0.084,-0.07,0.179,-0.95,0.788
2024-09-23 14:36:57.232,172901.699,0.102,0.812,-0.575,0.014,0.013,0.016,0.195,-0.12,-0.073,0.176,-0.948,0.786
2024-09-23 14:36:57.242,172901.709,0.101,0.811,-0.576,0.005,0.008,0.009,0.155,-0.147,-0.076,0.174,-0.946,0.784
2024-09-23 14:36:57.252,172901.719,0.1,0.81,-0.577,0.001,-0.016,-0.004,0.142,-0.144,-0.074,0.171,-0.945,0.783
2024-09-23 14:36:57.262,172901.729,0.098,0.81,-0.579,0.003,-0.033,-0.005,0.141,-0.122,-0.059,0.168,-0.943,0.781
2024-09-23 14:36:57.272,172901.739,0.097,0.809,-0.58,-0.005,-0.013,0.0,0.143,-0.098,-0.056,0.166,-0.942,0.78
2024-09-23 14:36:57.282,172901.749,0.096,0.808,-0.581,-0.012,0.015,0.011,0.138,-0.088,-0.048,0.164,-0.941,0.779
2024-09-23 14:36:57.292,172901.759,0.095,0.807,-0.582,-0.012,0.012,0.011,0.131,-0.089,-0.035,0.162,-0.94,0.778
2024-09-23 14:36:57.303,172901.769,0.095,0.807,-0.583,-0.008,-0.007,0.007,0.123,-0.094,-0.026,0.161,-0.938,0.777
2024-09-23 14:36:57.311,172901.779,0.094,0.806,-0.585,-0.004,-0.006,0.006,0.142,-0.123,-0.025,0.159,-0.937,0.776
2024-09-23 14:36:57.322,172901.789,0.093,0.805,-0.586,-0.004,0.006,0.005,0.202,-0.144,-0.034,0.157,-0.936,0.775
2024-09-23 14:36:57.332,172901.799,0.092,0.803,-0.588,-0.0,0.011,0.008,0.312,-0.149,-0.045,0.155,-0.933,0.774
2024-09-23 14:36:57.342,172901.809,0.091,0.801,-0.591,0.007,0.024,0.019,0.412,-0.043,-0.03,0.152,-0.93,0.772
2024-09-23 14:36:57.352,172901.819,0.09,0.799,-0.594,0.004,0.041,0.031,0.302,-0.008,-0.036,0.151,-0.926,0.771
2024-09-23 14:36:57.362,172901.829,0.09,0.798,-0.596,-0.009,0.059,0.033,0.248,0.041,-0.027,0.15,-0.924,0.77
2024-09-23 14:36:57.372,172901.839,0.09,0.797,-0.598,-0.04,0.04,-0.016,0.175,0.103,-0.013,0.15,-0.922,0.769
2024-09-23 14:36:57.382,172901.849,0.091,0.796,-0.599,-0.01,-0.075,-0.0,0.13,0.178,-0.005,0.151,-0.92,0.768
2024-09-23 14:36:57.392,172901.859,0.092,0.795,-0.599,-0.016,-0.067,0.002,0.119,0.233,-0.003,0.153,-0.919,0.768
2024-09-23 14:36:57.402,172901.869,0.094,0.795,-0.6,-0.029,0.019,0.0,0.091,0.266,-0.007,0.155,-0.918,0.768
2024-09-23 14:36:57.412,172901.879,0.095,0.794,-0.6,-0.025,-0.001,-0.003,0.051,0.238,-0.016,0.158,-0.918,0.767
2024-09-23 14:36:57.422,172901.889,0.096,0.794,-0.6,-0.022,-0.039,0.008,-0.02,0.188,-0.031,0.159,-0.918,0.767
2024-09-23 14:36:57.432,172901.899,0.097,0.795,-0.599,-0.014,-0.053,-0.006,-0.032,0.133,0.0,0.161,-0.918,0.767
2024-09-23 14:36:57.442,172901.909,0.098,0.795,-0.599,-0.008,-0.022,-0.02,0.059,0.05,0.012,0.162,-0.918,0.767
2024-09-23 14:36:57.452,172901.919,0.098,0.794,-0.6,0.009,0.001,-0.001,0.188,-0.023,-0.007,0.162,-0.917,0.766
2024-09-23 14:36:57.462,172901.929,0.097,0.793,-0.602,0.02,0.055,0.032,0.224,-0.062,-0.022,0.161,-0.915,0.766
2024-09-23 14:36:57.472,172901.938,0.097,0.791,-0.604,0.025,0.052,0.039,0.191,-0.093,-0.016,0.159,-0.913,0.765
2024-09-23 14:36:57.482,172901.948,0.096,0.79,-0.605,0.016,0.018,0.021,0.074,-0.1,-0.012,0.158,-0.912,0.764
2024-09-23 14:36:57.492,172901.958,0.095,0.791,-0.605,-0.0,-0.011,0.004,-0.08,-0.101,-0.006,0.156,-0.912,0.764
2024-09-23 14:36:57.502,172901.968,0.095,0.791,-0.604,-0.004,-0.039,-0.018,-0.217,-0.14,0.038,0.156,-0.913,0.764
2024-09-23 14:36:57.512,172901.978,0.094,0.793,-0.602,-0.011,-0.066,-0.033,-0.298,-0.125,0.026,0.155,-0.916,0.766
2024-09-23 14:36:57.522,172901.988,0.094,0.795,-0.599,-0.015,-0.064,-0.023,-0.435,-0.104,0.032,0.155,-0.919,0.767
2024-09-23 14:36:57.532,172901.998,0.093,0.798,-0.596,-0.003,-0.071,-0.013,-0.414,-0.089,0.034,0.156,-0.923,0.769
2024-09-23 14:36:57.542,172902.008,0.093,0.8,-0.593,-0.012,-0.04,-0.026,-0.381,-0.027,0.017,0.156,-0.927,0.77
2024-09-23 14:36:57.552,172902.018,0.094,0.802,-0.59,-0.012,-0.003,-0.011,-0.244,0.006,0.028,0.157,-0.931,0.772
2024-09-23 14:36:57.562,172902.028,0.094,0.803,-0.589,-0.008,0.003,0.019,-0.115,0.09,0.027,0.159,-0.932,0.772
2024-09-23 14:36:57.572,172902.038,0.095,0.803,-0.588,0.001,-0.009,0.034,-0.061,0.164,0.044,0.161,-0.933,0.773
2024-09-23 14:36:57.582,172902.048,0.097,0.804,-0.587,-0.012,0.032,0.042,-0.08,0.146,0.046,0.163,-0.933,0.774
2024-09-23 14:36:57.592,172902.058,0.098,0.804,-0.587,-0.036,0.044,0.018,-0.102,0.091,0.037,0.165,-0.934,0.775
2024-09-23 14:36:57.602,172902.068,0.098,0.805,-0.586,-0.022,-0.003,-0.01,-0.094,0.043,0.037,0.166,-0.935,0.776
2024-09-23 14:36:57.612,172902.078,0.099,0.805,-0.585,0.006,-0.025,-0.014,-0.037,0.019,0.023,0.167,-0.935,0.776
2024-09-23 14:36:57.622,172902.088,0.099,0.805,-0.585,0.007,0.02,-0.001,0.025,0.012,0.019,0.167,-0.935,0.777
2024-09-23 14:36:57.632,172902.098,0.099,0.805,-0.586,0.004,0.035,0.019,0.047,0.004,0.014,0.167,-0.935,0.777
2024-09-23 14:36:57.642,172902.108,0.099,0.804,-0.586,0.005,0.017,0.024,0.043,-0.013,0.015,0.167,-0.934,0.777
2024-09-23 14:36:57.652,172902.118,0.099,0.804,-0.586,-0.001,0.015,0.011,0.02,-0.017,0.013,0.167,-0.934,0.777
2024-09-23 14:36:57.661,172902.128,0.099,0.804,-0.586,0.0,0.001,0.0,-0.038,-0.032,0.011,0.167,-0.934,0.777
2024-09-23 14:36:57.671,172902.138,0.099,0.805,-0.586,-0.002,-0.005,-0.001,-0.07,-0.059,0.011,0.167,-0.935,0.777
2024-09-23 14:36:57.681,172902.148,0.098,0.805,-0.585,-0.005,-0.015,-0.008,-0.087,-0.066,0.008,0.166,-0.936,0.778
2024-09-23 14:36:57.691,172902.158,0.098,0.805,-0.585,-0.0,-0.031,-0.008,-0.072,-0.054,0.011,0.166,-0.936,0.778
2024-09-23 14:36:57.701,172902.168,0.098,0.806,-0.584,-0.002,-0.009,-0.003,-0.059,-0.058,0.013,0.166,-0.937,0.779
2024-09-23 14:36:57.711,172902.178,0.098,0.806,-0.583,-0.007,0.008,0.006,-0.05,-0.069,0.006,0.166,-0.938,0.779
2024-09-23 14:36:57.721,172902.188,0.097,0.807,-0.583,-0.005,0.001,0.006,-0.033,-0.077,0.005,0.165,-0.938,0.779
2024-09-23 14:36:57.732,172902.198,0.097,0.807,-0.583,0.001,0.002,0.005,-0.017,-0.09,0.0,0.165,-0.939,0.779
2024-09-23 14:36:57.742,172902.208,0.096,0.807,-0.583,0.0,0.011,0.008,0.015,-0.096,-0.001,0.164,-0.939,0.779
2024-09-23 14:36:57.752,172902.218,0.096,0.807,-0.583,-0.0,0.009,0.008,0.043,-0.1,-0.004,0.163,-0.938,0.779
2024-09-23 14:36:57.761,172902.228,0.095,0.806,-0.584,0.0,0.002,0.009,0.064,-0.115,-0.015,0.161,-0.938,0.779
2024-09-23 14:36:57.771,172902.238,0.094,0.806,-0.585,-0.003,0.009,0.011,0.087,-0.133,-0.026,0.16,-0.937,0.778
2024-09-23 14:36:57.781,172902.248,0.093,0.805,-0.586,0.002,0.007,0.003,0.141,-0.144,-0.038,0.158,-0.936,0.778
2024-09-23 14:36:57.791,172902.258,0.092,0.804,-0.587,0.006,0.018,0.006,0.201,-0.155,-0.052,0.155,-0.934,0.776
2024-09-23 14:36:57.802,172902.268,0.09,0.803,-0.589,0.005,0.027,0.016,0.265,-0.168,-0.066,0.152,-0.932,0.775
2024-09-23 14:36:57.811,172902.278,0.089,0.801,-0.592,0.008,0.027,0.019,0.33,-0.181,-0.08,0.149,-0.929,0.773
2024-09-23 14:36:57.822,172902.288,0.088,0.799,-0.595,0.008,0.028,0.021,0.402,-0.041,-0.059,0.146,-0.926,0.771
2024-09-23 14:36:57.831,172902.298,0.087,0.798,-0.597,0.005,0.024,0.023,0.23,-0.035,-0.038,0.145,-0.923,0.77
2024-09-23 14:36:57.841,172902.308,0.087,0.797,-0.598,-0.009,0.028,0.026,0.164,0.01,-0.037,0.144,-0.922,0.769
2024-09-23 14:36:57.851,172902.318,0.087,0.796,-0.599,-0.052,0.018,-0.024,0.108,0.076,-0.015,0.144,-0.921,0.768
2024-09-23 14:36:57.861,172902.328,0.087,0.795,-0.6,-0.009,-0.096,-0.011,0.115,0.144,0.002,0.145,-0.92,0.768
2024-09-23 14:36:57.871,172902.338,0.088,0.795,-0.601,-0.017,-0.061,0.005,0.16,0.173,0.01,0.146,-0.918,0.767
2024-09-23 14:36:57.881,172902.348,0.09,0.794,-0.602,-0.032,0.043,0.015,0.195,0.206,0.008,0.148,-0.917,0.767
2024-09-23 14:36:57.891,172902.358,0.091,0.792,-0.603,-0.015,0.019,0.013,0.171,0.207,0.009,0.15,-0.915,0.767
2024-09-23 14:36:57.901,172902.368,0.092,0.792,-0.604,-0.012,0.017,0.017,0.113,0.18,0.014,0.152,-0.914,0.767
2024-09-23 14:36:57.911,172902.378,0.093,0.791,-0.604,-0.018,-0.014,0.009,0.016,0.174,0.007,0.153,-0.913,0.767
2024-09-23 14:36:57.921,172902.388,0.095,0.791,-0.604,-0.011,-0.051,-0.012,0.063,0.123,0.038,0.155,-0.913,0.767
2024-09-23 14:36:57.931,172902.398,0.095,0.791,-0.605,-0.006,-0.039,-0.016,0.05,0.14,-0.002,0.156,-0.912,0.767
2024-09-23 14:36:57.941,172902.408,0.096,0.79,-0.605,-0.006,0.0,-0.004,0.107,0.066,0.004,0.157,-0.911,0.767
2024-09-23 14:36:57.951,172902.418,0.096,0.789,-0.606,-0.002,0.032,0.018,0.15,0.051,-0.032,0.157,-0.91,0.766
2024-09-23 14:36:57.961,172902.428,0.096,0.789,-0.607,0.01,-0.006,0.011,0.147,0.008,-0.043,0.157,-0.909,0.765
2024-09-23 14:36:57.971,172902.438,0.095,0.788,-0.609,0.015,0.022,0.014,0.182,-0.039,-0.047,0.156,-0.907,0.764
2024-09-23 14:36:57.981,172902.448,0.095,0.787,-0.61,0.006,0.022,0.01,0.169,-0.032,-0.069,0.154,-0.905,0.763
2024-09-23 14:36:57.991,172902.458,0.094,0.786,-0.611,0.015,-0.004,0.004,0.085,-0.045,-0.049,0.153,-0.904,0.761
2024-09-23 14:36:58.001,172902.468,0.093,0.785,-0.612,-0.0,0.017,-0.0,0.105,-0.06,-0.037,0.151,-0.903,0.76
2024-09-23 14:36:58.011,172902.478,0.093,0.785,-0.613,-0.01,-0.008,-0.008,0.076,-0.015,-0.039,0.15,-0.903,0.76
2024-09-23 14:36:58.021,172902.488,0.093,0.785,-0.613,0.007,-0.04,0.005,-0.012,0.03,-0.029,0.15,-0.902,0.759
2024-09-23 14:36:58.031,172902.498,0.093,0.785,-0.613,-0.013,0.009,-0.005,0.034,0.061,0.006,0.15,-0.903,0.759
2024-09-23 14:36:58.041,172902.508,0.093,0.785,-0.613,-0.032,0.003,-0.004,-0.014,0.134,0.02,0.151,-0.903,0.759
2024-09-23 14:36:58.051,172902.518,0.094,0.785,-0.612,-0.014,-0.049,0.003,-0.018,0.177,0.026,0.153,-0.903,0.759
2024-09-23 14:36:58.061,172902.528,0.096,0.785,-0.612,-0.03,0.021,0.002,0.067,0.172,0.073,0.155,-0.902,0.76
2024-09-23 14:36:58.071,172902.537,0.098,0.784,-0.613,-0.037,-0.0,0.004,0.147,0.191,0.051,0.158,-0.902,0.761
2024-09-23 14:36:58.082,172902.547,0.099,0.784,-0.613,-0.017,-0.025,0.009,-0.026,0.202,0.067,0.16,-0.901,0.761
2024-09-23 14:36:58.091,172902.557,0.101,0.784,-0.613,-0.021,0.033,0.008,-0.031,0.067,0.119,0.163,-0.901,0.763
2024-09-23 14:36:58.101,172902.567,0.102,0.784,-0.613,-0.035,-0.005,-0.011,0.005,0.055,0.108,0.165,-0.901,0.765
2024-09-23 14:36:58.111,172902.577,0.103,0.783,-0.613,-0.007,-0.079,-0.025,0.147,0.085,0.039,0.166,-0.9,0.766
2024-09-23 14:36:58.121,172902.587,0.103,0.782,-0.614,0.019,0.022,0.022,0.101,0.105,0.041,0.166,-0.898,0.766
2024-09-23 14:36:58.131,172902.597,0.104,0.781,-0.615,0.008,0.075,0.04,0.129,-0.021,0.1,0.168,-0.897,0.767
2024-09-23 14:36:58.141,172902.607,0.105,0.781,-0.616,0.005,0.02,0.029,0.012,-0.001,0.094,0.168,-0.896,0.768
2024-09-23 14:36:58.151,172902.617,0.106,0.781,-0.615,0.011,-0.075,0.017,-0.226,0.055,0.121,0.17,-0.897,0.77
2024-09-23 14:36:58.161,172902.627,0.107,0.784,-0.612,0.015,-0.061,-0.005,-0.628,0.057,0.131,0.173,-0.901,0.773
2024-09-23 14:36:58.171,172902.637,0.108,0.789,-0.605,-0.024,-0.067,-0.009,-0.979,0.081,0.128,0.177,-0.908,0.777
2024-09-23 14:36:58.181,172902.647,0.11,0.795,-0.597,-0.033,-0.206,-0.068,-1.2,0.321,0.144,0.183,-0.919,0.782
2024-09-23 14:36:58.191,172902.657,0.114,0.803,-0.585,-0.025,-0.224,-0.087,-1.516,0.463,0.185,0.193,-0.932,0.789
2024-09-23 14:36:58.201,172902.667,0.118,0.812,-0.572,-0.051,-0.085,-0.082,-1.668,0.337,0.152,0.203,-0.947,0.797
2024-09-23 14:36:58.211,172902.677,0.12,0.821,-0.558,-0.094,0.01,-0.118,-1.608,0.153,0.113,0.212,-0.963,0.805
2024-09-23 14:36:58.221,172902.687,0.121,0.829,-0.546,-0.033,-0.127,-0.104,-1.284,-0.038,0.077,0.219,-0.977,0.813
2024-09-23 14:36:58.231,172902.697,0.121,0.834,-0.538,0.029,-0.115,-0.045,-0.753,-0.175,0.039,0.222,-0.987,0.818
2024-09-23 14:36:58.241,172902.707,0.12,0.837,-0.534,0.035,0.141,0.04,-0.078,-0.279,-0.029,0.221,-0.991,0.82
2024-09-23 14:36:58.251,172902.717,0.118,0.836,-0.536,0.049,0.228,0.102,0.455,-0.295,0.022,0.217,-0.989,0.819
2024-09-23 14:36:58.261,172902.727,0.117,0.832,-0.542,0.048,0.246,0.14,0.825,-0.35,-0.008,0.212,-0.983,0.816
2024-09-23 14:36:58.271,172902.737,0.115,0.827,-0.55,0.026,0.254,0.151,0.996,-0.279,-0.022,0.206,-0.974,0.813
2024-09-23 14:36:58.281,172902.747,0.113,0.822,-0.559,0.064,0.171,0.123,0.951,-0.218,-0.025,0.2,-0.964,0.809
2024-09-23 14:36:58.290,172902.757,0.112,0.817,-0.565,0.05,0.089,0.093,0.638,-0.173,-0.04,0.196,-0.956,0.805
2024-09-23 14:36:58.301,172902.767,0.111,0.815,-0.569,-0.006,-0.001,0.032,0.173,-0.137,-0.033,0.192,-0.952,0.803
2024-09-23 14:36:58.310,172902.777,0.11,0.815,-0.569,-0.023,-0.12,-0.048,-0.306,-0.067,-0.006,0.191,-0.953,0.803
2024-09-23 14:36:58.321,172902.787,0.11,0.818,-0.564,-0.042,-0.209,-0.107,-0.691,0.052,0.038,0.193,-0.958,0.805
2024-09-23 14:36:58.331,172902.797,0.111,0.823,-0.558,-0.06,-0.214,-0.118,-0.906,0.186,0.098,0.197,-0.966,0.809
2024-09-23 14:36:58.340,172902.807,0.114,0.828,-0.55,-0.067,-0.165,-0.099,-0.964,0.259,0.152,0.204,-0.975,0.815
2024-09-23 14:36:58.350,172902.817,0.116,0.832,-0.542,-0.073,-0.093,-0.068,-0.836,0.256,0.04,0.211,-0.984,0.82
2024-09-23 14:36:58.360,172902.827,0.118,0.837,-0.535,-0.064,-0.023,-0.044,-0.785,0.224,0.123,0.217,-0.991,0.824
2024-09-23 14:36:58.371,172902.837,0.12,0.841,-0.528,-0.093,0.024,-0.029,-0.74,0.126,0.08,0.223,-0.998,0.829
2024-09-23 14:36:58.380,172902.847,0.12,0.844,-0.522,-0.139,0.059,-0.017,-0.613,0.036,-0.014,0.227,-1.005,0.833
2024-09-23 14:36:58.391,172902.857,0.12,0.847,-0.518,-0.102,0.049,-0.014,-0.465,-0.066,-0.133,0.227,-1.01,0.833
2024-09-23 14:36:58.401,172902.867,0.118,0.85,-0.514,-0.147,0.07,-0.0,-0.401,-0.105,-0.164,0.225,-1.015,0.832
2024-09-23 14:36:58.410,172902.877,0.116,0.851,-0.512,-0.186,0.127,0.019,-0.211,-0.108,-0.156,0.223,-1.018,0.831
2024-09-23 14:36:58.420,172902.887,0.114,0.852,-0.51,-0.169,0.122,0.027,-0.184,-0.162,-0.197,0.22,-1.02,0.828
2024-09-23 14:36:58.430,172902.897,0.112,0.853,-0.509,-0.094,0.007,0.001,-0.031,-0.086,-0.139,0.216,-1.022,0.826
2024-09-23 14:36:58.440,172902.907,0.111,0.853,-0.51,-0.049,0.019,0.029,0.036,0.002,-0.069,0.214,-1.022,0.824
2024-09-23 14:36:58.450,172902.917,0.11,0.853,-0.51,-0.054,0.048,0.049,0.079,-0.05,-0.149,0.212,-1.022,0.822
2024-09-23 14:36:58.461,172902.927,0.108,0.853,-0.511,0.005,0.044,0.036,0.173,-0.064,-0.113,0.209,-1.021,0.819
2024-09-23 14:36:58.469,172902.937,0.107,0.852,-0.513,0.023,0.043,0.053,0.283,-0.067,-0.079,0.206,-1.019,0.816
2024-09-23 14:36:58.479,172902.947,0.106,0.85,-0.516,0.035,0.035,0.064,0.375,-0.062,-0.071,0.203,-1.016,0.813
2024-09-23 14:36:58.489,172902.957,0.105,0.848,-0.52,0.091,0.011,0.092,0.434,-0.084,-0.081,0.2,-1.012,0.81
2024-09-23 14:36:58.500,172902.967,0.104,0.845,-0.524,0.126,-0.031,0.102,0.51,-0.114,-0.06,0.196,-1.007,0.807
2024-09-23 14:36:58.509,172902.977,0.103,0.843,-0.528,0.127,-0.041,0.096,0.542,-0.106,-0.018,0.193,-1.002,0.805
2024-09-23 14:36:58.520,172902.987,0.103,0.84,-0.533,0.116,-0.041,0.081,0.556,-0.105,0.022,0.19,-0.997,0.803
2024-09-23 14:36:58.530,172902.997,0.103,0.836,-0.538,0.114,-0.058,0.058,0.831,0.066,0.308,0.189,-0.991,0.802
2024-09-23 14:36:58.540,172903.007,0.106,0.832,-0.545,0.107,-0.077,0.035,0.686,0.039,0.134,0.192,-0.983,0.804
2024-09-23 14:36:58.550,172903.017,0.106,0.828,-0.55,0.135,-0.061,-0.023,0.601,0.031,0.041,0.191,-0.976,0.803
2024-09-23 14:36:58.560,172903.027,0.107,0.825,-0.555,0.186,0.022,-0.088,0.51,0.008,0.029,0.19,-0.971,0.802
2024-09-23 14:36:58.570,172903.037,0.106,0.823,-0.558,0.063,0.062,-0.04,0.356,-0.062,-0.083,0.188,-0.966,0.8
2024-09-23 14:36:58.580,172903.047,0.105,0.821,-0.561,0.023,-0.006,-0.038,0.188,-0.132,-0.186,0.185,-0.964,0.797
2024-09-23 14:36:58.590,172903.057,0.102,0.821,-0.562,0.053,-0.053,-0.029,0.02,-0.21,-0.203,0.18,-0.963,0.793
2024-09-23 14:36:58.599,172903.067,0.099,0.822,-0.561,0.045,-0.085,-0.027,-0.113,-0.251,-0.197,0.175,-0.964,0.79
2024-09-23 14:36:58.609,172903.077,0.096,0.823,-0.56,0.025,-0.093,-0.034,-0.166,-0.24,-0.171,0.17,-0.966,0.787
2024-09-23 14:36:58.619,172903.087,0.094,0.824,-0.559,0.004,-0.06,-0.032,-0.187,-0.19,-0.152,0.166,-0.968,0.785
2024-09-23 14:36:58.629,172903.097,0.092,0.825,-0.558,-0.011,-0.019,-0.014,-0.15,-0.131,-0.123,0.163,-0.97,0.783
2024-09-23 14:36:58.639,172903.107,0.09,0.826,-0.557,-0.02,0.01,-0.005,-0.118,-0.069,-0.096,0.161,-0.971,0.782
2024-09-23 14:36:58.650,172903.117,0.089,0.826,-0.556,-0.025,0.015,0.004,-0.071,-0.014,-0.075,0.159,-0.972,0.78
2024-09-23 14:36:58.660,172903.127,0.089,0.827,-0.556,-0.026,0.022,0.007,-0.016,0.055,-0.053,0.159,-0.973,0.779
2024-09-23 14:36:58.670,172903.136,0.089,0.827,-0.556,-0.025,0.012,0.008,0.043,0.137,-0.031,0.159,-0.973,0.779
2024-09-23 14:36:58.680,172903.146,0.09,0.826,-0.556,-0.026,0.002,0.014,0.064,0.187,-0.021,0.16,-0.972,0.778
2024-09-23 14:36:58.690,172903.156,0.091,0.826,-0.557,-0.034,0.026,0.02,0.082,0.178,-0.019,0.161,-0.972,0.777
2024-09-23 14:36:58.700,172903.166,0.091,0.825,-0.557,-0.033,0.02,0.01,0.092,0.156,-0.022,0.163,-0.971,0.777
2024-09-23 14:36:58.712,172903.176,0.092,0.825,-0.558,-0.013,-0.009,0.003,0.089,0.113,-0.028,0.163,-0.97,0.776
2024-09-23 14:36:58.719,172903.186,0.092,0.824,-0.558,0.001,0.001,0.003,0.089,0.054,-0.026,0.164,-0.969,0.775
2024-09-23 14:36:58.730,172903.196,0.092,0.824,-0.559,0.005,0.019,0.006,0.112,0.018,-0.027,0.163,-0.968,0.775
2024-09-23 14:36:58.740,172903.206,0.092,0.823,-0.56,0.014,-0.01,0.008,0.114,0.013,-0.028,0.163,-0.967,0.774
2024-09-23 14:36:58.750,172903.216,0.092,0.823,-0.561,0.014,-0.016,0.009,0.117,0.012,-0.026,0.162,-0.966,0.773
2024-09-23 14:36:58.759,172903.226,0.091,0.822,-0.562,0.001,0.029,0.004,0.078,0.005,-0.026,0.161,-0.966,0.772
2024-09-23 14:36:58.770,172903.236,0.091,0.822,-0.562,-0.003,0.021,-0.0,0.021,0.003,-0.028,0.161,-0.965,0.771
2024-09-23 14:36:58.780,172903.246,0.091,0.822,-0.562,-0.002,-0.02,-0.009,-0.008,0.008,-0.03,0.16,-0.966,0.77
2024-09-23 14:36:58.790,172903.256,0.09,0.823,-0.562,-0.008,-0.024,-0.014,-0.027,0.015,-0.02,0.16,-0.966,0.77
2024-09-23 14:36:58.800,172903.266,0.09,0.823,-0.561,-0.008,-0.019,-0.009,-0.035,-0.008,-0.008,0.16,-0.966,0.77
2024-09-23 14:36:58.810,172903.276,0.09,0.823,-0.561,-0.01,-0.008,-0.003,-0.032,-0.023,-0.006,0.159,-0.967,0.77
2024-09-23 14:36:58.820,172903.286,0.09,0.823,-0.561,-0.004,-0.003,-0.002,-0.012,-0.047,-0.001,0.159,-0.967,0.77
2024-09-23 14:36:58.830,172903.296,0.09,0.823,-0.561,0.002,-0.005,0.005,0.009,-0.059,-0.008,0.159,-0.967,0.77
2024-09-23 14:36:58.840,172903.306,0.09,0.823,-0.561,-0.002,-0.002,0.012,0.053,-0.044,-0.011,0.158,-0.967,0.77
2024-09-23 14:36:58.850,172903.316,0.089,0.823,-0.562,0.001,-0.001,0.013,0.099,-0.02,-0.018,0.158,-0.966,0.769
2024-09-23 14:36:58.859,172903.326,0.089,0.822,-0.563,-0.003,0.01,0.012,0.131,0.001,-0.028,0.157,-0.965,0.769
2024-09-23 14:36:58.870,172903.336,0.089,0.821,-0.564,-0.006,0.031,0.014,0.152,-0.001,-0.04,0.156,-0.963,0.768
2024-09-23 14:36:58.880,172903.346,0.088,0.82,-0.565,-0.007,0.027,0.01,0.163,0.011,-0.046,0.155,-0.962,0.766
2024-09-23 14:36:58.890,172903.356,0.088,0.819,-0.567,-0.001,0.0,0.005,0.208,0.012,-0.053,0.154,-0.96,0.765
2024-09-23 14:36:58.900,172903.366,0.087,0.818,-0.568,-0.001,-0.001,0.007,0.193,0.005,-0.061,0.153,-0.958,0.763
2024-09-23 14:36:58.910,172903.376,0.087,0.817,-0.57,-0.0,-0.0,0.012,0.214,-0.012,-0.06,0.151,-0.956,0.762
2024-09-23 14:36:58.919,172903.386,0.086,0.816,-0.572,0.001,0.004,0.004,0.275,-0.033,-0.065,0.15,-0.954,0.76
2024-09-23 14:36:58.929,172903.396,0.086,0.814,-0.574,-0.002,0.009,0.002,0.357,-0.051,-0.08,0.148,-0.951,0.758
2024-09-23 14:36:58.940,172903.406,0.085,0.812,-0.578,0.001,0.026,0.015,0.494,-0.064,-0.083,0.145,-0.947,0.756
2024-09-23 14:36:58.949,172903.416,0.084,0.809,-0.582,0.006,0.052,0.023,0.667,-0.008,-0.073,0.143,-0.942,0.753
2024-09-23 14:36:58.959,172903.426,0.084,0.805,-0.587,0.007,0.065,0.036,0.491,0.138,0.025,0.142,-0.936,0.751
2024-09-23 14:36:58.970,172903.436,0.085,0.803,-0.589,0.0,0.081,0.056,0.302,0.142,-0.01,0.143,-0.933,0.751
2024-09-23 14:36:58.979,172903.446,0.085,0.802,-0.591,-0.036,0.091,0.018,0.199,0.096,-0.012,0.143,-0.93,0.75
2024-09-23 14:36:58.989,172903.456,0.086,0.801,-0.592,-0.019,-0.024,-0.008,0.04,0.116,-0.008,0.144,-0.929,0.749
2024-09-23 14:36:59.000,172903.466,0.087,0.801,-0.592,0.021,-0.158,-0.017,-0.063,0.158,-0.005,0.145,-0.929,0.749
2024-09-23 14:36:59.010,172903.476,0.088,0.802,-0.591,-0.02,-0.035,-0.03,-0.206,0.148,-0.011,0.147,-0.931,0.75
2024-09-23 14:36:59.019,172903.486,0.088,0.804,-0.588,-0.031,-0.023,-0.029,-0.282,0.102,-0.004,0.149,-0.933,0.75
2024-09-23 14:36:59.029,172903.496,0.089,0.806,-0.586,-0.017,-0.107,-0.039,-0.33,0.06,0.041,0.151,-0.937,0.751
2024-09-23 14:36:59.039,172903.506,0.09,0.808,-0.583,-0.007,-0.14,-0.033,-0.424,0.063,0.021,0.153,-0.94,0.753
2024-09-23 14:36:59.049,172903.516,0.09,0.81,-0.579,-0.0,-0.1,-0.009,-0.407,0.023,0.048,0.154,-0.944,0.754
2024-09-23 14:36:59.059,172903.526,0.091,0.812,-0.576,0.0,-0.06,-0.008,-0.341,0.009,0.049,0.156,-0.948,0.756
2024-09-23 14:36:59.070,172903.536,0.091,0.814,-0.574,-0.0,-0.034,-0.008,-0.308,0.005,0.038,0.157,-0.951,0.758
2024-09-23 14:36:59.079,172903.546,0.091,0.816,-0.571,0.003,0.017,0.016,-0.256,0.012,0.062,0.159,-0.954,0.759
2024-09-23 14:36:59.089,172903.556,0.092,0.817,-0.569,-0.008,0.032,0.001,-0.252,0.042,0.065,0.16,-0.956,0.761
2024-09-23 14:36:59.100,172903.566,0.093,0.819,-0.567,-0.009,0.03,-0.003,-0.313,0.008,0.048,0.162,-0.959,0.763
2024-09-23 14:36:59.109,172903.576,0.093,0.82,-0.564,-0.019,0.049,-0.014,-0.303,-0.071,0.03,0.163,-0.962,0.764
2024-09-23 14:36:59.119,172903.586,0.093,0.822,-0.562,-0.009,0.0,-0.026,-0.27,-0.098,0.02,0.163,-0.965,0.766
2024-09-23 14:36:59.129,172903.596,0.092,0.823,-0.56,0.016,-0.08,-0.017,-0.183,-0.095,0.01,0.163,-0.967,0.767
2024-09-23 14:36:59.139,172903.606,0.092,0.824,-0.559,0.009,-0.005,0.001,-0.081,-0.094,-0.005,0.162,-0.968,0.767
2024-09-23 14:36:59.149,172903.616,0.091,0.824,-0.559,-0.003,0.071,0.015,0.003,-0.098,-0.014,0.161,-0.969,0.767
2024-09-23 14:36:59.159,172903.626,0.09,0.824,-0.56,0.004,0.048,0.019,0.091,-0.1,-0.022,0.16,-0.968,0.767
2024-09-23 14:36:59.169,172903.636,0.09,0.823,-0.561,0.004,0.036,0.021,0.163,-0.093,-0.035,0.158,-0.967,0.766
2024-09-23 14:36:59.179,172903.646,0.089,0.822,-0.562,0.003,0.022,0.018,0.219,-0.093,-0.048,0.156,-0.965,0.764
2024-09-23 14:36:59.189,172903.656,0.088,0.821,-0.564,0.003,0.03,0.012,0.28,-0.097,-0.055,0.154,-0.963,0.763
2024-09-23 14:36:59.199,172903.666,0.087,0.819,-0.567,0.002,0.04,0.013,0.337,-0.114,-0.067,0.152,-0.96,0.761
2024-09-23 14:36:59.209,172903.676,0.085,0.817,-0.57,0.002,0.022,0.018,0.407,-0.115,-0.08,0.149,-0.956,0.759
2024-09-23 14:36:59.219,172903.686,0.084,0.815,-0.574,0.003,0.02,0.016,0.47,-0.105,-0.096,0.145,-0.952,0.756
2024-09-23 14:36:59.229,172903.696,0.083,0.812,-0.578,0.002,0.032,0.018,0.576,0.018,-0.078,0.142,-0.947,0.753
2024-09-23 14:36:59.239,172903.706,0.083,0.809,-0.582,-0.002,0.041,0.025,0.387,0.133,-0.041,0.141,-0.942,0.751
2024-09-23 14:36:59.249,172903.716,0.084,0.807,-0.584,-0.009,0.034,0.039,0.212,0.142,-0.013,0.142,-0.94,0.75
2024-09-23 14:36:59.259,172903.726,0.084,0.806,-0.586,-0.065,0.043,-0.017,0.132,0.155,0.008,0.143,-0.938,0.75
2024-09-23 14:36:59.269,172903.735,0.086,0.806,-0.586,-0.03,-0.084,-0.027,0.013,0.22,0.009,0.145,-0.937,0.75
2024-09-23 14:36:59.279,172903.745,0.087,0.806,-0.586,0.01,-0.171,-0.016,-0.023,0.261,0.022,0.148,-0.937,0.75
2024-09-23 14:36:59.289,172903.755,0.089,0.806,-0.585,-0.037,-0.004,-0.016,-0.048,0.248,0.025,0.15,-0.937,0.75
2024-09-23 14:36:59.299,172903.765,0.09,0.806,-0.585,-0.034,-0.024,-0.007,-0.037,0.229,0.012,0.153,-0.938,0.751
2024-09-23 14:36:59.309,172903.775,0.092,0.806,-0.584,-0.016,-0.057,-0.01,0.002,0.166,0.017,0.156,-0.938,0.751
2024-09-23 14:36:59.319,172903.785,0.093,0.806,-0.584,-0.001,-0.019,-0.003,0.067,0.131,-0.016,0.157,-0.938,0.751
2024-09-23 14:36:59.329,172903.795,0.093,0.805,-0.585,0.012,0.034,0.005,0.168,0.055,-0.017,0.157,-0.937,0.75
2024-09-23 14:36:59.339,172903.805,0.093,0.804,-0.587,0.021,0.062,0.029,0.217,0.007,-0.02,0.157,-0.935,0.75
2024-09-23 14:36:59.349,172903.815,0.093,0.803,-0.588,0.02,0.031,0.026,0.184,-0.041,-0.019,0.156,-0.933,0.749
2024-09-23 14:36:59.358,172903.825,0.092,0.802,-0.59,0.017,0.014,0.023,0.126,-0.092,-0.014,0.155,-0.931,0.748
2024-09-23 14:36:59.369,172903.835,0.091,0.802,-0.591,0.003,-0.009,0.003,0.018,-0.134,-0.008,0.154,-0.93,0.748
2024-09-23 14:36:59.379,172903.845,0.09,0.802,-0.59,-0.002,-0.032,-0.015,-0.118,-0.222,0.006,0.152,-0.931,0.748
2024-09-23 14:36:59.389,172903.855,0.089,0.803,-0.589,0.002,-0.038,-0.023,-0.247,-0.274,-0.024,0.15,-0.933,0.748
2024-09-23 14:36:59.399,172903.865,0.087,0.805,-0.586,0.009,-0.053,-0.032,-0.436,-0.293,-0.02,0.147,-0.936,0.749
2024-09-23 14:36:59.409,172903.875,0.085,0.808,-0.583,0.017,-0.06,-0.042,-0.526,-0.284,0.037,0.146,-0.941,0.75
2024-09-23 14:36:59.419,172903.885,0.084,0.811,-0.579,-0.001,-0.046,-0.044,-0.514,-0.236,0.056,0.145,-0.946,0.752
2024-09-23 14:36:59.429,172903.895,0.084,0.814,-0.574,-0.01,-0.064,-0.022,-0.527,-0.162,0.034,0.145,-0.952,0.754
2024-09-23 14:36:59.439,172903.905,0.083,0.818,-0.57,-0.006,-0.038,0.002,-0.547,-0.136,0.057,0.145,-0.957,0.756
2024-09-23 14:36:59.449,172903.915,0.083,0.82,-0.566,-0.022,-0.026,-0.006,-0.482,-0.123,0.073,0.146,-0.962,0.759
2024-09-23 14:36:59.457,172903.925,0.083,0.823,-0.562,-0.017,-0.023,-0.011,-0.381,-0.093,0.059,0.147,-0.966,0.761
2024-09-23 14:36:59.467,172903.935,0.083,0.825,-0.56,-0.005,-0.0,0.012,-0.274,-0.057,0.053,0.147,-0.969,0.763
2024-09-23 14:36:59.478,172903.945,0.083,0.826,-0.558,-0.0,0.02,0.017,-0.17,0.008,0.058,0.148,-0.972,0.765
2024-09-23 14:36:59.488,172903.955,0.084,0.826,-0.557,-0.007,0.028,0.023,-0.12,0.046,0.059,0.15,-0.973,0.766
2024-09-23 14:36:59.498,172903.965,0.085,0.827,-0.556,-0.015,0.026,0.023,-0.108,0.088,0.048,0.151,-0.974,0.767
2024-09-23 14:36:59.508,172903.975,0.086,0.828,-0.555,-0.027,0.038,0.008,-0.082,0.086,0.043,0.153,-0.975,0.768
2024-09-23 14:36:59.519,172903.985,0.086,0.828,-0.554,-0.013,-0.014,0.004,-0.117,0.071,0.035,0.155,-0.976,0.769
2024-09-23 14:36:59.528,172903.995,0.087,0.829,-0.553,-0.004,-0.035,0.001,-0.109,0.057,0.032,0.156,-0.977,0.77
2024-09-23 14:36:59.538,172904.005,0.087,0.829,-0.552,-0.003,0.02,-0.009,-0.115,0.017,0.026,0.157,-0.978,0.771
2024-09-23 14:36:59.549,172904.015,0.088,0.83,-0.551,-0.002,0.006,-0.006,-0.097,-0.006,0.004,0.158,-0.979,0.771
2024-09-23 14:36:59.558,172904.025,0.088,0.83,-0.551,0.003,-0.01,-0.004,-0.037,-0.01,-0.001,0.158,-0.979,0.772
2024-09-23 14:36:59.568,172904.035,0.088,0.83,-0.55,0.007,0.001,-0.0,0.001,-0.016,-0.001,0.158,-0.98,0.772
2024-09-23 14:36:59.579,172904.045,0.087,0.83,-0.551,0.004,0.013,0.015,0.043,-0.015,0.005,0.157,-0.979,0.772
2024-09-23 14:36:59.588,172904.055,0.087,0.83,-0.551,0.0,0.016,0.014,0.069,-0.003,0.011,0.157,-0.979,0.772
2024-09-23 14:36:59.598,172904.065,0.087,0.83,-0.552,-0.0,0.004,0.009,0.076,-0.004,0.015,0.157,-0.978,0.771
2024-09-23 14:36:59.609,172904.075,0.087,0.829,-0.552,-0.007,0.022,0.008,0.04,-0.03,0.014,0.157,-0.977,0.771
2024-09-23 14:36:59.618,172904.085,0.087,0.829,-0.552,-0.009,0.007,0.001,-0.006,-0.048,0.014,0.157,-0.977,0.772
2024-09-23 14:36:59.628,172904.095,0.087,0.829,-0.552,-0.002,-0.017,-0.009,-0.037,-0.062,0.016,0.156,-0.978,0.772
2024-09-23 14:36:59.638,172904.105,0.087,0.829,-0.552,-0.005,-0.015,-0.011,-0.069,-0.06,0.014,0.156,-0.978,0.772
2024-09-23 14:36:59.648,172904.115,0.087,0.83,-0.551,-0.007,-0.018,-0.008,-0.089,-0.063,0.011,0.156,-0.979,0.773
2024-09-23 14:36:59.658,172904.125,0.087,0.83,-0.55,-0.003,-0.019,-0.005,-0.115,-0.051,0.021,0.156,-0.98,0.774
2024-09-23 14:36:59.669,172904.135,0.086,0.831,-0.549,-0.006,-0.021,-0.003,-0.132,-0.047,0.025,0.156,-0.981,0.774
2024-09-23 14:36:59.677,172904.145,0.086,0.832,-0.548,-0.008,-0.022,-0.004,-0.137,-0.057,0.029,0.156,-0.983,0.775
2024-09-23 14:36:59.687,172904.155,0.086,0.833,-0.547,-0.006,-0.025,-0.009,-0.104,-0.065,0.02,0.156,-0.984,0.776
2024-09-23 14:36:59.698,172904.165,0.086,0.833,-0.546,-0.005,0.001,-0.005,-0.047,-0.071,0.02,0.156,-0.985,0.777
2024-09-23 14:36:59.708,172904.175,0.086,0.833,-0.547,-0.001,0.014,0.004,0.033,-0.061,0.007,0.156,-0.985,0.777
2024-09-23 14:36:59.719,172904.185,0.085,0.833,-0.547,0.004,0.026,0.009,0.105,-0.057,-0.003,0.155,-0.984,0.777
2024-09-23 14:36:59.728,172904.195,0.085,0.832,-0.549,0.001,0.037,0.017,0.147,-0.073,-0.019,0.154,-0.982,0.776
2024-09-23 14:36:59.738,172904.205,0.084,0.831,-0.55,-0.001,0.032,0.021,0.181,-0.091,-0.032,0.152,-0.981,0.775
2024-09-23 14:36:59.748,172904.215,0.083,0.83,-0.552,0.006,0.015,0.012,0.208,-0.095,-0.043,0.15,-0.979,0.774
2024-09-23 14:36:59.758,172904.225,0.082,0.829,-0.554,0.009,0.008,0.009,0.225,-0.104,-0.056,0.148,-0.977,0.772
2024-09-23 14:36:59.768,172904.235,0.081,0.827,-0.556,0.002,0.011,0.013,0.236,-0.103,-0.06,0.145,-0.974,0.771
2024-09-23 14:36:59.778,172904.245,0.08,0.826,-0.558,0.0,0.007,0.007,0.247,-0.116,-0.059,0.143,-0.972,0.769
2024-09-23 14:36:59.788,172904.255,0.08,0.825,-0.56,-0.002,0.009,0.005,0.26,0.017,-0.048,0.141,-0.97,0.767
2024-09-23 14:36:59.798,172904.265,0.079,0.824,-0.561,-0.004,0.013,0.009,0.096,0.014,-0.025,0.141,-0.968,0.766
2024-09-23 14:36:59.808,172904.275,0.079,0.824,-0.562,-0.018,0.012,0.003,0.113,0.031,-0.023,0.14,-0.968,0.766
2024-09-23 14:36:59.818,172904.285,0.079,0.823,-0.562,-0.047,0.017,-0.039,0.116,0.078,-0.024,0.14,-0.967,0.765
2024-09-23 14:36:59.828,172904.295,0.08,0.822,-0.563,0.003,-0.074,0.004,0.198,0.135,-0.004,0.141,-0.965,0.765
2024-09-23 14:36:59.838,172904.305,0.081,0.821,-0.565,-0.01,-0.024,0.016,0.218,0.196,0.017,0.143,-0.963,0.764
2024-09-23 14:36:59.848,172904.315,0.082,0.82,-0.566,-0.027,0.043,0.023,0.194,0.186,0.035,0.145,-0.962,0.764
2024-09-23 14:36:59.858,172904.325,0.084,0.819,-0.568,-0.025,0.007,0.023,0.19,0.128,0.059,0.146,-0.96,0.765
2024-09-23 14:36:59.868,172904.334,0.085,0.818,-0.569,-0.016,-0.034,-0.002,0.193,0.094,0.037,0.148,-0.958,0.765
2024-09-23 14:36:59.878,172904.344,0.085,0.817,-0.571,0.001,-0.014,-0.003,0.185,0.043,0.027,0.148,-0.956,0.765
2024-09-23 14:36:59.887,172904.354,0.086,0.816,-0.572,0.012,0.016,0.01,0.202,0.057,0.021,0.149,-0.954,0.765
2024-09-23 14:36:59.897,172904.364,0.086,0.815,-0.574,0.008,0.012,-0.002,0.206,0.027,-0.006,0.148,-0.952,0.764
2024-09-23 14:36:59.907,172904.374,0.086,0.813,-0.575,0.002,0.005,0.015,0.176,-0.003,-0.01,0.148,-0.95,0.764
2024-09-23 14:36:59.917,172904.384,0.086,0.812,-0.577,-0.0,-0.011,0.005,0.143,-0.015,-0.013,0.147,-0.948,0.763
2024-09-23 14:36:59.927,172904.394,0.085,0.812,-0.578,0.006,-0.012,-0.003,0.113,-0.013,-0.019,0.147,-0.947,0.762
2024-09-23 14:36:59.938,172904.404,0.085,0.811,-0.578,0.003,-0.018,-0.004,0.06,-0.028,-0.024,0.146,-0.947,0.762
2024-09-23 14:36:59.948,172904.414,0.084,0.811,-0.578,-0.001,-0.011,0.001,0.004,-0.045,-0.028,0.145,-0.946,0.761
2024-09-23 14:36:59.958,172904.424,0.084,0.811,-0.578,-0.001,-0.023,-0.01,-0.042,-0.059,-0.023,0.144,-0.947,0.761
2024-09-23 14:36:59.968,172904.434,0.083,0.812,-0.578,0.002,-0.029,-0.014,-0.065,-0.069,-0.029,0.143,-0.947,0.76
2024-09-23 14:36:59.977,172904.444,0.083,0.812,-0.577,0.001,-0.026,-0.009,-0.107,-0.051,-0.048,0.143,-0.948,0.76
2024-09-23 14:36:59.988,172904.454,0.082,0.813,-0.576,0.003,-0.022,-0.013,-0.106,-0.042,-0.026,0.142,-0.949,0.76
2024-09-23 14:36:59.997,172904.464,0.082,0.813,-0.576,-0.009,-0.003,-0.017,-0.01,0.046,0.005,0.142,-0.95,0.76
2024-09-23 14:37:00.007,172904.474,0.083,0.813,-0.576,-0.006,-0.004,0.004,0.051,0.165,0.092,0.144,-0.95,0.761
2024-09-23 14:37:00.017,172904.484,0.085,0.813,-0.576,0.002,0.006,-0.011,-0.006,0.106,0.048,0.146,-0.949,0.762
2024-09-23 14:37:00.027,172904.494,0.086,0.813,-0.576,-0.009,0.063,-0.011,0.075,0.146,0.044,0.148,-0.949,0.763
2024-09-23 14:37:00.038,172904.504,0.087,0.812,-0.576,-0.007,-0.046,0.027,-0.014,0.201,0.035,0.15,-0.948,0.763
2024-09-23 14:37:00.047,172904.514,0.089,0.812,-0.576,-0.003,-0.016,0.022,0.013,0.174,0.054,0.152,-0.948,0.764
2024-09-23 14:37:00.057,172904.524,0.09,0.812,-0.577,-0.031,0.02,0.007,0.004,0.154,0.062,0.155,-0.948,0.765
2024-09-23 14:37:00.067,172904.534,0.091,0.812,-0.577,-0.022,-0.075,0.015,0.003,0.128,0.04,0.157,-0.948,0.765
2024-09-23 14:37:00.076,172904.544,0.092,0.812,-0.576,-0.017,-0.001,0.006,-0.01,0.086,0.064,0.159,-0.947,0.766
2024-09-23 14:37:00.087,172904.554,0.093,0.812,-0.576,-0.024,0.027,-0.013,-0.045,0.04,0.028,0.16,-0.947,0.767
2024-09-23 14:37:00.097,172904.564,0.093,0.812,-0.576,-0.005,-0.023,-0.006,-0.048,-0.03,0.053,0.16,-0.948,0.768
2024-09-23 14:37:00.106,172904.574,0.093,0.812,-0.576,0.006,-0.001,-0.016,0.067,-0.032,0.028,0.16,-0.948,0.769
2024-09-23 14:37:00.117,172904.584,0.093,0.812,-0.577,-0.003,0.02,-0.006,0.133,0.011,0.007,0.16,-0.947,0.769
2024-09-23 14:37:00.127,172904.594,0.093,0.811,-0.578,0.013,0.022,0.017,0.174,0.019,0.018,0.16,-0.945,0.768
2024-09-23 14:37:00.137,172904.604,0.094,0.81,-0.579,0.005,0.032,0.026,0.122,0.024,0.046,0.16,-0.944,0.768
2024-09-23 14:37:00.146,172904.614,0.094,0.809,-0.58,-0.009,-0.006,0.012,0.016,0.002,0.068,0.161,-0.943,0.769
2024-09-23 14:37:00.157,172904.624,0.095,0.809,-0.58,-0.018,-0.029,0.01,-0.119,-0.022,0.119,0.162,-0.943,0.771
2024-09-23 14:37:00.167,172904.634,0.096,0.811,-0.578,-0.02,-0.05,-0.017,-0.35,-0.044,0.146,0.164,-0.945,0.773
2024-09-23 14:37:00.178,172904.644,0.097,0.813,-0.574,-0.01,-0.064,-0.011,-0.611,-0.053,0.117,0.167,-0.95,0.777
2024-09-23 14:37:00.187,172904.654,0.097,0.817,-0.568,-0.008,-0.115,-0.03,-0.84,-0.026,0.115,0.17,-0.957,0.781
2024-09-23 14:37:00.198,172904.664,0.099,0.822,-0.56,-0.015,-0.156,-0.058,-1.004,0.203,0.165,0.175,-0.965,0.786
2024-09-23 14:37:00.208,172904.674,0.102,0.828,-0.551,-0.02,-0.134,-0.06,-1.275,0.342,0.198,0.183,-0.976,0.793
2024-09-23 14:37:00.217,172904.684,0.106,0.836,-0.539,-0.041,-0.041,-0.053,-1.533,0.431,0.186,0.194,-0.99,0.801
2024-09-23 14:37:00.227,172904.694,0.109,0.844,-0.524,-0.088,-0.002,-0.099,-1.751,0.446,0.189,0.206,-1.005,0.81
2024-09-23 14:37:00.237,172904.704,0.113,0.854,-0.509,-0.064,-0.123,-0.107,-1.836,0.419,0.181,0.219,-1.023,0.821
