Date,TimeStamp,UserAccelerationX,UserAccelerationY,UserAccelerationZ,AttitudePitch,AttitudeRoll,AttitudeYaw,GravityX,GravityY,GravityZ,RotationRateX,RotationRateY,RotationRateZ
2024-11-02 11:14:31.505,1730517163.019134,-0.518191933631897,0.945976734161377,0.01000899076461792,-0.2082192402594988,-0.03809021098180192,-0.32700588659072855,-0.03725847229361534,0.20671793818473816,-0.9776908755302429,0.8708978295326233,0.8208512663841248,0.565778911113739
2024-11-02 11:14:31.509,1730517163.0229092,-0.5672014355659485,0.4582156538963318,-0.15985369682312012,-0.20407118150161463,-0.029686545521332566,-0.32124693605910165,-0.029066268354654312,0.20265769958496094,-0.9788181781768799,-0.19725818932056427,0.6103478074073792,0.5621317625045776
2024-11-02 11:14:31.515,1730517163.028469,-0.35414639115333557,-0.2536349296569824,-0.2065906524658203,-0.21288071535299427,-0.026646165016425465,-0.3137146816781444,-0.026041582226753235,0.21127645671367645,-0.9770793914794922,-1.4882566928863525,-0.3678083121776581,0.954606294631958
2024-11-02 11:14:31.519,1730517163.033424,-0.02582627721130848,-0.676598310470581,-0.18691253662109375,-0.22711441586491454,-0.031929482004458755,-0.3048524904628834,-0.031104253605008125,0.22516697645187378,-0.9738235473632812,-1.0799514055252075,-0.8809808492660522,0.7804776430130005
2024-11-02 11:14:31.521,1730517163.0352402,0.2151055634021759,-0.7389398217201233,-0.011077702045440674,-0.23108807037590157,-0.03709915190630607,-0.2991060813426158,-0.03610469028353691,0.22903680801391602,-0.9727479815483093,0.304736852645874,-0.2970025837421417,0.37535491585731506
2024-11-02 11:14:31.525,1730517163.038492,0.27660906314849854,-0.26942330598831177,0.0833171010017395,-0.2240988283260956,-0.03493584347435056,-0.29620983334610296,-0.03405533730983734,0.2222278118133545,-0.9743998050689697,0.9919963479042053,0.5339869856834412,0.1708555519580841
2024-11-02 11:14:31.526,1730517163.039978,0.04945247620344162,0.31089913845062256,-0.1806369423866272,-0.21504640828970828,-0.02833452249566787,-0.29465380183575746,-0.027678174898028374,0.21339276432991028,-0.9765743613243103,0.7460979223251343,0.6170904040336609,0.062297381460666656
2024-11-02 11:14:31.528,1730517163.041584,-0.1205795556306839,-0.043892547488212585,-0.3378700613975525,-0.2099517919266123,-0.02405492775861885,-0.29526941637392606,-0.023524435237050056,0.2084127515554428,-0.97775799036026,0.2797114849090576,0.24831771850585938,-0.23636174201965332
2024-11-02 11:14:31.529,1730517163.043291,0.09957022964954376,-0.7144071459770203,-0.2635285258293152,-0.20932534016544296,-0.024375287939257233,-0.29939805045032963,-0.023840846493840218,0.2078000158071518,-0.9778807759284973,-0.18475231528282166,-0.13082267343997955,-0.55064857006073
2024-11-02 11:14:31.532,1730517163.0455341,0.5093602538108826,-0.8249400854110718,0.030276894569396973,-0.2131157578668956,-0.028564947543925752,-0.3056571424429344,-0.02791491709649563,0.211506187915802,-0.9769779443740845,-0.597301721572876,-0.42038843035697937,-0.6266359090805054
2024-11-02 11:14:31.533,1730517163.0469398,0.6289047002792358,-0.7299470901489258,0.2756645679473877,-0.22051465853148391,-0.034517091742845216,-0.31208531953818647,-0.03367457166314125,0.2187318503856659,-0.9752037525177002,-0.8794305920600891,-0.47255975008010864,-0.5738674998283386
2024-11-02 11:14:31.534,1730517163.0480928,0.47260090708732605,-0.5617927312850952,0.34645670652389526,-0.2270063742262706,-0.04084428545129201,-0.3182107494910993,-0.039785340428352356,0.22506171464920044,-0.9735319018363953,-0.3254355788230896,-0.5171861052513123,-0.6157254576683044
2024-11-02 11:14:31.536,1730517163.0494661,0.22733935713768005,-0.23463362455368042,0.29836010932922363,-0.22641602626169796,-0.04547071510912023,-0.32613528535850655,-0.04429490864276886,0.22448647022247314,-0.9734699726104736,0.36868777871131897,0.02240230143070221,-0.9114452600479126
2024-11-02 11:14:31.537,1730517163.050945,0.03216148167848587,0.1498139649629593,0.1672440767288208,-0.221906267302602,-0.04528025656557578,-0.3346694107490989,-0.044154878705739975,0.22008953988552094,-0.9744798541069031,0.33695703744888306,0.27245715260505676,-0.7257228493690491
2024-11-02 11:14:31.539,1730517163.0526419,-0.10528873652219772,0.49565589427948,0.05069690942764282,-0.22106015547354912,-0.04535088545089354,-0.33994633764781557,-0.04423213005065918,0.21926410496234894,-0.9746623635292053,-0.2216292768716812,-0.08881530165672302,-0.3245527446269989
2024-11-02 11:14:31.541,1730517163.055068,-0.21341393887996674,0.33273187279701233,-0.03328251838684082,-0.2250560693056853,-0.04861877077265561,-0.3420741539192712,-0.04737401381134987,0.2231610119342804,-0.9736297130584717,-0.5350092053413391,-0.4513082802295685,-0.062113042920827866
2024-11-02 11:14:31.543,1730517163.056469,-0.17068709433078766,0.23393787443637848,0.03130829334259033,-0.22959112276436344,-0.053551880189312485,-0.3417202087238307,-0.052121732383966446,0.22757939994335175,-0.9723635911941528,-0.28183233737945557,-0.4904293119907379,0.18305277824401855
2024-11-02 11:14:31.544,1730517163.0576448,-0.14061430096626282,0.6660436391830444,0.1630544662475586,-0.2295992014892708,-0.055778110419622495,-0.3386501249195337,-0.054286204278469086,0.2275872677564621,-0.9722433090209961,0.28810879588127136,-0.04022672772407532,0.3963302671909332
2024-11-02 11:14:31.545,1730517163.058909,-0.2803426682949066,0.9113463163375854,0.1484655737876892,-0.22488263462523553,-0.051888649466395625,-0.3339416148087615,-0.05055941268801689,0.2229919582605362,-0.9735082387924194,0.6552420854568481,0.5715319514274597,0.46470773220062256
2024-11-02 11:14:31.546,1730517163.060295,-0.4772208333015442,0.7753677368164062,0.026766717433929443,-0.21882124725587973,-0.04404599703971071,-0.3287303811207274,-0.04298177734017372,0.21707913279533386,-0.9752072691917419,0.5730120539665222,0.6979075074195862,0.4782443642616272
2024-11-02 11:14:31.548,1730517163.061486,-0.519261360168457,0.42216944694519043,-0.06872367858886719,-0.21484009015338634,-0.037174091620473436,-0.3239820427756997,-0.036311112344264984,0.2131911963224411,-0.9763355255126953,0.23005525767803192,0.4527212083339691,0.40996626019477844
2024-11-02 11:14:31.549,1730517163.062737,-0.3226620852947235,-0.12458443641662598,-0.130842924118042,-0.2166218650095871,-0.03320722793179326,-0.3199511298595865,-0.032425183802843094,0.2149316668510437,-0.976090669631958,-0.654720664024353,0.15463916957378387,0.4335602819919586
2024-11-02 11:14:31.550,1730517163.063947,-0.03765131160616875,-0.5402182340621948,-0.16404247283935547,-0.22655369649857302,-0.034040992637520764,-0.3145160094207752,-0.03316471353173256,0.22462062537670135,-0.9738817811012268,-1.236374855041504,-0.5380764603614807,0.6587420105934143
2024-11-02 11:14:31.551,1730517163.065166,0.14936640858650208,-0.6496239304542542,-0.15023082494735718,-0.2360380377301302,-0.038960287718794576,-0.30915409161739615,-0.03787041828036308,0.23385237157344818,-0.9715343117713928,-0.503049910068512,-0.5308417677879333,0.40774351358413696
2024-11-02 11:14:31.553,1730517163.066598,0.22139447927474976,-0.549407422542572,-0.04289883375167847,-0.23593153051562754,-0.04074085068604212,-0.3066199287553945,-0.03960125148296356,0.23374880850315094,-0.971490204334259,0.4670829474925995,0.07863041758537292,0.11654336005449295
2024-11-02 11:14:31.554,1730517163.068025,0.1660313606262207,-0.1357690542936325,-0.11686992645263672,-0.23001599542973689,-0.03762102345641642,-0.3056502378043794,-0.03662154823541641,0.22799310088157654,-0.9729738235473633,0.6561167240142822,0.4351091682910919,0.03556089848279953
2024-11-02 11:14:31.555,1730517163.069454,0.008891865611076355,0.09005682170391083,-0.3346914052963257,-0.2243196495577698,-0.03374564511676837,-0.3059287280850182,-0.03289392590522766,0.2224431037902832,-0.9743906259536743,0.44253700971603394,0.30587688088417053,-0.1470336765050888
2024-11-02 11:14:31.559,1730517163.072614,0.034858159720897675,-0.30587267875671387,-0.3229515552520752,-0.2213099973991369,-0.03288897631281666,-0.30844069014185826,-0.03208105266094208,0.2195078581571579,-0.9750831127166748,0.13834118843078613,-0.039435237646102905,-0.3545743227005005
2024-11-02 11:14:31.560,1730517163.074157,0.29944485425949097,-0.5808150768280029,-0.11257565021514893,-0.2209287749498226,-0.03618720840452994,-0.312688901056609,-0.03529994934797287,0.21913592517375946,-0.9750555753707886,-0.07449916750192642,-0.40624332427978516,-0.45846208930015564
2024-11-02 11:14:31.562,1730517163.0761871,0.5193636417388916,-0.49183177947998047,0.14724338054656982,-0.22193592756432814,-0.04180900145969055,-0.31732489217982834,-0.04077167809009552,0.2201184779405594,-0.9746206998825073,-0.1580640971660614,-0.4758141338825226,-0.42741265892982483
2024-11-02 11:14:31.562,1730517163.076375,0.4776429235935211,-0.2836781144142151,0.27890610694885254,-0.222912770422146,-0.047171214909419945,-0.3214706997905496,-0.04598702862858772,0.221071258187294,-0.974172830581665,-0.024405358359217644,-0.42225825786590576,-0.3810363709926605
2024-11-02 11:14:31.564,1730517163.0777168,0.25312313437461853,-0.008469074964523315,0.30243492126464844,-0.21983002257152767,-0.052004930826378776,-0.3260466160183432,-0.05073053389787674,0.21806374192237854,-0.9746150970458984,0.6094818115234375,-0.27859482169151306,-0.5848493576049805
2024-11-02 11:14:31.565,1730517163.079063,0.02549053728580475,0.22580033540725708,0.24494504928588867,-0.21137808221902737,-0.05348506275589494,-0.3325641393285902,-0.05226970091462135,0.20980751514434814,-0.9763445258140564,0.9144928455352783,0.2458348572254181,-0.7258645296096802
2024-11-02 11:14:31.566,1730517163.080229,-0.10760116577148438,0.40736013650894165,0.16042321920394897,-0.20450543205590832,-0.05202956898889558,-0.33839597933705984,-0.050922371447086334,0.20308291912078857,-0.9778364896774292,0.3266655206680298,0.19013111293315887,-0.46046289801597595
2024-11-02 11:14:31.568,1730517163.0815601,-0.20069630444049835,0.36266428232192993,0.10532450675964355,-0.20499146621944897,-0.052767056040947995,-0.34164661302591637,-0.05163828656077385,0.2035588026046753,-0.9776999950408936,-0.41435396671295166,-0.20772303640842438,-0.19050654768943787
2024-11-02 11:14:31.572,1730517163.086098,-0.23927602171897888,0.03398558497428894,0.05976235866546631,-0.21017301108254646,-0.05622542129259343,-0.34270281687839926,-0.05495920404791832,0.20862910151481628,-0.9764493703842163,-0.5481795072555542,-0.40297216176986694,0.05016455426812172
2024-11-02 11:14:31.580,1730517163.09424,-0.17471033334732056,0.15404172241687775,0.13871723413467407,-0.2132320397358025,-0.059349107561290346,-0.3410311344375065,-0.05797092616558075,0.21161983907222748,-0.9756312966346741,0.011752191931009293,-0.2388780266046524,0.29066741466522217
2024-11-02 11:14:31.582,1730517163.09619,-0.20538455247879028,0.5465787649154663,0.1497131586074829,-0.21016819770828757,-0.058149306342504994,-0.33741648359141274,-0.05683773756027222,0.20862439274787903,-0.9763428568840027,0.6258614659309387,0.35600343346595764,0.37221476435661316
2024-11-02 11:14:31.583,1730517163.097419,-0.35815995931625366,0.7381910085678101,0.0297621488571167,-0.20270847396051125,-0.0513610485212309,-0.33271511637367995,-0.050287310034036636,0.20132307708263397,-0.9782332181930542,0.8523537516593933,0.7412243485450745,0.4648815989494324
2024-11-02 11:14:31.585,1730517163.0986419,-0.4559411108493805,0.6748678684234619,-0.0970492959022522,-0.19543819214425295,-0.04306063092324459,-0.32751493118389563,-0.04222781956195831,0.1941964030265808,-0.9800533652305603,0.6142415404319763,0.665269672870636,0.4656984508037567
2024-11-02 11:14:31.589,1730517163.102942,-0.3872362971305847,0.18823063373565674,-0.18014788627624512,-0.1925809098897033,-0.036838510972494576,-0.32312717128067175,-0.036149319261312485,0.19139273464679718,-0.9808475971221924,-0.0950452983379364,0.3932884931564331,0.39464157819747925
2024-11-02 11:14:31.591,1730517163.104547,-0.1268489807844162,-0.3045593798160553,-0.19025659561157227,-0.19874848334581557,-0.03508842667223364,-0.31826420736787137,-0.034390632063150406,0.19744260609149933,-0.9797110557556152,-1.0089296102523804,-0.2919553518295288,0.6130592823028564
2024-11-02 11:14:31.592,1730517163.1057491,0.13345876336097717,-0.5631296038627625,-0.19552457332611084,-0.2090894398551351,-0.03891802852991443,-0.31288681715078137,-0.03806079551577568,0.20756925642490387,-0.9774796366691589,-0.7936127781867981,-0.5849624872207642,0.4456271529197693
2024-11-02 11:14:31.593,1730517163.106896,0.2554011046886444,-0.7160906791687012,-0.13034909963607788,-0.21168665424569758,-0.042057606012656366,-0.31050166792442296,-0.04110667109489441,0.21010920405387878,-0.9768133759498596,0.2875685393810272,-0.09955183416604996,0.0557430237531662
2024-11-02 11:14:31.594,1730517163.108094,0.24442127346992493,-0.49127519130706787,-0.07799273729324341,-0.20551793506171112,-0.04032452386053184,-0.3108561409615255,-0.03946521505713463,0.2040742188692093,-0.9781596064567566,0.8584735989570618,0.40855294466018677,-0.16679471731185913
2024-11-02 11:14:31.595,1730517163.1094232,0.10647740215063095,-0.071507528424263,-0.20561450719833374,-0.19785691506814615,-0.03639454187078062,-0.3129603971562472,-0.035676609724760056,0.19656850397586823,-0.9798408150672913,0.5785385966300964,0.3667120039463043,-0.2864380180835724
2024-11-02 11:14:31.597,1730517163.1107059,0.07949161529541016,-0.20739498734474182,-0.14430612325668335,-0.1947223745266384,-0.03602106209338008,-0.3161530688800964,-0.03533267229795456,0.19349417090415955,-0.9804649949073792,0.02319040708243847,-0.1904231458902359,-0.37379157543182373
2024-11-02 11:14:31.598,1730517163.11199,0.26904770731925964,-0.5961523056030273,0.006640076637268066,-0.1960849745063398,-0.04097762412008243,-0.3206664133601517,-0.04018111526966095,0.19483083486557007,-0.9800134897232056,-0.30026108026504517,-0.5725247263908386,-0.4884015619754791
2024-11-02 11:14:31.599,1730517163.113203,0.496567040681839,-0.5479316711425781,0.2206447720527649,-0.19977041307517118,-0.04782909193725756,-0.32560830845468847,-0.04686000198125839,0.19844432175159454,-0.9789913296699524,-0.46261563897132874,-0.5684106945991516,-0.4260827898979187
2024-11-02 11:14:31.601,1730517163.114482,0.44402486085891724,-0.17237511277198792,0.31715619564056396,-0.20368781381549694,-0.05385195250028865,-0.3296686581585958,-0.052713196724653244,0.20228227972984314,-0.9779075384140015,-0.282568097114563,-0.489044189453125,-0.3537777364253998
2024-11-02 11:14:31.602,1730517163.115654,0.15623481571674347,0.10700315237045288,0.2706637382507324,-0.20333984850060455,-0.058441880485532255,-0.33409760590051696,-0.057205259799957275,0.20194149017333984,-0.9777255058288574,0.27370765805244446,-0.1638815551996231,-0.5337691307067871
2024-11-02 11:14:31.605,1730517163.1187348,-0.09376421570777893,0.28205931186676025,0.1730356216430664,-0.19931442915270167,-0.05839482214563526,-0.3392464065718518,-0.057206228375434875,0.19799737632274628,-0.9785317778587341,0.3951372802257538,0.30744922161102295,-0.47717803716659546
2024-11-02 11:14:31.607,1730517163.1205568,-0.19588696956634521,0.48836463689804077,0.11100047826766968,-0.1974712494751423,-0.05630452794116346,-0.3425737120257556,-0.05518113076686859,0.19619035720825195,-0.9790119528770447,-0.06994067132472992,0.1698455512523651,-0.19504275918006897
2024-11-02 11:14:31.608,1730517163.1217,-0.24938826262950897,0.36928504705429077,0.10431152582168579,-0.1999616710114538,-0.05635991619576423,-0.34368840804916645,-0.05520766228437424,0.19863176345825195,-0.978518009185791,-0.4125930070877075,-0.1327209770679474,-0.015221217647194862
2024-11-02 11:14:31.609,1730517163.1228251,-0.2198270857334137,0.10363668203353882,0.19418638944625854,-0.20459613951250924,-0.05880687832444333,-0.34344028821086375,-0.05754716694355011,0.2031717449426651,-0.9774505496025085,-0.46779102087020874,-0.3718203604221344,0.11246084421873093
2024-11-02 11:14:31.610,1730517163.123965,-0.06808411329984665,0.2855302691459656,0.343680739402771,-0.20828191839895607,-0.06298710182196464,-0.34215288178202485,-0.06158506125211716,0.20677925646305084,-0.9764474630355835,-0.22302477061748505,-0.4682811200618744,0.18884409964084625
2024-11-02 11:14:31.611,1730517163.125087,-0.05539025366306305,0.41884464025497437,0.2584344744682312,-0.2096094269556011,-0.0655827436413886,-0.33966384805171373,-0.06410130858421326,0.20807789266109467,-0.9760095477104187,-0.048754967749118805,-0.1059921532869339,0.30817580223083496
2024-11-02 11:14:31.612,1730517163.126198,-0.22470644116401672,0.22484806180000305,-0.035351574420928955,-0.21001130755313296,-0.06342606585172762,-0.33679626753261244,-0.06199092045426369,0.20847095549106598,-0.976061999797821,-0.024719422683119774,0.3970504701137543,0.23235438764095306
2024-11-02 11:14:31.613,1730517163.1274328,-0.3713133931159973,0.01771204173564911,-0.22399818897247314,-0.21124192175872056,-0.05811088910391918,-0.33522634560744174,-0.05678718537092209,0.20967437326908112,-0.9761208295822144,-0.2402530461549759,0.5617280602455139,0.09795556962490082
2024-11-02 11:14:31.615,1730517163.128703,-0.3855302929878235,-0.18870319426059723,-0.3699321150779724,-0.21568588212340276,-0.05285212416580058,-0.33513180036727225,-0.05160349979996681,0.21401746571063995,-0.9754658341407776,-0.6862959861755371,0.48538699746131897,-0.035709232091903687
2024-11-02 11:14:31.616,1730517163.1298928,-0.22133144736289978,-0.552849292755127,-0.4397711157798767,-0.22547010869524928,-0.04912680350355749,-0.336685341855387,-0.04786410182714462,0.22356459498405457,-0.9735131859779358,-1.2781050205230713,0.30131596326828003,-0.1599518358707428
2024-11-02 11:14:31.617,1730517163.131084,0.046072572469711304,-0.7225311994552612,-0.3415842056274414,-0.23982285007203552,-0.04835993691260109,-0.33922298986193566,-0.04695757105946541,0.23753054440021515,-0.9702444076538086,-1.5526530742645264,-0.035037025809288025,-0.19115592539310455
2024-11-02 11:14:31.618,1730517163.132257,0.23294071853160858,-0.6425304412841797,-0.13187402486801147,-0.25428598216422066,-0.05025091077134545,-0.3422570663918466,-0.048614535480737686,0.2515544295310974,-0.966621458530426,-1.342759132385254,-0.1483984738588333,-0.26318323612213135
2024-11-02 11:14:31.621,1730517163.134852,0.2906322479248047,-0.42404863238334656,0.10235017538070679,-0.26691299038367267,-0.051780722328087926,-0.345740468830743,-0.049924835562705994,0.2637549936771393,-0.9632968306541443,-1.2984209060668945,0.033731650561094284,-0.25435400009155273
2024-11-02 11:14:31.623,1730517163.136481,0.24763865768909454,-0.10505673289299011,0.2633240222930908,-0.2824896474903564,-0.0517441981788518,-0.3484699310409553,-0.04967111349105835,0.27874746918678284,-0.9590790271759033,-1.9202828407287598,0.08889131247997284,-0.10741676390171051
2024-11-02 11:14:31.624,1730517163.1376848,0.13257142901420593,0.05161586403846741,0.2984738349914551,-0.30566052815861355,-0.05201206882920908,-0.3504443293723673,-0.04957886412739754,0.3009231388568878,-0.9523587226867676,-2.7000715732574463,-0.04080090671777725,-0.04422128200531006
2024-11-02 11:14:31.625,1730517163.138904,0.05208434537053108,-0.06905469298362732,0.2899792194366455,-0.3341332766546414,-0.05315567422436431,-0.35240133843091365,-0.050192251801490784,0.32795050740242004,-0.9433605670928955,-2.958833694458008,-0.04234740138053894,-0.02364623360335827
2024-11-02 11:14:31.626,1730517163.140067,0.04478265345096588,-0.24608513712882996,0.18760675191879272,-0.36386339285127456,-0.05308820488565206,-0.35413000995642036,-0.04958915710449219,0.3558873236179352,-0.9332122802734375,-2.984933853149414,0.19749422371387482,0.012257598340511322
2024-11-02 11:14:31.627,1730517163.141228,0.012339476495981216,-0.16456842422485352,-0.0494266152381897,-0.39393162377338914,-0.05000196265521492,-0.3553901284625772,-0.046152930706739426,0.38382187485694885,-0.9222530126571655,-3.0900895595550537,0.5143754482269287,0.07571513950824738
2024-11-02 11:14:31.629,1730517163.142571,-0.08835477381944656,0.05007582902908325,-0.19097059965133667,-0.42649737405083243,-0.04400259396700518,-0.355651374761351,-0.04004792869091034,0.4136844873428345,-0.9095390439033508,-3.464507818222046,0.6911023259162903,0.18278944492340088
2024-11-02 11:14:31.630,1730517163.143876,-0.1889181137084961,-0.011128783226013184,-0.15423893928527832,-0.46273925208178573,-0.03692724898662888,-0.35511975735353607,-0.033036213368177414,0.4464009404182434,-0.8942230343818665,-3.714745044708252,0.6529834270477295,0.1944279819726944
2024-11-02 11:14:31.631,1730517163.145043,-0.16504763066768646,-0.14526289701461792,-0.06026500463485718,-0.49866706011380213,-0.03097420079821688,-0.35440469069618163,-0.027197837829589844,0.47825536131858826,-0.8777995705604553,-3.410184144973755,0.4588451385498047,0.18571263551712036
2024-11-02 11:14:31.632,1730517163.146172,-0.06968724727630615,-0.1658594012260437,-0.022836744785308838,-0.5295247057570656,-0.026788173218350156,-0.3532708973923981,-0.023116692900657654,0.5051231980323792,-0.8627375960350037,-2.6816070079803467,0.266682893037796,0.1788504719734192
2024-11-02 11:14:31.633,1730517163.147301,-0.016082845628261566,-0.0662197470664978,-0.06577813625335693,-0.5502137876732537,-0.024347257725762662,-0.3522283337003214,-0.020751861855387688,0.5228694677352905,-0.8521600961685181,-1.4345190525054932,0.11776264011859894,0.09584831446409225
2024-11-02 11:14:31.635,1730517163.148569,-0.010408792644739151,0.18867075443267822,-0.09939420223236084,-0.5579743257395263,-0.023238413703321754,-0.3519478922245144,-0.0197120551019907,0.529468834400177,-0.8481003046035767,-0.15356169641017914,0.10163560509681702,-0.0002739592455327511
2024-11-02 11:14:31.637,1730517163.151351,-0.050021976232528687,0.3970103859901428,-0.17316335439682007,-0.5555703983529304,-0.021441525069437146,-0.35202111967281285,-0.018215317279100418,0.5274279713630676,-0.8494044542312622,0.5686701536178589,0.25905078649520874,-0.01225978136062622
2024-11-02 11:14:31.639,1730517163.1532578,-0.08917393535375595,0.5248239636421204,-0.12993013858795166,-0.5481092394382538,-0.018735042017352706,-0.35188127246839535,-0.0159896332770586,0.5210743546485901,-0.8533614873886108,0.8564667701721191,0.24550436437129974,0.01595321297645569
2024-11-02 11:14:31.641,1730517163.1545181,-0.10605740547180176,0.4931468963623047,0.026768088340759277,-0.5396389530917908,-0.01653174662859994,-0.3508882042287978,-0.01418184395879507,0.513826310634613,-0.8577769994735718,0.8491910696029663,0.07630734890699387,0.12600882351398468
2024-11-02 11:14:31.642,1730517163.155654,-0.049373820424079895,0.26962804794311523,0.14647012948989868,-0.5310794710982001,-0.015807601419786866,-0.3488097773219603,-0.01362970843911171,0.506464421749115,-0.862153172492981,0.8768290877342224,-0.14326469600200653,0.19008846580982208
2024-11-02 11:14:31.643,1730517163.15689,0.07661280781030655,0.1109970211982727,0.23186028003692627,-0.5213747898287955,-0.017173481636093443,-0.34667579382461444,-0.014890999533236027,0.4980727434158325,-0.8670073747634888,1.11774742603302,-0.33283355832099915,0.1401301771402359
2024-11-02 11:14:31.644,1730517163.158081,0.160387322306633,0.11018231511116028,0.2767934203147888,-0.5080761387476386,-0.020210782120122655,-0.3450804633614854,-0.01765659637749195,0.48649731278419495,-0.8735036253929138,1.5653156042099,-0.42434802651405334,0.08980735391378403
2024-11-02 11:14:31.645,1730517163.1592832,0.14945466816425323,0.1807428002357483,0.25793278217315674,-0.48980801997787604,-0.02396302236623249,-0.3437377002072003,-0.021143503487110138,0.47045648097991943,-0.8821698427200317,2.0904979705810547,-0.45057564973831177,0.06433022022247314
2024-11-02 11:14:31.646,1730517163.160444,0.09081361442804337,0.2396509051322937,0.1611189842224121,-0.466612143949288,-0.027998858146770302,-0.3425483637710998,-0.02500244230031967,0.4498631954193115,-0.8927474617958069,2.5580191612243652,-0.47064414620399475,0.021858401596546173
2024-11-02 11:14:31.648,1730517163.1615949,0.03583413362503052,0.26971036195755005,0.06878560781478882,-0.4391719017250309,-0.03231386666469521,-0.3413509067155451,-0.029242321848869324,0.4251900911331177,-0.9046315550804138,2.8970706462860107,-0.49074089527130127,0.03882545232772827
2024-11-02 11:14:31.649,1730517163.162763,-0.003119286149740219,0.27434712648391724,0.005421280860900879,-0.4092534165956617,-0.03630923102272645,-0.3395196746809967,-0.03330342844128609,0.3979245126247406,-0.9168134927749634,3.0716254711151123,-0.45548996329307556,0.0871458426117897
2024-11-02 11:14:31.650,1730517163.1639218,-0.01629015803337097,0.3001745045185089,0.0013293623924255371,-0.38105369788299037,-0.037246962923363956,-0.3369209690270737,-0.034567367285490036,0.3718988001346588,-0.9276294708251953,2.3422598838806152,0.07496937364339828,0.1714460849761963
2024-11-02 11:14:31.651,1730517163.165143,-0.01072198897600174,0.27462369203567505,0.09447777271270752,-0.36307691807131914,-0.034241088993051526,-0.3345276583396406,-0.03200260549783707,0.3551522493362427,-0.9342605471611023,1.3270368576049805,0.20461630821228027,0.1364755779504776
2024-11-02 11:14:31.656,1730517163.1696339,-0.020342715084552765,0.0768442451953888,0.17564737796783447,-0.35329586505041,-0.034270427398140214,-0.3326642439466065,-0.03214750438928604,0.34599199891090393,-0.937686562538147,0.7447472810745239,-0.29310718178749084,0.15595643222332
2024-11-02 11:14:31.657,1730517163.171122,-0.06951076537370682,-0.298953652381897,-0.22821837663650513,-0.34659210819673836,-0.03533470678741753,-0.3303887684582169,-0.03322664275765419,0.3396945297718048,-0.9399487376213074,0.5634579062461853,0.010178656317293644,0.2219194769859314
2024-11-02 11:14:31.658,1730517163.172317,0.03030066192150116,-0.5343605279922485,-0.2201281189918518,-0.34295435286816967,-0.03312009777752487,-0.3285158091728743,-0.031185656785964966,0.33627086877822876,-0.9412488341331482,0.1992603838443756,0.22150209546089172,0.07206586003303528
2024-11-02 11:14:31.660,1730517163.173518,0.1348346322774887,-0.3191516697406769,-0.15176230669021606,-0.3421941252679143,-0.031259347978812864,-0.3285698821941039,-0.029442157596349716,0.3355548083782196,-0.9415605068206787,-0.006419276352971792,0.15614944696426392,-0.0461135134100914
2024-11-02 11:14:31.661,1730517163.1746469,0.09508275240659714,-0.291170597076416,-0.2917076349258423,-0.3421168930032202,-0.029748527473844058,-0.328533684830975,-0.02802036516368389,0.33548206090927124,-0.9416297674179077,0.02352939546108246,0.16986259818077087,0.04846135526895523
2024-11-02 11:14:31.662,1730517163.175792,0.1252133697271347,-0.4668235182762146,-0.31057310104370117,-0.3417377319242239,-0.027891654451903895,-0.328260796425266,-0.026275377720594406,0.3351248502731323,-0.9418072700500488,0.06927238404750824,0.16287313401699066,-0.01629260554909706
2024-11-02 11:14:31.663,1730517163.177067,0.22878868877887726,-0.36270102858543396,-0.2050083875656128,-0.34062418498704816,-0.026777936549818485,-0.32867461529664177,-0.025236429646611214,0.3340754806995392,-0.9422084093093872,0.14391763508319855,0.06560889631509781,-0.052393727004528046
2024-11-02 11:14:31.664,1730517163.178283,0.27820324897766113,-0.10231834650039673,-0.06160378456115723,-0.3394355350064273,-0.026660366700078757,-0.32896761146244385,-0.025136221200227737,0.33295488357543945,-0.9426076412200928,0.08334430307149887,-0.02152840606868267,-0.01571880280971527
2024-11-02 11:14:31.665,1730517163.1794229,0.25996312499046326,-0.029761075973510742,0.10620748996734619,-0.33912626332018536,-0.02729867172080214,-0.3291286999361259,-0.025740697979927063,0.33266323804855347,-0.9426943063735962,-0.02325202152132988,-0.11178479343652725,-0.021053647622466087
2024-11-02 11:14:31.667,1730517163.1806731,0.21660852432250977,-0.0013980865478515625,0.24095213413238525,-0.3396635242456452,-0.02938770681521265,-0.3295341013123295,-0.02770470455288887,0.3331698477268219,-0.9424597024917603,-0.06545380502939224,-0.2769439220428467,-0.05008050426840782
2024-11-02 11:14:31.668,1730517163.181884,0.14135459065437317,0.0669633150100708,0.30996012687683105,-0.3393700918968496,-0.03296511126656457,-0.32995296270978924,-0.031079301610589027,0.33289316296577454,-0.9424522519111633,0.15875211358070374,-0.4100487232208252,-0.032463908195495605
2024-11-02 11:14:31.671,1730517163.1846972,0.04789924621582031,0.1090330183506012,0.3364219665527344,-0.3348415191788121,-0.03750901867825302,-0.3304459559150518,-0.035417553037405014,0.32861948013305664,-0.9437980651855469,0.7776665091514587,-0.42658960819244385,-0.12326757609844208
2024-11-02 11:14:31.672,1730517163.186384,-0.05814838409423828,0.17356330156326294,0.3276253342628479,-0.32569454386818986,-0.039906852451841904,-0.3318995356423266,-0.037798862904310226,0.3199668824672699,-0.9466744065284729,0.9530797600746155,0.05982823297381401,-0.175090029835701
2024-11-02 11:14:31.674,1730517163.187619,-0.1754940152168274,0.33295533061027527,0.23284941911697388,-0.3185536401510926,-0.038792958839322655,-0.33175546650418597,-0.03683202341198921,0.31319329142570496,-0.9489749073982239,0.40235698223114014,0.05579753965139389,0.15920644998550415
2024-11-02 11:14:31.675,1730517163.188916,-0.29480576515197754,0.3718152940273285,0.060340940952301025,-0.3171605129313922,-0.03880385645358551,-0.328838365306295,-0.03685925528407097,0.31186994910240173,-0.949409544467926,-0.029302051290869713,-0.19324450194835663,0.33647066354751587
2024-11-02 11:14:31.676,1730517163.1901321,-0.37501370906829834,0.11154207587242126,-0.1023288369178772,-0.31772692773414296,-0.038449263183326345,-0.32554564526253654,-0.03651580214500427,0.31240805983543396,-0.9492459297180176,-0.023282241076231003,0.09558996558189392,0.29333704710006714
2024-11-02 11:14:31.677,1730517163.191296,-0.3488982617855072,0.03195938467979431,-0.20532703399658203,-0.3179764082571682,-0.03494010337329632,-0.3223320010764094,-0.0331818051636219,0.3126450479030609,-0.9492902755737305,-0.029441099613904953,0.3931550681591034,0.3316414952278137
2024-11-02 11:14:31.678,1730517163.192432,-0.3576875925064087,0.09948554635047913,-0.31737440824508667,-0.3203805999727631,-0.02874270076861074,-0.31848099476728753,-0.02727639116346836,0.3149278163909912,-0.9487236142158508,-0.5375818610191345,0.5700576305389404,0.4308581054210663
2024-11-02 11:14:31.680,1730517163.193552,-0.3296770751476288,-0.06344285607337952,-0.30341678857803345,-0.32897279413796315,-0.023643674807908924,-0.31297841948585875,-0.022373691201210022,0.32307106256484985,-0.946110188961029,-1.0300687551498413,0.0007838236051611602,0.6291716694831848
2024-11-02 11:14:31.681,1730517163.194725,-0.12969596683979034,-0.32423099875450134,-0.20238608121871948,-0.33662554678853707,-0.024352531653652275,-0.307596331157035,-0.02298346534371376,0.3303039073944092,-0.943594753742218,-0.33264151215553284,-0.3870435357093811,0.3522290289402008
2024-11-02 11:14:31.682,1730517163.195868,0.16151569783687592,-0.4469582438468933,-0.0263635516166687,-0.33375030304418757,-0.02636124276551005,-0.3068805465093073,-0.024903755635023117,0.32758867740631104,-0.9444921612739563,0.8768469095230103,0.003148178104311228,-0.22877119481563568
2024-11-02 11:14:31.683,1730517163.197027,0.3903905749320984,-0.18225112557411194,0.057550251483917236,-0.3234994442124458,-0.02534424197778967,-0.30988986397485113,-0.024027032777667046,0.3178864121437073,-0.9478242993354797,0.9924160838127136,0.3330174386501312,-0.2960333228111267
2024-11-02 11:14:31.684,1730517163.1983109,0.33267202973365784,0.09976521134376526,-0.12699174880981445,-0.31613404639387693,-0.023264788086805984,-0.3113969533756463,-0.022109894081950188,0.31089451909065247,-0.9501872062683105,0.4918794631958008,0.1289929300546646,-0.051457732915878296
2024-11-02 11:14:31.687,1730517163.2008839,0.18971864879131317,-0.24077174067497253,-0.2489612102508545,-0.31246669645824,-0.0237247761572318,-0.3121164204346663,-0.022573862224817276,0.30740681290626526,-0.951310396194458,0.2935011386871338,-0.1647060662508011,-0.13771910965442657
2024-11-02 11:14:31.689,1730517163.202654,0.26032310724258423,-0.49892115592956543,-0.12441444396972656,-0.3087660237180815,-0.026774851007194397,-0.3141415417034049,-0.02550560049712658,0.30388325452804565,-0.9523677825927734,0.44642144441604614,-0.29684680700302124,-0.24820701777935028
2024-11-02 11:14:31.690,1730517163.20394,0.3693372309207916,-0.21815213561058044,0.07696378231048584,-0.30346142436605794,-0.030254654387173268,-0.31636648984889787,-0.028867850080132484,0.2988252639770508,-0.9538711309432983,0.6177300214767456,-0.2605452537536621,-0.1948511153459549
2024-11-02 11:14:31.691,1730517163.2051039,0.2937701344490051,0.12924644351005554,0.17771196365356445,-0.2947093428893051,-0.03340602442894138,-0.3182169871729202,-0.03195983171463013,0.2904617488384247,-0.956352710723877,1.1790657043457031,-0.24695727229118347,-0.26057809591293335
2024-11-02 11:14:31.692,1730517163.206236,0.11053550243377686,0.23388251662254333,0.2049071192741394,-0.2796352909173766,-0.03498160606022073,-0.32200781611403606,-0.03361592814326286,0.2760051190853119,-0.9605681300163269,1.790419578552246,0.18307161331176758,-0.5723711252212524
2024-11-02 11:14:31.693,1730517163.207378,-0.014044124633073807,0.30231329798698425,0.20569604635238647,-0.26166711472464116,-0.033093444923523396,-0.32809200765153473,-0.0319611094892025,0.25869128108024597,-0.9654311537742615,1.6323879957199097,0.4316159188747406,-0.6843470335006714
2024-11-02 11:14:31.695,1730517163.208616,-0.0681830644607544,0.3142617344856262,0.22930926084518433,-0.24881391635540634,-0.03214696880769803,-0.33393541104410146,-0.03115164302289486,0.2462545782327652,-0.9687044024467468,0.8680076003074646,0.006281387060880661,-0.5221767425537109
2024-11-02 11:14:31.696,1730517163.209816,-0.1226215735077858,-0.08837741613388062,0.2021062970161438,-0.24373762538560118,-0.035776651179797885,-0.33848948083440106,-0.03471178561449051,0.24133145809173584,-0.9698217511177063,0.15986667573451996,-0.4954983592033386,-0.4028559923171997
2024-11-02 11:14:31.697,1730517163.21097,-0.09536857903003693,-0.3649625778198242,0.2838618755340576,-0.24498448181307506,-0.04271446303888825,-0.34160483839635736,-0.04142645746469498,0.24254126846790314,-0.9692562222480774,-0.4026448428630829,-0.7070388793945312,-0.15367864072322845
2024-11-02 11:14:31.698,1730517163.212146,-0.06076885759830475,-0.06710675358772278,0.31794553995132446,-0.2498588717259734,-0.049585756244355364,-0.3411619869631364,-0.048026300966739655,0.2472672164440155,-0.9677563905715942,-0.4800562858581543,-0.6324141621589661,0.27565017342567444
2024-11-02 11:14:31.699,1730517163.213305,-0.22069254517555237,0.3336346447467804,0.0949544906616211,-0.25226920179881107,-0.05168712937470208,-0.3372558969209723,-0.05002887174487114,0.24960197508335114,-0.9670553207397461,0.11657088994979858,0.09803607314825058,0.4579656720161438
2024-11-02 11:14:31.700,1730517163.2144399,-0.503784716129303,0.5472442507743835,-0.1383669376373291,-0.2479521565703568,-0.044795227168889076,-0.3324617719751045,-0.043410733342170715,0.24541926383972168,-0.9684445858001709,0.6887426972389221,0.9730011224746704,0.45125478506088257
2024-11-02 11:14:31.702,1730517163.2155771,-0.6652806401252747,0.6930263042449951,-0.26202231645584106,-0.24291889550954765,-0.03258091515321554,-0.32685943356627933,-0.031618744134902954,0.24053683876991272,-0.9701249003410339,0.16023041307926178,1.1246020793914795,0.6112380027770996
2024-11-02 11:14:31.705,1730517163.219173,-0.5846130847930908,0.47283583879470825,-0.3194194436073303,-0.24877748396967342,-0.023063010317590858,-0.3192422217681218,-0.022351015359163284,0.24621926248073578,-0.9689564108848572,-1.3266961574554443,0.29773426055908203,0.8993389010429382
2024-11-02 11:14:31.707,1730517163.220768,-0.25419819355010986,-0.07235631346702576,-0.2296910285949707,-0.2663038800871992,-0.02242728646591514,-0.3101576319868528,-0.021634915843605995,0.2631674110889435,-0.9645075798034668,-1.8796501159667969,-0.5257852077484131,0.8612650036811829
2024-11-02 11:14:31.708,1730517163.222324,0.12323446571826935,-0.4690667688846588,-0.031269848346710205,-0.28072266220872816,-0.02578142441377842,-0.3035036751534824,-0.024769479408860207,0.27705010771751404,-0.9605361819267273,-0.8478793501853943,-0.4309782385826111,0.47407445311546326
2024-11-02 11:14:31.710,1730517163.223542,0.2865616977214813,-0.5153594017028809,0.2027776837348938,-0.28394529325963425,-0.02677252998411732,-0.30124789896000814,-0.02569742500782013,0.28014513850212097,-0.9596136212348938,0.1336609125137329,0.14259448647499084,-0.03332192450761795
2024-11-02 11:14:31.711,1730517163.2247,0.17793148756027222,-0.23540785908699036,0.03367060422897339,-0.2809756135287776,-0.023505579760083398,-0.30304776815920154,-0.022581737488508224,0.2772931456565857,-0.9605199694633484,0.3105672299861908,0.5256006717681885,-0.26118817925453186
2024-11-02 11:14:31.712,1730517163.225813,0.02889585681259632,-0.20624864101409912,-0.1575353741645813,-0.2791977101402717,-0.019902165045298275,-0.30544300845243955,-0.019130228087306023,0.27558451890945435,-0.9610864520072937,0.028593849390745163,0.28378570079803467,-0.2103223204612732
2024-11-02 11:14:31.713,1730517163.2269359,0.0480114221572876,-0.780338704586029,-0.2612740397453308,-0.27947654487383455,-0.019566472018783216,-0.30791038218247213,-0.018806092441082,0.2758525311946869,-0.9610159993171692,-0.05667337775230408,-0.05366690084338188,-0.27573010325431824
2024-11-02 11:14:31.714,1730517163.228277,0.329887330532074,-0.9097229838371277,-0.17682331800460815,-0.27925953665454606,-0.022121804704846332,-0.3112124045823633,-0.021263066679239273,0.2756439447402954,-0.9610245823860168,0.10046990215778351,-0.25313499569892883,-0.34223616123199463
2024-11-02 11:14:31.716,1730517163.2296572,0.566629946231842,-0.32791462540626526,0.07388657331466675,-0.2776980255483909,-0.025828371687137634,-0.3144238111164737,-0.02483610063791275,0.2741425931453705,-0.9613683223724365,0.19490806758403778,-0.28955531120300293,-0.26412856578826904
2024-11-02 11:14:31.717,1730517163.2310262,0.5477632284164429,0.19347256422042847,0.1592434048652649,-0.27543567563503535,-0.02902473683068989,-0.3163501536460515,-0.02792678028345108,0.27196621894836426,-0.9619014859199524,0.23502059280872345,-0.236831933259964,-0.12044516205787659
2024-11-02 11:14:31.718,1730517163.2321692,0.38015010952949524,0.34155091643333435,0.09467071294784546,-0.27281300807866543,-0.0313067507741038,-0.31719906053193336,-0.03014400042593479,0.26944148540496826,-0.962544858455658,0.3027228116989136,-0.17839817702770233,-0.07642757892608643
2024-11-02 11:14:31.721,1730517163.234818,0.18815553188323975,0.3349705636501312,0.007357656955718994,-0.26789256761808206,-0.033376663702057524,-0.31855775112126195,-0.032180171459913254,0.2646997570991516,-0.9637938141822815,0.764157772064209,-0.1728910207748413,-0.2533775866031647
2024-11-02 11:14:31.722,1730517163.236285,0.06489185988903046,0.35322675108909607,0.06576651334762573,-0.25778849894802275,-0.034340619727458783,-0.3225158696161458,-0.03319934755563736,0.25494274497032166,-0.9663860201835632,1.162341833114624,0.21912282705307007,-0.5648186206817627
2024-11-02 11:14:31.724,1730517163.2374601,-0.01490022987127304,0.3137891888618469,0.17386221885681152,-0.24725511597896077,-0.032558522685169206,-0.32858848015600867,-0.031562771648168564,0.2447434812784195,-0.969074010848999,0.8103012442588806,0.34389829635620117,-0.6472902894020081
2024-11-02 11:14:31.725,1730517163.238648,-0.07729403674602509,0.14399510622024536,0.2789492607116699,-0.24308098548189389,-0.03321598199116676,-0.3342338671852961,-0.03223353624343872,0.24069416522979736,-0.9700656533241272,-0.027321144938468933,-0.2556077539920807,-0.4555889666080475
2024-11-02 11:14:31.726,1730517163.2397819,-0.1266246736049652,-0.21327722072601318,0.28952980041503906,-0.24663861851877555,-0.03973371759054775,-0.3378691266725393,-0.0385211817920208,0.24414567649364471,-0.9689731597900391,-0.6441734433174133,-0.836475133895874,-0.21843819320201874
2024-11-02 11:14:31.727,1730517163.240892,-0.11195747554302216,-0.33686384558677673,0.24362397193908691,-0.253258740007675,-0.04873440881163393,-0.33869389065004646,-0.04716115817427635,0.25056007504463196,-0.9669516682624817,-0.587731659412384,-0.8299258947372437,0.14334489405155182
2024-11-02 11:14:31.728,1730517163.2419991,-0.16301171481609344,0.18096643686294556,0.11713588237762451,-0.255599631437982,-0.05306117611059282,-0.3355184886823666,-0.05131323263049126,0.25282561779022217,-0.966150164604187,0.21363350749015808,-0.11319653689861298,0.4486648440361023
2024-11-02 11:14:31.729,1730517163.2430801,-0.43747663497924805,0.7166320085525513,-0.1174587607383728,-0.24941632117124962,-0.047248266081524264,-0.330459371431015,-0.04576921463012695,0.24683839082717896,-0.9679751992225647,0.9863001704216003,1.0118275880813599,0.4700191915035248
2024-11-02 11:14:31.730,1730517163.244169,-0.7588817477226257,0.8297560811042786,-0.3204419016838074,-0.24004744786684806,-0.03285268608057349,-0.3244357360788315,-0.031904950737953186,0.23774871230125427,-0.9708025455474854,0.8321290016174316,1.4470293521881104,0.6269515156745911
2024-11-02 11:14:31.731,1730517163.245316,-0.8227466940879822,0.6216874122619629,-0.40005767345428467,-0.23857086827160032,-0.017706271925572063,-0.3174092053203932,-0.01720387302339077,0.23631420731544495,-0.9715243577957153,-0.6305877566337585,1.1150522232055664,0.7475703954696655
2024-11-02 11:14:31.733,1730517163.246537,-0.47111278772354126,0.06371280550956726,-0.3199532628059387,-0.2523101425150625,-0.01046570856358831,-0.30908131184746646,-0.010134161449968815,0.24964162707328796,-0.9682852625846863,-1.9979019165039062,-0.09518691152334213,0.8767672777175903
2024-11-02 11:14:31.734,1730517163.24773,0.044045671820640564,-0.6189043521881104,-0.18609046936035156,-0.2708550940387502,-0.013010962046334715,-0.30252566130549,-0.012536260299384594,0.26755544543266296,-0.9634609222412109,-1.4894579648971558,-0.602165699005127,0.34273508191108704
2024-11-02 11:14:31.735,1730517163.248905,0.4166122376918793,-0.8930801153182983,0.03959578275680542,-0.2786451591398759,-0.01714301461493517,-0.30243675944325377,-0.016480984166264534,0.27505332231521606,-0.9612876772880554,-0.18973736464977264,-0.14586526155471802,-0.20695629715919495
2024-11-02 11:14:31.737,1730517163.251412,0.46795448660850525,-0.5310993790626526,0.06105995178222656,-0.2782837954371696,-0.016026551635421504,-0.3047180318222345,-0.015409323386847973,0.2747058868408203,-0.9614048004150391,0.1933273822069168,0.42655882239341736,-0.22491224110126495
2024-11-02 11:14:31.739,1730517163.252871,0.16576310992240906,-0.3030141592025757,-0.14905762672424316,-0.27641501327027423,-0.012458252555160941,-0.30747932909261644,-0.011985027231276035,0.2729085087776184,-0.9619653224945068,0.14218935370445251,0.36497962474823,-0.2946273982524872
2024-11-02 11:14:31.740,1730517163.2540069,0.025689061731100082,-0.5190441608428955,-0.12517201900482178,-0.27582412874292367,-0.011379422221574256,-0.31073564611879595,-0.010949055664241314,0.27233999967575073,-0.9621387720108032,-0.030283693224191666,0.01557209063321352,-0.3500574231147766
2024-11-02 11:14:31.741,1730517163.255199,0.22843478620052338,-0.7338989973068237,-0.006242275238037109,-0.27596251872372063,-0.014284550347848113,-0.31510094079111295,-0.013743603602051735,0.27247315645217896,-0.9620652198791504,-0.0009172819554805756,-0.3417777717113495,-0.4873201847076416
2024-11-02 11:14:31.742,1730517163.2564158,0.5291633605957031,-0.3807467520236969,0.27861833572387695,-0.27622918368241955,-0.019544742970728148,-0.32033390855764915,-0.018802618607878685,0.2727297246456146,-0.961906909942627,-0.0627579316496849,-0.38816365599632263,-0.49452725052833557
2024-11-02 11:14:31.744,1730517163.2576141,0.5580429434776306,0.053280800580978394,0.33883512020111084,-0.27641269102353716,-0.024156855318093928,-0.32498364033885696,-0.023237615823745728,0.27290627360343933,-0.9617599248886108,0.0641600638628006,-0.28435230255126953,-0.406482070684433
2024-11-02 11:14:31.745,1730517163.258747,0.3329448997974396,0.1951979398727417,0.20853638648986816,-0.2725497518524907,-0.027157326477536013,-0.3298541789682841,-0.02615167200565338,0.26918795704841614,-0.9627325534820557,0.6810463070869446,0.020706400275230408,-0.5978037714958191
2024-11-02 11:14:31.746,1730517163.2598472,0.08914841711521149,0.21261364221572876,0.07838726043701172,-0.2643938885645838,-0.026077306211764448,-0.3369927355500871,-0.025168294087052345,0.2613242566585541,-0.9649229049682617,0.7748470902442932,0.5289914608001709,-0.7743819952011108
2024-11-02 11:14:31.747,1730517163.260952,-0.02664421871304512,0.34498530626296997,0.022524118423461914,-0.2599843284744164,-0.023478537272038805,-0.3440928854648069,-0.022687433287501335,0.25706541538238525,-0.9661276340484619,0.01911926083266735,0.26035574078559875,-0.587887704372406
2024-11-02 11:14:31.748,1730517163.262078,-0.08494174480438232,0.20971497893333435,0.0027580857276916504,-0.26328695891947723,-0.025055034841522026,-0.34924895419794016,-0.02418910153210163,0.2602556347846985,-0.9652367234230042,-0.6392871141433716,-0.28448280692100525,-0.42175495624542236
2024-11-02 11:14:31.749,1730517163.263198,-0.09332594275474548,-0.24843090772628784,0.05744326114654541,-0.2707228622487545,-0.030532366756991596,-0.353203345765363,-0.029415741562843323,0.26742804050445557,-0.9631287455558777,-0.8378849029541016,-0.5670450329780579,-0.28268375992774963
2024-11-02 11:14:31.750,1730517163.264343,-0.029437925666570663,-0.09477642178535461,0.24521660804748535,-0.2791112952204958,-0.036639351644243666,-0.35471084475453357,-0.03521355241537094,0.27550145983695984,-0.9606555104255676,-0.8125659227371216,-0.5425692200660706,0.05826184153556824
2024-11-02 11:14:31.752,1730517163.26548,-0.11105196177959442,0.4404032230377197,0.29750847816467285,-0.2853465422229989,-0.04046674568174556,-0.3528422796751201,-0.03881984204053879,0.2814899981021881,-0.9587786197662354,-0.38048750162124634,-0.29738926887512207,0.31883886456489563
2024-11-02 11:14:31.755,1730517163.268583,-0.3458434045314789,0.6498304605484009,0.13457179069519043,-0.2858868844735684,-0.039370276510147226,-0.3489897186842935,-0.03776255622506142,0.28200843930244446,-0.9586684703826904,0.32037580013275146,0.34093794226646423,0.41657397150993347
2024-11-02 11:14:31.756,1730517163.27038,-0.566116452217102,0.598814845085144,-0.09908974170684814,-0.2804258655105973,-0.03185865587848792,-0.34433954866142463,-0.030609004199504852,0.2767648994922638,-0.9604500532150269,0.7286384701728821,0.8456807136535645,0.43029484152793884
2024-11-02 11:14:31.758,1730517163.2715359,-0.6048184037208557,0.519067108631134,-0.21550369262695312,-0.27446595483290065,-0.02198263399645902,-0.33951833813955457,-0.021158121526241302,0.2710329294204712,-0.9623374938964844,0.40672561526298523,0.7847973704338074,0.4730135500431061
2024-11-02 11:14:31.759,1730517163.272653,-0.44314390420913696,0.20207557082176208,-0.30605411529541016,-0.27283923492123846,-0.015276986192176552,-0.3346476017835333,-0.014711313880980015,0.26946672797203064,-0.9628973007202148,-0.09535649418830872,0.35411232709884644,0.4300665557384491
2024-11-02 11:14:31.760,1730517163.2740521,-0.1638161540031433,-0.2946975529193878,-0.42202597856521606,-0.2797150371035963,-0.010956825374102315,-0.33030179250245073,-0.01053076796233654,0.27608177065849304,-0.9610764384269714,-1.2214001417160034,0.19229306280612946,0.4901306927204132
2024-11-02 11:14:31.761,1730517163.275374,0.0985715463757515,-0.6421583294868469,-0.4798615574836731,-0.29567873407211526,-0.010176658173789883,-0.32446820529328235,-0.009734869934618473,0.29138919711112976,-0.9565550684928894,-1.6487083435058594,-0.3773791790008545,0.5864648818969727
2024-11-02 11:14:31.763,1730517163.276575,0.2007680982351303,-0.741485595703125,-0.42697757482528687,-0.30719207867489007,-0.011902968612448885,-0.3199034714134173,-0.011345479637384415,0.3023833632469177,-0.9531188607215881,-0.5700517296791077,-0.1414034068584442,0.3050800859928131
2024-11-02 11:14:31.764,1730517163.277806,0.21313832700252533,-0.5780134201049805,-0.14241242408752441,-0.30805158663850674,-0.009979722000674776,-0.31833034968894447,-0.009509780444204807,0.3032025098800659,-0.9528787136077881,0.3293779790401459,0.39290738105773926,-0.013669979758560658
2024-11-02 11:14:31.765,1730517163.278997,0.19716747105121613,-0.10781621932983398,0.017163872718811035,-0.3040055701535211,-0.005654299832689452,-0.31982114320166927,-0.00539499381557107,0.2993444800376892,-0.9541298747062683,0.38953906297683716,0.48725253343582153,-0.24189889430999756
2024-11-02 11:14:31.766,1730517163.2803369,0.183436781167984,0.1618877351284027,0.10213017463684082,-0.3016664463514079,-0.0034312120522820874,-0.32229237587460907,-0.003276261268183589,0.2971118092536926,-0.9548370838165283,0.048272401094436646,0.059077490121126175,-0.23189525306224823
2024-11-02 11:14:31.768,1730517163.281574,0.31588277220726013,-0.3153657913208008,0.18706315755844116,-0.30253410292392025,-0.006404998645893579,-0.32534307631541926,-0.0061140707693994045,0.2979401648044586,-0.9545649290084839,-0.19136548042297363,-0.44259679317474365,-0.36497819423675537
2024-11-02 11:14:31.773,1730517163.286995,0.5616699457168579,-0.5809947848320007,0.2535063624382019,-0.3048089196288242,-0.012998828475689127,-0.3296029835783212,-0.012399289757013321,0.30011090636253357,-0.9538237452507019,-0.2529212534427643,-0.5733340978622437,-0.42169278860092163
2024-11-02 11:14:31.775,1730517163.288943,0.6101210713386536,-0.24848785996437073,0.3273211121559143,-0.30533407441222327,-0.019934100512795025,-0.33413337942871785,-0.019010821357369423,0.30061182379722595,-0.9535570740699768,0.22890956699848175,-0.5277569890022278,-0.4797866940498352
2024-11-02 11:14:31.776,1730517163.290155,0.3351602256298065,0.04522809386253357,0.25803595781326294,-0.299612152039448,-0.02450176803564926,-0.3408146148984842,-0.023407896980643272,0.29514965415000916,-0.9551642537117004,0.853432834148407,0.0762074738740921,-0.8315173387527466
2024-11-02 11:14:31.777,1730517163.2913198,0.027444669976830482,0.17005422711372375,0.137378990650177,-0.29151559412543715,-0.023765018581689796,-0.34942591952469665,-0.022760216146707535,0.28740420937538147,-0.957538902759552,0.573245644569397,0.43240606784820557,-0.7750561833381653
2024-11-02 11:14:31.779,1730517163.292468,-0.14794255793094635,0.27017825841903687,0.08626514673233032,-0.29010236954675495,-0.02332205527819397,-0.3553165783057427,-0.02234550751745701,0.28605031967163086,-0.9579539895057678,-0.2857418358325958,-0.05961187556385994,-0.37577247619628906
2024-11-02 11:14:31.780,1730517163.293754,-0.21615919470787048,-0.03852754831314087,0.02301037311553955,-0.29463338104875086,-0.02706018101078982,-0.3584581771383021,-0.025890961289405823,0.2903890609741211,-0.956558346748352,-0.5444340705871582,-0.4573874771595001,-0.23467475175857544
2024-11-02 11:14:31.781,1730517163.2949371,-0.13828319311141968,-0.2349490523338318,0.13652068376541138,-0.2990802137051943,-0.032315668145888876,-0.36034339307704333,-0.030875733122229576,0.294641375541687,-0.9551089406013489,-0.3408985733985901,-0.44793298840522766,-0.07044985145330429
2024-11-02 11:14:31.782,1730517163.2960582,-0.0725925862789154,0.2561824917793274,0.31744182109832764,-0.3014155258916535,-0.036017990855219874,-0.359706395821077,-0.0343867652118206,0.29687222838401794,-0.9542979001998901,-0.1131540909409523,-0.34165847301483154,0.1894102245569229
2024-11-02 11:14:31.783,1730517163.297192,-0.1862657517194748,0.7005879878997803,0.3129023313522339,-0.3011350108894529,-0.03773068561501444,-0.35697188513449324,-0.036024272441864014,0.29660433530807495,-0.9543207883834839,0.18527346849441528,-0.1490144580602646,0.3178921937942505
2024-11-02 11:14:31.784,1730517163.298379,-0.37134850025177,0.7052040100097656,0.15483343601226807,-0.2975656855519573,-0.03649794133426828,-0.3532559450143853,-0.03488622233271599,0.2931937575340271,-0.9554163217544556,0.5390725135803223,0.1781386286020279,0.36332252621650696
2024-11-02 11:14:31.787,1730517163.300909,-0.4633406102657318,0.5612175464630127,-0.017632722854614258,-0.2920209414540163,-0.03245408605046275,-0.3490660142768671,-0.031074654310941696,0.28788819909095764,-0.9571597576141357,0.550544798374176,0.35398662090301514,0.39768296480178833
2024-11-02 11:14:31.789,1730517163.302705,-0.448257178068161,0.32447686791419983,-0.13332563638687134,-0.2880565124050564,-0.027870173847020063,-0.3450416783277788,-0.02671840228140354,0.2840893566608429,-0.9584254622459412,0.21319371461868286,0.3170784115791321,0.35184141993522644
2024-11-02 11:14:31.790,1730517163.303925,-0.36020681262016296,-0.044356346130371094,-0.2191181778907776,-0.2875767802245802,-0.02511990111813763,-0.34140610297997254,-0.024085793644189835,0.2836293578147888,-0.9586314558982849,-0.1293850690126419,0.05309070274233818,0.3353644609451294
2024-11-02 11:14:31.791,1730517163.3050961,-0.19623124599456787,-0.3263304829597473,-0.28581464290618896,-0.29285516417255025,-0.02385709968941041,-0.337635970737758,-0.022839181125164032,0.28868699073791504,-0.9571510553359985,-0.9056208729743958,-0.08528794348239899,0.4712083041667938
2024-11-02 11:14:31.792,1730517163.3062592,-0.03948800265789032,-0.4570622444152832,-0.2951585054397583,-0.3036087527606078,-0.025380856267698895,-0.33165328466279603,-0.024217432364821434,0.29896584153175354,-0.9539564847946167,-1.128792405128479,-0.5219382643699646,0.6794096231460571
2024-11-02 11:14:31.793,1730517163.307417,0.044600795954465866,-0.3684091567993164,-0.2677406072616577,-0.31034826685842176,-0.02762874884717443,-0.32560675874596523,-0.02630550041794777,0.30539029836654663,-0.9518638849258423,-0.08769401907920837,-0.19628609716892242,0.4925297200679779
2024-11-02 11:14:31.795,1730517163.308636,0.0641007125377655,-0.1641567349433899,-0.17664098739624023,-0.30687475218114296,-0.02508340113599671,-0.32108647085182224,-0.023909054696559906,0.3020808696746826,-0.9529824256896973,0.7112216949462891,0.40212538838386536,0.37513187527656555
2024-11-02 11:14:31.796,1730517163.309828,0.040808968245983124,0.2149905562400818,-0.20952647924423218,-0.2977672693851882,-0.018347694107369094,-0.3176180550694917,-0.01753930002450943,0.29338645935058594,-0.9558330178260803,1.0471440553665161,0.7004465460777283,0.2429666519165039
2024-11-02 11:14:31.797,1730517163.3109431,0.05075814947485924,0.3591274619102478,-0.2850412130355835,-0.2880269011239455,-0.010972946038143782,-0.3156143376497375,-0.010520718060433865,0.2840609550476074,-0.9587485194206238,0.8829951882362366,0.6073341965675354,0.11739136278629303
2024-11-02 11:14:31.798,1730517163.312134,0.23501507937908173,-0.013751715421676636,-0.21531397104263306,-0.28100016455369997,-0.006669514855739611,-0.31514647763592535,-0.006407879292964935,0.27731671929359436,-0.9607571959495544,0.5164616703987122,0.20857644081115723,-0.050801634788513184
2024-11-02 11:14:31.800,1730517163.313527,0.5535869598388672,-0.38192424178123474,-0.08940070867538452,-0.2780086164658843,-0.007202192157152852,-0.31656817212000066,-0.006925595924258232,0.27444127202033997,-0.961578905582428,0.07504409551620483,-0.24027326703071594,-0.20755982398986816
2024-11-02 11:14:31.801,1730517163.314856,0.8005055785179138,-0.45483681559562683,0.11506849527359009,-0.27895128869542674,-0.01203047705946645,-0.3189594719824689,-0.011565156280994415,0.27534762024879456,-0.9612751603126526,-0.25108128786087036,-0.5640162229537964,-0.2399529218673706
2024-11-02 11:14:31.804,1730517163.318029,0.7553611397743225,-0.4426807463169098,0.23743480443954468,-0.2821961368733271,-0.018928271874150172,-0.321501201639409,-0.018178502097725868,0.27846559882164,-0.9602741599082947,-0.38527849316596985,-0.6592298150062561,-0.23713688552379608
2024-11-02 11:14:31.806,1730517163.319848,0.479056179523468,-0.37391170859336853,0.25542378425598145,-0.2856637238968575,-0.02626607168399492,-0.32391707613881465,-0.025198737159371376,0.28179433941841125,-0.959143877029419,-0.252231240272522,-0.6759259700775146,-0.20623676478862762
2024-11-02 11:14:31.807,1730517163.321351,0.16131743788719177,-0.18462583422660828,0.17710167169570923,-0.28482032127190765,-0.03247372928730593,-0.3265889572407136,-0.031159956008195877,0.280985027551651,-0.9592061638832092,0.3684070110321045,-0.285217821598053,-0.345425546169281
2024-11-02 11:14:31.809,1730517163.3227038,-0.08709605038166046,0.042605072259902954,0.09073567390441895,-0.2785489041299731,-0.03260495145212854,-0.33070137349746936,-0.031342655420303345,0.27496078610420227,-0.960944414138794,0.7770155072212219,0.42234811186790466,-0.4460589289665222
2024-11-02 11:14:31.810,1730517163.324064,-0.24233323335647583,0.2685181796550751,0.11638492345809937,-0.2721677421333662,-0.029382262440441967,-0.33447522581310574,-0.028296642005443573,0.26882001757621765,-0.9627746939659119,0.45290589332580566,0.3352952301502228,-0.3121432065963745
2024-11-02 11:14:31.811,1730517163.325274,-0.3089088797569275,0.26922687888145447,0.10509562492370605,-0.2692944432634195,-0.028391222498410043,-0.33683524147594823,-0.027364293113350868,0.26605138182640076,-0.9635703563690186,0.13723580539226532,-0.016391433775424957,-0.16732457280158997
2024-11-02 11:14:31.812,1730517163.3264341,-0.24775183200836182,-0.0036786794662475586,0.1384938359260559,-0.2692333232874146,-0.03016418510159273,-0.338074208484234,-0.029073113575577736,0.2659924626350403,-0.9635366201400757,-0.12378435581922531,-0.25771936774253845,-0.06397341936826706
2024-11-02 11:14:31.814,1730517163.327692,-0.11970207095146179,-0.02623647451400757,0.2998018264770508,-0.2718357231378313,-0.03362302386728974,-0.3379138141608211,-0.03238227218389511,0.2685002088546753,-0.9627351760864258,-0.3812178075313568,-0.4400409758090973,0.11635006964206696
2024-11-02 11:14:31.815,1730517163.328886,-0.12526066601276398,0.18362745642662048,0.3653126358985901,-0.27602573436773087,-0.037815815385592706,-0.335950911971067,-0.03637567162513733,0.27253398299217224,-0.9614582657814026,-0.3900016248226166,-0.46081069111824036,0.2755145728588104
2024-11-02 11:14:31.816,1730517163.330003,-0.274142861366272,0.26433491706848145,0.27341169118881226,-0.2787347880663515,-0.039955227714219235,-0.333273477886995,-0.03840290755033493,0.2751394808292389,-0.9606370329856873,-0.1254274696111679,-0.07929902523756027,0.2442658543586731
2024-11-02 11:14:31.817,1730517163.33118,-0.4440554976463318,0.24982023239135742,0.11411374807357788,-0.27918292687506957,-0.03777778392760908,-0.33079340612479957,-0.03630642592906952,0.2755703032016754,-0.9605950713157654,0.006534808315336704,0.35236769914627075,0.25382351875305176
2024-11-02 11:14:31.818,1730517163.332336,-0.5572007894515991,0.19591233134269714,-0.06701630353927612,-0.2797847249654854,-0.03266762972684839,-0.32789317268472673,-0.03139176219701767,0.2761487364768982,-0.9606021046638489,-0.13821811974048615,0.4774070978164673,0.29983600974082947
2024-11-02 11:14:31.821,1730517163.3349519,-0.5554644465446472,0.009525477886199951,-0.21742528676986694,-0.2838521993736923,-0.026850929092590535,-0.3246963792145674,-0.02577335759997368,0.2800557613372803,-0.9596377015113831,-0.7810620069503784,0.5111998915672302,0.3548796474933624
2024-11-02 11:14:31.823,1730517163.336708,-0.3670136630535126,-0.19769296050071716,-0.23414891958236694,-0.2956391412901052,-0.022578553469067036,-0.3197924357157615,-0.02159717306494713,0.291351318359375,-0.9563723206520081,-1.4234817028045654,-0.028467804193496704,0.6382181644439697
2024-11-02 11:14:31.824,1730517163.338078,-0.10307188332080841,-0.2894255816936493,-0.18802624940872192,-0.30874194214113576,-0.02314659361501642,-0.3133775916550573,-0.022050173953175545,0.30386030673980713,-0.9524613618850708,-0.9648788571357727,-0.37588223814964294,0.590826153755188
2024-11-02 11:14:31.825,1730517163.3393168,0.11134063452482224,-0.2710459232330322,-0.10917055606842041,-0.3126758887364787,-0.024037862696525997,-0.30830806945490663,-0.022870156913995743,0.30760589241981506,-0.9512389898300171,0.19089628756046295,-0.09348994493484497,0.3942805826663971
2024-11-02 11:14:31.827,1730517163.3404698,0.23938938975334167,0.041618913412094116,-0.08194553852081299,-0.3073115306364077,-0.02194378017331593,-0.3046066927515459,-0.020914040505886078,0.3024972081184387,-0.9529207944869995,0.8255809545516968,0.2763355076313019,0.2873876690864563
2024-11-02 11:14:31.828,1730517163.341583,0.18984603881835938,0.42963311076164246,-0.27202463150024414,-0.29807349699867114,-0.017444093743650208,-0.30242554491500734,-0.016674034297466278,0.29367920756340027,-0.9557585716247559,0.9573951959609985,0.4623357355594635,0.088284932076931
2024-11-02 11:14:31.829,1730517163.342682,0.133945494890213,0.25846922397613525,-0.41940146684646606,-0.28947125781462124,-0.012948289292322187,-0.30207971620739854,-0.012409227900207043,0.28544551134109497,-0.9583145976066589,0.7648508548736572,0.38738638162612915,-0.026809055358171463
2024-11-02 11:14:31.830,1730517163.343786,0.22915376722812653,-0.20121526718139648,-0.41076982021331787,-0.2831068836521658,-0.010342615279266396,-0.30252090587957686,-0.00993072148412466,0.2793402075767517,-0.9601408243179321,0.49669796228408813,0.1521102339029312,-0.07816918939352036
2024-11-02 11:14:31.831,1730517163.344892,0.42934975028038025,-0.48662322759628296,-0.1893255114555359,-0.27928704749631755,-0.010173178764605023,-0.3035344126986569,-0.009778821840882301,0.2756703794002533,-0.9612025022506714,0.2606239318847656,-0.06568334996700287,-0.11981318891048431
2024-11-02 11:14:31.832,1730517163.345998,0.5458364486694336,-0.4406930208206177,0.12208014726638794,-0.27757179168816937,-0.012438333199333806,-0.30504090665333206,-0.011961930431425571,0.274021178483963,-0.9616492390632629,0.09291400760412216,-0.2929452657699585,-0.17866718769073486
2024-11-02 11:14:31.833,1730517163.347096,0.5134627223014832,-0.24346813559532166,0.3658449649810791,-0.2771699211417132,-0.01663117241501385,-0.3070819797506174,-0.015995685011148453,0.273634672164917,-0.9617006778717041,-0.007508950307965279,-0.42881840467453003,-0.20848403871059418
2024-11-02 11:14:31.834,1730517163.3482618,0.39244961738586426,-0.11537161469459534,0.4225280284881592,-0.2772661633635365,-0.021967693425659712,-0.30916036405959135,-0.021126989275217056,0.2737272381782532,-0.9615752696990967,0.05452273041009903,-0.5258917212486267,-0.19282998144626617
2024-11-02 11:14:31.837,1730517163.3505359,0.2228366732597351,-0.016969263553619385,0.3638991117477417,-0.273272170544176,-0.02738393539580273,-0.31185296660473005,-0.026364503428339958,0.2698836326599121,-0.9625319242477417,0.6985762119293213,-0.2914493680000305,-0.3839348554611206
2024-11-02 11:14:31.838,1730517163.352271,0.03674764931201935,0.09260055422782898,0.25237786769866943,-0.2643492984234039,-0.02846272468482505,-0.3166913834540237,-0.02747029811143875,0.26128122210502625,-0.9648717641830444,0.9494670033454895,0.2775099575519562,-0.5576240420341492
2024-11-02 11:14:31.840,1730517163.3534842,-0.11629459261894226,0.24277061223983765,0.21767956018447876,-0.2575021132970051,-0.027735481626885352,-0.3215410857789063,-0.026817580685019493,0.2546658217906952,-0.9666572213172913,0.33070090413093567,0.024197271093726158,-0.3844727873802185
2024-11-02 11:14:31.841,1730517163.354611,-0.20462442934513092,0.2403722107410431,0.14424192905426025,-0.25717367798335167,-0.030593465023674028,-0.32435280882659356,-0.029582712799310684,0.25434818863868713,-0.9666601419448853,-0.2097487598657608,-0.42033010721206665,-0.17801471054553986
2024-11-02 11:14:31.842,1730517163.355914,-0.21152369678020477,-0.08066129684448242,0.04938077926635742,-0.2595765795056699,-0.03564957096597085,-0.32565072137865364,-0.03444796800613403,0.25667133927345276,-0.9658846259117126,-0.233178973197937,-0.46744436025619507,-0.056339941918849945
2024-11-02 11:14:31.843,1730517163.357147,-0.19714605808258057,0.019148707389831543,0.11015427112579346,-0.261311322399812,-0.03898932598960282,-0.3252654222700894,-0.03765617683529854,0.2583475708961487,-0.9653178453445435,-0.10791560262441635,-0.21681347489356995,0.16505129635334015
2024-11-02 11:14:31.845,1730517163.3591151,-0.3152795433998108,0.40159374475479126,0.06675463914871216,-0.261928671404649,-0.038900970190671534,-0.32222306775209014,-0.03756467252969742,0.25894391536712646,-0.9651616215705872,0.04281763732433319,0.10532142221927643,0.40384528040885925
2024-11-02 11:14:31.847,1730517163.3605452,-0.5109751224517822,0.48697951436042786,-0.07448506355285645,-0.260430680031631,-0.03442760586030959,-0.3177573753824209,-0.03326010704040527,0.25749674439430237,-0.9657065868377686,0.26270976662635803,0.550588846206665,0.4357297122478485
2024-11-02 11:14:31.848,1730517163.3617191,-0.61663818359375,0.3599490523338318,-0.13734275102615356,-0.25792180517350155,-0.02700418838735622,-0.31331697238048845,-0.026107775047421455,0.25507164001464844,-0.9665696024894714,0.21511709690093994,0.6431571841239929,0.4055623412132263
2024-11-02 11:14:31.849,1730517163.362848,-0.5094946026802063,0.17826789617538452,-0.11726635694503784,-0.2571274204658924,-0.02074513722883804,-0.3093431384655359,-0.020061690360307693,0.2543034553527832,-0.9669163823127747,-0.053376682102680206,0.3985823392868042,0.3547511100769043
2024-11-02 11:14:31.850,1730517163.36412,-0.2493516206741333,-0.13867178559303284,-0.11901146173477173,-0.2600467335177543,-0.016935097805658442,-0.30598667478624264,-0.016364922747015953,0.25712570548057556,-0.9662393927574158,-0.6034755110740662,0.2029624879360199,0.32463768124580383
2024-11-02 11:14:31.851,1730517163.365251,0.01828540675342083,-0.41404959559440613,-0.14415079355239868,-0.26969343524319844,-0.016027261932724374,-0.30189834772447044,-0.015447257086634636,0.26643598079681396,-0.9637288451194763,-1.2729026079177856,-0.2523440420627594,0.5001279711723328
2024-11-02 11:14:31.854,1730517163.368161,0.18726959824562073,-0.4984661042690277,-0.23593300580978394,-0.28267197695150914,-0.018017935309366125,-0.29692457877713097,-0.017301931977272034,0.27892258763313293,-0.9601576924324036,-1.0851439237594604,-0.33186548948287964,0.4509333670139313
2024-11-02 11:14:31.856,1730517163.3698812,0.23165546357631683,-0.5041494369506836,-0.3253151774406433,-0.2883088093392078,-0.01865063411411804,-0.2936675941832957,-0.01787981390953064,0.28433123230934143,-0.9585593342781067,-0.03654107078909874,0.041203416883945465,0.19464221596717834
2024-11-02 11:14:31.857,1730517163.371079,0.18845248222351074,-0.27345994114875793,-0.2834027409553528,-0.2858989423691815,-0.015832221728841578,-0.29268600905603337,-0.015188933350145817,0.28202003240585327,-0.9592882990837097,0.41292479634284973,0.44208693504333496,-0.008589732460677624
2024-11-02 11:14:31.858,1730517163.372272,0.10288231074810028,0.04420185089111328,-0.31347185373306274,-0.2819365940123887,-0.011589001146471309,-0.2933549132545826,-0.01113120000809431,0.27821630239486694,-0.9604539275169373,0.3363463878631592,0.37046998739242554,-0.11843793839216232
2024-11-02 11:14:31.860,1730517163.373601,0.14740832149982452,0.01797512173652649,-0.12599265575408936,-0.2799799194307686,-0.009995561903149996,-0.2946945830845165,-0.00960618443787098,0.27633634209632874,-0.9610129594802856,0.06474793702363968,0.024971185252070427,-0.15236400067806244
2024-11-02 11:14:31.861,1730517163.374794,0.32201847434043884,-0.37642723321914673,0.08340460062026978,-0.27989341127815187,-0.01215865415765011,-0.2970039164489135,-0.011685211211442947,0.27625322341918945,-0.9610138535499573,-0.02514386922121048,-0.33441707491874695,-0.29776275157928467
2024-11-02 11:14:31.862,1730517163.3759398,0.5389105677604675,-0.42360860109329224,0.3336036205291748,-0.2801010555075083,-0.017689241842706406,-0.3005854233091608,-0.016998961567878723,0.27645277976989746,-0.9608771800994873,-0.03356202691793442,-0.547165036201477,-0.37074577808380127
2024-11-02 11:14:31.863,1730517163.377058,0.5687439441680908,-0.15328997373580933,0.4833104610443115,-0.2807743169924986,-0.0242076979821969,-0.30420838132595074,-0.023257480934262276,0.27709972858428955,-0.9605596661567688,-0.11576075851917267,-0.5442616939544678,-0.32145145535469055
2024-11-02 11:14:31.864,1730517163.37824,0.3828671872615814,-0.041307032108306885,0.38600289821624756,-0.2813792106776849,-0.030144706163580618,-0.3072471907523722,-0.028954830020666122,0.2776808738708496,-0.9602369070053101,0.0772743672132492,-0.4814368784427643,-0.273381769657135
2024-11-02 11:14:31.865,1730517163.379379,0.12766508758068085,0.027094602584838867,0.20138955116271973,-0.27679556497577507,-0.034343829624606095,-0.3109247083988915,-0.03303007408976555,0.27327460050582886,-0.9613687992095947,0.8117395639419556,-0.06125611439347267,-0.5104089379310608
2024-11-02 11:14:31.867,1730517163.380505,-0.07697449624538422,0.1160239577293396,0.05266273021697998,-0.2653441106893099,-0.03331291905870767,-0.3171464101428408,-0.03214109688997269,0.2622413635253906,-0.96446692943573,1.3366466760635376,0.5622343420982361,-0.7286230325698853
2024-11-02 11:14:31.868,1730517163.381633,-0.17463776469230652,0.3342988193035126,0.05662119388580322,-0.2542310861239454,-0.029579499259643087,-0.32386710521763307,-0.028624549508094788,0.25150129199028015,-0.9674335718154907,0.7425395846366882,0.4160659909248352,-0.594379186630249
2024-11-02 11:14:31.871,1730517163.384572,-0.19095057249069214,0.3193533420562744,0.05718022584915161,-0.2516537634496273,-0.029905363272840838,-0.32856076766576764,-0.028959086164832115,0.2490059733390808,-0.9680688977241516,-0.22597633302211761,-0.25453901290893555,-0.3437628746032715
2024-11-02 11:14:31.872,1730517163.386359,-0.13817375898361206,-0.11461377143859863,0.011785149574279785,-0.25686382919167344,-0.035309270831277585,-0.33128302769976475,-0.034143730998039246,0.25404852628707886,-0.9665886163711548,-0.7768861055374146,-0.6178584098815918,-0.13940788805484772
2024-11-02 11:14:31.874,1730517163.387613,-0.0669669508934021,-0.1284565031528473,0.06821465492248535,-0.26479498516554856,-0.04105783181398153,-0.33157005032443065,-0.03961567580699921,0.2617114186286926,-0.9643328189849854,-0.7104960083961487,-0.47793856263160706,0.13639967143535614
2024-11-02 11:14:31.875,1730517163.3887482,-0.1685003787279129,0.2906281352043152,0.09336501359939575,-0.26912740463719603,-0.043275478912034676,-0.3292863237976082,-0.0417046844959259,0.26589035987854004,-0.9631007313728333,-0.11636018753051758,-0.04499032348394394,0.32975688576698303
2024-11-02 11:14:31.876,1730517163.389873,-0.41365373134613037,0.6100041270256042,0.05115753412246704,-0.26744008583300477,-0.03960753269747498,-0.3251147399677115,-0.038189519196748734,0.264263391494751,-0.963694155216217,0.44064009189605713,0.5483139753341675,0.4489760100841522
2024-11-02 11:14:31.877,1730517163.390981,-0.5769146680831909,0.6203663349151611,-0.02751833200454712,-0.2625530640469776,-0.031579194420371416,-0.32002785252322147,-0.030491922050714493,0.2595469653606415,-0.9652490019798279,0.5033023953437805,0.7226192355155945,0.4902110695838928
2024-11-02 11:14:31.878,1730517163.392095,-0.5280053019523621,0.43864667415618896,-0.07706868648529053,-0.25879730846903676,-0.024052168705823187,-0.3150098611945033,-0.023248951882123947,0.25591808557510376,-0.9664188623428345,0.2763878405094147,0.5126715898513794,0.4499828517436981
2024-11-02 11:14:31.879,1730517163.393224,-0.29811012744903564,0.04599848389625549,-0.15832173824310303,-0.2583804668551894,-0.018893873351011947,-0.31063009053066676,-0.018265604972839355,0.25551512837409973,-0.9666324853897095,-0.27733954787254333,0.31378036737442017,0.4062686562538147
2024-11-02 11:14:31.881,1730517163.394489,-0.023813767358660698,-0.3025164306163788,-0.24633342027664185,-0.26530400042337643,-0.016672006124605728,-0.3056877546656726,-0.016087954863905907,0.262202650308609,-0.9648787379264832,-0.998039186000824,-0.19880624115467072,0.5989055633544922
2024-11-02 11:14:31.882,1730517163.395735,0.15208134055137634,-0.43248945474624634,-0.32472139596939087,-0.2762610581304976,-0.018633655423538033,-0.2994980027099137,-0.017926067113876343,0.27276039123535156,-0.9619149565696716,-0.9516826272010803,-0.42356690764427185,0.5707266330718994
2024-11-02 11:14:31.883,1730517163.396891,0.20121078193187714,-0.4267769753932953,-0.3184676766395569,-0.2809369728066919,-0.019385251509493037,-0.29495512119956835,-0.01862410642206669,0.2772560119628906,-0.9606155753135681,0.062065158039331436,0.027419695630669594,0.3246425688266754
2024-11-02 11:14:31.884,1730517163.398069,0.17420224845409393,-0.24178409576416016,-0.19337332248687744,-0.2770689592996961,-0.016380413232834148,-0.2922949928642146,-0.015754980966448784,0.2735375761985779,-0.9617322683334351,0.6367329359054565,0.40674492716789246,0.17613165080547333
2024-11-02 11:14:31.885,1730517163.39922,-0.6515371799468994,0.6277176737785339,-0.14447569847106934,-0.20411038343120705,-0.0669892057870159,-0.2660043185640304,-0.0655495747923851,0.2026960849761963,-0.9770452976226807,0.17413267493247986,0.7344359159469604,0.5534352660179138
2024-11-02 11:14:31.888,1730517163.401719,-0.44088757038116455,-0.09350889921188354,-0.1607254147529602,-0.20837097443431096,-0.06262813278382655,-0.25913667354119435,-0.061233390122652054,0.20686638355255127,-0.9764510989189148,-0.9508978724479675,-0.19710847735404968,0.8705067038536072
2024-11-02 11:14:31.889,1730517163.403286,-0.04507160186767578,-0.6252099871635437,-0.07924598455429077,-0.21901291611658044,-0.06733480325577493,-0.2515790152180847,-0.06567668169736862,0.21726621687412262,-0.9739003777503967,-0.8325744271278381,-0.9163124561309814,0.6380473971366882
2024-11-02 11:14:31.890,1730517163.404453,0.25325655937194824,-0.8155584335327148,0.09614259004592896,-0.2223700294837108,-0.07348994354931457,-0.24790033029288472,-0.07161593437194824,0.22054190933704376,-0.9727447628974915,0.21013663709163666,-0.3567735254764557,0.15578098595142365
2024-11-02 11:14:31.892,1730517163.405575,0.343288779258728,-0.4763685464859009,0.13880383968353271,-0.21783324216930894,-0.07282529826623217,-0.2467757680438497,-0.07104145735502243,0.2161145806312561,-0.9737800359725952,0.575363039970398,0.37414783239364624,0.03674168884754181
2024-11-02 11:14:31.893,1730517163.406664,0.09317347407341003,-0.04454755783081055,-0.14905911684036255,-0.21333737650855125,-0.0684562149645554,-0.24607174381834426,-0.06685205549001694,0.21172279119491577,-0.9750406742095947,0.28773966431617737,0.38912996649742126,0.024198679253458977
2024-11-02 11:14:31.894,1730517163.407867,-0.13731010258197784,-0.32086867094039917,-0.3388478755950928,-0.21275942714299156,-0.0663671230560958,-0.24643384282543748,-0.06482306122779846,0.2111579030752182,-0.975300133228302,-0.14911116659641266,0.022680068388581276,-0.12648697197437286
2024-11-02 11:14:31.895,1730517163.408969,0.05289357900619507,-0.7903358936309814,-0.3135609030723572,-0.21527353667813706,-0.06842588223435932,-0.24898554690635202,-0.06679432094097137,0.21361465752124786,-0.9746319055557251,-0.38807427883148193,-0.3071039617061615,-0.31919410824775696
2024-11-02 11:14:31.896,1730517163.410067,0.4476116895675659,-0.6818615198135376,-0.08223491907119751,-0.22010284872802813,-0.07320558454882724,-0.2526762245624487,-0.07137570530176163,0.2183299958705902,-0.973261296749115,-0.6000397801399231,-0.4795074164867401,-0.30818086862564087
2024-11-02 11:14:31.897,1730517163.411158,0.5864632725715637,-0.3711971342563629,0.08891874551773071,-0.22583397630481292,-0.07906007860424628,-0.25589286872939965,-0.07697232067584991,0.22391924262046814,-0.9715633988380432,-0.5516008734703064,-0.5309690237045288,-0.23493732511997223
2024-11-02 11:14:31.898,1730517163.412257,0.46124395728111267,-0.1431877464056015,0.07799243927001953,-0.2298779524779534,-0.08450598485159536,-0.2584449767437819,-0.08218508958816528,0.22785869240760803,-0.9702195525169373,-0.2687377333641052,-0.4307393431663513,-0.20133063197135925
2024-11-02 11:14:31.899,1730517163.41334,0.26854264736175537,0.07074764370918274,-0.0056116580963134766,-0.23037211111468403,-0.08862380941147399,-0.26059632470056543,-0.08616960048675537,0.22833982110023499,-0.9697606563568115,0.1285560131072998,-0.2916474938392639,-0.21122166514396667
2024-11-02 11:14:31.900,1730517163.414431,0.11410918086767197,0.30211302638053894,-0.046090900897979736,-0.22605233039774242,-0.0913494577238253,-0.2627972430788459,-0.08890165388584137,0.22413204610347748,-0.9704954028129578,0.7075764536857605,-0.1300860345363617,-0.3312298357486725
2024-11-02 11:14:31.902,1730517163.415528,-0.005762122571468353,0.4305393099784851,-0.041972339153289795,-0.21650325965267606,-0.09115466560335882,-0.26673045418097924,-0.08890338242053986,0.21481584012508392,-0.9725998044013977,1.1026686429977417,0.33772164583206177,-0.5787707567214966
2024-11-02 11:14:31.904,1730517163.417945,-0.09232766926288605,0.42775049805641174,0.010288894176483154,-0.20648021496503827,-0.08807559704428677,-0.2713081728430271,-0.08609333634376526,0.2050161510705948,-0.9749647974967957,0.7205711007118225,0.3811660408973694,-0.46573156118392944
2024-11-02 11:14:31.906,1730517163.419457,-0.14246436953544617,0.28302013874053955,0.11310088634490967,-0.20263182430895268,-0.08721139853408107,-0.27476740610786643,-0.08531883358955383,0.20124800503253937,-0.9758175611495972,-0.026444338262081146,-0.10287252813577652,-0.28260689973831177
2024-11-02 11:14:31.907,1730517163.42063,-0.12655842304229736,-0.03654108941555023,0.1962377429008484,-0.20552643679785879,-0.09127641330098281,-0.2768660184149646,-0.08923135697841644,0.20408254861831665,-0.9748784899711609,-0.5060088038444519,-0.6019856929779053,-0.057851552963256836
2024-11-02 11:14:31.908,1730517163.421767,-0.03832080960273743,-0.054553091526031494,0.271723210811615,-0.21013353119694442,-0.09819446454466284,-0.27624422052876196,-0.09588023275136948,0.20859049260616302,-0.97329181432724,-0.30285724997520447,-0.7375326156616211,0.2637898623943329
2024-11-02 11:14:31.909,1730517163.422902,-0.08432001620531082,0.322386771440506,0.24354660511016846,-0.21010029349734885,-0.1025592365451737,-0.27270719494121465,-0.10012821108102798,0.20855799317359924,-0.972870945930481,0.39910006523132324,-0.1960778385400772,0.3878750801086426
2024-11-02 11:14:31.910,1730517163.424012,-0.33025115728378296,0.7059873342514038,0.11727309226989746,-0.20344847910938155,-0.09907488529867936,-0.26778595028545105,-0.09687286615371704,0.20204788446426392,-0.9745728969573975,0.9579917788505554,0.6651610136032104,0.45946088433265686
2024-11-02 11:14:31.911,1730517163.425099,-0.6117780208587646,0.8491418957710266,-0.021417319774627686,-0.1945170565078624,-0.0893803653870663,-0.2612874724679517,-0.08757803589105606,0.19329272210597992,-0.9772246479988098,0.8877056241035461,0.926785945892334,0.6301513910293579
2024-11-02 11:14:31.912,1730517163.4262052,-0.7327136397361755,0.5804847478866577,-0.10667353868484497,-0.18942958977403335,-0.07956788581509648,-0.2542157470875223,-0.07806213200092316,0.18829871714115143,-0.9790045619010925,0.05018647387623787,0.759872555732727,0.6730029582977295
2024-11-02 11:14:31.913,1730517163.4273062,-0.5189749002456665,0.011443465948104858,-0.07227391004562378,-0.1958765777160984,-0.07429443503489616,-0.24570159438559958,-0.072806715965271,0.19462642073631287,-0.9781716465950012,-1.2232444286346436,-0.13355693221092224,1.1344588994979858
2024-11-02 11:14:31.915,1730517163.428488,-0.10668174922466278,-0.4211238622665405,0.007393479347229004,-0.2096433846394512,-0.07873057276089236,-0.2354291237890414,-0.07692725211381912,0.20811110734939575,-0.975075364112854,-1.1116538047790527,-1.0237113237380981,0.9615742564201355
2024-11-02 11:14:31.916,1730517163.4296079,0.21632453799247742,-0.5823928117752075,0.22839570045471191,-0.21549601001106847,-0.0860798366254392,-0.22861584112207953,-0.08398503810167313,0.21383199095726013,-0.9732534885406494,0.095653235912323,-0.6026051640510559,0.493049681186676
2024-11-02 11:14:31.917,1730517163.430695,0.34858107566833496,-0.28109902143478394,0.28633248805999756,-0.2127540571508566,-0.08682071469428594,-0.22475552271665675,-0.08475660532712936,0.21115265786647797,-0.9737714529037476,0.3991008996963501,0.2423090934753418,0.22733235359191895
2024-11-02 11:14:31.918,1730517163.431776,0.10693927854299545,0.12172621488571167,-0.09469836950302124,-0.21023276334396865,-0.08310575411270947,-0.2225695150554877,-0.08118243515491486,0.20868754386901855,-0.9746070504188538,0.06501826643943787,0.31710636615753174,0.18123623728752136
2024-11-02 11:14:31.920,1730517163.4338531,-0.2122896909713745,-0.26668062806129456,-0.4358968734741211,-0.21144412734467882,-0.08066908204143719,-0.2217216561142693,-0.07878696918487549,0.2098720818758011,-0.9745492935180664,-0.28385475277900696,0.1475415825843811,-0.04553672671318054
2024-11-02 11:14:31.921,1730517163.435237,-0.15147823095321655,-1.060289978981018,-0.5023269057273865,-0.2147223262483251,-0.08052808107909086,-0.22450507626208366,-0.07859379053115845,0.2130761444568634,-0.9738693833351135,-0.38859474658966064,-0.002414899179711938,-0.41054800152778625
2024-11-02 11:14:31.922,1730517163.43638,0.25745701789855957,-0.9640506505966187,-0.2354411482810974,-0.2185011573918594,-0.08231996849369917,-0.22918255768020343,-0.08027195185422897,0.21676665544509888,-0.9729175567626953,-0.47324109077453613,-0.13779695332050323,-0.4123992919921875
2024-11-02 11:14:31.924,1730517163.4375749,0.4599635601043701,-0.532031238079071,0.01232379674911499,-0.22307030935995922,-0.08533247367048008,-0.234040310899783,-0.08311721682548523,0.22122490406036377,-0.971674382686615,-0.4992348551750183,-0.25116264820098877,-0.4725625216960907
2024-11-02 11:14:31.925,1730517163.4388409,0.45921748876571655,-0.28875455260276794,0.18594098091125488,-0.22732225438718448,-0.08925360242739143,-0.2392402881322842,-0.08684200048446655,0.22536948323249817,-0.9703953266143799,-0.41122812032699585,-0.28488945960998535,-0.44204631447792053
2024-11-02 11:14:31.926,1730517163.4400492,0.40626582503318787,0.005002111196517944,0.17725330591201782,-0.23011663229757248,-0.0925341090740952,-0.2434075376592512,-0.08996637165546417,0.2280910760164261,-0.9694743752479553,-0.2015765905380249,-0.1689751148223877,-0.3194119930267334
2024-11-02 11:14:31.927,1730517163.4411511,0.27688637375831604,0.19794149696826935,0.04378187656402588,-0.23051668537643416,-0.09408533607490004,-0.24632423593040967,-0.09146156162023544,0.22848057746887207,-0.9692426919937134,0.058525364845991135,-0.012995637953281403,-0.2451968938112259
2024-11-02 11:14:31.928,1730517163.442241,0.12156248837709427,0.3701772093772888,-0.0005939006805419922,-0.22814063557651085,-0.09432714991841644,-0.24856664171680304,-0.09174680709838867,0.2261667251586914,-0.9697582721710205,0.4043101966381073,0.05472614988684654,-0.2550380825996399
2024-11-02 11:14:31.929,1730517163.4433599,0.009572185575962067,0.45153969526290894,0.01643925905227661,-0.2222207218586618,-0.09348564216716569,-0.25139208394815504,-0.09105410426855087,0.2203962802886963,-0.9711511731147766,0.7230615615844727,0.24881494045257568,-0.41080743074417114
2024-11-02 11:14:31.931,1730517163.4444962,-0.029317177832126617,0.43474170565605164,0.06655532121658325,-0.214263297114662,-0.09128702176926239,-0.2549548062181696,-0.08907575160264969,0.21262763440608978,-0.9730647206306458,0.694402813911438,0.31624963879585266,-0.40306004881858826
2024-11-02 11:14:31.932,1730517163.445626,-0.06588702648878098,0.3244348168373108,0.13601833581924438,-0.20920761290262171,-0.08973655437957782,-0.25821831177295856,-0.08766215294599533,0.20768485963344574,-0.9742599129676819,0.2360072135925293,0.10806793719530106,-0.3242506980895996
2024-11-02 11:14:31.933,1730517163.446694,-0.10862081497907639,0.06023666262626648,0.13556092977523804,-0.20896567694438736,-0.09064655135183997,-0.26087989842193887,-0.08855324238538742,0.20744818449020386,-0.9742297530174255,-0.20871113240718842,-0.16841985285282135,-0.1851830929517746
2024-11-02 11:14:31.934,1730517163.4478679,-0.12145783007144928,-0.04926644265651703,0.1472042202949524,-0.21195206565137023,-0.09306687441225167,-0.261951189188964,-0.09085295349359512,0.21036867797374725,-0.9733913540840149,-0.34020838141441345,-0.23655734956264496,0.045601602643728256
2024-11-02 11:14:31.935,1730517163.448966,-0.18333452939987183,0.1045130044221878,0.15346097946166992,-0.2142143841966892,-0.09419243839280834,-0.26004782433322254,-0.09190350770950317,0.21257983148097992,-0.9728121757507324,-0.028858492150902748,-0.038585420697927475,0.36067646741867065
2024-11-02 11:14:31.937,1730517163.451304,-0.328573614358902,0.38651242852211,0.05433166027069092,-0.211886435283199,-0.09109780611243495,-0.25568753702998487,-0.08893735706806183,0.21030451357364655,-0.9735821485519409,0.574404776096344,0.5184516906738281,0.4138587713241577
2024-11-02 11:14:31.939,1730517163.452981,-0.4908583462238312,0.5331223607063293,-0.056721031665802,-0.20456849289101556,-0.08259581869969736,-0.2508725524935448,-0.08078166842460632,0.20314466953277588,-0.975810706615448,0.8887115716934204,0.9135460257530212,0.41604363918304443
2024-11-02 11:14:31.940,1730517163.454142,-0.5379926562309265,0.5176531672477722,-0.0836217999458313,-0.1966862158079206,-0.07331813383457111,-0.2457189047101104,-0.07184012234210968,0.1954205185174942,-0.9780847430229187,0.7356833219528198,0.6907534599304199,0.45635300874710083
2024-11-02 11:14:31.941,1730517163.455258,-0.3901168704032898,0.18703174591064453,-0.11208385229110718,-0.1916259949792009,-0.06690628150496436,-0.24119547625788673,-0.06563262641429901,0.1904553771018982,-0.9794993996620178,0.2352689653635025,0.44931209087371826,0.35221409797668457
2024-11-02 11:14:31.942,1730517163.4563599,-0.10241968929767609,-0.31386369466781616,-0.09918797016143799,-0.193999738250505,-0.06359498849810442,-0.23747321609099933,-0.06235995516180992,0.1927851289510727,-0.9792574644088745,-0.6603913903236389,0.00856504775583744,0.4254588186740875
2024-11-02 11:14:31.944,1730517163.457673,0.1361713409423828,-0.6673496961593628,-0.10803073644638062,-0.20210903168146688,-0.06532667918440613,-0.2345652217095858,-0.06395146995782852,0.2007358819246292,-0.9775558114051819,-0.7941734194755554,-0.3764103353023529,0.18083254992961884
2024-11-02 11:14:31.945,1730517163.458854,0.24336066842079163,-0.8501994609832764,-0.029518544673919678,-0.20680338575183635,-0.06819930973482967,-0.23552503428207533,-0.06669440865516663,0.2053324580192566,-0.9764171242713928,-0.17460264265537262,-0.1045263484120369,-0.28627774119377136
2024-11-02 11:14:31.946,1730517163.459969,0.2931486964225769,-0.7831960916519165,0.07618683576583862,-0.2072066933667427,-0.06867251819882755,-0.23934972608031652,-0.06715076416730881,0.20572714507579803,-0.9763028025627136,-0.04134524241089821,0.1169450506567955,-0.4130130708217621
2024-11-02 11:14:31.947,1730517163.4610949,0.2202017605304718,-0.5197851657867432,-0.02687770128250122,-0.2091265110373294,-0.06923750131452937,-0.24382048056371047,-0.0676748976111412,0.2076055258512497,-0.9758688807487488,-0.4197089374065399,-0.08978575468063354,-0.4479966163635254
2024-11-02 11:14:31.948,1730517163.462212,0.1740153431892395,-0.4869968891143799,-0.016898512840270996,-0.21445164229333977,-0.07293550798855078,-0.2491409668728781,-0.0712016224861145,0.2128116637468338,-0.974495530128479,-0.6934813261032104,-0.40318042039871216,-0.5046087503433228
2024-11-02 11:14:31.949,1730517163.463336,0.2700665593147278,-0.4822777509689331,0.040146589279174805,-0.2208233475955624,-0.07843071024723301,-0.2545570979135276,-0.07644777745008469,0.21903304755687714,-0.9727180004119873,-0.600794792175293,-0.41425490379333496,-0.44470036029815674
2024-11-02 11:14:31.950,1730517163.464423,0.3273230195045471,-0.13836732506752014,0.05617082118988037,-0.22419452288835076,-0.0825629530956548,-0.2589700106373368,-0.08040527254343033,0.22232112288475037,-0.9716523885726929,-0.08968301117420197,-0.20694513618946075,-0.3769308924674988
2024-11-02 11:14:31.952,1730517163.46551,0.19254066050052643,0.3237426280975342,0.03127110004425049,-0.22233507163528077,-0.08345269671641888,-0.26311849395518305,-0.08130408078432083,0.22050781548023224,-0.971990704536438,0.36712297797203064,0.21179033815860748,-0.4655000865459442
2024-11-02 11:14:31.954,1730517163.467946,-0.006428055465221405,0.5971553921699524,0.017887115478515625,-0.21782594455239643,-0.0814456132866089,-0.26734113489893885,-0.0794331356883049,0.21610745787620544,-0.9731330275535583,0.38356319069862366,0.3105297088623047,-0.40629374980926514
2024-11-02 11:14:31.956,1730517163.4696012,-0.10208576917648315,0.6287155151367188,0.05057048797607422,-0.21516485995793494,-0.08036324492209206,-0.27040159636485017,-0.07842568308115005,0.2135084867477417,-0.9737882614135742,0.10662581771612167,0.026767222210764885,-0.24194495379924774
2024-11-02 11:14:31.957,1730517163.4707708,-0.12426086515188217,0.3451744318008423,0.06396377086639404,-0.21482362618989678,-0.08171628452563105,-0.2723260421234953,-0.07974912971258163,0.21317511796951294,-0.973753809928894,-0.0483107715845108,-0.1932269185781479,-0.1393996775150299
2024-11-02 11:14:31.958,1730517163.471881,-0.09579672664403915,0.1899721920490265,0.11782598495483398,-0.21486008177353114,-0.08390196827035187,-0.2730253826689352,-0.08187660574913025,0.21321073174476624,-0.973569393157959,0.058659087866544724,-0.17629747092723846,0.015112933702766895
2024-11-02 11:14:31.959,1730517163.4729738,-0.1404280662536621,0.3947904407978058,0.15021741390228271,-0.21275262381803545,-0.0841617817013815,-0.2718980691213007,-0.0821671411395073,0.21115125715732574,-0.973993718624115,0.4170374572277069,0.11826039105653763,0.15554754436016083
2024-11-02 11:14:31.960,1730517163.474061,-0.30382996797561646,0.5856448411941528,0.13151854276657104,-0.20659305897706914,-0.07981667069340741,-0.26947983777729917,-0.07803648710250854,0.2051265984773636,-0.9756194949150085,0.8250580430030823,0.6571019887924194,0.22054465115070343
2024-11-02 11:14:31.961,1730517163.4751592,-0.4705563485622406,0.5841327905654907,0.10844206809997559,-0.19836981220917635,-0.07101005750442384,-0.26607926405473603,-0.0695590004324913,0.197071373462677,-0.9779183864593506,0.8086295127868652,0.8902058005332947,0.31767547130584717
2024-11-02 11:14:31.962,1730517163.476268,-0.5097291469573975,0.36272963881492615,0.11463630199432373,-0.19223939641194443,-0.06283426050336957,-0.26244010757399666,-0.06163620576262474,0.19105751812458038,-0.9796417951583862,0.4561866819858551,0.5605419278144836,0.3064650595188141
2024-11-02 11:14:31.963,1730517163.477381,-0.34251847863197327,-0.011345833539962769,0.12379622459411621,-0.18958824073740574,-0.05889990513677442,-0.2596488401868689,-0.05781109258532524,0.1884545236825943,-0.9803788661956787,0.1099320650100708,0.14683717489242554,0.19245165586471558
2024-11-02 11:14:31.965,1730517163.478574,-0.07017908990383148,-0.3885728716850281,0.0839686393737793,-0.19000699601992832,-0.05809580673837703,-0.258383047921216,-0.05701816454529762,0.1888657659292221,-0.9803462028503418,-0.19729799032211304,0.00840738881379366,0.08441690355539322
2024-11-02 11:14:31.966,1730517163.4797,0.10585439205169678,-0.6015854477882385,-0.020542144775390625,-0.1950126995788656,-0.0577090375932629,-0.2573448096644757,-0.05658375471830368,0.19377899169921875,-0.9794120788574219,-0.7927512526512146,0.0056534139439463615,0.20889972150325775
2024-11-02 11:14:31.967,1730517163.480799,0.10805149376392365,-0.639155924320221,-0.1593012809753418,-0.20462192943595497,-0.058227272457136076,-0.25509014643322653,-0.05698031559586525,0.20319698750972748,-0.9774785041809082,-0.9937460422515869,-0.197083979845047,0.291665256023407
2024-11-02 11:14:31.968,1730517163.481886,0.049230094999074936,-0.611506462097168,-0.2446504831314087,-0.21215440046107645,-0.059681790496448714,-0.2536481958710612,-0.05830906704068184,0.21056649088859558,-0.9758390188217163,-0.4162914752960205,-0.09536747634410858,0.07318619638681412
2024-11-02 11:14:31.970,1730517163.484106,0.08224210143089294,-0.4804481863975525,-0.22954058647155762,-0.2128719083680896,-0.058853977994215906,-0.2539886640041716,-0.05749233439564705,0.2112678587436676,-0.9757359027862549,0.18444465100765228,0.274341344833374,-0.11604247987270355
2024-11-02 11:14:31.973,1730517163.486497,0.14586275815963745,-0.1632404923439026,-0.2191169261932373,-0.2108503163408719,-0.05577180662322438,-0.2557780477761002,-0.054508376866579056,0.2092914581298828,-0.9763329029083252,0.14452439546585083,0.3611486554145813,-0.2561710774898529
2024-11-02 11:14:31.974,1730517163.488006,0.18859168887138367,0.0046974122524261475,-0.13690847158432007,-0.21102230026159294,-0.05407479146116257,-0.25883782684724377,-0.05284950137138367,0.20945963263511658,-0.9763880372047424,-0.241725891828537,0.06615004688501358,-0.33181995153427124
2024-11-02 11:14:31.975,1730517163.4892092,0.3088496923446655,-0.19890035688877106,-0.026337265968322754,-0.2152372950189531,-0.0564116476230382,-0.2629805522107947,-0.05508076772093773,0.21357925236225128,-0.9753717184066772,-0.6097782254219055,-0.34763142466545105,-0.4433424770832062
2024-11-02 11:14:31.976,1730517163.490405,0.500575840473175,-0.42963457107543945,0.03848075866699219,-0.22147986960200153,-0.06186356806297461,-0.2683929408144857,-0.06031396612524986,0.21967358887195587,-0.9737071990966797,-0.6726362705230713,-0.46100670099258423,-0.5116173028945923
2024-11-02 11:14:31.978,1730517163.4915729,0.5711615085601807,-0.30516481399536133,0.053255558013916016,-0.2272981641536622,-0.06674674928782974,-0.2735001247804586,-0.06498166918754578,0.22534601390361786,-0.972109317779541,-0.54205322265625,-0.2713091969490051,-0.39463740587234497
2024-11-02 11:14:31.979,1730517163.492721,0.37486666440963745,0.0007158368825912476,-0.006356656551361084,-0.23075774397474025,-0.0693713172341307,-0.2773306154341518,-0.06747836619615555,0.22871524095535278,-0.9711518883705139,-0.13287672400474548,-0.1078646257519722,-0.32755348086357117
2024-11-02 11:14:31.980,1730517163.4938269,0.10085420310497284,0.24607589840888977,-0.06703168153762817,-0.22933291992274835,-0.06996571059488332,-0.28123474190135156,-0.06807830929756165,0.22732795774936676,-0.9714357256889343,0.3429694175720215,0.1955394595861435,-0.4620148837566376
2024-11-02 11:14:31.981,1730517163.494925,-0.050832897424697876,0.4037553071975708,-0.04719960689544678,-0.2246241499313627,-0.06781910567937914,-0.2859253014105006,-0.06606467813253403,0.22273996472358704,-0.9726368188858032,0.4354986846446991,0.3933870196342468,-0.48635196685791016
2024-11-02 11:14:31.982,1730517163.496038,-0.09182935953140259,0.4530767500400543,0.04102885723114014,-0.22166178191681155,-0.06588061385999248,-0.2900203166193619,-0.06422226130962372,0.2198510468006134,-0.9734171628952026,0.07539298385381699,0.1347416341304779,-0.3426046669483185
2024-11-02 11:14:31.983,1730517163.497153,-0.11485087126493454,0.24668140709400177,0.0901024341583252,-0.2223238567213686,-0.06691368751361362,-0.2929056051664745,-0.06521809101104736,0.22049687802791595,-0.9732048511505127,-0.2097066044807434,-0.1953398734331131,-0.21494923532009125
2024-11-02 11:14:31.984,1730517163.4984112,-0.09814824908971786,0.02130800485610962,0.16291016340255737,-0.22453129925870646,-0.07000063516348153,-0.29438400936590026,-0.06818780303001404,0.2226494550704956,-0.9725109934806824,-0.2222469002008438,-0.33264845609664917,-0.02946300245821476
2024-11-02 11:14:31.987,1730517163.5010781,-0.09728537499904633,0.16818580031394958,0.2414136528968811,-0.22539562523775616,-0.07319351975535561,-0.29361022299325845,-0.07127846032381058,0.22349199652671814,-0.9720960259437561,0.10177939385175705,-0.32818394899368286,0.1894005835056305
2024-11-02 11:14:31.989,1730517163.502845,-0.21180692315101624,0.4461820721626282,0.20282745361328125,-0.2220035525341546,-0.07466968203080428,-0.2904480389212767,-0.07276949286460876,0.22018444538116455,-0.9727401733398438,0.6188907027244568,-0.061335477977991104,0.3746734857559204
2024-11-02 11:14:31.990,1730517163.504206,-0.38174697756767273,0.5948962569236755,0.06484085321426392,-0.2139214890452484,-0.07174600561745526,-0.2852833167965948,-0.07005048543214798,0.2122936248779297,-0.9746919274330139,1.0408035516738892,0.4320231080055237,0.5050130486488342
2024-11-02 11:14:31.991,1730517163.50533,-0.5162168741226196,0.6130412817001343,-0.0523720383644104,-0.20368704234912535,-0.06474030714565507,-0.2789704031255497,-0.06335768103599548,0.20228151977062225,-0.9772757887840271,1.003237009048462,0.6537392139434814,0.5830777883529663
2024-11-02 11:14:31.993,1730517163.506458,-0.5661965608596802,0.41419070959091187,-0.09585350751876831,-0.19593189162477867,-0.05822550299875785,-0.2725449710606755,-0.057079192250967026,0.19468067586421967,-0.9792044758796692,0.6102245450019836,0.35862451791763306,0.5553134679794312
2024-11-02 11:14:31.994,1730517163.507673,-0.43785569071769714,-0.06822800636291504,-0.08428394794464111,-0.19269397613146008,-0.05540021527026382,-0.26744368960572346,-0.05434705317020416,0.19150370359420776,-0.9799860715866089,0.016644837334752083,0.044694021344184875,0.413029283285141
2024-11-02 11:14:31.995,1730517163.5088692,-0.1553632915019989,-0.446953147649765,-0.05800563097000122,-0.19729986712236602,-0.05580014013316517,-0.2625656515085422,-0.0546891950070858,0.19602230191230774,-0.9790732264518738,-0.8791007399559021,-0.37766122817993164,0.6513593792915344
2024-11-02 11:14:31.996,1730517163.510023,0.06149687245488167,-0.6235966086387634,-0.04345482587814331,-0.20708955304090457,-0.060818872077803114,-0.25643336129798444,-0.059482697397470474,0.20561251044273376,-0.9768241047859192,-0.8171988129615784,-0.7757372260093689,0.5602638125419617
2024-11-02 11:14:31.997,1730517163.511178,0.12056539952754974,-0.6650214791297913,0.0045438408851623535,-0.2107835302319945,-0.0658092139041811,-0.2528310863965786,-0.06430623680353165,0.20922614634037018,-0.9757505655288696,0.15239356458187103,-0.29286909103393555,0.21010293066501617
2024-11-02 11:14:31.998,1730517163.51233,0.13183337450027466,-0.45032116770744324,0.006133913993835449,-0.20645378265051614,-0.06495920342685137,-0.25132137212906625,-0.06353502720594406,0.20499028265476227,-0.976699709892273,0.6184625029563904,0.3584516942501068,0.04223429784178734
2024-11-02 11:14:31.999,1730517163.513442,0.05023498088121414,-0.05135193467140198,-0.1623561978340149,-0.20136096634705813,-0.060386898924038694,-0.25089927097095344,-0.059130847454071045,0.200002983212471,-0.9780094027519226,0.3446769118309021,0.4590608477592468,-0.013109170831739902
2024-11-02 11:14:32.001,1730517163.514524,0.013428118079900742,-0.041168272495269775,-0.24313479661941528,-0.2004671963560404,-0.0573628309473972,-0.25143074876455124,-0.056183237582445145,0.199127197265625,-0.9783617854118347,-0.1581239104270935,0.142320454120636,-0.12505728006362915
2024-11-02 11:14:32.002,1730517163.515767,0.19372788071632385,-0.452883780002594,-0.24098461866378784,-0.20352291512437626,-0.0581654405674046,-0.2540631964422876,-0.05693282559514046,0.20212078094482422,-0.9777043461799622,-0.47390371561050415,-0.18559937179088593,-0.35640671849250793
2024-11-02 11:14:32.005,1730517163.5187268,0.5071690082550049,-0.5266517996788025,-0.07884234189987183,-0.20912669829803515,-0.06224489925815766,-0.25860877656652953,-0.06084943190217018,0.20760570466518402,-0.9763181805610657,-0.6724189519882202,-0.42186275124549866,-0.44211629033088684
2024-11-02 11:14:32.006,1730517163.520308,0.6289991736412048,-0.3059678077697754,0.09521472454071045,-0.21592102103327776,-0.06783522375335863,-0.2633044528561776,-0.06620924919843674,0.21424715220928192,-0.974532961845398,-0.7184731364250183,-0.4749142527580261,-0.3808748424053192
2024-11-02 11:14:32.007,1730517163.521455,0.4736499786376953,-0.14503441751003265,0.14336931705474854,-0.22129910070597766,-0.07313816318599771,-0.26756144846687296,-0.07129095494747162,0.21949723362922668,-0.973004937171936,-0.3568134903907776,-0.39153629541397095,-0.3996905982494354
2024-11-02 11:14:32.009,1730517163.5225801,0.22515833377838135,-0.009639501571655273,0.14132589101791382,-0.2219992227688977,-0.07645725889822376,-0.27267427389143134,-0.07450829446315765,0.2201802283525467,-0.9726094603538513,0.1280815452337265,-0.0192926824092865,-0.5861247181892395
2024-11-02 11:14:32.010,1730517163.523732,0.025720976293087006,0.15456582605838776,0.13748043775558472,-0.21889739116895415,-0.07611671608849101,-0.27888026258458076,-0.07422865182161331,0.21715345978736877,-0.9733110666275024,0.3398206830024719,0.32068192958831787,-0.6452455520629883
2024-11-02 11:14:32.011,1730517163.524828,-0.10042258352041245,0.23735308647155762,0.14156854152679443,-0.2159979136255387,-0.07423582008151905,-0.2847287051825319,-0.07244422286748886,0.2143222540616989,-0.9740728139877319,0.13717558979988098,0.2485954910516739,-0.532505214214325
2024-11-02 11:14:32.012,1730517163.525918,-0.16857334971427917,0.054968029260635376,0.14725500345230103,-0.2155884482386842,-0.07445896175490778,-0.28977383488698644,-0.07266809791326523,0.21392229199409485,-0.9741440415382385,-0.12894050776958466,-0.08174993097782135,-0.4629562199115753
2024-11-02 11:14:32.013,1730517163.5269918,-0.1087879091501236,-0.09366051852703094,0.22441357374191284,-0.2179558759450791,-0.07775958683722951,-0.2938087393413985,-0.07584342360496521,0.21623431146144867,-0.9733912348747253,-0.3849566578865051,-0.3997156620025635,-0.2560161054134369
2024-11-02 11:14:32.014,1730517163.528152,-0.022598400712013245,0.09564800560474396,0.2746836543083191,-0.22190344269166082,-0.08325063318887392,-0.2949314264174076,-0.08111558109521866,0.22008679807186127,-0.9721018671989441,-0.35044342279434204,-0.6231668591499329,0.10001206398010254
2024-11-02 11:14:32.015,1730517163.5292358,-0.10819734632968903,0.40738174319267273,0.16356247663497925,-0.22248565634250125,-0.08819500544119173,-0.2926996255922254,-0.08590970188379288,0.22065469622612,-0.9715611338615417,0.3137161433696747,-0.37270188331604004,0.31996816396713257
2024-11-02 11:14:32.016,1730517163.530324,-0.32703185081481934,0.7049866914749146,0.017404556274414062,-0.21564123384330156,-0.08689157853571342,-0.2882552615845207,-0.08477234840393066,0.21397385001182556,-0.9731540679931641,1.1013442277908325,0.47010818123817444,0.42883792519569397
2024-11-02 11:14:32.017,1730517163.531399,-0.5493423938751221,0.9491133689880371,-0.08064430952072144,-0.20350290838576898,-0.07771945330765398,-0.2818770904590275,-0.07603908330202103,0.2021011859178543,-0.9764083027839661,1.329688310623169,1.0065736770629883,0.6252908706665039
2024-11-02 11:14:32.019,1730517163.532483,-0.6819689869880676,0.8935772180557251,-0.14887553453445435,-0.19199652495833588,-0.06657114875125938,-0.27423457522663225,-0.06529965996742249,0.19081911444664001,-0.9794508814811707,1.037326455116272,0.8762916326522827,0.669363796710968
2024-11-02 11:14:32.021,1730517163.5347939,-0.605481743812561,0.3136645257472992,-0.17669177055358887,-0.18657676460249875,-0.058001879103630624,-0.2674442420556794,-0.056963302195072174,0.18549616634845734,-0.9809925556182861,-0.02111712470650673,0.5582257509231567,0.6467159390449524
2024-11-02 11:14:32.022,1730517163.536288,-0.24628190696239471,-0.2498566061258316,-0.11979091167449951,-0.19335026431446684,-0.05560946317672403,-0.2593532079786277,-0.05454511195421219,0.19214780628681183,-0.9798489809036255,-1.1858361959457397,-0.40529391169548035,0.9971094131469727
2024-11-02 11:14:32.024,1730517163.537581,0.11746308207511902,-0.5758742690086365,-0.052938997745513916,-0.20460280231533473,-0.06076855216355691,-0.2513126868536324,-0.05946441367268562,0.2031782567501068,-0.9773344397544861,-0.7879518866539001,-0.7744296193122864,0.6404315233230591
2024-11-02 11:14:32.025,1730517163.538742,0.3076694905757904,-0.6946501135826111,0.09740018844604492,-0.2074569830151189,-0.06502908772082466,-0.24704893683637635,-0.06358988583087921,0.2059720754623413,-0.9764895439147949,0.23232430219650269,-0.19572123885154724,0.2620551586151123
2024-11-02 11:14:32.026,1730517163.539843,0.3067305088043213,-0.3919301927089691,0.0751490592956543,-0.20326344530691462,-0.06337147723140983,-0.2452058349971624,-0.062025316059589386,0.20186665654182434,-0.9774470329284668,0.5076838135719299,0.40186333656311035,0.05802721530199051
2024-11-02 11:14:32.027,1730517163.540923,0.07912732660770416,-0.07076258957386017,-0.1731376051902771,-0.19964969863525434,-0.05904785544136282,-0.2451474190027361,-0.057841308414936066,0.1983260065317154,-0.9784278869628906,0.17978504300117493,0.39164185523986816,-0.09324725717306137
2024-11-02 11:14:32.028,1730517163.5420098,-0.02497277781367302,-0.35330885648727417,-0.2581057548522949,-0.20020946012061638,-0.05722506488182528,-0.24709930812016268,-0.05605138838291168,0.1988746076822281,-0.9784207344055176,-0.27275457978248596,0.04092804715037346,-0.29835236072540283
2024-11-02 11:14:32.029,1730517163.543141,0.17389105260372162,-0.8446098566055298,-0.21810132265090942,-0.20388374185058794,-0.05937122687593049,-0.251792132813138,-0.05810735374689102,0.20247414708137512,-0.9775621294975281,-0.4926203787326813,-0.27033182978630066,-0.5660719275474548
2024-11-02 11:14:32.030,1730517163.544236,0.48016658425331116,-0.8028793334960938,0.0067070722579956055,-0.20918672695581284,-0.06412706152797525,-0.2582914085985909,-0.06268611550331116,0.20766443014144897,-0.9761894941329956,-0.6453371047973633,-0.39381515979766846,-0.5990927219390869
2024-11-02 11:14:32.031,1730517163.545325,0.5425645112991333,-0.44421547651290894,0.1651480793952942,-0.21534614977696034,-0.06917965605121205,-0.2643292095425418,-0.0675278827548027,0.21368560194969177,-0.9745657444000244,-0.6283555030822754,-0.3454321622848511,-0.5015707015991211
2024-11-02 11:14:32.032,1730517163.546448,0.3720540702342987,-0.1672709435224533,0.15270209312438965,-0.21902081603764803,-0.07311352414602106,-0.26975334242431365,-0.07130332291126251,0.21727393567562103,-0.9735028743743896,-0.09771910309791565,-0.1925579458475113,-0.5301325917243958
2024-11-02 11:14:32.034,1730517163.547597,0.1461469531059265,0.08328473567962646,0.077877938747406,-0.21649820265596112,-0.07402748727191456,-0.2759651932484345,-0.07223334908485413,0.21481089293956757,-0.9739807844161987,0.4850479066371918,0.31368687748908997,-0.7216546535491943
2024-11-02 11:14:32.035,1730517163.548693,-0.02130039781332016,0.3269936442375183,-0.0049201250076293945,-0.21013281400903722,-0.07064299306157391,-0.2831305988731882,-0.06903162598609924,0.20858979225158691,-0.9755638837814331,0.5762262940406799,0.5903583765029907,-0.7331706881523132
2024-11-02 11:14:32.037,1730517163.5510468,-0.11576204746961594,0.43064531683921814,0.020960628986358643,-0.20648466451964045,-0.06706239996613772,-0.28951277740787784,-0.06558865308761597,0.20502051711082458,-0.9765575528144836,0.04241720214486122,0.3334723114967346,-0.5636418461799622
2024-11-02 11:14:32.039,1730517163.552754,-0.1455068588256836,0.17461703717708588,0.0743710994720459,-0.20860645251292376,-0.06708684905644116,-0.29466106535327335,-0.06558321416378021,0.20709677040576935,-0.9761197566986084,-0.4839679002761841,-0.12148775905370712,-0.41148561239242554
2024-11-02 11:14:32.040,1730517163.553951,-0.05294818431138992,-0.02816613018512726,0.16673040390014648,-0.21407790152195588,-0.0705141962094893,-0.2979699779580339,-0.06884746253490448,0.21244646608829498,-0.9747443199157715,-0.6296233534812927,-0.3908044397830963,-0.1302555501461029
2024-11-02 11:14:32.041,1730517163.5550818,0.0007717832922935486,0.1840185523033142,0.2681036591529846,-0.2193630308761786,-0.07463412136548767,-0.29765235838620835,-0.07277800142765045,0.21760796010494232,-0.9733191132545471,-0.31879550218582153,-0.4318946301937103,0.2580566704273224
2024-11-02 11:14:32.042,1730517163.556182,-0.12552186846733093,0.5771149396896362,0.2622702121734619,-0.21880082475298923,-0.07696398766715074,-0.2939793723732056,-0.07505489885807037,0.2170591950416565,-0.9732687473297119,0.5149286389350891,-0.11573053896427155,0.4195353090763092
2024-11-02 11:14:32.043,1730517163.557396,-0.33141252398490906,0.8930495977401733,0.13401782512664795,-0.21016331669524912,-0.07327909840174862,-0.28853294403064006,-0.07160260528326035,0.208619624376297,-0.9753721952438354,1.2330782413482666,0.6235275268554688,0.5203791260719299
2024-11-02 11:14:32.045,1730517163.55849,-0.5128046274185181,0.9426373839378357,-0.044658660888671875,-0.19784134100292275,-0.06370612209792363,-0.28169494660856537,-0.062421172857284546,0.19655324518680573,-0.9785041809082031,1.2300790548324585,0.9301156997680664,0.6385896801948547
2024-11-02 11:14:32.046,1730517163.559583,-0.5915610790252686,0.6566386222839355,-0.17517167329788208,-0.18837606964758496,-0.05424584104009288,-0.2745772241720913,-0.05326008424162865,0.18726393580436707,-0.9808647036552429,0.6958972215652466,0.656982958316803,0.6235297918319702
2024-11-02 11:14:32.047,1730517163.560672,-0.48101767897605896,0.008090227842330933,-0.22171103954315186,-0.1876501562149747,-0.04846192430571506,-0.2682452618123612,-0.04759255796670914,0.1865508258342743,-0.9812918901443481,-0.5218121409416199,0.21791747212409973,0.6773362755775452
2024-11-02 11:14:32.048,1730517163.561767,-0.1677943617105484,-0.5354577302932739,-0.17619186639785767,-0.19890655373685262,-0.04888685011912924,-0.26042272790079296,-0.047903873026371,0.19759756326675415,-0.9791120290756226,-1.489620566368103,-0.6066374182701111,0.8927310705184937
2024-11-02 11:14:32.049,1730517163.562895,0.11469770967960358,-0.7829129099845886,-0.05122983455657959,-0.2116750863740664,-0.05464949377059205,-0.2539989729803436,-0.05340314656496048,0.21009789407253265,-0.9762207865715027,-0.8572962880134583,-0.6708062887191772,0.4689164459705353
2024-11-02 11:14:32.050,1730517163.563982,0.25663214921951294,-0.7663369178771973,0.1446276307106018,-0.21493306472761656,-0.05775123703022366,-0.251603564459177,-0.05639106035232544,0.2132820338010788,-0.9753618836402893,0.20402364432811737,-0.010962847620248795,0.048999153077602386
2024-11-02 11:14:32.051,1730517163.565084,0.2036731094121933,-0.3996289372444153,0.07776957750320435,-0.21075595533659816,-0.05507772927590717,-0.2525673128288684,-0.0538318008184433,0.2091991901397705,-0.9763901829719543,0.49508026242256165,0.5102084279060364,-0.2570856809616089
2024-11-02 11:14:32.052,1730517163.566204,0.027516305446624756,-0.1305438131093979,-0.12414377927780151,-0.20817010280481138,-0.05119595085981876,-0.2557311797953122,-0.05006878823041916,0.2066698521375656,-0.977128803730011,-0.042671263217926025,0.3113339841365814,-0.3785955309867859
2024-11-02 11:14:32.055,1730517163.568996,0.028084568679332733,-0.543203592300415,-0.2197548747062683,-0.21163467536209754,-0.05201894804456207,-0.26050512161006806,-0.05083541199564934,0.21005839109420776,-0.9763663411140442,-0.6861780881881714,-0.28096556663513184,-0.5308774709701538
2024-11-02 11:14:32.056,1730517163.5704122,0.29845622181892395,-0.9543464779853821,-0.15218400955200195,-0.21951769375496524,-0.05807572368744742,-0.2671621657970327,-0.05665019899606705,0.217758908867836,-0.9743571281433105,-0.901966392993927,-0.584141194820404,-0.663052499294281
2024-11-02 11:14:32.058,1730517163.571563,0.5544637441635132,-0.7068040370941162,0.025461316108703613,-0.227796710255524,-0.06488168276557917,-0.2740609676968126,-0.0631612166762352,0.22583170235157013,-0.9721165895462036,-0.7975049614906311,-0.4384249746799469,-0.5532985329627991
2024-11-02 11:14:32.059,1730517163.572691,0.4649008810520172,-0.11672666668891907,0.11034691333770752,-0.23360689734600726,-0.06911125414270813,-0.2794297217379786,-0.06718052923679352,0.2314879447221756,-0.9705153703689575,-0.3876989781856537,-0.16758094727993011,-0.4340153932571411
2024-11-02 11:14:32.060,1730517163.5737882,0.1497427225112915,0.25206297636032104,0.031242668628692627,-0.2340775176741831,-0.0702479838031626,-0.28454399245692863,-0.068276047706604,0.23194575309753418,-0.9703295826911926,0.17664244771003723,0.2390584498643875,-0.5818754434585571
2024-11-02 11:14:32.061,1730517163.574885,-0.08903775364160538,0.4378954768180847,-0.022373557090759277,-0.2303187956873005,-0.067362146432448,-0.29071174994002524,-0.06553377211093903,0.22828790545463562,-0.9713855981826782,0.4054032862186432,0.5650336146354675,-0.6298608183860779
2024-11-02 11:14:32.062,1730517163.5759811,-0.1590251326560974,0.5301756858825684,0.023585975170135498,-0.22764468946152427,-0.06369902807406058,-0.2959779992903928,-0.06201367825269699,0.22568359971046448,-0.9722248911857605,0.025880711153149605,0.35253095626831055,-0.4135127663612366
2024-11-02 11:14:32.063,1730517163.577148,-0.1515343338251114,0.3064711093902588,0.1012115478515625,-0.2291596078972403,-0.0630293934713786,-0.29922799700218766,-0.061341021209955215,0.22715918719768524,-0.971923828125,-0.3578653335571289,-0.06645513325929642,-0.20657972991466522
2024-11-02 11:14:32.064,1730517163.578456,-0.0722419023513794,0.09735932946205139,0.20970845222473145,-0.2334604196469197,-0.06572607258435255,-0.3002617960147159,-0.06389700621366501,0.23134544491767883,-0.970771074295044,-0.4628564715385437,-0.417420357465744,0.07786079496145248
2024-11-02 11:14:32.066,1730517163.579597,0.0022254884243011475,0.27371475100517273,0.3075697422027588,-0.23638453316119726,-0.07035471756869462,-0.298299268418496,-0.06834181398153305,0.2341892421245575,-0.9697859287261963,-0.02550208568572998,-0.528634250164032,0.31681185960769653
2024-11-02 11:14:32.067,1730517163.580724,-0.08929339796304703,0.6173400282859802,0.26519399881362915,-0.23248095185373144,-0.0719902776762684,-0.2942003128508835,-0.06999308615922928,0.2303924411535263,-0.9705772995948792,0.8550023436546326,0.09591087698936462,0.4298180341720581
2024-11-02 11:14:32.068,1730517163.5818028,-0.28840261697769165,0.9015417695045471,0.10361921787261963,-0.22160541793280572,-0.0658542940160699,-0.2880450147524606,-0.06419745832681656,0.2197960615158081,-0.9734312295913696,1.314426064491272,0.8063977360725403,0.6165710687637329
2024-11-02 11:14:32.069,1730517163.5829191,-0.5104771256446838,0.8212827444076538,-0.07978266477584839,-0.2096845661224607,-0.05535336875323693,-0.2807299508803008,-0.054113298654556274,0.20815138518810272,-0.9765985608100891,1.0936843156814575,0.9031634330749512,0.634940505027771
2024-11-02 11:14:32.071,1730517163.58511,-0.5877164006233215,0.354209840297699,-0.19185256958007812,-0.20262420929726638,-0.04653762786974709,-0.2744809884883425,-0.045569103211164474,0.20124053955078125,-0.9784813523292542,0.2561652660369873,0.5955818891525269,0.5189424753189087
2024-11-02 11:14:32.073,1730517163.586576,-0.3530701696872711,-0.2367873638868332,-0.16631931066513062,-0.20609287908359036,-0.042900609915890245,-0.2684537021521921,-0.04197986423969269,0.20463703572750092,-0.9779372811317444,-0.8864767551422119,-0.18284939229488373,0.7371488809585571
2024-11-02 11:14:32.074,1730517163.587856,-8.725002408027649e-05,-0.6934358477592468,-0.10808050632476807,-0.21742255752574702,-0.04685473821608177,-0.26164805094067206,-0.04573488235473633,0.21571357548236847,-0.9753850102424622,-1.0769765377044678,-0.7699379324913025,0.5884088277816772
2024-11-02 11:14:32.075,1730517163.5890179,0.253555566072464,-0.9059354066848755,0.02516859769821167,-0.223902530168491,-0.05238720000217526,-0.25835762125325773,-0.05105616897344589,0.2220364212989807,-0.9737007021903992,-0.15004682540893555,-0.4033932089805603,0.12991343438625336
2024-11-02 11:14:32.076,1730517163.590131,0.33620986342430115,-0.7068801522254944,0.11603844165802002,-0.22186412549972728,-0.05334718165429445,-0.25851621020649374,-0.05201490595936775,0.2200484424829483,-0.974101185798645,0.4414481818675995,0.18979528546333313,-0.15811413526535034
2024-11-02 11:14:32.077,1730517163.591217,0.16240151226520538,-0.2991839647293091,-0.0868956446647644,-0.21849012686725397,-0.051167215312301444,-0.2607054121625295,-0.04992896318435669,0.21675589680671692,-0.9749481678009033,0.12999868392944336,0.24475547671318054,-0.28336554765701294
2024-11-02 11:14:32.078,1730517163.592305,0.036163993179798126,-0.30676141381263733,-0.22040963172912598,-0.22034422602650822,-0.051640868571921815,-0.2640865611049061,-0.05036991462111473,0.21856553852558136,-0.9745213985443115,-0.5415348410606384,-0.21226000785827637,-0.37195873260498047
2024-11-02 11:14:32.080,1730517163.5934749,0.15361787378787994,-0.7062058448791504,-0.21906179189682007,-0.2276055359907384,-0.05659619961994366,-0.2691979003458764,-0.05510712414979935,0.22564546763896942,-0.9726496338844299,-0.8854525685310364,-0.5047376751899719,-0.5421472191810608
2024-11-02 11:14:32.081,1730517163.594643,0.39249128103256226,-0.7087782025337219,-0.06477326154708862,-0.2359397136455496,-0.06272611141516092,-0.2753940806931004,-0.06094830483198166,0.23375676572322845,-0.9703829288482666,-0.8145122528076172,-0.395234614610672,-0.5372959971427917
2024-11-02 11:14:32.082,1730517163.595751,0.4154808521270752,-0.24103467166423798,0.06557613611221313,-0.24226846658462584,-0.06670795281711361,-0.28076228106818607,-0.0647118091583252,0.2399054616689682,-0.9686370491981506,-0.5079696178436279,-0.14774252474308014,-0.42800354957580566
2024-11-02 11:14:32.083,1730517163.5969,0.19445228576660156,0.14966358244419098,0.054478228092193604,-0.2447714834364835,-0.06830490011174695,-0.2853505265544814,-0.06621740013360977,0.24233461916446686,-0.9679303765296936,-0.014812186360359192,0.03594154492020607,-0.45063838362693787
2024-11-02 11:14:32.084,1730517163.598094,-0.002541773021221161,0.3624478578567505,0.00886523723602295,-0.2423025788072749,-0.06766109989956613,-0.29079082908598247,-0.06563448160886765,0.23993857204914093,-0.9685667753219604,0.4148470461368561,0.3834680914878845,-0.6393944621086121
2024-11-02 11:14:32.085,1730517163.599189,-0.06563691794872284,0.47194501757621765,0.010610759258270264,-0.23741711451682673,-0.06444916918079766,-0.29722739075030324,-0.06259793043136597,0.23519298434257507,-0.9699308276176453,0.3832723796367645,0.519197404384613,-0.6401024460792542
2024-11-02 11:14:32.087,1730517163.6013432,-0.07896390557289124,0.3884968161582947,0.06447869539260864,-0.23515488577406296,-0.06179794087265481,-0.30306904441279264,-0.06005891039967537,0.23299361765384674,-0.9706219434738159,-0.006830912083387375,0.24862265586853027,-0.521743893623352
2024-11-02 11:14:32.089,1730517163.602886,-0.10098884999752045,0.10759149491786957,0.13240832090377808,-0.2369347420823832,-0.062289549448995916,-0.3077786366625167,-0.06051015853881836,0.23472411930561066,-0.9701768755912781,-0.3849530816078186,-0.12325076758861542,-0.3529260754585266
2024-11-02 11:14:32.090,1730517163.604064,-0.05662883073091507,0.009012550115585327,0.257371187210083,-0.24168545687961013,-0.06543549368378987,-0.30999450359135633,-0.06348834186792374,0.2393394410610199,-0.968858003616333,-0.5391634106636047,-0.3798772394657135,0.0016631707549095154
2024-11-02 11:14:32.091,1730517163.6051788,-0.058121055364608765,0.23382091522216797,0.31081879138946533,-0.2450335934527214,-0.06883522738958014,-0.3082180704490001,-0.06672634184360504,0.24258890748023987,-0.9678317308425903,-0.016058027744293213,-0.31745168566703796,0.3714398443698883
2024-11-02 11:14:32.092,1730517163.606303,-0.20102301239967346,0.6131253242492676,0.2306368350982666,-0.24092905885040652,-0.06776941457067623,-0.30325742265104566,-0.06576164811849594,0.23860494792461395,-0.9688875675201416,0.9095528721809387,0.34028199315071106,0.5085452198982239
2024-11-02 11:14:32.094,1730517163.607543,-0.3965086340904236,0.8703520894050598,0.08344614505767822,-0.22926142753954512,-0.059645775529810804,-0.29680773434728436,-0.05805068090558052,0.2272583395242691,-0.9721027612686157,1.3841460943222046,0.9043999314308167,0.6054940819740295
2024-11-02 11:14:32.095,1730517163.608683,-0.5150961875915527,0.8997950553894043,-0.06246286630630493,-0.21676661879144626,-0.04934098226315889,-0.28948632129329105,-0.048166751861572266,0.21507303416728973,-0.9754094481468201,1.1243140697479248,0.7743468880653381,0.661567747592926
2024-11-02 11:14:32.096,1730517163.60983,-0.46107321977615356,0.44354248046875,-0.1643669605255127,-0.21028659049436532,-0.04190659304872742,-0.2828882034901288,-0.04097144305706024,0.20874018967151642,-0.9771125316619873,0.07345925271511078,0.429423063993454,0.588120698928833
