Date,TimeStamp,GravityX,GravityY,GravityZ,UserAccelerationX,UserAccelerationY,UserAccelerationZ,RotationRateX,RotationRateY,RotationRateZ,AttitudeRoll,AttitudePitch,AttitudeYaw
2024-09-23 14:57:54.719,174159.185,0.089,0.764,-0.639,0.015,0.025,0.012,0.284,-0.065,-0.032,0.139,-0.869,0.927
2024-09-23 14:57:54.729,174159.195,0.089,0.762,-0.641,0.006,0.063,0.028,0.193,-0.02,-0.003,0.138,-0.867,0.926
2024-09-23 14:57:54.739,174159.205,0.089,0.761,-0.642,-0.021,0.065,0.01,0.181,-0.004,-0.012,0.137,-0.865,0.926
2024-09-23 14:57:54.749,174159.215,0.089,0.76,-0.644,-0.015,-0.021,-0.008,0.172,0.021,-0.012,0.137,-0.864,0.925
2024-09-23 14:57:54.759,174159.225,0.089,0.759,-0.645,0.002,-0.061,-0.004,0.18,0.097,0.008,0.137,-0.862,0.925
2024-09-23 14:57:54.769,174159.235,0.09,0.758,-0.646,-0.014,0.036,0.009,0.2,0.126,0.027,0.138,-0.86,0.924
2024-09-23 14:57:54.779,174159.245,0.091,0.757,-0.647,-0.027,0.035,0.012,0.144,0.109,0.032,0.139,-0.858,0.925
2024-09-23 14:57:54.789,174159.255,0.092,0.756,-0.648,-0.019,-0.003,0.016,-0.012,0.071,0.046,0.141,-0.858,0.925
2024-09-23 14:57:54.799,174159.265,0.092,0.757,-0.647,-0.012,-0.062,0.015,-0.108,0.02,0.07,0.142,-0.858,0.926
2024-09-23 14:57:54.809,174159.275,0.093,0.758,-0.646,0.005,-0.139,-0.003,-0.212,0.002,0.063,0.143,-0.86,0.927
2024-09-23 14:57:54.819,174159.285,0.094,0.759,-0.644,0.018,-0.067,-0.008,-0.21,0.013,0.069,0.144,-0.862,0.929
2024-09-23 14:57:54.829,174159.295,0.094,0.76,-0.643,-0.0,0.024,0.005,-0.164,0.02,0.055,0.145,-0.864,0.93
2024-09-23 14:57:54.839,174159.304,0.095,0.761,-0.642,-0.006,-0.011,0.009,-0.105,0.041,0.043,0.146,-0.865,0.931
2024-09-23 14:57:54.849,174159.314,0.095,0.761,-0.641,0.005,0.018,0.021,-0.035,0.033,0.035,0.147,-0.865,0.932
2024-09-23 14:57:54.858,174159.324,0.095,0.761,-0.641,0.002,0.057,0.024,0.019,-0.009,0.012,0.148,-0.865,0.932
2024-09-23 14:57:54.869,174159.334,0.095,0.761,-0.641,0.011,0.039,0.016,-0.006,-0.022,0.006,0.148,-0.865,0.932
2024-09-23 14:57:54.878,174159.344,0.096,0.761,-0.641,0.018,0.031,0.004,-0.044,-0.025,0.062,0.148,-0.865,0.933
2024-09-23 14:57:54.889,174159.354,0.096,0.762,-0.641,-0.005,0.015,-0.02,-0.09,-0.035,0.18,0.149,-0.866,0.935
2024-09-23 14:57:54.899,174159.364,0.098,0.762,-0.64,-0.026,0.013,-0.029,-0.257,-0.064,0.326,0.152,-0.867,0.939
2024-09-23 14:57:54.908,174159.374,0.1,0.764,-0.637,-0.038,0.054,-0.049,-0.393,-0.157,0.414,0.156,-0.87,0.946
2024-09-23 14:57:54.918,174159.384,0.094,0.769,-0.632,-0.05,0.027,-0.08,-0.892,-0.913,-0.369,0.148,-0.878,0.945
2024-09-23 14:57:54.928,174159.394,0.089,0.774,-0.626,-0.167,-0.063,-0.021,-0.847,-0.783,0.211,0.142,-0.886,0.947
2024-09-23 14:57:54.939,174159.404,0.086,0.779,-0.621,-0.317,-0.083,0.052,-0.734,-0.526,-0.036,0.138,-0.893,0.95
2024-09-23 14:57:54.948,174159.414,0.082,0.784,-0.616,-0.129,0.132,0.012,-0.656,-0.47,-0.184,0.132,-0.9,0.95
2024-09-23 14:57:54.959,174159.424,0.079,0.787,-0.612,-0.157,0.119,-0.013,-0.429,-0.278,0.069,0.128,-0.906,0.949
2024-09-23 14:57:54.968,174159.434,0.078,0.79,-0.609,-0.127,0.018,0.027,-0.451,-0.194,0.105,0.128,-0.91,0.952
2024-09-23 14:57:54.978,174159.444,0.077,0.792,-0.605,0.012,0.041,-0.007,-0.444,-0.243,-0.03,0.127,-0.915,0.953
2024-09-23 14:57:54.988,174159.454,0.075,0.795,-0.602,0.068,0.076,0.03,-0.457,-0.277,-0.002,0.125,-0.919,0.954
2024-09-23 14:57:54.998,174159.464,0.073,0.798,-0.598,-0.024,0.019,0.063,-0.469,-0.33,-0.048,0.122,-0.924,0.955
2024-09-23 14:57:55.009,174159.474,0.071,0.801,-0.595,0.018,-0.013,0.071,-0.457,-0.362,-0.137,0.118,-0.928,0.954
2024-09-23 14:57:55.018,174159.484,0.067,0.803,-0.592,0.101,-0.042,0.081,-0.363,-0.363,-0.187,0.113,-0.933,0.952
2024-09-23 14:57:55.027,174159.494,0.064,0.805,-0.59,0.116,-0.09,0.086,-0.088,-0.297,-0.146,0.108,-0.935,0.95
2024-09-23 14:57:55.037,174159.504,0.062,0.804,-0.591,0.109,-0.111,0.089,0.274,-0.172,-0.033,0.104,-0.934,0.948
2024-09-23 14:57:55.047,174159.514,0.061,0.802,-0.594,0.113,-0.085,0.064,0.519,-0.058,0.076,0.103,-0.93,0.948
2024-09-23 14:57:55.057,174159.524,0.062,0.798,-0.599,0.118,-0.023,0.027,0.564,0.037,0.157,0.103,-0.925,0.949
2024-09-23 14:57:55.068,174159.534,0.064,0.795,-0.603,0.115,-0.009,0.007,0.43,0.03,0.132,0.105,-0.92,0.95
2024-09-23 14:57:55.078,174159.544,0.064,0.793,-0.606,0.099,-0.064,0.004,0.271,-0.004,0.061,0.106,-0.916,0.951
2024-09-23 14:57:55.088,174159.554,0.065,0.791,-0.608,0.088,-0.103,0.011,0.516,0.093,0.234,0.107,-0.913,0.952
2024-09-23 14:57:55.098,174159.564,0.066,0.788,-0.611,0.076,-0.1,0.012,0.328,-0.078,-0.096,0.108,-0.908,0.953
2024-09-23 14:57:55.108,174159.574,0.065,0.787,-0.614,0.116,-0.058,-0.085,0.238,-0.047,-0.098,0.106,-0.906,0.951
2024-09-23 14:57:55.118,174159.584,0.065,0.785,-0.616,0.056,0.068,-0.09,0.239,0.004,0.01,0.105,-0.903,0.95
2024-09-23 14:57:55.128,174159.594,0.065,0.784,-0.617,-0.078,0.16,-0.038,0.248,0.031,-0.025,0.105,-0.901,0.949
2024-09-23 14:57:55.138,174159.604,0.065,0.783,-0.619,-0.034,0.071,-0.003,0.217,0.026,-0.073,0.104,-0.899,0.948
2024-09-23 14:57:55.148,174159.614,0.064,0.781,-0.621,0.02,0.001,0.011,0.13,0.003,-0.058,0.103,-0.897,0.947
2024-09-23 14:57:55.156,174159.624,0.064,0.781,-0.621,0.0,-0.007,-0.012,0.031,0.012,-0.039,0.102,-0.896,0.946
2024-09-23 14:57:55.166,174159.634,0.064,0.781,-0.621,-0.012,-0.017,-0.021,-0.069,0.025,-0.025,0.102,-0.896,0.945
2024-09-23 14:57:55.177,174159.644,0.064,0.782,-0.62,-0.011,-0.042,-0.015,-0.17,-0.015,-0.008,0.102,-0.898,0.945
2024-09-23 14:57:55.187,174159.654,0.063,0.783,-0.618,-0.009,-0.049,-0.018,-0.262,-0.044,-0.003,0.102,-0.9,0.946
2024-09-23 14:57:55.197,174159.664,0.063,0.785,-0.616,0.002,-0.037,-0.022,-0.264,-0.035,0.011,0.102,-0.903,0.946
2024-09-23 14:57:55.208,174159.674,0.063,0.786,-0.615,0.004,-0.023,-0.009,-0.211,-0.023,0.026,0.102,-0.905,0.947
2024-09-23 14:57:55.218,174159.684,0.063,0.787,-0.613,-0.002,0.01,0.014,-0.145,0.013,0.031,0.103,-0.907,0.948
2024-09-23 14:57:55.228,174159.694,0.064,0.788,-0.612,-0.002,0.043,0.022,-0.129,0.035,0.026,0.104,-0.908,0.948
2024-09-23 14:57:55.238,174159.704,0.064,0.789,-0.611,-0.004,0.038,0.015,-0.135,0.048,0.022,0.105,-0.909,0.949
2024-09-23 14:57:55.248,174159.714,0.065,0.79,-0.61,-0.005,0.013,0.003,-0.143,0.061,-0.003,0.105,-0.911,0.949
2024-09-23 14:57:55.258,174159.724,0.065,0.791,-0.609,-0.0,-0.019,0.006,-0.158,0.08,-0.021,0.106,-0.912,0.949
2024-09-23 14:57:55.269,174159.734,0.065,0.792,-0.607,0.0,-0.026,0.009,-0.176,0.088,-0.028,0.107,-0.914,0.949
2024-09-23 14:57:55.277,174159.744,0.066,0.793,-0.606,-0.004,-0.011,0.007,-0.161,0.08,-0.026,0.108,-0.915,0.949
2024-09-23 14:57:55.287,174159.754,0.066,0.794,-0.605,-0.003,-0.009,0.002,-0.15,0.063,-0.03,0.108,-0.917,0.949
2024-09-23 14:57:55.297,174159.764,0.066,0.795,-0.604,0.0,0.001,0.006,-0.095,0.063,-0.022,0.109,-0.918,0.949
2024-09-23 14:57:55.308,174159.774,0.066,0.795,-0.603,0.001,0.011,0.012,-0.033,0.048,-0.007,0.109,-0.919,0.949
2024-09-23 14:57:55.318,174159.784,0.066,0.795,-0.603,-0.001,0.024,0.016,0.049,0.031,-0.001,0.11,-0.919,0.949
2024-09-23 14:57:55.328,174159.794,0.067,0.794,-0.604,0.003,0.039,0.02,0.134,0.034,0.004,0.11,-0.918,0.948
2024-09-23 14:57:55.338,174159.804,0.067,0.793,-0.605,0.006,0.035,0.024,0.207,0.041,0.015,0.11,-0.916,0.948
2024-09-23 14:57:55.348,174159.814,0.067,0.792,-0.607,-0.001,0.039,0.024,0.271,0.046,0.018,0.11,-0.914,0.948
2024-09-23 14:57:55.358,174159.824,0.068,0.79,-0.609,-0.004,0.048,0.022,0.311,0.027,0.009,0.11,-0.911,0.948
2024-09-23 14:57:55.368,174159.834,0.068,0.788,-0.612,0.001,0.029,0.022,0.332,0.017,-0.001,0.11,-0.908,0.947
2024-09-23 14:57:55.378,174159.844,0.068,0.786,-0.614,0.007,0.016,0.018,0.35,0.012,-0.01,0.11,-0.904,0.947
2024-09-23 14:57:55.388,174159.854,0.068,0.784,-0.617,0.002,0.013,0.015,0.363,0.005,-0.019,0.109,-0.901,0.946
2024-09-23 14:57:55.398,174159.864,0.067,0.782,-0.62,-0.0,0.005,0.013,0.396,-0.005,-0.034,0.108,-0.897,0.945
2024-09-23 14:57:55.408,174159.874,0.067,0.779,-0.623,0.003,0.018,0.015,0.457,-0.014,-0.048,0.107,-0.893,0.943
2024-09-23 14:57:55.417,174159.884,0.067,0.776,-0.627,0.005,0.029,0.021,0.54,0.033,-0.053,0.106,-0.889,0.942
2024-09-23 14:57:55.427,174159.893,0.067,0.773,-0.631,0.008,0.039,0.028,0.406,0.081,-0.018,0.105,-0.884,0.94
2024-09-23 14:57:55.437,174159.903,0.067,0.771,-0.633,-0.01,0.059,0.012,0.305,0.015,-0.002,0.105,-0.88,0.939
2024-09-23 14:57:55.448,174159.913,0.067,0.769,-0.635,-0.027,0.029,-0.024,0.23,-0.055,-0.018,0.105,-0.878,0.939
2024-09-23 14:57:55.458,174159.923,0.066,0.768,-0.637,0.014,-0.116,-0.007,0.05,-0.068,-0.011,0.104,-0.876,0.938
2024-09-23 14:57:55.468,174159.933,0.066,0.769,-0.636,0.018,-0.09,-0.013,-0.122,-0.017,0.011,0.103,-0.877,0.938
2024-09-23 14:57:55.478,174159.943,0.066,0.77,-0.635,-0.004,-0.025,-0.011,-0.217,-0.007,0.038,0.104,-0.878,0.939
2024-09-23 14:57:55.488,174159.953,0.066,0.771,-0.633,-0.02,-0.08,-0.021,-0.33,0.05,0.024,0.105,-0.881,0.94
2024-09-23 14:57:55.497,174159.963,0.067,0.773,-0.63,-0.006,-0.07,-0.005,-0.269,0.094,0.031,0.106,-0.884,0.941
2024-09-23 14:57:55.508,174159.973,0.068,0.775,-0.628,-0.009,-0.029,0.001,-0.193,0.124,0.025,0.108,-0.887,0.942
2024-09-23 14:57:55.517,174159.983,0.069,0.776,-0.627,-0.011,0.031,0.023,-0.102,0.178,0.016,0.11,-0.888,0.942
2024-09-23 14:57:55.528,174159.993,0.071,0.776,-0.627,-0.008,0.03,0.037,-0.049,0.222,0.024,0.112,-0.889,0.943
2024-09-23 14:57:55.537,174160.003,0.072,0.776,-0.626,-0.013,0.006,0.019,-0.064,0.27,0.031,0.115,-0.889,0.943
2024-09-23 14:57:55.547,174160.013,0.074,0.777,-0.625,-0.014,0.039,0.014,-0.114,0.267,0.028,0.118,-0.89,0.944
2024-09-23 14:57:55.557,174160.023,0.076,0.778,-0.624,-0.015,0.025,-0.005,-0.086,0.22,-0.002,0.121,-0.891,0.944
2024-09-23 14:57:55.567,174160.033,0.077,0.778,-0.623,0.001,-0.034,-0.008,-0.028,0.181,-0.024,0.123,-0.892,0.944
2024-09-23 14:57:55.577,174160.043,0.078,0.778,-0.624,0.015,-0.017,0.007,0.08,0.175,-0.03,0.124,-0.891,0.944
2024-09-23 14:57:55.588,174160.053,0.079,0.777,-0.625,0.01,0.057,0.025,0.222,0.145,-0.049,0.125,-0.89,0.943
2024-09-23 14:57:55.597,174160.063,0.079,0.775,-0.627,0.005,0.057,0.037,0.32,0.109,-0.082,0.125,-0.887,0.941
2024-09-23 14:57:55.607,174160.073,0.079,0.773,-0.629,0.013,0.051,0.035,0.433,0.07,-0.105,0.125,-0.884,0.939
2024-09-23 14:57:55.617,174160.083,0.078,0.77,-0.633,0.016,0.065,0.035,0.501,0.018,-0.13,0.123,-0.879,0.936
2024-09-23 14:57:55.627,174160.093,0.077,0.767,-0.637,0.017,0.04,0.031,0.508,-0.056,-0.149,0.12,-0.874,0.933
2024-09-23 14:57:55.637,174160.103,0.075,0.764,-0.641,0.02,0.037,0.017,0.542,-0.12,-0.158,0.117,-0.869,0.93
2024-09-23 14:57:55.647,174160.113,0.073,0.76,-0.645,0.021,0.024,0.023,0.56,-0.046,-0.14,0.113,-0.864,0.927
2024-09-23 14:57:55.658,174160.123,0.072,0.758,-0.649,0.015,0.002,0.031,0.291,-0.02,-0.074,0.111,-0.86,0.924
2024-09-23 14:57:55.667,174160.133,0.072,0.756,-0.65,-0.022,0.03,-0.015,0.156,-0.045,-0.063,0.11,-0.858,0.923
2024-09-23 14:57:55.677,174160.143,0.071,0.756,-0.651,-0.036,-0.027,-0.032,0.012,-0.083,-0.08,0.108,-0.857,0.922
2024-09-23 14:57:55.687,174160.153,0.07,0.756,-0.65,0.012,-0.208,-0.012,-0.114,-0.095,-0.07,0.107,-0.858,0.921
2024-09-23 14:57:55.697,174160.163,0.069,0.757,-0.649,0.009,-0.067,-0.025,-0.181,-0.066,-0.079,0.105,-0.859,0.92
2024-09-23 14:57:55.707,174160.173,0.067,0.759,-0.648,0.0,0.044,-0.01,-0.214,-0.091,-0.114,0.103,-0.861,0.918
2024-09-23 14:57:55.717,174160.183,0.066,0.76,-0.646,0.001,-0.007,-0.012,-0.282,-0.091,-0.143,0.101,-0.864,0.917
2024-09-23 14:57:55.727,174160.193,0.064,0.762,-0.644,0.003,0.008,-0.015,-0.334,-0.062,-0.139,0.099,-0.867,0.915
2024-09-23 14:57:55.737,174160.203,0.063,0.765,-0.641,0.002,-0.016,0.002,-0.419,-0.021,-0.113,0.098,-0.871,0.914
2024-09-23 14:57:55.747,174160.213,0.062,0.768,-0.638,0.004,-0.053,0.005,-0.474,0.008,-0.039,0.097,-0.875,0.913
2024-09-23 14:57:55.757,174160.223,0.062,0.77,-0.635,0.018,-0.036,0.029,-0.357,-0.011,-0.078,0.097,-0.879,0.913
2024-09-23 14:57:55.767,174160.233,0.061,0.772,-0.632,0.025,-0.061,0.03,-0.255,-0.028,-0.066,0.096,-0.882,0.912
2024-09-23 14:57:55.777,174160.243,0.061,0.774,-0.631,-0.006,-0.022,-0.0,-0.131,0.015,-0.029,0.096,-0.884,0.912
2024-09-23 14:57:55.786,174160.253,0.061,0.774,-0.63,-0.021,0.085,0.026,0.021,0.022,-0.019,0.096,-0.885,0.912
2024-09-23 14:57:55.797,174160.263,0.061,0.773,-0.631,-0.02,0.051,0.034,0.124,0.034,0.002,0.096,-0.884,0.911
2024-09-23 14:57:55.807,174160.273,0.061,0.772,-0.632,-0.011,0.022,0.026,0.192,0.094,0.032,0.097,-0.882,0.911
2024-09-23 14:57:55.817,174160.283,0.062,0.771,-0.634,-0.01,0.045,0.038,0.181,0.153,0.06,0.098,-0.881,0.912
2024-09-23 14:57:55.827,174160.293,0.064,0.77,-0.635,-0.026,0.036,0.02,0.141,0.156,0.068,0.1,-0.879,0.913
2024-09-23 14:57:55.837,174160.303,0.065,0.769,-0.636,-0.023,-0.005,-0.0,0.097,0.145,0.046,0.102,-0.878,0.913
2024-09-23 14:57:55.847,174160.313,0.066,0.769,-0.636,-0.003,-0.044,-0.003,0.062,0.117,0.03,0.104,-0.877,0.914
2024-09-23 14:57:55.857,174160.323,0.067,0.768,-0.636,0.005,-0.021,-0.002,0.058,0.083,0.007,0.105,-0.876,0.914
2024-09-23 14:57:55.867,174160.333,0.067,0.768,-0.637,0.009,0.008,-0.002,0.129,0.034,-0.022,0.106,-0.875,0.914
2024-09-23 14:57:55.877,174160.343,0.067,0.767,-0.638,0.013,0.019,0.001,0.239,-0.009,-0.052,0.105,-0.874,0.913
2024-09-23 14:57:55.887,174160.353,0.066,0.765,-0.641,0.019,0.049,0.023,0.372,-0.071,-0.08,0.103,-0.871,0.911
2024-09-23 14:57:55.897,174160.363,0.065,0.762,-0.644,0.022,0.067,0.031,0.514,-0.113,-0.092,0.101,-0.867,0.909
2024-09-23 14:57:55.907,174160.373,0.064,0.758,-0.649,0.023,0.075,0.038,0.558,-0.003,-0.076,0.099,-0.861,0.907
2024-09-23 14:57:55.916,174160.383,0.064,0.756,-0.652,0.015,0.087,0.05,0.363,-0.007,-0.014,0.098,-0.857,0.906
2024-09-23 14:57:55.926,174160.393,0.064,0.754,-0.654,-0.034,0.085,-0.02,0.25,-0.048,-0.016,0.097,-0.853,0.905
2024-09-23 14:57:55.936,174160.403,0.063,0.752,-0.656,-0.014,-0.082,-0.021,0.093,-0.067,-0.022,0.096,-0.852,0.904
2024-09-23 14:57:55.946,174160.413,0.063,0.752,-0.656,0.008,-0.164,-0.018,-0.019,-0.023,-0.002,0.095,-0.851,0.904
2024-09-23 14:57:55.956,174160.423,0.063,0.753,-0.655,0.002,-0.01,-0.009,-0.123,0.001,0.034,0.095,-0.852,0.905
2024-09-23 14:57:55.967,174160.433,0.063,0.754,-0.654,-0.018,-0.006,-0.009,-0.199,0.002,0.067,0.096,-0.854,0.906
2024-09-23 14:57:55.977,174160.443,0.064,0.755,-0.652,-0.02,-0.095,0.004,-0.29,0.021,0.094,0.097,-0.856,0.907
2024-09-23 14:57:55.986,174160.453,0.065,0.757,-0.65,-0.006,-0.125,0.012,-0.26,0.028,0.131,0.099,-0.859,0.909
2024-09-23 14:57:55.996,174160.463,0.066,0.759,-0.648,-0.008,-0.06,0.008,-0.211,0.05,0.137,0.102,-0.861,0.912
2024-09-23 14:57:56.007,174160.473,0.068,0.759,-0.647,-0.014,0.026,0.018,-0.024,0.099,0.141,0.104,-0.862,0.914
2024-09-23 14:57:56.017,174160.483,0.07,0.759,-0.648,-0.014,0.047,0.036,0.1,0.197,0.154,0.107,-0.861,0.916
2024-09-23 14:57:56.027,174160.492,0.072,0.758,-0.648,-0.013,0.066,0.049,0.117,0.261,0.174,0.111,-0.86,0.919
2024-09-23 14:57:56.038,174160.502,0.075,0.757,-0.649,-0.026,0.095,0.025,0.118,0.265,0.164,0.116,-0.859,0.921
2024-09-23 14:57:56.047,174160.512,0.078,0.756,-0.65,-0.021,0.021,0.001,0.143,0.244,0.134,0.12,-0.857,0.923
2024-09-23 14:57:56.057,174160.522,0.081,0.755,-0.651,0.001,-0.051,0.011,0.126,0.257,0.12,0.123,-0.856,0.925
2024-09-23 14:57:56.067,174160.532,0.083,0.754,-0.651,0.004,-0.011,0.01,0.104,0.227,0.134,0.127,-0.854,0.926
2024-09-23 14:57:56.077,174160.542,0.085,0.754,-0.652,-0.004,0.036,0.0,0.06,0.166,0.113,0.13,-0.854,0.928
2024-09-23 14:57:56.087,174160.552,0.087,0.753,-0.652,0.001,0.017,-0.01,0.036,0.1,0.079,0.133,-0.853,0.929
2024-09-23 14:57:56.096,174160.562,0.088,0.753,-0.652,0.012,-0.015,-0.013,0.012,0.053,0.042,0.134,-0.853,0.93
2024-09-23 14:57:56.107,174160.572,0.088,0.753,-0.652,0.018,-0.014,-0.004,0.031,0.022,0.013,0.135,-0.853,0.931
2024-09-23 14:57:56.116,174160.582,0.088,0.753,-0.653,0.014,0.002,0.009,0.088,0.03,-0.025,0.135,-0.852,0.93
2024-09-23 14:57:56.126,174160.592,0.088,0.752,-0.653,0.013,0.015,0.015,0.142,0.022,-0.053,0.134,-0.851,0.929
2024-09-23 14:57:56.137,174160.602,0.088,0.751,-0.655,0.01,0.05,0.018,0.197,0.004,-0.09,0.133,-0.849,0.928
2024-09-23 14:57:56.146,174160.612,0.087,0.75,-0.656,0.012,0.039,0.021,0.217,-0.032,-0.116,0.132,-0.847,0.926
2024-09-23 14:57:56.156,174160.622,0.086,0.748,-0.658,0.015,0.01,0.016,0.253,-0.069,-0.133,0.13,-0.845,0.924
2024-09-23 14:57:56.167,174160.632,0.084,0.746,-0.66,0.014,0.01,0.016,0.301,-0.098,-0.141,0.127,-0.843,0.921
2024-09-23 14:57:56.176,174160.642,0.082,0.744,-0.663,0.013,0.011,0.017,0.362,-0.143,-0.141,0.124,-0.84,0.919
2024-09-23 14:57:56.186,174160.652,0.081,0.742,-0.666,0.01,0.038,0.022,0.427,-0.021,-0.117,0.121,-0.836,0.916
2024-09-23 14:57:56.196,174160.662,0.08,0.74,-0.668,0.008,0.046,0.033,0.239,-0.039,-0.006,0.12,-0.833,0.914
2024-09-23 14:57:56.206,174160.672,0.08,0.738,-0.67,-0.03,0.053,-0.007,0.178,-0.107,-0.033,0.118,-0.831,0.914
2024-09-23 14:57:56.216,174160.682,0.079,0.738,-0.67,-0.024,-0.011,-0.023,0.029,-0.093,-0.049,0.117,-0.83,0.913
2024-09-23 14:57:56.226,174160.692,0.078,0.738,-0.67,0.024,-0.152,0.0,-0.088,-0.062,-0.011,0.116,-0.83,0.913
2024-09-23 14:57:56.236,174160.702,0.078,0.739,-0.669,-0.002,-0.036,-0.02,-0.19,-0.051,0.012,0.115,-0.832,0.913
2024-09-23 14:57:56.246,174160.712,0.077,0.741,-0.667,-0.015,-0.008,-0.012,-0.276,-0.054,0.016,0.115,-0.834,0.914
2024-09-23 14:57:56.256,174160.722,0.077,0.743,-0.665,-0.007,-0.073,0.004,-0.413,-0.035,0.031,0.116,-0.837,0.915
2024-09-23 14:57:56.266,174160.732,0.077,0.746,-0.662,-0.003,-0.082,0.008,-0.474,0.027,0.042,0.117,-0.842,0.916
2024-09-23 14:57:56.276,174160.742,0.078,0.749,-0.658,-0.01,-0.063,-0.008,-0.466,0.056,0.052,0.118,-0.847,0.917
2024-09-23 14:57:56.287,174160.752,0.079,0.752,-0.655,-0.018,-0.027,-0.012,-0.35,0.081,0.053,0.12,-0.851,0.919
2024-09-23 14:57:56.296,174160.762,0.08,0.754,-0.652,-0.013,0.033,0.017,-0.3,0.142,0.05,0.122,-0.854,0.92
2024-09-23 14:57:56.306,174160.772,0.081,0.756,-0.65,-0.007,0.041,0.021,-0.321,0.134,0.057,0.125,-0.857,0.922
2024-09-23 14:57:56.316,174160.782,0.082,0.758,-0.647,-0.015,0.035,-0.007,-0.256,0.076,0.031,0.127,-0.86,0.923
2024-09-23 14:57:56.326,174160.792,0.083,0.759,-0.646,-0.003,-0.017,-0.004,-0.132,0.03,0.009,0.128,-0.862,0.924
2024-09-23 14:57:56.336,174160.802,0.083,0.759,-0.646,0.019,-0.021,0.019,0.03,-0.017,0.004,0.128,-0.862,0.924
2024-09-23 14:57:56.346,174160.812,0.083,0.758,-0.646,0.017,0.08,0.032,0.217,-0.072,-0.019,0.127,-0.861,0.923
2024-09-23 14:57:56.356,174160.822,0.082,0.756,-0.649,0.016,0.111,0.04,0.393,-0.132,-0.049,0.125,-0.858,0.922
2024-09-23 14:57:56.366,174160.832,0.08,0.753,-0.653,0.022,0.091,0.045,0.532,-0.176,-0.073,0.122,-0.853,0.921
2024-09-23 14:57:56.376,174160.842,0.079,0.75,-0.657,0.022,0.082,0.04,0.575,0.068,-0.047,0.12,-0.848,0.919
2024-09-23 14:57:56.386,174160.852,0.08,0.747,-0.66,0.007,0.076,0.041,0.273,0.065,0.041,0.121,-0.844,0.918
2024-09-23 14:57:56.396,174160.862,0.081,0.745,-0.662,-0.056,0.079,-0.03,0.208,0.106,-0.01,0.121,-0.841,0.918
2024-09-23 14:57:56.406,174160.872,0.081,0.745,-0.662,-0.023,-0.091,-0.024,0.03,0.142,-0.011,0.122,-0.84,0.917
2024-09-23 14:57:56.416,174160.882,0.082,0.745,-0.662,-0.001,-0.218,-0.018,-0.062,0.155,0.021,0.124,-0.84,0.917
2024-09-23 14:57:56.427,174160.892,0.083,0.746,-0.661,-0.017,-0.013,-0.006,-0.186,0.105,0.008,0.125,-0.841,0.918
2024-09-23 14:57:56.436,174160.902,0.084,0.747,-0.66,-0.014,-0.025,0.009,-0.24,-0.004,-0.005,0.126,-0.844,0.918
2024-09-23 14:57:56.446,174160.912,0.083,0.749,-0.658,0.01,-0.131,-0.005,-0.282,-0.058,-0.003,0.126,-0.846,0.919
2024-09-23 14:57:56.456,174160.922,0.083,0.751,-0.655,0.03,-0.082,0.009,-0.329,-0.106,0.007,0.126,-0.849,0.919
2024-09-23 14:57:56.466,174160.932,0.082,0.753,-0.653,0.013,0.019,0.014,-0.318,-0.079,0.006,0.125,-0.852,0.92
2024-09-23 14:57:56.476,174160.942,0.082,0.755,-0.651,0.002,-0.019,-0.005,-0.275,-0.003,0.042,0.126,-0.855,0.921
2024-09-23 14:57:56.486,174160.952,0.083,0.756,-0.649,-0.008,-0.007,0.009,-0.228,0.041,0.071,0.127,-0.858,0.922
2024-09-23 14:57:56.496,174160.962,0.084,0.758,-0.647,-0.028,0.075,0.013,-0.149,0.04,0.062,0.128,-0.86,0.924
2024-09-23 14:57:56.506,174160.972,0.084,0.758,-0.647,-0.014,0.033,0.005,-0.049,-0.032,0.055,0.129,-0.861,0.925
2024-09-23 14:57:56.516,174160.982,0.084,0.758,-0.647,0.007,0.024,0.011,0.11,-0.104,0.02,0.129,-0.86,0.925
2024-09-23 14:57:56.526,174160.992,0.083,0.757,-0.649,0.019,0.064,0.034,0.331,-0.186,-0.021,0.127,-0.858,0.925
2024-09-23 14:57:56.536,174161.002,0.081,0.754,-0.652,0.029,0.061,0.038,0.511,-0.23,-0.054,0.124,-0.854,0.923
2024-09-23 14:57:56.546,174161.012,0.079,0.75,-0.657,0.033,0.123,0.041,0.653,-0.278,-0.075,0.12,-0.848,0.921
2024-09-23 14:57:56.556,174161.022,0.077,0.746,-0.662,0.022,0.132,0.041,0.741,-0.057,-0.061,0.116,-0.842,0.919
2024-09-23 14:57:56.566,174161.032,0.077,0.742,-0.666,0.018,0.052,0.037,0.31,-0.004,0.046,0.115,-0.836,0.918
2024-09-23 14:57:56.575,174161.042,0.077,0.741,-0.667,-0.041,0.04,-0.013,0.122,0.006,0.005,0.115,-0.834,0.918
2024-09-23 14:57:56.585,174161.052,0.077,0.74,-0.668,-0.053,-0.06,-0.067,-0.027,0.044,-0.025,0.115,-0.834,0.918
2024-09-23 14:57:56.595,174161.062,0.078,0.741,-0.667,0.009,-0.278,-0.016,-0.222,0.064,0.012,0.116,-0.835,0.918
2024-09-23 14:57:56.605,174161.072,0.078,0.743,-0.665,-0.02,-0.055,-0.012,-0.304,0.041,0.014,0.117,-0.838,0.919
2024-09-23 14:57:56.616,174161.082,0.078,0.745,-0.662,-0.019,-0.036,-0.003,-0.316,-0.029,-0.001,0.118,-0.841,0.919
2024-09-23 14:57:56.626,174161.092,0.078,0.747,-0.66,0.011,-0.127,-0.004,-0.29,-0.027,-0.01,0.118,-0.844,0.92
2024-09-23 14:57:56.636,174161.101,0.078,0.749,-0.658,0.019,-0.011,0.031,-0.245,-0.027,0.001,0.118,-0.847,0.92
2024-09-23 14:57:56.646,174161.111,0.078,0.751,-0.656,-0.004,0.015,0.021,-0.199,0.019,0.008,0.118,-0.849,0.921
2024-09-23 14:57:56.655,174161.121,0.078,0.752,-0.655,-0.004,0.024,0.013,-0.156,0.095,0.023,0.119,-0.851,0.921
2024-09-23 14:57:56.665,174161.131,0.079,0.753,-0.654,-0.012,0.037,0.021,-0.161,0.136,0.036,0.121,-0.852,0.922
2024-09-23 14:57:56.675,174161.141,0.081,0.754,-0.652,-0.022,0.029,0.003,-0.111,0.145,0.023,0.123,-0.853,0.923
2024-09-23 14:57:56.686,174161.151,0.081,0.754,-0.652,-0.013,0.005,0.006,-0.057,0.09,-0.002,0.124,-0.854,0.923
2024-09-23 14:57:56.695,174161.161,0.082,0.754,-0.651,0.004,-0.019,0.016,0.006,0.047,-0.029,0.125,-0.855,0.923
2024-09-23 14:57:56.706,174161.171,0.082,0.754,-0.652,0.017,0.027,0.009,0.094,0.005,-0.043,0.125,-0.854,0.922
2024-09-23 14:57:56.715,174161.181,0.081,0.753,-0.653,0.016,0.058,0.01,0.201,-0.047,-0.064,0.124,-0.853,0.921
2024-09-23 14:57:56.725,174161.191,0.08,0.751,-0.655,0.017,0.059,0.016,0.343,-0.085,-0.08,0.122,-0.85,0.92
2024-09-23 14:57:56.735,174161.201,0.079,0.749,-0.658,0.021,0.073,0.029,0.435,-0.147,-0.095,0.119,-0.846,0.918
2024-09-23 14:57:56.745,174161.211,0.077,0.746,-0.662,0.017,0.076,0.032,0.527,0.005,-0.084,0.117,-0.842,0.915
2024-09-23 14:57:56.755,174161.221,0.077,0.743,-0.664,0.019,0.065,0.032,0.219,-0.07,-0.007,0.115,-0.838,0.914
2024-09-23 14:57:56.765,174161.231,0.076,0.743,-0.665,-0.028,0.062,-0.01,0.029,-0.102,-0.069,0.114,-0.837,0.913
2024-09-23 14:57:56.775,174161.241,0.075,0.743,-0.665,-0.005,-0.076,-0.035,-0.226,-0.137,-0.052,0.112,-0.838,0.912
2024-09-23 14:57:56.785,174161.251,0.074,0.746,-0.662,0.023,-0.251,-0.04,-0.401,-0.156,-0.012,0.111,-0.841,0.912
2024-09-23 14:57:56.795,174161.261,0.072,0.748,-0.659,-0.012,-0.046,-0.042,-0.414,-0.183,-0.014,0.109,-0.845,0.913
2024-09-23 14:57:56.807,174161.271,0.071,0.751,-0.657,-0.01,-0.05,-0.007,-0.35,-0.192,-0.011,0.108,-0.849,0.913
2024-09-23 14:57:56.816,174161.281,0.07,0.753,-0.655,0.004,-0.07,0.014,-0.186,-0.18,0.041,0.106,-0.852,0.914
2024-09-23 14:57:56.825,174161.291,0.069,0.753,-0.654,-0.001,0.056,0.032,-0.055,-0.132,0.05,0.106,-0.853,0.915
2024-09-23 14:57:56.835,174161.301,0.069,0.753,-0.654,-0.01,0.096,0.048,0.031,-0.1,0.042,0.105,-0.853,0.916
2024-09-23 14:57:56.845,174161.311,0.069,0.753,-0.655,-0.006,0.048,0.027,0.125,-0.09,0.032,0.104,-0.852,0.916
2024-09-23 14:57:56.855,174161.321,0.068,0.752,-0.656,0.002,0.03,0.025,0.211,-0.083,0.011,0.104,-0.851,0.916
2024-09-23 14:57:56.865,174161.331,0.068,0.75,-0.658,0.001,0.019,0.037,0.252,-0.041,-0.005,0.103,-0.848,0.916
2024-09-23 14:57:56.875,174161.341,0.068,0.748,-0.66,0.002,0.024,0.021,0.233,-0.034,0.008,0.102,-0.846,0.916
2024-09-23 14:57:56.885,174161.351,0.067,0.747,-0.661,-0.004,0.041,0.006,0.223,-0.02,-0.001,0.102,-0.843,0.915
2024-09-23 14:57:56.895,174161.361,0.067,0.746,-0.663,-0.005,0.006,0.001,0.168,0.005,0.008,0.101,-0.841,0.915
2024-09-23 14:57:56.905,174161.371,0.068,0.745,-0.664,-0.002,-0.003,-0.006,0.169,0.037,0.016,0.102,-0.84,0.915
2024-09-23 14:57:56.915,174161.381,0.068,0.743,-0.665,-0.01,0.006,0.002,0.197,0.052,0.026,0.102,-0.838,0.915
2024-09-23 14:57:56.925,174161.391,0.069,0.742,-0.667,-0.008,-0.005,0.012,0.216,0.067,0.034,0.103,-0.836,0.915
2024-09-23 14:57:56.936,174161.401,0.069,0.74,-0.669,-0.004,0.032,0.011,0.228,0.021,0.044,0.103,-0.834,0.915
2024-09-23 14:57:56.944,174161.411,0.07,0.739,-0.67,-0.004,0.041,0.014,0.154,0.05,0.04,0.104,-0.832,0.916
2024-09-23 14:57:56.954,174161.421,0.07,0.738,-0.671,-0.002,-0.017,0.021,0.041,-0.012,0.062,0.105,-0.831,0.916
2024-09-23 14:57:56.964,174161.431,0.071,0.739,-0.67,-0.01,-0.093,-0.004,-0.074,-0.016,0.063,0.105,-0.831,0.917
2024-09-23 14:57:56.974,174161.441,0.071,0.739,-0.67,0.003,-0.065,0.001,-0.183,-0.034,0.086,0.106,-0.832,0.919
2024-09-23 14:57:56.984,174161.451,0.072,0.741,-0.668,-0.009,-0.069,-0.008,-0.266,-0.01,0.107,0.107,-0.834,0.92
2024-09-23 14:57:56.995,174161.461,0.073,0.742,-0.666,-0.015,-0.037,-0.022,-0.235,0.081,0.144,0.109,-0.837,0.923
2024-09-23 14:57:57.005,174161.471,0.075,0.744,-0.664,-0.021,-0.001,-0.013,-0.152,0.21,0.195,0.113,-0.839,0.925
2024-09-23 14:57:57.015,174161.481,0.078,0.744,-0.663,-0.034,0.096,-0.022,-0.102,0.228,0.248,0.117,-0.84,0.929
2024-09-23 14:57:57.025,174161.491,0.081,0.745,-0.662,-0.046,0.181,-0.013,-0.232,0.106,0.168,0.122,-0.841,0.933
2024-09-23 14:57:57.035,174161.501,0.078,0.749,-0.657,-0.049,0.101,-0.069,-0.872,-0.485,-0.389,0.119,-0.847,0.931
2024-09-23 14:57:57.045,174161.511,0.074,0.755,-0.652,-0.116,-0.035,-0.023,-0.862,-0.562,-0.003,0.113,-0.856,0.93
2024-09-23 14:57:57.055,174161.521,0.069,0.761,-0.645,-0.194,-0.172,0.058,-0.889,-0.573,-0.187,0.107,-0.865,0.93
2024-09-23 14:57:57.065,174161.531,0.065,0.766,-0.64,-0.029,-0.036,0.004,-0.575,-0.341,-0.079,0.101,-0.873,0.928
2024-09-23 14:57:57.074,174161.541,0.063,0.769,-0.636,-0.093,0.07,-0.043,-0.53,-0.273,0.048,0.099,-0.878,0.929
2024-09-23 14:57:57.085,174161.551,0.061,0.773,-0.632,-0.078,0.028,-0.087,-0.525,-0.286,-0.011,0.096,-0.883,0.93
2024-09-23 14:57:57.095,174161.561,0.059,0.776,-0.628,-0.013,0.025,-0.013,-0.452,-0.27,0.018,0.094,-0.888,0.931
2024-09-23 14:57:57.105,174161.571,0.058,0.778,-0.625,-0.049,0.014,0.045,-0.307,-0.253,-0.006,0.092,-0.892,0.932
2024-09-23 14:57:57.115,174161.581,0.056,0.779,-0.624,-0.019,0.007,0.072,-0.1,-0.271,-0.008,0.09,-0.894,0.932
2024-09-23 14:57:57.126,174161.591,0.054,0.779,-0.624,0.031,-0.016,0.077,0.125,-0.241,-0.007,0.087,-0.894,0.932
2024-09-23 14:57:57.135,174161.601,0.053,0.778,-0.626,0.07,-0.043,0.058,0.282,-0.191,0.015,0.085,-0.891,0.932
2024-09-23 14:57:57.145,174161.611,0.052,0.776,-0.629,0.083,-0.034,0.068,0.339,-0.105,0.03,0.083,-0.888,0.932
2024-09-23 14:57:57.155,174161.621,0.052,0.774,-0.631,0.068,-0.03,0.076,0.203,-0.052,0.059,0.083,-0.885,0.932
2024-09-23 14:57:57.165,174161.631,0.053,0.773,-0.632,0.062,-0.085,0.076,0.006,-0.039,0.089,0.083,-0.884,0.933
2024-09-23 14:57:57.175,174161.641,0.053,0.774,-0.631,0.071,-0.131,0.082,-0.085,-0.074,0.091,0.084,-0.885,0.934
2024-09-23 14:57:57.185,174161.651,0.053,0.774,-0.631,0.096,-0.115,0.056,-0.078,-0.088,0.104,0.084,-0.885,0.936
2024-09-23 14:57:57.195,174161.661,0.055,0.774,-0.631,0.102,-0.065,0.0,-0.112,0.001,0.31,0.087,-0.885,0.94
2024-09-23 14:57:57.204,174161.671,0.055,0.775,-0.629,0.105,-0.054,-0.063,-0.243,-0.184,0.059,0.088,-0.887,0.942
2024-09-23 14:57:57.214,174161.681,0.055,0.776,-0.628,0.149,-0.088,-0.117,-0.099,-0.114,0.1,0.087,-0.889,0.944
2024-09-23 14:57:57.225,174161.691,0.055,0.776,-0.628,0.042,0.12,-0.039,0.136,-0.015,0.097,0.088,-0.889,0.945
2024-09-23 14:57:57.234,174161.7,0.056,0.775,-0.629,-0.052,0.251,0.016,0.203,0.022,-0.024,0.088,-0.887,0.946
2024-09-23 14:57:57.244,174161.71,0.055,0.774,-0.631,-0.005,0.173,0.034,0.162,-0.004,-0.092,0.087,-0.885,0.945
2024-09-23 14:57:57.254,174161.72,0.054,0.773,-0.632,0.024,-0.012,0.001,0.022,-0.069,-0.119,0.085,-0.884,0.943
2024-09-23 14:57:57.264,174161.73,0.053,0.774,-0.631,0.013,-0.093,-0.029,-0.136,-0.06,-0.124,0.083,-0.885,0.941
2024-09-23 14:57:57.274,174161.74,0.052,0.775,-0.63,0.004,-0.026,-0.034,-0.235,-0.033,-0.1,0.082,-0.887,0.939
2024-09-23 14:57:57.285,174161.75,0.051,0.777,-0.628,-0.015,-0.035,-0.027,-0.273,-0.033,-0.07,0.081,-0.889,0.938
2024-09-23 14:57:57.294,174161.76,0.05,0.778,-0.626,-0.018,-0.057,-0.018,-0.252,-0.049,-0.041,0.08,-0.892,0.938
2024-09-23 14:57:57.304,174161.77,0.05,0.78,-0.624,-0.005,0.007,0.002,-0.178,-0.049,-0.003,0.079,-0.894,0.938
2024-09-23 14:57:57.314,174161.78,0.049,0.78,-0.623,-0.005,0.025,0.019,-0.034,-0.025,0.009,0.079,-0.895,0.938
2024-09-23 14:57:57.325,174161.79,0.05,0.78,-0.624,-0.008,0.012,0.029,0.107,0.034,0.038,0.079,-0.895,0.938
2024-09-23 14:57:57.334,174161.8,0.05,0.779,-0.625,-0.011,0.047,0.037,0.216,0.084,0.064,0.08,-0.893,0.939
2024-09-23 14:57:57.345,174161.81,0.051,0.778,-0.627,-0.017,0.077,0.041,0.257,0.101,0.066,0.082,-0.891,0.94
2024-09-23 14:57:57.354,174161.82,0.053,0.776,-0.629,-0.012,0.043,0.028,0.27,0.111,0.059,0.084,-0.888,0.94
2024-09-23 14:57:57.364,174161.83,0.054,0.774,-0.631,-0.005,0.001,0.014,0.272,0.093,0.05,0.085,-0.885,0.941
2024-09-23 14:57:57.374,174161.84,0.055,0.772,-0.633,-0.002,-0.002,0.014,0.264,0.092,0.028,0.086,-0.883,0.941
2024-09-23 14:57:57.385,174161.85,0.055,0.771,-0.635,0.002,-0.001,0.017,0.273,0.078,0.007,0.087,-0.88,0.941
2024-09-23 14:57:57.394,174161.86,0.056,0.769,-0.637,0.003,-0.01,0.011,0.306,0.057,-0.014,0.087,-0.877,0.941
2024-09-23 14:57:57.404,174161.87,0.056,0.767,-0.64,0.007,0.005,0.009,0.364,0.037,-0.035,0.087,-0.874,0.94
2024-09-23 14:57:57.414,174161.88,0.055,0.764,-0.643,0.009,0.04,0.014,0.453,-0.002,-0.064,0.086,-0.87,0.938
2024-09-23 14:57:57.424,174161.89,0.055,0.761,-0.646,0.014,0.043,0.022,0.512,-0.015,-0.084,0.084,-0.865,0.937
2024-09-23 14:57:57.434,174161.9,0.055,0.758,-0.65,0.021,0.044,0.023,0.509,0.093,-0.057,0.084,-0.86,0.935
2024-09-23 14:57:57.445,174161.91,0.055,0.755,-0.653,0.007,0.057,0.025,0.263,0.022,0.002,0.084,-0.856,0.934
2024-09-23 14:57:57.455,174161.92,0.055,0.754,-0.655,-0.039,0.062,-0.032,0.129,0.002,-0.01,0.083,-0.854,0.934
2024-09-23 14:57:57.464,174161.93,0.055,0.754,-0.655,0.001,-0.107,-0.017,-0.112,-0.031,0.006,0.083,-0.854,0.933
2024-09-23 14:57:57.474,174161.94,0.055,0.755,-0.653,0.006,-0.19,-0.023,-0.311,-0.03,0.042,0.083,-0.856,0.934
2024-09-23 14:57:57.485,174161.95,0.055,0.757,-0.651,-0.007,-0.055,-0.015,-0.349,-0.039,0.047,0.084,-0.859,0.935
2024-09-23 14:57:57.494,174161.96,0.055,0.76,-0.648,-0.012,-0.097,-0.006,-0.316,0.002,0.039,0.084,-0.863,0.936
2024-09-23 14:57:57.504,174161.97,0.056,0.761,-0.646,-0.006,-0.076,0.006,-0.222,0.131,0.047,0.086,-0.865,0.937
2024-09-23 14:57:57.514,174161.98,0.057,0.762,-0.644,-0.013,0.05,0.032,-0.168,0.253,0.069,0.089,-0.867,0.939
2024-09-23 14:57:57.524,174161.99,0.06,0.764,-0.643,-0.038,0.056,0.023,-0.197,0.283,0.058,0.092,-0.869,0.94
2024-09-23 14:57:57.534,174162.0,0.062,0.765,-0.641,-0.025,0.041,0.001,-0.172,0.24,0.02,0.096,-0.871,0.941
2024-09-23 14:57:57.544,174162.01,0.063,0.766,-0.64,-0.002,-0.01,-0.011,-0.091,0.174,-0.022,0.098,-0.872,0.941
2024-09-23 14:57:57.554,174162.02,0.064,0.766,-0.64,0.019,-0.027,-0.0,0.021,0.148,-0.038,0.099,-0.872,0.94
2024-09-23 14:57:57.564,174162.03,0.064,0.765,-0.64,0.022,0.053,0.02,0.168,0.122,-0.044,0.1,-0.872,0.94
2024-09-23 14:57:57.574,174162.04,0.064,0.764,-0.642,0.009,0.083,0.037,0.311,0.071,-0.065,0.1,-0.869,0.938
2024-09-23 14:57:57.585,174162.05,0.064,0.762,-0.645,0.01,0.054,0.034,0.427,-0.045,-0.095,0.099,-0.866,0.937
2024-09-23 14:57:57.594,174162.06,0.062,0.758,-0.649,0.025,0.065,0.025,0.554,-0.113,-0.126,0.096,-0.861,0.934
2024-09-23 14:57:57.604,174162.07,0.061,0.755,-0.653,0.036,0.081,0.028,0.667,-0.151,-0.146,0.092,-0.855,0.931
2024-09-23 14:57:57.614,174162.08,0.058,0.75,-0.659,0.028,0.073,0.033,0.726,-0.171,-0.163,0.088,-0.848,0.928
2024-09-23 14:57:57.624,174162.09,0.057,0.745,-0.665,0.017,0.072,0.033,0.744,0.05,-0.113,0.086,-0.841,0.925
2024-09-23 14:57:57.634,174162.1,0.057,0.742,-0.668,0.002,0.055,0.045,0.258,-0.046,-0.025,0.084,-0.836,0.923
2024-09-23 14:57:57.644,174162.11,0.056,0.741,-0.669,-0.06,0.039,-0.053,0.039,-0.133,-0.057,0.083,-0.834,0.923
2024-09-23 14:57:57.654,174162.12,0.054,0.742,-0.668,-0.005,-0.17,-0.057,-0.349,-0.104,-0.061,0.081,-0.836,0.922
2024-09-23 14:57:57.664,174162.13,0.053,0.745,-0.665,0.023,-0.298,-0.046,-0.59,-0.098,0.019,0.08,-0.841,0.922
2024-09-23 14:57:57.674,174162.14,0.053,0.749,-0.661,-0.022,-0.039,-0.066,-0.559,-0.123,0.064,0.08,-0.846,0.923
2024-09-23 14:57:57.684,174162.15,0.053,0.752,-0.657,-0.03,-0.031,-0.039,-0.505,-0.077,0.069,0.08,-0.852,0.925
2024-09-23 14:57:57.694,174162.16,0.053,0.755,-0.653,-0.003,-0.051,0.03,-0.32,-0.016,0.116,0.081,-0.856,0.927
2024-09-23 14:57:57.704,174162.17,0.054,0.757,-0.651,-0.011,0.015,0.06,-0.181,0.067,0.145,0.083,-0.858,0.929
2024-09-23 14:57:57.714,174162.18,0.056,0.758,-0.65,-0.02,0.015,0.059,-0.095,0.122,0.134,0.086,-0.86,0.931
2024-09-23 14:57:57.724,174162.19,0.058,0.758,-0.65,-0.012,0.042,0.049,-0.05,0.126,0.094,0.089,-0.86,0.933
2024-09-23 14:57:57.733,174162.2,0.059,0.758,-0.65,-0.006,0.037,0.025,0.026,0.149,0.047,0.091,-0.86,0.935
2024-09-23 14:57:57.744,174162.21,0.06,0.758,-0.65,0.007,0.001,0.026,-0.037,0.125,-0.019,0.093,-0.86,0.935
2024-09-23 14:57:57.753,174162.22,0.06,0.758,-0.649,0.01,-0.006,0.003,-0.086,0.019,-0.077,0.093,-0.861,0.934
2024-09-23 14:57:57.763,174162.23,0.059,0.759,-0.649,0.019,0.005,-0.024,-0.035,-0.053,-0.139,0.091,-0.862,0.933
2024-09-23 14:57:57.773,174162.24,0.058,0.759,-0.649,0.036,-0.042,-0.008,0.091,-0.089,-0.167,0.089,-0.861,0.93
2024-09-23 14:57:57.784,174162.25,0.056,0.758,-0.65,0.031,0.003,0.024,0.204,-0.141,-0.17,0.086,-0.86,0.927
2024-09-23 14:57:57.793,174162.26,0.053,0.756,-0.652,0.019,0.094,0.026,0.34,-0.194,-0.172,0.082,-0.858,0.924
2024-09-23 14:57:57.804,174162.27,0.051,0.754,-0.655,0.022,0.107,0.014,0.437,-0.176,-0.159,0.077,-0.854,0.921
2024-09-23 14:57:57.813,174162.28,0.05,0.751,-0.659,0.021,0.101,0.024,0.452,0.03,-0.085,0.075,-0.849,0.919
2024-09-23 14:57:57.823,174162.29,0.049,0.749,-0.661,-0.011,0.089,0.036,0.095,-0.078,-0.004,0.074,-0.846,0.918
2024-09-23 14:57:57.834,174162.299,0.049,0.749,-0.661,-0.065,0.058,-0.043,-0.061,-0.12,-0.01,0.073,-0.846,0.918
2024-09-23 14:57:57.844,174162.309,0.048,0.75,-0.66,0.004,-0.189,-0.039,-0.32,-0.121,0.017,0.072,-0.848,0.918
2024-09-23 14:57:57.854,174162.319,0.047,0.752,-0.657,0.007,-0.238,-0.038,-0.386,-0.096,0.108,0.072,-0.852,0.919
2024-09-23 14:57:57.864,174162.329,0.048,0.755,-0.654,-0.028,-0.018,-0.013,-0.333,-0.085,0.147,0.073,-0.855,0.922
2024-09-23 14:57:57.874,174162.339,0.049,0.757,-0.652,-0.033,-0.057,0.029,-0.254,-0.02,0.152,0.074,-0.858,0.924
2024-09-23 14:57:57.884,174162.349,0.05,0.758,-0.651,-0.011,-0.059,0.039,-0.082,0.089,0.176,0.077,-0.86,0.927
2024-09-23 14:57:57.893,174162.359,0.052,0.758,-0.65,-0.021,0.049,0.043,0.013,0.229,0.171,0.08,-0.86,0.93
2024-09-23 14:57:57.903,174162.369,0.055,0.758,-0.65,-0.029,0.073,0.052,-0.038,0.305,0.155,0.085,-0.86,0.932
2024-09-23 14:57:57.914,174162.379,0.058,0.758,-0.649,-0.023,0.05,0.016,-0.156,0.26,0.111,0.09,-0.861,0.935
2024-09-23 14:57:57.923,174162.389,0.06,0.759,-0.648,-0.013,-0.006,-0.027,-0.179,0.196,0.039,0.093,-0.862,0.936
2024-09-23 14:57:57.933,174162.399,0.062,0.76,-0.647,0.015,-0.074,-0.027,-0.123,0.147,-0.016,0.095,-0.864,0.936
2024-09-23 14:57:57.944,174162.409,0.062,0.761,-0.646,0.028,-0.035,0.002,-0.049,0.08,-0.042,0.096,-0.865,0.936
2024-09-23 14:57:57.953,174162.419,0.062,0.761,-0.646,0.023,0.056,0.015,0.141,0.031,-0.076,0.096,-0.864,0.935
2024-09-23 14:57:57.964,174162.429,0.061,0.759,-0.648,0.026,0.057,0.019,0.356,0.007,-0.108,0.095,-0.862,0.933
2024-09-23 14:57:57.974,174162.439,0.061,0.756,-0.652,0.029,0.091,0.038,0.592,-0.02,-0.134,0.093,-0.857,0.931
2024-09-23 14:57:57.984,174162.449,0.059,0.752,-0.657,0.022,0.149,0.056,0.741,-0.066,-0.163,0.09,-0.851,0.928
2024-09-23 14:57:57.993,174162.459,0.058,0.747,-0.663,0.025,0.114,0.047,0.821,0.117,-0.13,0.087,-0.843,0.924
2024-09-23 14:57:58.004,174162.469,0.058,0.742,-0.667,0.022,0.087,0.038,0.416,0.096,-0.015,0.087,-0.837,0.922
2024-09-23 14:57:58.013,174162.479,0.058,0.741,-0.669,-0.037,0.031,0.005,-0.003,-0.054,0.015,0.087,-0.835,0.922
2024-09-23 14:57:58.023,174162.489,0.058,0.742,-0.668,-0.055,-0.108,-0.072,-0.33,-0.163,-0.017,0.086,-0.836,0.922
2024-09-23 14:57:58.033,174162.499,0.056,0.746,-0.664,0.023,-0.4,-0.035,-0.612,-0.188,0.014,0.085,-0.841,0.923
2024-09-23 14:57:58.044,174162.509,0.056,0.749,-0.66,0.006,-0.211,-0.049,-0.495,-0.159,0.078,0.084,-0.847,0.924
2024-09-23 14:57:58.053,174162.519,0.055,0.751,-0.657,-0.017,0.007,-0.025,-0.187,-0.059,0.085,0.084,-0.85,0.926
2024-09-23 14:57:58.063,174162.529,0.056,0.752,-0.657,-0.017,0.075,0.043,-0.024,0.003,0.098,0.085,-0.851,0.927
2024-09-23 14:57:58.073,174162.539,0.057,0.752,-0.657,-0.012,0.167,0.068,0.065,-0.029,0.078,0.086,-0.851,0.929
2024-09-23 14:57:58.085,174162.549,0.057,0.751,-0.658,-0.01,0.103,0.021,0.193,-0.037,0.008,0.086,-0.85,0.929
2024-09-23 14:57:58.093,174162.559,0.056,0.749,-0.66,0.021,-0.021,0.022,0.284,-0.012,-0.016,0.085,-0.847,0.929
2024-09-23 14:57:58.103,174162.569,0.056,0.747,-0.662,0.029,0.04,0.033,0.353,-0.035,-0.017,0.085,-0.844,0.928
2024-09-23 14:57:58.113,174162.579,0.056,0.745,-0.665,0.005,0.102,0.029,0.371,0.053,-0.036,0.084,-0.841,0.927
2024-09-23 14:57:58.123,174162.589,0.056,0.743,-0.667,0.01,0.017,0.017,0.245,0.047,0.011,0.084,-0.837,0.927
2024-09-23 14:57:58.134,174162.599,0.056,0.742,-0.669,-0.008,0.011,-0.006,0.151,-0.027,0.01,0.084,-0.835,0.927
2024-09-23 14:57:58.143,174162.609,0.056,0.741,-0.67,-0.027,0.033,-0.039,0.099,0.03,-0.025,0.084,-0.834,0.926
2024-09-23 14:57:58.153,174162.619,0.057,0.74,-0.67,0.009,-0.09,-0.002,0.065,0.051,-0.002,0.084,-0.833,0.926
2024-09-23 14:57:58.163,174162.629,0.057,0.74,-0.671,-0.008,-0.033,-0.014,0.125,0.104,-0.001,0.085,-0.832,0.926
2024-09-23 14:57:58.173,174162.639,0.058,0.739,-0.671,-0.005,0.067,0.016,0.003,0.101,-0.004,0.086,-0.832,0.926
2024-09-23 14:57:58.183,174162.649,0.058,0.74,-0.67,-0.008,-0.016,0.023,-0.176,0.039,0.021,0.087,-0.833,0.926
2024-09-23 14:57:58.193,174162.659,0.059,0.741,-0.669,-0.014,-0.13,0.004,-0.178,-0.015,0.029,0.087,-0.834,0.927
2024-09-23 14:57:58.203,174162.669,0.059,0.742,-0.668,0.0,-0.164,0.011,-0.215,-0.06,0.048,0.087,-0.836,0.927
2024-09-23 14:57:58.214,174162.679,0.058,0.744,-0.666,0.005,-0.01,0.028,-0.292,-0.131,0.063,0.087,-0.839,0.929
2024-09-23 14:57:58.223,174162.689,0.058,0.746,-0.664,0.003,0.019,0.002,-0.273,-0.065,0.052,0.087,-0.842,0.93
2024-09-23 14:57:58.233,174162.699,0.058,0.747,-0.662,0.007,-0.05,-0.012,-0.182,0.017,0.087,0.088,-0.844,0.931
2024-09-23 14:57:58.243,174162.709,0.059,0.748,-0.661,-0.016,0.029,0.005,-0.105,0.053,0.09,0.089,-0.845,0.933
2024-09-23 14:57:58.253,174162.719,0.06,0.749,-0.66,-0.024,0.105,0.018,-0.069,0.014,0.054,0.091,-0.846,0.934
2024-09-23 14:57:58.263,174162.729,0.06,0.749,-0.66,-0.003,0.016,0.007,0.027,-0.049,0.017,0.091,-0.846,0.934
2024-09-23 14:57:58.273,174162.739,0.06,0.748,-0.661,0.023,0.003,0.009,0.159,-0.101,-0.015,0.09,-0.845,0.934
2024-09-23 14:57:58.283,174162.749,0.058,0.746,-0.663,0.03,0.062,0.025,0.332,-0.199,-0.046,0.088,-0.843,0.934
2024-09-23 14:57:58.293,174162.759,0.056,0.744,-0.666,0.032,0.103,0.022,0.5,-0.249,-0.089,0.085,-0.839,0.932
2024-09-23 14:57:58.302,174162.769,0.055,0.74,-0.67,0.04,0.109,0.037,0.572,0.052,-0.033,0.083,-0.833,0.93
2024-09-23 14:57:58.312,174162.779,0.056,0.738,-0.673,0.014,0.081,0.053,0.174,0.004,0.045,0.083,-0.829,0.93
2024-09-23 14:57:58.323,174162.789,0.056,0.737,-0.674,-0.064,0.067,-0.037,0.012,0.067,0.004,0.083,-0.829,0.93
2024-09-23 14:57:58.332,174162.799,0.057,0.738,-0.673,-0.024,-0.158,-0.049,-0.187,0.049,0.035,0.084,-0.829,0.931
2024-09-23 14:57:58.343,174162.809,0.057,0.739,-0.671,-0.013,-0.225,-0.016,-0.243,0.062,0.063,0.085,-0.832,0.932
2024-09-23 14:57:58.353,174162.819,0.058,0.741,-0.669,-0.028,-0.025,-0.003,-0.245,0.073,0.051,0.087,-0.834,0.933
2024-09-23 14:57:58.362,174162.829,0.059,0.742,-0.668,-0.02,-0.074,0.021,-0.224,0.069,0.045,0.088,-0.836,0.934
2024-09-23 14:57:58.373,174162.839,0.06,0.743,-0.666,0.0,-0.057,0.025,-0.159,0.123,0.044,0.09,-0.838,0.935
2024-09-23 14:57:58.383,174162.849,0.061,0.744,-0.665,0.003,0.041,0.016,-0.132,0.175,0.047,0.092,-0.84,0.936
2024-09-23 14:57:58.393,174162.859,0.063,0.745,-0.664,-0.001,0.058,0.017,-0.182,0.164,0.022,0.094,-0.841,0.936
2024-09-23 14:57:58.403,174162.869,0.064,0.747,-0.662,-0.005,0.026,0.0,-0.168,0.139,-0.022,0.096,-0.843,0.937
2024-09-23 14:57:58.413,174162.879,0.064,0.747,-0.661,0.004,-0.037,0.007,-0.088,0.11,-0.045,0.097,-0.844,0.936
2024-09-23 14:57:58.423,174162.889,0.065,0.748,-0.661,0.01,-0.045,0.017,0.032,0.072,-0.046,0.097,-0.845,0.936
2024-09-23 14:57:58.433,174162.898,0.064,0.747,-0.662,0.012,0.054,0.027,0.132,0.003,-0.072,0.097,-0.844,0.935
2024-09-23 14:57:58.443,174162.908,0.063,0.746,-0.663,0.016,0.075,0.022,0.256,-0.111,-0.099,0.095,-0.842,0.933
2024-09-23 14:57:58.453,174162.918,0.062,0.744,-0.666,0.033,0.062,0.007,0.393,-0.2,-0.115,0.092,-0.839,0.931
2024-09-23 14:57:58.463,174162.928,0.059,0.741,-0.669,0.041,0.091,0.015,0.509,-0.186,-0.111,0.088,-0.834,0.929
2024-09-23 14:57:58.473,174162.938,0.058,0.737,-0.673,0.029,0.111,0.025,0.394,-0.107,-0.039,0.086,-0.829,0.927
2024-09-23 14:57:58.483,174162.948,0.057,0.736,-0.675,0.001,0.081,0.021,0.062,-0.204,-0.035,0.084,-0.827,0.926
2024-09-23 14:57:58.492,174162.958,0.055,0.736,-0.674,-0.029,0.037,-0.073,-0.149,-0.228,-0.055,0.081,-0.828,0.925
2024-09-23 14:57:58.503,174162.968,0.053,0.738,-0.672,0.021,-0.212,-0.048,-0.457,-0.302,-0.027,0.079,-0.831,0.925
2024-09-23 14:57:58.513,174162.978,0.051,0.742,-0.669,-0.002,-0.19,-0.03,-0.467,-0.294,0.001,0.076,-0.836,0.926
2024-09-23 14:57:58.523,174162.988,0.049,0.745,-0.666,-0.012,-0.085,0.001,-0.398,-0.287,0.036,0.074,-0.84,0.926
2024-09-23 14:57:58.533,174162.998,0.048,0.747,-0.664,-0.012,-0.09,0.034,-0.179,-0.253,0.062,0.072,-0.843,0.927
2024-09-23 14:57:58.542,174163.008,0.047,0.747,-0.663,-0.007,0.045,0.05,0.088,-0.195,0.078,0.07,-0.843,0.929
2024-09-23 14:57:58.552,174163.018,0.046,0.746,-0.665,-0.013,0.108,0.055,0.277,-0.171,0.067,0.069,-0.841,0.929
2024-09-23 14:57:58.563,174163.028,0.045,0.743,-0.667,-0.006,0.125,0.059,0.369,-0.171,0.017,0.068,-0.838,0.93
2024-09-23 14:57:58.572,174163.038,0.044,0.741,-0.67,0.005,0.076,0.042,0.442,-0.162,-0.024,0.066,-0.834,0.929
2024-09-23 14:57:58.583,174163.048,0.043,0.737,-0.674,0.02,0.021,0.026,0.477,-0.013,-0.012,0.064,-0.829,0.929
2024-09-23 14:57:58.592,174163.058,0.043,0.735,-0.677,0.013,0.044,0.018,0.273,-0.031,0.024,0.064,-0.826,0.928
2024-09-23 14:57:58.603,174163.068,0.043,0.734,-0.678,-0.026,0.067,-0.019,0.153,0.018,-0.002,0.064,-0.824,0.928
2024-09-23 14:57:58.612,174163.078,0.043,0.733,-0.679,-0.017,-0.065,-0.033,0.044,0.029,0.022,0.064,-0.823,0.928
2024-09-23 14:57:58.622,174163.088,0.044,0.733,-0.679,-0.009,-0.105,-0.006,0.02,0.055,0.037,0.065,-0.822,0.929
2024-09-23 14:57:58.632,174163.098,0.045,0.732,-0.679,-0.01,0.011,-0.003,0.024,0.076,0.047,0.066,-0.822,0.929
2024-09-23 14:57:58.642,174163.108,0.046,0.732,-0.679,-0.011,0.002,0.001,-0.057,0.083,0.051,0.067,-0.822,0.93
2024-09-23 14:57:58.652,174163.118,0.047,0.733,-0.679,-0.008,-0.006,0.009,-0.06,0.077,0.064,0.068,-0.822,0.931
2024-09-23 14:57:58.662,174163.128,0.048,0.733,-0.678,-0.006,-0.052,0.019,-0.106,0.142,0.098,0.07,-0.823,0.932
2024-09-23 14:57:58.672,174163.138,0.05,0.734,-0.677,-0.013,-0.058,0.002,-0.184,0.158,0.16,0.073,-0.825,0.934
2024-09-23 14:57:58.682,174163.148,0.052,0.735,-0.676,-0.039,0.018,0.012,-0.234,0.206,0.177,0.077,-0.826,0.937
2024-09-23 14:57:58.692,174163.158,0.056,0.737,-0.674,-0.044,-0.056,-0.011,-0.154,0.395,0.24,0.082,-0.828,0.94
2024-09-23 14:57:58.702,174163.168,0.061,0.738,-0.672,-0.035,0.005,-0.015,-0.157,0.618,0.323,0.091,-0.83,0.944
2024-09-23 14:57:58.713,174163.178,0.066,0.739,-0.67,-0.089,0.129,-0.026,-0.597,0.229,-0.218,0.098,-0.832,0.947
2024-09-23 14:57:58.722,174163.188,0.066,0.744,-0.665,-0.144,0.119,-0.034,-0.606,0.06,0.158,0.1,-0.838,0.948
2024-09-23 14:57:58.732,174163.198,0.067,0.748,-0.66,-0.257,-0.039,0.047,-0.643,0.04,-0.031,0.101,-0.845,0.95
2024-09-23 14:57:58.741,174163.208,0.067,0.752,-0.656,-0.169,-0.107,0.055,-0.511,-0.017,-0.047,0.102,-0.851,0.95
2024-09-23 14:57:58.751,174163.218,0.066,0.755,-0.653,-0.081,0.004,0.04,-0.388,-0.119,-0.063,0.101,-0.855,0.95
2024-09-23 14:57:58.762,174163.228,0.065,0.757,-0.65,-0.119,0.072,0.012,-0.293,-0.175,-0.064,0.099,-0.859,0.949
2024-09-23 14:57:58.771,174163.238,0.063,0.759,-0.648,-0.109,0.122,0.022,-0.282,-0.222,-0.05,0.097,-0.861,0.949
2024-09-23 14:57:58.782,174163.248,0.062,0.76,-0.647,-0.082,0.098,0.05,-0.219,-0.126,0.053,0.095,-0.864,0.949
2024-09-23 14:57:58.792,174163.258,0.061,0.762,-0.645,-0.026,0.032,0.06,-0.261,-0.122,-0.035,0.094,-0.866,0.95
2024-09-23 14:57:58.802,174163.268,0.06,0.764,-0.643,0.05,-0.008,0.038,-0.231,-0.091,-0.011,0.093,-0.869,0.95
2024-09-23 14:57:58.812,174163.278,0.059,0.765,-0.641,0.06,-0.01,0.05,-0.236,-0.056,-0.02,0.093,-0.871,0.95
2024-09-23 14:57:58.822,174163.288,0.059,0.766,-0.64,0.064,-0.017,0.04,-0.189,-0.0,-0.037,0.092,-0.873,0.95
2024-09-23 14:57:58.832,174163.298,0.059,0.768,-0.638,0.094,-0.046,0.009,-0.197,0.014,-0.041,0.092,-0.875,0.949
2024-09-23 14:57:58.841,174163.308,0.059,0.769,-0.637,0.104,-0.065,-0.019,-0.189,0.047,-0.051,0.092,-0.877,0.949
2024-09-23 14:57:58.852,174163.318,0.059,0.77,-0.635,0.103,-0.058,-0.013,-0.174,0.06,-0.025,0.092,-0.879,0.948
2024-09-23 14:57:58.862,174163.328,0.059,0.771,-0.634,0.096,-0.074,-0.002,-0.131,0.067,0.009,0.093,-0.88,0.949
2024-09-23 14:57:58.871,174163.338,0.06,0.772,-0.633,0.103,-0.107,0.009,-0.11,0.092,0.044,0.094,-0.882,0.949
2024-09-23 14:57:58.882,174163.348,0.062,0.771,-0.633,0.11,-0.104,0.022,0.143,0.322,0.204,0.098,-0.881,0.951
2024-09-23 14:57:58.892,174163.358,0.065,0.771,-0.634,0.122,-0.066,0.008,0.072,0.252,0.025,0.102,-0.88,0.953
2024-09-23 14:57:58.902,174163.368,0.067,0.77,-0.635,0.149,-0.009,-0.059,0.158,0.27,0.012,0.105,-0.879,0.953
2024-09-23 14:57:58.912,174163.378,0.068,0.769,-0.636,0.077,0.071,-0.021,0.176,0.194,-0.041,0.107,-0.877,0.952
2024-09-23 14:57:58.922,174163.388,0.068,0.768,-0.637,0.022,0.041,-0.026,0.136,0.121,-0.127,0.107,-0.875,0.951
2024-09-23 14:57:58.932,174163.398,0.068,0.767,-0.638,0.042,0.026,-0.019,0.131,0.064,-0.134,0.106,-0.874,0.949
2024-09-23 14:57:58.942,174163.408,0.067,0.766,-0.639,0.027,0.002,-0.01,0.149,0.048,-0.122,0.105,-0.873,0.947
2024-09-23 14:57:58.952,174163.418,0.067,0.765,-0.64,0.005,-0.001,0.006,0.204,0.019,-0.103,0.104,-0.871,0.945
2024-09-23 14:57:58.962,174163.428,0.066,0.764,-0.642,-0.006,0.03,0.012,0.298,-0.026,-0.079,0.103,-0.869,0.943
2024-09-23 14:57:58.972,174163.438,0.065,0.762,-0.645,0.002,0.046,0.018,0.391,-0.07,-0.061,0.101,-0.866,0.941
2024-09-23 14:57:58.983,174163.448,0.065,0.759,-0.648,0.004,0.045,0.026,0.479,-0.116,-0.04,0.099,-0.861,0.94
2024-09-23 14:57:58.992,174163.458,0.063,0.755,-0.652,0.007,0.055,0.029,0.554,-0.15,-0.023,0.097,-0.856,0.939
2024-09-23 14:57:59.001,174163.468,0.062,0.752,-0.657,0.01,0.067,0.027,0.606,-0.163,-0.019,0.095,-0.85,0.938
2024-09-23 14:57:59.011,174163.478,0.061,0.748,-0.661,0.008,0.059,0.022,0.632,-0.033,0.009,0.092,-0.844,0.937
2024-09-23 14:57:59.021,174163.488,0.061,0.744,-0.665,0.006,0.04,0.016,0.263,-0.048,0.064,0.092,-0.84,0.936
2024-09-23 14:57:59.031,174163.497,0.061,0.744,-0.666,-0.025,0.041,-0.022,-0.068,-0.142,0.043,0.092,-0.839,0.937
2024-09-23 14:57:59.041,174163.507,0.06,0.745,-0.664,-0.033,-0.053,-0.08,-0.366,-0.193,-0.003,0.09,-0.841,0.938
2024-09-23 14:57:59.052,174163.517,0.059,0.748,-0.661,0.029,-0.307,-0.035,-0.554,-0.161,0.019,0.089,-0.846,0.938
2024-09-23 14:57:59.062,174163.527,0.059,0.752,-0.657,0.002,-0.197,-0.025,-0.472,-0.053,0.024,0.089,-0.851,0.94
2024-09-23 14:57:59.072,174163.537,0.059,0.754,-0.654,-0.022,-0.036,0.012,-0.321,0.05,0.011,0.089,-0.855,0.94
2024-09-23 14:57:59.082,174163.547,0.06,0.756,-0.652,-0.022,0.006,0.036,-0.172,0.223,-0.008,0.091,-0.857,0.941
2024-09-23 14:57:59.092,174163.557,0.061,0.757,-0.651,-0.011,0.091,0.055,-0.148,0.29,-0.004,0.094,-0.859,0.941
2024-09-23 14:57:59.101,174163.567,0.063,0.758,-0.649,-0.027,0.08,0.025,-0.2,0.215,-0.029,0.096,-0.86,0.941
2024-09-23 14:57:59.112,174163.577,0.063,0.76,-0.647,-0.011,0.018,-0.017,-0.226,0.125,-0.068,0.098,-0.863,0.94
2024-09-23 14:57:59.122,174163.587,0.064,0.761,-0.646,0.023,-0.033,-0.017,-0.169,0.098,-0.069,0.098,-0.865,0.94
2024-09-23 14:57:59.131,174163.597,0.064,0.762,-0.645,0.019,-0.014,-0.003,-0.045,0.104,-0.059,0.099,-0.866,0.939
2024-09-23 14:57:59.142,174163.607,0.064,0.762,-0.645,0.003,0.055,0.016,0.078,0.083,-0.061,0.099,-0.866,0.938
2024-09-23 14:57:59.152,174163.617,0.064,0.761,-0.646,-0.003,0.075,0.03,0.169,0.037,-0.078,0.099,-0.865,0.937
2024-09-23 14:57:59.161,174163.627,0.063,0.76,-0.647,0.006,0.047,0.027,0.23,-0.075,-0.093,0.097,-0.863,0.935
2024-09-23 14:57:59.171,174163.637,0.062,0.758,-0.65,0.017,0.035,0.015,0.347,-0.151,-0.118,0.094,-0.86,0.933
2024-09-23 14:57:59.182,174163.647,0.059,0.755,-0.653,0.031,0.05,0.015,0.524,-0.184,-0.123,0.091,-0.856,0.93
2024-09-23 14:57:59.191,174163.657,0.058,0.751,-0.658,0.026,0.072,0.033,0.688,-0.069,-0.108,0.087,-0.85,0.928
2024-09-23 14:57:59.201,174163.667,0.057,0.746,-0.663,0.014,0.116,0.051,0.633,0.085,-0.025,0.086,-0.843,0.926
2024-09-23 14:57:59.211,174163.677,0.058,0.744,-0.666,-0.023,0.119,0.041,0.217,-0.052,-0.016,0.086,-0.839,0.925
2024-09-23 14:57:59.221,174163.687,0.057,0.743,-0.667,-0.063,0.069,-0.078,-0.029,-0.107,-0.056,0.085,-0.838,0.925
2024-09-23 14:57:59.231,174163.697,0.056,0.744,-0.666,0.025,-0.214,-0.051,-0.308,-0.116,-0.032,0.083,-0.839,0.924
2024-09-23 14:57:59.242,174163.707,0.055,0.747,-0.663,0.014,-0.258,-0.046,-0.494,-0.116,0.025,0.083,-0.844,0.925
2024-09-23 14:57:59.251,174163.717,0.054,0.75,-0.659,-0.024,-0.015,-0.032,-0.479,-0.102,0.068,0.083,-0.848,0.926
2024-09-23 14:57:59.261,174163.727,0.055,0.753,-0.656,-0.02,-0.055,0.002,-0.412,-0.058,0.116,0.083,-0.853,0.928
2024-09-23 14:57:59.271,174163.737,0.056,0.755,-0.653,-0.018,-0.124,0.043,-0.284,0.004,0.164,0.085,-0.856,0.93
2024-09-23 14:57:59.281,174163.747,0.057,0.756,-0.652,-0.019,-0.012,0.069,-0.113,0.068,0.186,0.088,-0.858,0.933
2024-09-23 14:57:59.291,174163.757,0.059,0.757,-0.651,-0.023,0.032,0.063,-0.055,0.157,0.17,0.091,-0.859,0.936
2024-09-23 14:57:59.301,174163.767,0.062,0.757,-0.651,-0.011,0.05,0.042,0.016,0.241,0.151,0.095,-0.859,0.939
2024-09-23 14:57:59.311,174163.777,0.064,0.757,-0.65,-0.016,0.06,0.027,-0.045,0.266,0.088,0.099,-0.858,0.941
2024-09-23 14:57:59.321,174163.787,0.066,0.758,-0.649,-0.009,0.001,0.009,-0.194,0.185,0.016,0.102,-0.86,0.942
2024-09-23 14:57:59.331,174163.797,0.067,0.759,-0.648,0.001,-0.011,-0.04,-0.188,0.117,-0.058,0.103,-0.862,0.942
2024-09-23 14:57:59.341,174163.807,0.067,0.76,-0.647,0.028,-0.057,-0.031,-0.054,0.07,-0.1,0.103,-0.863,0.941
2024-09-23 14:57:59.351,174163.817,0.067,0.76,-0.647,0.034,-0.024,0.014,0.07,-0.005,-0.117,0.103,-0.863,0.939
2024-09-23 14:57:59.361,174163.827,0.065,0.759,-0.648,0.027,0.089,0.031,0.257,-0.111,-0.134,0.1,-0.862,0.937
2024-09-23 14:57:59.371,174163.837,0.063,0.757,-0.651,0.029,0.096,0.023,0.453,-0.193,-0.147,0.097,-0.858,0.934
2024-09-23 14:57:59.381,174163.847,0.061,0.753,-0.655,0.036,0.09,0.028,0.663,-0.213,-0.139,0.092,-0.853,0.931
2024-09-23 14:57:59.391,174163.857,0.059,0.748,-0.661,0.025,0.137,0.043,0.802,-0.041,-0.104,0.088,-0.845,0.928
2024-09-23 14:57:59.401,174163.867,0.059,0.743,-0.667,0.007,0.119,0.059,0.627,0.069,-0.018,0.088,-0.838,0.926
2024-09-23 14:57:59.411,174163.877,0.059,0.74,-0.67,-0.034,0.077,0.029,0.238,0.019,0.023,0.088,-0.834,0.926
2024-09-23 14:57:59.421,174163.887,0.059,0.739,-0.671,-0.082,0.029,-0.093,0.013,0.036,0.013,0.088,-0.832,0.926
2024-09-23 14:57:59.431,174163.897,0.06,0.74,-0.67,0.004,-0.242,-0.038,-0.273,0.005,0.036,0.089,-0.834,0.926
2024-09-23 14:57:59.441,174163.907,0.06,0.743,-0.667,-0.013,-0.179,-0.031,-0.385,-0.015,0.068,0.09,-0.837,0.928
2024-09-23 14:57:59.451,174163.917,0.06,0.746,-0.664,-0.013,-0.052,-0.017,-0.484,-0.038,0.104,0.091,-0.841,0.93
2024-09-23 14:57:59.461,174163.927,0.061,0.749,-0.66,-0.007,-0.147,0.014,-0.454,-0.017,0.135,0.092,-0.846,0.932
2024-09-23 14:57:59.471,174163.937,0.062,0.751,-0.658,-0.007,-0.121,0.044,-0.26,0.052,0.169,0.094,-0.849,0.935
2024-09-23 14:57:59.481,174163.947,0.064,0.752,-0.656,-0.024,-0.036,0.045,0.006,0.212,0.186,0.098,-0.85,0.938
2024-09-23 14:57:59.491,174163.957,0.068,0.751,-0.657,-0.022,0.109,0.065,0.179,0.363,0.203,0.103,-0.849,0.94
2024-09-23 14:57:59.501,174163.967,0.072,0.75,-0.658,-0.03,0.161,0.068,0.102,0.352,0.186,0.108,-0.847,0.943
2024-09-23 14:57:59.510,174163.977,0.075,0.749,-0.658,-0.03,0.084,0.011,-0.068,0.295,0.102,0.113,-0.847,0.945
2024-09-23 14:57:59.520,174163.987,0.077,0.75,-0.657,-0.001,-0.043,-0.044,-0.087,0.309,0.093,0.117,-0.848,0.947
2024-09-23 14:57:59.530,174163.997,0.08,0.75,-0.656,0.006,-0.103,-0.024,-0.121,0.298,0.066,0.122,-0.849,0.948
2024-09-23 14:57:59.540,174164.007,0.082,0.751,-0.655,-0.005,-0.045,0.003,-0.136,0.217,0.026,0.125,-0.85,0.949
2024-09-23 14:57:59.550,174164.017,0.083,0.752,-0.654,0.013,0.068,-0.019,-0.124,0.118,-0.013,0.127,-0.851,0.95
2024-09-23 14:57:59.561,174164.027,0.083,0.753,-0.653,0.029,0.017,-0.011,-0.029,0.025,-0.052,0.127,-0.852,0.949
2024-09-23 14:57:59.571,174164.037,0.083,0.752,-0.653,0.034,0.014,0.011,0.114,-0.059,-0.109,0.126,-0.852,0.948
2024-09-23 14:57:59.581,174164.047,0.081,0.751,-0.655,0.039,0.083,0.025,0.324,-0.104,-0.13,0.123,-0.85,0.946
2024-09-23 14:57:59.591,174164.057,0.079,0.748,-0.658,0.035,0.097,0.036,0.509,-0.141,-0.157,0.12,-0.846,0.943
2024-09-23 14:57:59.600,174164.067,0.077,0.745,-0.663,0.029,0.11,0.051,0.65,-0.175,-0.162,0.116,-0.84,0.939
2024-09-23 14:57:59.611,174164.077,0.076,0.74,-0.668,0.024,0.109,0.048,0.665,0.08,-0.097,0.113,-0.834,0.936
2024-09-23 14:57:59.622,174164.087,0.075,0.738,-0.671,0.01,0.051,0.041,0.169,-0.085,-0.016,0.112,-0.83,0.935
2024-09-23 14:57:59.630,174164.096,0.074,0.738,-0.671,-0.056,0.002,-0.045,-0.096,-0.06,-0.063,0.111,-0.83,0.934
2024-09-23 14:57:59.640,174164.106,0.074,0.739,-0.67,-0.027,-0.171,-0.068,-0.269,-0.105,-0.012,0.109,-0.831,0.934
2024-09-23 14:57:59.650,174164.116,0.073,0.741,-0.668,-0.0,-0.31,-0.024,-0.201,-0.058,0.028,0.109,-0.834,0.934
2024-09-23 14:57:59.660,174164.126,0.073,0.741,-0.667,-0.022,0.029,-0.01,-0.062,0.015,0.034,0.109,-0.835,0.935
2024-09-23 14:57:59.670,174164.136,0.074,0.742,-0.667,-0.022,0.082,0.04,0.036,0.07,0.033,0.11,-0.835,0.936
2024-09-23 14:57:59.681,174164.146,0.075,0.741,-0.668,-0.003,0.046,0.032,0.175,0.133,0.053,0.111,-0.834,0.936
2024-09-23 14:57:59.691,174164.156,0.076,0.739,-0.669,-0.006,0.088,0.031,0.177,0.198,0.049,0.113,-0.832,0.937
2024-09-23 14:57:59.700,174164.166,0.078,0.738,-0.67,-0.011,0.045,0.04,0.082,0.153,0.069,0.116,-0.831,0.937
2024-09-23 14:57:59.710,174164.176,0.079,0.738,-0.67,-0.02,-0.007,0.009,-0.12,0.091,0.069,0.117,-0.831,0.938
2024-09-23 14:57:59.720,174164.186,0.08,0.74,-0.668,-0.015,-0.103,-0.002,-0.29,0.028,0.05,0.119,-0.833,0.939
2024-09-23 14:57:59.730,174164.196,0.08,0.742,-0.665,0.007,-0.176,-0.013,-0.491,-0.044,0.044,0.12,-0.837,0.941
2024-09-23 14:57:59.740,174164.206,0.08,0.746,-0.661,0.01,-0.093,-0.032,-0.537,-0.125,0.018,0.12,-0.842,0.942
2024-09-23 14:57:59.751,174164.216,0.079,0.749,-0.658,0.004,-0.065,-0.013,-0.437,0.008,0.009,0.12,-0.847,0.943
2024-09-23 14:57:59.761,174164.226,0.08,0.752,-0.655,0.018,-0.057,0.007,-0.342,0.08,0.06,0.121,-0.85,0.944
2024-09-23 14:57:59.770,174164.236,0.081,0.753,-0.653,-0.017,0.117,0.015,-0.258,0.011,0.03,0.123,-0.853,0.946
2024-09-23 14:57:59.781,174164.246,0.08,0.755,-0.651,-0.016,0.119,0.003,-0.15,-0.081,-0.032,0.123,-0.855,0.946
2024-09-23 14:57:59.790,174164.256,0.08,0.755,-0.651,0.032,-0.011,0.011,0.039,-0.118,-0.034,0.122,-0.856,0.946
2024-09-23 14:57:59.800,174164.266,0.078,0.754,-0.652,0.039,0.043,0.022,0.21,-0.202,-0.038,0.119,-0.855,0.945
2024-09-23 14:57:59.810,174164.276,0.076,0.752,-0.654,0.02,0.151,0.038,0.407,-0.293,-0.075,0.116,-0.852,0.943
2024-09-23 14:57:59.820,174164.286,0.074,0.749,-0.658,0.027,0.085,0.036,0.577,-0.311,-0.095,0.111,-0.847,0.941
2024-09-23 14:57:59.830,174164.296,0.071,0.745,-0.663,0.035,0.068,0.042,0.679,-0.268,-0.087,0.106,-0.841,0.939
2024-09-23 14:57:59.840,174164.306,0.07,0.74,-0.669,0.012,0.122,0.048,0.597,0.053,0.006,0.105,-0.833,0.937
2024-09-23 14:57:59.850,174164.316,0.071,0.738,-0.671,-0.015,0.076,0.041,0.141,0.01,0.012,0.105,-0.83,0.937
2024-09-23 14:57:59.860,174164.326,0.071,0.738,-0.672,-0.087,0.018,-0.077,-0.038,0.066,-0.025,0.105,-0.829,0.937
2024-09-23 14:57:59.870,174164.336,0.071,0.739,-0.67,-0.012,-0.274,-0.053,-0.205,0.085,-0.005,0.106,-0.831,0.937
2024-09-23 14:57:59.880,174164.346,0.072,0.74,-0.669,-0.018,-0.19,-0.011,-0.222,0.081,0.009,0.107,-0.833,0.937
2024-09-23 14:57:59.890,174164.356,0.072,0.741,-0.667,-0.036,0.002,0.015,-0.213,0.044,0.002,0.108,-0.835,0.937
2024-09-23 14:57:59.900,174164.366,0.073,0.743,-0.666,-0.004,-0.097,0.04,-0.185,0.045,0.034,0.109,-0.837,0.938
2024-09-23 14:57:59.910,174164.376,0.073,0.744,-0.664,0.011,-0.04,0.035,-0.181,0.005,0.053,0.11,-0.839,0.939
2024-09-23 14:57:59.920,174164.386,0.074,0.745,-0.663,0.003,0.043,0.014,-0.109,0.086,0.049,0.111,-0.84,0.94
2024-09-23 14:57:59.930,174164.396,0.075,0.745,-0.662,0.003,0.033,0.015,-0.129,0.151,0.057,0.113,-0.841,0.941
2024-09-23 14:57:59.940,174164.406,0.076,0.746,-0.661,-0.009,0.018,0.01,-0.168,0.164,0.037,0.115,-0.843,0.942
2024-09-23 14:57:59.950,174164.416,0.077,0.748,-0.66,-0.02,0.028,-0.002,-0.161,0.135,0.002,0.117,-0.844,0.942
2024-09-23 14:57:59.961,174164.426,0.078,0.748,-0.659,-0.001,-0.055,-0.005,-0.13,0.092,-0.021,0.118,-0.846,0.943
2024-09-23 14:57:59.971,174164.436,0.078,0.749,-0.658,0.017,-0.011,0.002,-0.035,0.021,-0.05,0.118,-0.847,0.942
2024-09-23 14:57:59.979,174164.446,0.078,0.749,-0.658,0.017,0.063,0.007,0.098,-0.019,-0.087,0.118,-0.846,0.941
2024-09-23 14:57:59.990,174164.456,0.077,0.748,-0.659,0.027,0.045,0.022,0.223,-0.099,-0.102,0.116,-0.845,0.939
2024-09-23 14:57:59.999,174164.466,0.075,0.746,-0.662,0.026,0.08,0.028,0.355,-0.177,-0.125,0.113,-0.842,0.937
2024-09-23 14:58:00.012,174164.476,0.073,0.743,-0.665,0.03,0.099,0.018,0.484,-0.2,-0.129,0.109,-0.838,0.935
2024-09-23 14:58:00.020,174164.486,0.072,0.74,-0.669,0.029,0.083,0.023,0.479,0.026,-0.037,0.107,-0.833,0.933
2024-09-23 14:58:00.029,174164.496,0.071,0.738,-0.671,-0.0,0.093,0.036,0.121,-0.062,-0.021,0.106,-0.83,0.932
2024-09-23 14:58:00.039,174164.506,0.071,0.738,-0.672,-0.058,0.074,-0.057,-0.056,-0.102,-0.048,0.105,-0.83,0.931
2024-09-23 14:58:00.049,174164.516,0.07,0.739,-0.67,0.007,-0.188,-0.048,-0.332,-0.107,-0.047,0.104,-0.832,0.931
2024-09-23 14:58:00.059,174164.526,0.068,0.742,-0.667,0.011,-0.19,-0.032,-0.523,-0.206,-0.002,0.102,-0.836,0.931
2024-09-23 14:58:00.069,174164.536,0.067,0.746,-0.663,-0.016,-0.069,-0.029,-0.48,-0.233,-0.005,0.101,-0.841,0.932
2024-09-23 14:58:00.079,174164.546,0.065,0.748,-0.66,-0.007,-0.117,0.015,-0.301,-0.204,0.026,0.099,-0.845,0.933
2024-09-23 14:58:00.089,174164.556,0.065,0.749,-0.659,0.005,-0.079,0.051,-0.027,-0.142,0.091,0.098,-0.847,0.934
2024-09-23 14:58:00.099,174164.566,0.065,0.748,-0.66,-0.012,0.138,0.058,0.239,-0.103,0.095,0.098,-0.846,0.935
2024-09-23 14:58:00.109,174164.576,0.064,0.746,-0.663,-0.018,0.17,0.069,0.393,-0.129,0.05,0.097,-0.842,0.936
2024-09-23 14:58:00.119,174164.586,0.064,0.743,-0.666,0.011,0.087,0.054,0.469,-0.089,0.02,0.096,-0.838,0.935
2024-09-23 14:58:00.129,174164.596,0.064,0.741,-0.669,0.019,0.07,0.03,0.357,-0.022,-0.001,0.095,-0.834,0.935
2024-09-23 14:58:00.141,174164.606,0.064,0.739,-0.671,0.001,0.028,0.001,0.215,0.018,-0.007,0.095,-0.831,0.935
2024-09-23 14:58:00.150,174164.616,0.064,0.738,-0.672,-0.012,-0.031,-0.03,0.09,0.052,-0.01,0.095,-0.83,0.934
2024-09-23 14:58:00.160,174164.626,0.064,0.737,-0.672,-0.01,-0.044,-0.02,0.009,0.064,-0.003,0.095,-0.829,0.934
2024-09-23 14:58:00.170,174164.636,0.065,0.737,-0.672,-0.008,-0.031,-0.017,-0.004,0.074,0.003,0.096,-0.829,0.934
2024-09-23 14:58:00.180,174164.646,0.065,0.737,-0.672,-0.006,-0.012,-0.004,-0.043,0.09,0.007,0.097,-0.829,0.934
2024-09-23 14:58:00.190,174164.656,0.066,0.738,-0.672,-0.009,-0.002,0.018,-0.141,0.065,0.022,0.098,-0.83,0.934
2024-09-23 14:58:00.200,174164.666,0.066,0.739,-0.67,-0.017,-0.044,0.017,-0.218,0.017,0.054,0.098,-0.832,0.935
2024-09-23 14:58:00.209,174164.676,0.067,0.74,-0.669,-0.016,-0.105,0.004,-0.216,0.049,0.087,0.1,-0.834,0.937
2024-09-23 14:58:00.220,174164.686,0.068,0.742,-0.667,-0.01,-0.073,0.02,-0.155,0.127,0.132,0.102,-0.836,0.938
2024-09-23 14:58:00.230,174164.695,0.071,0.742,-0.666,-0.035,0.012,0.022,-0.047,0.236,0.192,0.106,-0.836,0.941
2024-09-23 14:58:00.239,174164.705,0.075,0.742,-0.666,-0.044,0.04,0.019,0.006,0.443,0.3,0.112,-0.836,0.945
2024-09-23 14:58:00.250,174164.715,0.081,0.742,-0.666,-0.048,0.063,0.029,0.004,0.498,0.346,0.12,-0.836,0.95
2024-09-23 14:58:00.260,174164.725,0.086,0.742,-0.664,-0.08,0.077,-0.011,-0.165,0.51,0.167,0.129,-0.837,0.954
2024-09-23 14:58:00.270,174164.735,0.087,0.746,-0.661,-0.097,0.03,-0.054,-0.607,0.125,0.105,0.131,-0.841,0.954
2024-09-23 14:58:00.278,174164.745,0.09,0.749,-0.656,-0.175,-0.169,0.018,-0.601,0.184,0.151,0.136,-0.847,0.958
2024-09-23 14:58:00.290,174164.755,0.092,0.753,-0.652,-0.156,-0.116,0.038,-0.587,0.21,0.078,0.14,-0.853,0.961
2024-09-23 14:58:00.300,174164.765,0.094,0.757,-0.647,-0.091,0.075,-0.052,-0.595,0.159,0.133,0.144,-0.858,0.964
2024-09-23 14:58:00.308,174164.775,0.096,0.76,-0.643,-0.112,0.02,-0.038,-0.517,0.1,0.161,0.148,-0.864,0.967
2024-09-23 14:58:00.319,174164.785,0.097,0.763,-0.639,-0.105,0.006,0.008,-0.388,0.013,0.081,0.151,-0.868,0.97
2024-09-23 14:58:00.329,174164.795,0.097,0.765,-0.637,-0.07,0.054,0.03,-0.21,-0.046,0.022,0.152,-0.871,0.971
2024-09-23 14:58:00.339,174164.805,0.097,0.766,-0.636,-0.05,0.102,0.041,-0.085,-0.059,-0.022,0.151,-0.872,0.972
2024-09-23 14:58:00.349,174164.815,0.096,0.766,-0.635,-0.016,0.08,0.046,-0.046,-0.102,-0.053,0.15,-0.873,0.971
2024-09-23 14:58:00.359,174164.825,0.095,0.767,-0.635,0.028,0.021,0.04,-0.058,-0.144,-0.089,0.148,-0.873,0.97
2024-09-23 14:58:00.369,174164.835,0.093,0.767,-0.635,0.053,-0.009,0.033,-0.056,-0.135,-0.067,0.146,-0.874,0.969
2024-09-23 14:58:00.380,174164.845,0.092,0.768,-0.634,0.073,-0.02,0.017,-0.093,-0.087,-0.07,0.144,-0.875,0.968
2024-09-23 14:58:00.398,174164.855,0.091,0.768,-0.634,0.094,-0.025,-0.004,-0.138,-0.07,-0.071,0.143,-0.876,0.968
2024-09-23 14:58:00.401,174164.865,0.09,0.769,-0.632,0.099,-0.036,-0.009,-0.196,-0.066,-0.061,0.142,-0.878,0.967
2024-09-23 14:58:00.408,174164.875,0.089,0.771,-0.631,0.096,-0.04,-0.005,-0.233,-0.115,-0.087,0.14,-0.88,0.966
2024-09-23 14:58:00.419,174164.885,0.087,0.772,-0.629,0.102,-0.053,-0.01,-0.212,-0.163,-0.082,0.138,-0.882,0.965
2024-09-23 14:58:00.429,174164.895,0.086,0.773,-0.628,0.105,-0.072,0.004,-0.12,-0.146,-0.002,0.137,-0.884,0.965
2024-09-23 14:58:00.439,174164.905,0.085,0.774,-0.627,0.121,-0.052,0.018,-0.05,-0.127,-0.112,0.135,-0.885,0.965
2024-09-23 14:58:00.449,174164.915,0.084,0.774,-0.627,0.129,-0.01,0.008,0.021,-0.011,0.047,0.134,-0.885,0.964
2024-09-23 14:58:00.459,174164.925,0.084,0.774,-0.628,0.068,0.059,0.01,0.062,-0.009,-0.037,0.134,-0.885,0.964
2024-09-23 14:58:00.469,174164.935,0.084,0.774,-0.628,0.081,0.028,0.012,0.024,-0.037,-0.088,0.133,-0.885,0.963
2024-09-23 14:58:00.480,174164.945,0.083,0.774,-0.628,0.041,-0.004,-0.005,-0.032,-0.062,-0.077,0.131,-0.885,0.962
2024-09-23 14:58:00.489,174164.955,0.082,0.774,-0.628,0.006,-0.002,-0.009,-0.066,-0.065,-0.085,0.13,-0.885,0.961
2024-09-23 14:58:00.499,174164.965,0.081,0.775,-0.627,0.005,-0.031,-0.006,-0.069,-0.062,-0.085,0.128,-0.886,0.96
2024-09-23 14:58:00.509,174164.975,0.08,0.775,-0.627,-0.007,-0.017,0.003,-0.011,-0.073,-0.073,0.127,-0.886,0.959
2024-09-23 14:58:00.519,174164.985,0.079,0.775,-0.627,-0.007,0.009,0.013,0.065,-0.043,-0.069,0.125,-0.886,0.957
2024-09-23 14:58:00.530,174164.995,0.078,0.774,-0.628,-0.004,0.029,0.02,0.164,-0.024,-0.056,0.124,-0.885,0.956
2024-09-23 14:58:00.539,174165.005,0.078,0.773,-0.63,-0.01,0.06,0.025,0.263,0.003,-0.052,0.123,-0.883,0.955
2024-09-23 14:58:00.549,174165.015,0.078,0.771,-0.632,-0.01,0.066,0.025,0.369,-0.015,-0.048,0.122,-0.88,0.954
2024-09-23 14:58:00.559,174165.025,0.077,0.768,-0.636,-0.004,0.064,0.019,0.497,-0.028,-0.078,0.121,-0.876,0.952
2024-09-23 14:58:00.570,174165.035,0.076,0.765,-0.64,0.015,0.07,0.029,0.591,-0.049,-0.09,0.118,-0.871,0.95
2024-09-23 14:58:00.579,174165.045,0.075,0.761,-0.645,0.016,0.066,0.032,0.65,-0.098,-0.103,0.116,-0.865,0.947
2024-09-23 14:58:00.589,174165.055,0.073,0.757,-0.65,0.015,0.062,0.022,0.61,-0.159,-0.098,0.112,-0.858,0.944
2024-09-23 14:58:00.599,174165.065,0.072,0.753,-0.654,0.02,0.06,0.008,0.469,-0.033,-0.063,0.11,-0.853,0.942
2024-09-23 14:58:00.609,174165.075,0.071,0.751,-0.656,0.015,0.023,0.015,0.099,-0.114,-0.02,0.108,-0.85,0.941
2024-09-23 14:58:00.619,174165.085,0.07,0.751,-0.657,-0.046,-0.04,-0.063,0.003,-0.161,-0.022,0.107,-0.85,0.941
2024-09-23 14:58:00.629,174165.095,0.069,0.751,-0.656,0.014,-0.171,-0.035,-0.133,-0.109,-0.022,0.105,-0.85,0.941
2024-09-23 14:58:00.639,174165.105,0.068,0.752,-0.655,0.008,-0.145,0.006,-0.108,-0.086,-0.004,0.104,-0.852,0.941
2024-09-23 14:58:00.649,174165.115,0.068,0.753,-0.655,-0.03,-0.016,0.009,-0.063,-0.02,-0.015,0.104,-0.853,0.941
2024-09-23 14:58:00.659,174165.125,0.068,0.753,-0.654,-0.019,0.001,0.015,0.014,0.037,-0.014,0.103,-0.853,0.94
2024-09-23 14:58:00.669,174165.135,0.068,0.753,-0.654,-0.01,0.026,0.048,-0.014,0.018,0.027,0.104,-0.853,0.94
2024-09-23 14:58:00.679,174165.145,0.068,0.753,-0.654,-0.027,0.006,0.037,-0.052,-0.027,0.055,0.104,-0.853,0.941
2024-09-23 14:58:00.689,174165.155,0.069,0.754,-0.653,-0.02,-0.083,0.039,-0.167,-0.079,0.058,0.104,-0.854,0.942
2024-09-23 14:58:00.699,174165.165,0.069,0.755,-0.652,0.003,-0.119,0.005,-0.186,-0.024,0.067,0.105,-0.856,0.944
2024-09-23 14:58:00.708,174165.175,0.069,0.756,-0.651,0.008,-0.01,-0.001,-0.041,0.092,0.056,0.106,-0.857,0.945
2024-09-23 14:58:00.718,174165.185,0.071,0.756,-0.651,-0.016,0.029,-0.001,0.048,0.163,0.048,0.108,-0.857,0.945
2024-09-23 14:58:00.729,174165.195,0.072,0.755,-0.652,-0.02,0.138,0.02,0.12,0.09,0.005,0.11,-0.856,0.946
2024-09-23 14:58:00.739,174165.205,0.072,0.754,-0.653,-0.002,0.095,0.018,0.213,-0.013,-0.053,0.109,-0.854,0.945
2024-09-23 14:58:00.749,174165.215,0.071,0.752,-0.655,0.035,-0.044,0.011,0.355,-0.1,-0.081,0.108,-0.852,0.944
2024-09-23 14:58:00.759,174165.225,0.069,0.75,-0.658,0.047,0.041,0.025,0.515,-0.173,-0.104,0.105,-0.847,0.941
2024-09-23 14:58:00.769,174165.235,0.067,0.746,-0.663,0.033,0.126,0.028,0.612,-0.207,-0.128,0.101,-0.842,0.939
2024-09-23 14:58:00.779,174165.245,0.065,0.742,-0.667,0.033,0.094,0.033,0.638,-0.248,-0.108,0.097,-0.836,0.936
2024-09-23 14:58:00.789,174165.255,0.063,0.737,-0.673,0.016,0.06,0.017,0.663,0.045,-0.061,0.094,-0.829,0.934
2024-09-23 14:58:00.799,174165.265,0.063,0.734,-0.676,-0.003,0.054,0.031,0.238,-0.059,0.021,0.093,-0.825,0.933
2024-09-23 14:58:00.808,174165.275,0.063,0.734,-0.677,-0.08,0.045,-0.046,-0.011,-0.078,-0.031,0.093,-0.824,0.933
2024-09-23 14:58:00.819,174165.285,0.062,0.735,-0.676,0.004,-0.137,-0.066,-0.324,-0.064,-0.005,0.092,-0.825,0.933
2024-09-23 14:58:00.828,174165.294,0.062,0.738,-0.672,0.012,-0.259,-0.043,-0.568,0.03,0.064,0.092,-0.83,0.934
2024-09-23 14:58:00.839,174165.304,0.063,0.742,-0.667,-0.024,-0.033,-0.052,-0.694,0.022,0.097,0.094,-0.836,0.936
2024-09-23 14:58:00.848,174165.314,0.064,0.746,-0.663,-0.042,-0.061,-0.034,-0.632,-0.022,0.087,0.096,-0.843,0.938
2024-09-23 14:58:00.858,174165.324,0.064,0.75,-0.658,-0.012,-0.118,0.013,-0.481,-0.001,0.084,0.097,-0.848,0.94
2024-09-23 14:58:00.868,174165.334,0.065,0.752,-0.656,0.004,-0.035,0.069,-0.266,0.026,0.101,0.099,-0.852,0.942
2024-09-23 14:58:00.879,174165.344,0.066,0.753,-0.654,-0.022,-0.0,0.072,-0.097,0.077,0.08,0.101,-0.853,0.944
2024-09-23 14:58:00.888,174165.354,0.067,0.753,-0.654,-0.002,0.078,0.046,0.164,0.183,0.033,0.102,-0.853,0.944
2024-09-23 14:58:00.898,174165.364,0.069,0.752,-0.656,0.003,0.116,0.071,0.279,0.29,0.017,0.105,-0.851,0.944
2024-09-23 14:58:00.909,174165.374,0.071,0.75,-0.658,-0.017,0.049,0.063,0.178,0.314,0.004,0.108,-0.848,0.944
2024-09-23 14:58:00.917,174165.384,0.073,0.749,-0.658,-0.009,0.072,0.008,0.036,0.238,-0.013,0.11,-0.847,0.944
2024-09-23 14:58:00.927,174165.394,0.074,0.749,-0.658,-0.009,-0.01,-0.044,-0.048,0.196,-0.043,0.112,-0.847,0.944
2024-09-23 14:58:00.937,174165.404,0.075,0.75,-0.657,0.015,-0.097,-0.03,-0.099,0.181,-0.054,0.114,-0.848,0.943
2024-09-23 14:58:00.948,174165.414,0.076,0.751,-0.656,0.008,-0.033,-0.004,-0.097,0.14,-0.06,0.115,-0.849,0.942
2024-09-23 14:58:00.958,174165.424,0.076,0.751,-0.656,-0.003,0.008,-0.003,-0.04,0.126,-0.071,0.115,-0.85,0.941
2024-09-23 14:58:00.968,174165.434,0.076,0.751,-0.656,0.009,0.015,-0.001,0.059,0.099,-0.066,0.116,-0.85,0.94
2024-09-23 14:58:00.978,174165.444,0.076,0.751,-0.656,0.004,0.048,0.018,0.147,0.046,-0.076,0.116,-0.849,0.939
2024-09-23 14:58:00.988,174165.454,0.076,0.749,-0.658,0.006,0.063,0.022,0.307,0.022,-0.089,0.115,-0.847,0.938
2024-09-23 14:58:00.999,174165.464,0.075,0.747,-0.661,0.016,0.061,0.025,0.473,0.007,-0.1,0.113,-0.843,0.935
2024-09-23 14:58:01.008,174165.474,0.074,0.743,-0.665,0.012,0.074,0.044,0.573,-0.029,-0.111,0.111,-0.838,0.933
2024-09-23 14:58:01.018,174165.484,0.073,0.739,-0.669,0.01,0.096,0.038,0.584,-0.059,-0.116,0.109,-0.832,0.93
2024-09-23 14:58:01.029,174165.494,0.073,0.735,-0.674,0.019,0.068,0.022,0.512,0.046,-0.065,0.108,-0.826,0.928
2024-09-23 14:58:01.039,174165.504,0.072,0.733,-0.676,0.013,0.029,0.021,0.164,-0.122,-0.019,0.106,-0.823,0.927
2024-09-23 14:58:01.048,174165.514,0.071,0.733,-0.677,-0.038,0.012,-0.058,-0.01,-0.164,-0.032,0.105,-0.822,0.927
2024-09-23 14:58:01.059,174165.524,0.07,0.734,-0.676,0.019,-0.223,-0.012,-0.248,-0.148,-0.007,0.103,-0.824,0.926
2024-09-23 14:58:01.068,174165.534,0.069,0.735,-0.674,0.003,-0.245,-0.004,-0.204,-0.138,0.056,0.102,-0.826,0.927
2024-09-23 14:58:01.078,174165.544,0.069,0.736,-0.674,-0.022,0.024,-0.018,0.014,-0.047,0.064,0.102,-0.827,0.928
2024-09-23 14:58:01.088,174165.554,0.069,0.735,-0.674,-0.017,0.066,0.029,0.12,0.039,0.056,0.102,-0.826,0.929
2024-09-23 14:58:01.098,174165.564,0.07,0.734,-0.675,-0.02,0.11,0.062,0.185,0.103,0.052,0.103,-0.825,0.929
2024-09-23 14:58:01.108,174165.574,0.071,0.733,-0.677,-0.018,0.064,0.018,0.197,0.179,0.05,0.105,-0.823,0.93
2024-09-23 14:58:01.118,174165.584,0.073,0.731,-0.678,-0.012,-0.013,0.008,0.218,0.206,0.055,0.107,-0.82,0.93
2024-09-23 14:58:01.128,174165.594,0.075,0.73,-0.679,-0.024,0.026,0.026,0.103,0.19,0.07,0.11,-0.819,0.931
2024-09-23 14:58:01.138,174165.604,0.077,0.73,-0.679,-0.032,-0.019,0.025,-0.107,0.094,0.112,0.112,-0.819,0.932
2024-09-23 14:58:01.148,174165.614,0.078,0.732,-0.677,-0.022,-0.127,0.001,-0.344,-0.022,0.101,0.114,-0.821,0.934
2024-09-23 14:58:01.159,174165.624,0.078,0.734,-0.674,0.014,-0.175,-0.028,-0.402,-0.092,0.085,0.115,-0.824,0.936
2024-09-23 14:58:01.168,174165.634,0.078,0.736,-0.672,0.026,-0.076,-0.033,-0.264,-0.021,0.073,0.116,-0.828,0.938
2024-09-23 14:58:01.177,174165.644,0.079,0.738,-0.67,0.021,0.011,0.009,-0.168,0.023,0.075,0.117,-0.83,0.939
2024-09-23 14:58:01.187,174165.654,0.079,0.738,-0.67,-0.006,0.113,0.022,-0.064,-0.017,0.047,0.118,-0.831,0.941
2024-09-23 14:58:01.197,174165.664,0.079,0.738,-0.67,-0.005,0.109,0.013,0.075,-0.082,0.007,0.118,-0.831,0.941
2024-09-23 14:58:01.208,174165.674,0.078,0.737,-0.671,0.023,0.018,0.023,0.238,-0.148,-0.01,0.116,-0.829,0.941
2024-09-23 14:58:01.218,174165.684,0.077,0.735,-0.673,0.033,0.058,0.035,0.363,-0.226,-0.036,0.114,-0.826,0.94
2024-09-23 14:58:01.228,174165.694,0.075,0.732,-0.677,0.034,0.109,0.029,0.482,-0.279,-0.075,0.11,-0.822,0.938
2024-09-23 14:58:01.238,174165.704,0.073,0.729,-0.681,0.037,0.086,0.024,0.532,-0.022,-0.04,0.107,-0.817,0.937
2024-09-23 14:58:01.248,174165.714,0.072,0.727,-0.683,0.015,0.044,0.026,0.121,-0.062,-0.015,0.106,-0.814,0.936
2024-09-23 14:58:01.258,174165.724,0.072,0.727,-0.683,-0.049,0.053,-0.036,-0.042,-0.018,-0.056,0.105,-0.814,0.935
2024-09-23 14:58:01.268,174165.734,0.071,0.728,-0.682,-0.03,-0.116,-0.071,-0.173,0.001,-0.062,0.104,-0.815,0.934
2024-09-23 14:58:01.278,174165.744,0.071,0.729,-0.681,0.006,-0.205,-0.01,-0.19,0.096,-0.024,0.105,-0.817,0.934
2024-09-23 14:58:01.287,174165.754,0.072,0.73,-0.68,-0.02,0.037,-0.001,-0.151,0.032,-0.011,0.105,-0.819,0.934
2024-09-23 14:58:01.297,174165.764,0.072,0.731,-0.678,-0.029,0.004,0.03,-0.161,-0.015,0.01,0.105,-0.82,0.934
2024-09-23 14:58:01.307,174165.774,0.072,0.732,-0.677,-0.002,-0.085,0.047,-0.161,-0.064,0.051,0.105,-0.822,0.935
2024-09-23 14:58:01.317,174165.784,0.072,0.733,-0.676,-0.004,-0.094,0.043,-0.168,-0.057,0.077,0.106,-0.823,0.936
2024-09-23 14:58:01.327,174165.794,0.072,0.734,-0.675,-0.017,-0.015,0.02,-0.151,0.02,0.073,0.107,-0.825,0.937
2024-09-23 14:58:01.338,174165.804,0.073,0.735,-0.674,-0.011,0.012,0.014,-0.133,0.12,0.07,0.108,-0.826,0.939
2024-09-23 14:58:01.348,174165.814,0.075,0.736,-0.673,-0.014,0.03,-0.001,-0.165,0.15,0.058,0.11,-0.827,0.94
2024-09-23 14:58:01.358,174165.824,0.076,0.737,-0.671,-0.022,0.064,-0.003,-0.173,0.123,-0.005,0.112,-0.829,0.941
2024-09-23 14:58:01.368,174165.834,0.076,0.738,-0.67,-0.002,-0.014,-0.013,-0.076,0.088,-0.044,0.113,-0.83,0.94
2024-09-23 14:58:01.378,174165.844,0.076,0.738,-0.67,0.021,-0.04,0.009,0.02,0.045,-0.056,0.113,-0.831,0.94
2024-09-23 14:58:01.388,174165.854,0.076,0.738,-0.67,0.019,0.046,0.025,0.131,-0.031,-0.086,0.113,-0.83,0.939
2024-09-23 14:58:01.397,174165.864,0.075,0.737,-0.672,0.027,0.088,0.013,0.259,-0.121,-0.111,0.11,-0.828,0.937
2024-09-23 14:58:01.407,174165.874,0.073,0.735,-0.675,0.034,0.064,0.016,0.403,-0.243,-0.111,0.107,-0.825,0.935
2024-09-23 14:58:01.418,174165.884,0.07,0.732,-0.678,0.037,0.084,0.024,0.54,-0.148,-0.104,0.103,-0.821,0.932
2024-09-23 14:58:01.427,174165.893,0.07,0.728,-0.682,0.034,0.108,0.026,0.39,-0.015,-0.018,0.102,-0.815,0.931
2024-09-23 14:58:01.437,174165.903,0.069,0.727,-0.684,-0.024,0.093,0.029,0.078,-0.076,-0.003,0.101,-0.813,0.93
2024-09-23 14:58:01.447,174165.913,0.069,0.727,-0.683,-0.057,0.029,-0.064,-0.222,-0.1,-0.02,0.1,-0.814,0.93
2024-09-23 14:58:01.457,174165.923,0.068,0.729,-0.681,0.024,-0.262,-0.041,-0.514,-0.148,0.036,0.099,-0.817,0.931
2024-09-23 14:58:01.467,174165.933,0.067,0.733,-0.677,-0.009,-0.183,-0.05,-0.571,-0.203,0.045,0.099,-0.823,0.932
2024-09-23 14:58:01.478,174165.943,0.066,0.736,-0.673,-0.014,-0.083,-0.015,-0.434,-0.199,0.035,0.097,-0.828,0.934
2024-09-23 14:58:01.487,174165.953,0.065,0.739,-0.671,-0.005,-0.098,0.031,-0.181,-0.143,0.057,0.096,-0.831,0.935
2024-09-23 14:58:01.497,174165.963,0.065,0.739,-0.671,-0.002,0.083,0.055,0.142,-0.144,0.079,0.096,-0.831,0.936
2024-09-23 14:58:01.507,174165.973,0.064,0.737,-0.673,-0.02,0.179,0.07,0.365,-0.069,0.032,0.095,-0.828,0.936
2024-09-23 14:58:01.517,174165.983,0.064,0.734,-0.676,0.005,0.118,0.078,0.429,-0.035,0.02,0.095,-0.824,0.936
2024-09-23 14:58:01.527,174165.993,0.064,0.731,-0.679,0.005,0.075,0.046,0.368,0.024,0.022,0.094,-0.82,0.936
2024-09-23 14:58:01.537,174166.003,0.065,0.729,-0.681,-0.005,0.036,0.004,0.199,0.063,0.017,0.095,-0.817,0.936
2024-09-23 14:58:01.547,174166.013,0.065,0.728,-0.682,-0.013,-0.027,-0.021,0.055,0.1,0.016,0.096,-0.816,0.936
2024-09-23 14:58:01.557,174166.023,0.066,0.728,-0.682,-0.017,-0.067,-0.032,-0.022,0.1,0.019,0.097,-0.816,0.936
2024-09-23 14:58:01.567,174166.033,0.067,0.728,-0.682,-0.008,-0.046,-0.011,-0.035,0.066,0.009,0.098,-0.816,0.936
2024-09-23 14:58:01.578,174166.043,0.067,0.729,-0.681,-0.0,-0.012,-0.007,-0.02,0.061,-0.007,0.099,-0.817,0.936
2024-09-23 14:58:01.587,174166.053,0.068,0.729,-0.681,0.01,0.007,0.005,-0.062,0.043,-0.007,0.099,-0.817,0.936
2024-09-23 14:58:01.597,174166.063,0.068,0.73,-0.68,-0.003,-0.002,0.017,-0.121,0.005,0.016,0.1,-0.818,0.937
2024-09-23 14:58:01.607,174166.073,0.068,0.731,-0.679,-0.007,-0.047,0.017,-0.122,0.01,0.057,0.1,-0.819,0.937
2024-09-23 14:58:01.617,174166.083,0.069,0.731,-0.679,-0.015,-0.078,0.023,-0.105,0.073,0.109,0.102,-0.82,0.939
2024-09-23 14:58:01.626,174166.093,0.071,0.732,-0.678,-0.03,-0.028,0.027,-0.039,0.177,0.196,0.104,-0.821,0.941
2024-09-23 14:58:01.636,174166.103,0.075,0.731,-0.678,-0.051,0.036,0.015,0.043,0.395,0.288,0.11,-0.82,0.944
2024-09-23 14:58:01.647,174166.113,0.08,0.731,-0.678,-0.067,0.068,0.012,-0.04,0.487,0.298,0.118,-0.82,0.949
2024-09-23 14:58:01.657,174166.123,0.085,0.732,-0.676,-0.098,0.112,-0.012,-0.234,0.454,0.125,0.125,-0.821,0.953
2024-09-23 14:58:01.667,174166.133,0.085,0.736,-0.671,-0.117,0.015,-0.04,-0.834,0.002,0.103,0.127,-0.828,0.952
2024-09-23 14:58:01.678,174166.143,0.088,0.741,-0.666,-0.188,-0.197,0.01,-0.773,0.186,0.162,0.132,-0.835,0.957
2024-09-23 14:58:01.686,174166.153,0.09,0.746,-0.66,-0.186,-0.097,0.047,-0.745,0.204,0.107,0.136,-0.842,0.96
2024-09-23 14:58:01.697,174166.163,0.092,0.751,-0.654,-0.073,-0.016,-0.034,-0.728,0.121,0.101,0.14,-0.849,0.964
2024-09-23 14:58:01.707,174166.173,0.093,0.755,-0.649,-0.047,-0.022,-0.036,-0.678,-0.001,0.031,0.143,-0.856,0.966
2024-09-23 14:58:01.717,174166.183,0.093,0.759,-0.644,-0.06,0.01,-0.025,-0.601,-0.118,-0.002,0.143,-0.862,0.967
2024-09-23 14:58:01.727,174166.193,0.092,0.763,-0.64,-0.038,0.012,0.003,-0.441,-0.114,0.007,0.143,-0.867,0.969
2024-09-23 14:58:01.737,174166.203,0.091,0.765,-0.637,-0.009,0.031,0.019,-0.303,-0.141,-0.018,0.142,-0.871,0.97
2024-09-23 14:58:01.747,174166.213,0.09,0.767,-0.636,0.042,0.05,0.033,-0.22,-0.17,-0.007,0.141,-0.874,0.97
2024-09-23 14:58:01.757,174166.223,0.089,0.768,-0.634,0.056,0.05,0.056,-0.188,-0.174,-0.008,0.14,-0.876,0.97
2024-09-23 14:58:01.767,174166.233,0.088,0.769,-0.633,0.072,0.025,0.054,-0.178,-0.178,-0.017,0.138,-0.877,0.971
2024-09-23 14:58:01.777,174166.243,0.086,0.77,-0.632,0.094,0.008,0.043,-0.22,-0.171,-0.044,0.136,-0.879,0.97
2024-09-23 14:58:01.787,174166.253,0.085,0.772,-0.63,0.102,0.0,0.031,-0.25,-0.119,-0.011,0.134,-0.882,0.97
2024-09-23 14:58:01.798,174166.263,0.084,0.774,-0.628,0.093,-0.027,0.013,-0.293,-0.1,-0.026,0.133,-0.884,0.971
2024-09-23 14:58:01.807,174166.273,0.084,0.775,-0.626,0.105,-0.058,-0.01,-0.292,-0.062,-0.024,0.133,-0.887,0.971
2024-09-23 14:58:01.817,174166.283,0.083,0.777,-0.624,0.119,-0.046,-0.004,-0.239,-0.02,-0.027,0.133,-0.89,0.971
2024-09-23 14:58:01.827,174166.293,0.082,0.778,-0.622,0.112,-0.021,0.003,-0.129,-0.047,-0.126,0.132,-0.892,0.97
2024-09-23 14:58:01.837,174166.303,0.081,0.779,-0.622,0.091,-0.001,-0.003,0.026,-0.048,-0.109,0.13,-0.893,0.968
2024-09-23 14:58:01.847,174166.313,0.08,0.779,-0.622,0.057,0.046,-0.022,0.055,-0.025,-0.119,0.128,-0.892,0.967
2024-09-23 14:58:01.857,174166.323,0.079,0.778,-0.623,0.048,0.058,-0.03,0.04,-0.063,-0.177,0.126,-0.892,0.964
2024-09-23 14:58:01.867,174166.333,0.077,0.778,-0.623,0.012,0.012,-0.019,0.063,-0.066,-0.148,0.123,-0.892,0.962
2024-09-23 14:58:01.877,174166.343,0.076,0.778,-0.624,-0.011,-0.017,-0.002,0.079,-0.04,-0.125,0.121,-0.891,0.959
2024-09-23 14:58:01.887,174166.353,0.075,0.777,-0.625,-0.003,0.023,0.006,0.114,-0.043,-0.089,0.119,-0.891,0.957
2024-09-23 14:58:01.897,174166.363,0.074,0.777,-0.626,-0.014,0.022,0.011,0.19,-0.044,-0.065,0.117,-0.889,0.956
2024-09-23 14:58:01.907,174166.373,0.073,0.775,-0.628,-0.015,0.01,0.022,0.313,-0.032,-0.043,0.116,-0.887,0.955
2024-09-23 14:58:01.917,174166.383,0.073,0.773,-0.631,-0.011,0.04,0.04,0.448,-0.043,-0.026,0.115,-0.883,0.954
2024-09-23 14:58:01.927,174166.393,0.072,0.769,-0.635,-0.009,0.071,0.044,0.548,-0.079,-0.014,0.113,-0.878,0.952
2024-09-23 14:58:01.937,174166.403,0.071,0.766,-0.639,0.002,0.083,0.038,0.629,-0.146,-0.019,0.111,-0.872,0.951
2024-09-23 14:58:01.947,174166.413,0.07,0.762,-0.644,0.02,0.072,0.024,0.667,-0.179,-0.027,0.108,-0.866,0.95
2024-09-23 14:58:01.956,174166.423,0.069,0.758,-0.649,0.034,0.051,0.025,0.41,-0.063,0.007,0.107,-0.86,0.949
2024-09-23 14:58:01.967,174166.433,0.069,0.756,-0.651,0.017,0.021,0.041,0.288,-0.088,-0.016,0.105,-0.857,0.948
2024-09-23 14:58:01.977,174166.443,0.068,0.755,-0.652,-0.045,-0.051,-0.062,0.023,-0.056,0.017,0.105,-0.855,0.948
2024-09-23 14:58:01.986,174166.453,0.068,0.755,-0.652,0.001,-0.178,-0.069,-0.089,-0.022,-0.016,0.104,-0.856,0.948
2024-09-23 14:58:01.996,174166.463,0.068,0.756,-0.652,-0.013,-0.103,-0.016,-0.042,0.057,0.003,0.104,-0.856,0.948
2024-09-23 14:58:02.007,174166.473,0.069,0.756,-0.651,-0.023,0.009,-0.002,-0.004,0.042,-0.007,0.105,-0.857,0.948
2024-09-23 14:58:02.016,174166.483,0.069,0.755,-0.652,-0.007,0.003,0.006,0.085,0.01,-0.015,0.105,-0.856,0.948
2024-09-23 14:58:02.027,174166.492,0.068,0.755,-0.653,-0.006,-0.007,0.049,0.138,-0.055,-0.027,0.104,-0.855,0.947
2024-09-23 14:58:02.036,174166.502,0.068,0.754,-0.654,-0.012,-0.036,0.084,0.159,-0.091,0.05,0.104,-0.854,0.947
2024-09-23 14:58:02.047,174166.512,0.068,0.753,-0.655,-0.035,-0.064,0.044,0.095,0.008,0.084,0.104,-0.852,0.948
2024-09-23 14:58:02.058,174166.522,0.069,0.752,-0.655,-0.011,0.021,0.006,0.076,0.07,0.098,0.105,-0.851,0.949
2024-09-23 14:58:02.066,174166.532,0.07,0.752,-0.656,-0.028,0.067,0.011,0.058,0.06,0.067,0.107,-0.85,0.95
2024-09-23 14:58:02.076,174166.542,0.071,0.751,-0.656,-0.036,0.038,0.012,0.073,0.044,0.031,0.108,-0.85,0.951
2024-09-23 14:58:02.086,174166.552,0.071,0.75,-0.657,0.0,0.014,0.018,0.147,-0.017,0.018,0.108,-0.849,0.951
2024-09-23 14:58:02.096,174166.562,0.071,0.749,-0.659,0.009,-0.007,0.011,0.291,-0.058,0.013,0.107,-0.846,0.951
2024-09-23 14:58:02.107,174166.572,0.071,0.746,-0.662,0.034,0.045,0.008,0.484,-0.102,-0.013,0.106,-0.843,0.95
2024-09-23 14:58:02.117,174166.582,0.07,0.743,-0.666,0.037,0.107,0.019,0.671,-0.152,-0.032,0.104,-0.837,0.949
2024-09-23 14:58:02.127,174166.592,0.068,0.738,-0.672,0.036,0.119,0.038,0.786,-0.104,-0.059,0.101,-0.83,0.947
2024-09-23 14:58:02.136,174166.602,0.068,0.733,-0.677,0.045,0.108,0.027,0.592,0.007,-0.046,0.1,-0.822,0.945
2024-09-23 14:58:02.146,174166.612,0.067,0.73,-0.68,0.002,0.077,0.025,0.295,-0.083,-0.028,0.098,-0.818,0.944
2024-09-23 14:58:02.157,174166.622,0.066,0.729,-0.681,-0.026,0.011,-0.065,-0.089,-0.093,-0.079,0.097,-0.817,0.943
2024-09-23 14:58:02.167,174166.632,0.066,0.731,-0.68,0.05,-0.217,-0.078,-0.262,0.009,0.016,0.097,-0.819,0.944
2024-09-23 14:58:02.177,174166.642,0.066,0.733,-0.677,-0.011,-0.158,-0.073,-0.435,0.035,0.044,0.097,-0.823,0.944
2024-09-23 14:58:02.187,174166.652,0.067,0.736,-0.674,-0.003,-0.029,-0.088,-0.519,0.065,0.05,0.099,-0.827,0.946
2024-09-23 14:58:02.196,174166.662,0.067,0.739,-0.67,-0.022,-0.086,-0.036,-0.486,0.04,0.011,0.1,-0.832,0.947
2024-09-23 14:58:02.206,174166.672,0.068,0.742,-0.667,-0.011,-0.142,0.046,-0.337,0.059,0.041,0.101,-0.837,0.948
2024-09-23 14:58:02.216,174166.682,0.068,0.744,-0.665,-0.023,-0.057,0.075,-0.167,0.053,0.004,0.103,-0.839,0.949
2024-09-23 14:58:02.226,174166.692,0.069,0.744,-0.664,-0.038,0.079,0.108,0.039,0.145,0.021,0.104,-0.839,0.949
2024-09-23 14:58:02.236,174166.702,0.071,0.744,-0.665,-0.062,0.082,0.095,0.128,0.278,-0.001,0.106,-0.838,0.949
2024-09-23 14:58:02.247,174166.712,0.073,0.743,-0.665,-0.027,0.099,0.062,-0.017,0.252,-0.009,0.109,-0.838,0.949
2024-09-23 14:58:02.256,174166.722,0.074,0.744,-0.664,-0.042,0.052,0.024,-0.119,0.197,-0.052,0.11,-0.839,0.948
2024-09-23 14:58:02.266,174166.732,0.074,0.745,-0.663,-0.002,-0.054,-0.015,-0.163,0.183,-0.069,0.112,-0.84,0.948
2024-09-23 14:58:02.276,174166.742,0.075,0.746,-0.662,0.022,-0.08,-0.023,-0.099,0.188,-0.06,0.113,-0.841,0.947
2024-09-23 14:58:02.286,174166.752,0.076,0.746,-0.662,0.004,0.009,-0.016,-0.023,0.124,-0.076,0.114,-0.842,0.946
2024-09-23 14:58:02.296,174166.762,0.076,0.746,-0.662,0.009,0.033,0.008,0.067,0.069,-0.1,0.114,-0.842,0.945
2024-09-23 14:58:02.306,174166.772,0.075,0.745,-0.663,0.024,0.061,0.019,0.211,0.006,-0.109,0.113,-0.841,0.943
2024-09-23 14:58:02.316,174166.782,0.074,0.743,-0.665,0.037,0.09,0.019,0.364,-0.076,-0.118,0.111,-0.838,0.941
2024-09-23 14:58:02.325,174166.792,0.073,0.741,-0.668,0.037,0.107,0.038,0.483,-0.159,-0.104,0.108,-0.834,0.938
2024-09-23 14:58:02.335,174166.802,0.071,0.737,-0.672,0.042,0.097,0.056,0.496,-0.197,-0.069,0.105,-0.829,0.936
2024-09-23 14:58:02.346,174166.812,0.07,0.735,-0.675,0.037,0.047,0.038,0.209,-0.068,0.03,0.103,-0.825,0.935
2024-09-23 14:58:02.356,174166.822,0.07,0.734,-0.676,0.003,0.003,0.04,0.05,-0.063,0.012,0.103,-0.824,0.935
2024-09-23 14:58:02.366,174166.832,0.069,0.734,-0.676,-0.047,-0.044,-0.03,-0.077,-0.104,0.038,0.102,-0.824,0.936
2024-09-23 14:58:02.376,174166.842,0.069,0.734,-0.675,-0.018,-0.164,-0.092,-0.045,-0.014,-0.007,0.101,-0.825,0.936
2024-09-23 14:58:02.386,174166.852,0.069,0.735,-0.675,-0.02,-0.079,-0.053,-0.109,0.027,0.022,0.102,-0.825,0.936
2024-09-23 14:58:02.396,174166.862,0.069,0.736,-0.674,-0.017,0.024,-0.046,-0.115,0.071,0.013,0.103,-0.827,0.937
2024-09-23 14:58:02.406,174166.872,0.07,0.736,-0.673,0.005,0.017,-0.027,-0.027,0.035,0.015,0.103,-0.828,0.937
2024-09-23 14:58:02.416,174166.882,0.071,0.736,-0.673,0.005,0.011,0.026,0.106,0.123,0.035,0.104,-0.827,0.937
2024-09-23 14:58:02.426,174166.892,0.071,0.735,-0.674,-0.005,-0.011,0.043,0.03,-0.002,0.05,0.106,-0.826,0.938
2024-09-23 14:58:02.436,174166.902,0.072,0.735,-0.674,-0.019,-0.071,0.046,0.033,-0.008,0.072,0.106,-0.826,0.939
2024-09-23 14:58:02.446,174166.912,0.072,0.736,-0.674,-0.023,-0.125,0.033,-0.123,-0.162,0.116,0.106,-0.826,0.94
2024-09-23 14:58:02.455,174166.922,0.072,0.736,-0.673,-0.016,-0.087,0.028,-0.07,-0.076,0.107,0.106,-0.827,0.942
2024-09-23 14:58:02.466,174166.932,0.072,0.736,-0.673,-0.025,-0.004,0.022,-0.031,0.033,0.115,0.107,-0.828,0.944
2024-09-23 14:58:02.476,174166.942,0.073,0.736,-0.673,-0.016,0.125,0.028,0.012,0.014,0.091,0.109,-0.828,0.945
2024-09-23 14:58:02.486,174166.952,0.074,0.736,-0.673,-0.031,0.071,0.026,0.032,-0.054,0.042,0.109,-0.827,0.946
2024-09-23 14:58:02.496,174166.962,0.073,0.736,-0.673,0.003,0.023,0.012,0.092,-0.134,0.013,0.109,-0.827,0.947
2024-09-23 14:58:02.506,174166.972,0.072,0.735,-0.675,0.021,0.024,0.014,0.25,-0.2,-0.007,0.107,-0.825,0.946
2024-09-23 14:58:02.515,174166.982,0.071,0.732,-0.677,0.036,0.067,0.033,0.47,-0.257,-0.017,0.104,-0.822,0.946
2024-09-23 14:58:02.526,174166.992,0.069,0.728,-0.682,0.046,0.118,0.04,0.698,-0.115,-0.027,0.101,-0.816,0.944
2024-09-23 14:58:02.535,174167.002,0.069,0.724,-0.686,0.054,0.124,0.019,0.345,0.023,-0.02,0.1,-0.81,0.943
2024-09-23 14:58:02.545,174167.012,0.068,0.723,-0.687,-0.004,0.121,0.018,0.036,-0.01,-0.016,0.099,-0.808,0.943
2024-09-23 14:58:02.555,174167.022,0.068,0.724,-0.686,-0.047,-0.075,-0.085,-0.266,0.01,0.002,0.099,-0.81,0.943
2024-09-23 14:58:02.567,174167.032,0.069,0.726,-0.685,0.019,-0.299,-0.063,-0.224,0.118,-0.01,0.1,-0.812,0.943
2024-09-23 14:58:02.576,174167.042,0.069,0.727,-0.683,-0.027,-0.069,-0.03,-0.219,0.034,0.004,0.101,-0.814,0.943
2024-09-23 14:58:02.586,174167.052,0.069,0.729,-0.681,-0.027,-0.028,-0.013,-0.216,-0.003,-0.017,0.102,-0.816,0.943
2024-09-23 14:58:02.596,174167.062,0.069,0.73,-0.68,-0.013,-0.111,0.035,-0.22,-0.086,0.018,0.101,-0.819,0.944
2024-09-23 14:58:02.605,174167.072,0.069,0.731,-0.679,-0.006,-0.051,0.06,-0.05,-0.009,0.053,0.101,-0.82,0.945
2024-09-23 14:58:02.615,174167.082,0.07,0.731,-0.679,-0.001,0.095,0.043,0.021,0.046,0.032,0.102,-0.82,0.945
2024-09-23 14:58:02.626,174167.091,0.07,0.731,-0.679,-0.011,0.109,0.039,0.041,0.054,-0.001,0.103,-0.82,0.945
2024-09-23 14:58:02.636,174167.101,0.07,0.731,-0.679,-0.017,0.047,0.022,0.06,0.042,-0.036,0.103,-0.819,0.945
2024-09-23 14:58:02.646,174167.111,0.07,0.73,-0.68,0.007,0.006,0.018,0.103,0.052,-0.069,0.103,-0.818,0.944
2024-09-23 14:58:02.656,174167.121,0.07,0.729,-0.681,-0.001,-0.022,0.021,0.192,0.057,-0.084,0.102,-0.817,0.943
2024-09-23 14:58:02.666,174167.131,0.07,0.728,-0.682,0.0,0.031,0.028,0.25,-0.004,-0.072,0.102,-0.815,0.941
2024-09-23 14:58:02.676,174167.141,0.069,0.726,-0.684,-0.0,0.037,0.032,0.245,-0.12,-0.063,0.1,-0.813,0.94
2024-09-23 14:58:02.686,174167.151,0.067,0.724,-0.686,0.03,0.032,-0.006,0.313,-0.165,-0.037,0.098,-0.81,0.939
2024-09-23 14:58:02.696,174167.161,0.067,0.722,-0.689,0.043,0.052,-0.018,0.344,0.037,-0.021,0.097,-0.806,0.938
2024-09-23 14:58:02.706,174167.171,0.066,0.72,-0.69,0.015,0.081,0.013,0.106,-0.113,0.005,0.096,-0.804,0.937
2024-09-23 14:58:02.715,174167.181,0.065,0.72,-0.69,-0.026,0.075,-0.023,-0.123,-0.141,-0.021,0.095,-0.804,0.937
2024-09-23 14:58:02.726,174167.191,0.064,0.722,-0.689,0.041,-0.108,-0.061,-0.316,-0.139,0.021,0.093,-0.807,0.938
2024-09-23 14:58:02.735,174167.201,0.065,0.724,-0.687,0.013,-0.138,-0.049,-0.244,0.06,0.114,0.094,-0.809,0.939
2024-09-23 14:58:02.745,174167.211,0.065,0.726,-0.685,0.004,-0.007,-0.063,-0.376,-0.105,0.091,0.095,-0.812,0.941
2024-09-23 14:58:02.755,174167.221,0.065,0.728,-0.682,-0.006,-0.072,-0.034,-0.309,-0.16,0.016,0.095,-0.816,0.942
2024-09-23 14:58:02.765,174167.231,0.064,0.73,-0.681,-0.0,-0.115,0.058,-0.136,-0.199,0.036,0.094,-0.818,0.943
2024-09-23 14:58:02.776,174167.241,0.063,0.73,-0.681,-0.012,-0.011,0.065,0.075,-0.218,0.057,0.092,-0.818,0.943
2024-09-23 14:58:02.785,174167.251,0.062,0.729,-0.682,-0.005,0.118,0.061,0.336,-0.211,0.02,0.09,-0.816,0.944
2024-09-23 14:58:02.796,174167.261,0.06,0.725,-0.686,-0.008,0.142,0.094,0.55,-0.171,-0.015,0.088,-0.812,0.943
2024-09-23 14:58:02.805,174167.271,0.059,0.721,-0.69,-0.01,0.096,0.1,0.598,-0.115,0.023,0.086,-0.806,0.943
2024-09-23 14:58:02.815,174167.281,0.059,0.718,-0.694,-0.017,0.056,0.05,0.434,-0.07,0.075,0.085,-0.801,0.943
2024-09-23 14:58:02.826,174167.291,0.059,0.716,-0.696,-0.018,0.042,-0.013,0.191,-0.014,0.076,0.085,-0.797,0.943
2024-09-23 14:58:02.835,174167.301,0.06,0.715,-0.697,-0.021,-0.034,-0.045,0.013,0.004,0.081,0.086,-0.796,0.944
2024-09-23 14:58:02.845,174167.311,0.061,0.715,-0.696,-0.024,-0.089,-0.039,-0.074,-0.007,0.051,0.087,-0.797,0.945
2024-09-23 14:58:02.855,174167.321,0.061,0.715,-0.696,-0.005,-0.054,-0.033,0.036,0.05,0.042,0.087,-0.797,0.946
2024-09-23 14:58:02.865,174167.331,0.062,0.715,-0.697,0.014,0.01,-0.034,0.05,0.14,0.016,0.089,-0.796,0.946
2024-09-23 14:58:02.875,174167.341,0.063,0.715,-0.697,0.012,0.014,-0.024,-0.004,0.099,-0.032,0.09,-0.796,0.946
2024-09-23 14:58:02.885,174167.351,0.063,0.715,-0.696,0.011,-0.019,0.014,-0.037,0.128,-0.055,0.09,-0.796,0.946
2024-09-23 14:58:02.895,174167.361,0.063,0.715,-0.696,0.019,-0.022,0.03,-0.078,0.069,-0.036,0.091,-0.797,0.945
2024-09-23 14:58:02.905,174167.371,0.063,0.716,-0.695,0.002,-0.045,0.028,-0.169,0.014,-0.076,0.091,-0.798,0.944
2024-09-23 14:58:02.915,174167.381,0.063,0.718,-0.694,-0.006,-0.039,0.043,-0.216,0.016,-0.073,0.09,-0.8,0.944
2024-09-23 14:58:02.925,174167.391,0.062,0.719,-0.692,-0.027,-0.022,0.036,-0.293,0.036,-0.065,0.09,-0.803,0.943
2024-09-23 14:58:02.935,174167.401,0.062,0.722,-0.689,-0.016,-0.005,0.003,-0.459,0.037,-0.08,0.09,-0.807,0.942
2024-09-23 14:58:02.945,174167.411,0.062,0.726,-0.685,-0.017,-0.023,-0.016,-0.735,0.079,-0.123,0.09,-0.813,0.942
2024-09-23 14:58:02.955,174167.421,0.062,0.732,-0.678,-0.017,-0.048,-0.012,-1.033,0.242,-0.138,0.091,-0.821,0.941
2024-09-23 14:58:02.965,174167.431,0.063,0.74,-0.669,-0.037,-0.059,-0.018,-1.387,0.371,-0.17,0.093,-0.834,0.94
2024-09-23 14:58:02.975,174167.441,0.064,0.751,-0.657,-0.049,-0.075,-0.038,-1.777,0.42,-0.187,0.097,-0.85,0.94
2024-09-23 14:58:02.985,174167.451,0.066,0.763,-0.642,-0.049,-0.145,-0.052,-2.007,0.444,-0.153,0.102,-0.869,0.94
2024-09-23 14:58:02.995,174167.461,0.068,0.777,-0.626,-0.026,-0.133,-0.074,-2.101,0.482,-0.066,0.108,-0.889,0.942
2024-09-23 14:58:03.005,174167.471,0.071,0.79,-0.609,0.017,-0.014,-0.111,-2.179,0.519,-0.001,0.115,-0.911,0.945
2024-09-23 14:58:03.015,174167.481,0.074,0.803,-0.591,0.049,0.106,-0.151,-2.279,0.498,-0.017,0.124,-0.933,0.949
2024-09-23 14:58:03.025,174167.491,0.076,0.817,-0.572,0.06,0.128,-0.148,-2.328,0.297,-0.058,0.131,-0.956,0.954
2024-09-23 14:58:03.035,174167.501,0.076,0.829,-0.553,0.091,0.126,-0.135,-2.173,0.173,-0.121,0.137,-0.978,0.957
2024-09-23 14:58:03.045,174167.511,0.076,0.841,-0.536,0.149,0.151,-0.125,-1.997,0.128,-0.052,0.141,-0.999,0.961
2024-09-23 14:58:03.055,174167.521,0.076,0.85,-0.521,0.163,0.203,-0.096,-1.571,0.059,-0.045,0.146,-1.016,0.965
2024-09-23 14:58:03.065,174167.531,0.076,0.858,-0.509,0.177,0.21,-0.053,-1.285,-0.061,-0.097,0.148,-1.031,0.968
2024-09-23 14:58:03.075,174167.541,0.075,0.863,-0.499,0.2,0.171,-0.035,-0.951,-0.074,-0.079,0.148,-1.042,0.969
2024-09-23 14:58:03.085,174167.551,0.073,0.867,-0.492,0.202,0.154,0.021,-0.588,-0.093,-0.124,0.148,-1.05,0.969
2024-09-23 14:58:03.094,174167.561,0.072,0.87,-0.489,0.198,0.089,0.05,-0.305,-0.07,-0.061,0.146,-1.054,0.969
2024-09-23 14:58:03.104,174167.571,0.071,0.87,-0.487,0.172,0.002,0.101,-0.022,-0.097,0.026,0.146,-1.056,0.969
2024-09-23 14:58:03.114,174167.581,0.071,0.87,-0.489,0.162,-0.048,0.144,0.337,-0.094,0.07,0.145,-1.054,0.969
2024-09-23 14:58:03.124,174167.591,0.072,0.867,-0.493,0.156,-0.046,0.155,0.556,-0.068,0.103,0.145,-1.05,0.97
2024-09-23 14:58:03.135,174167.601,0.073,0.864,-0.498,0.138,-0.013,0.131,0.537,-0.044,0.146,0.145,-1.044,0.971
2024-09-23 14:58:03.145,174167.611,0.073,0.862,-0.502,0.117,-0.021,0.139,0.503,-0.128,0.134,0.145,-1.039,0.972
2024-09-23 14:58:03.155,174167.621,0.074,0.859,-0.506,0.098,-0.085,0.154,0.489,-0.185,0.131,0.145,-1.033,0.973
2024-09-23 14:58:03.164,174167.631,0.074,0.856,-0.511,0.085,-0.097,0.125,0.507,-0.134,0.197,0.144,-1.028,0.975
2024-09-23 14:58:03.175,174167.641,0.076,0.854,-0.515,0.052,-0.038,0.094,0.512,-0.113,0.298,0.146,-1.023,0.978
2024-09-23 14:58:03.185,174167.651,0.078,0.851,-0.52,0.013,-0.037,0.071,0.515,-0.13,0.382,0.149,-1.017,0.983
2024-09-23 14:58:03.195,174167.661,0.081,0.848,-0.524,0.005,-0.096,0.049,0.475,-0.124,0.414,0.153,-1.012,0.989
2024-09-23 14:58:03.206,174167.671,0.084,0.845,-0.528,0.023,-0.131,0.037,0.501,-0.071,0.444,0.157,-1.007,0.996
2024-09-23 14:58:03.215,174167.681,0.087,0.842,-0.533,0.025,-0.1,0.053,0.51,0.006,0.465,0.163,-1.001,1.003
2024-09-23 14:58:03.224,174167.69,0.091,0.839,-0.537,0.028,-0.086,0.063,0.508,0.006,0.386,0.168,-0.995,1.009
2024-09-23 14:58:03.234,174167.7,0.094,0.836,-0.541,0.024,-0.104,0.072,0.478,-0.033,0.295,0.172,-0.99,1.013
2024-09-23 14:58:03.243,174167.71,0.096,0.833,-0.545,0.022,-0.125,0.072,0.533,-0.12,0.199,0.174,-0.984,1.016
2024-09-23 14:58:03.254,174167.72,0.096,0.83,-0.55,0.009,-0.126,0.061,0.532,-0.191,0.103,0.173,-0.979,1.017
2024-09-23 14:58:03.264,174167.73,0.095,0.827,-0.554,-0.019,-0.131,0.035,0.556,-0.294,0.006,0.17,-0.973,1.017
2024-09-23 14:58:03.274,174167.74,0.093,0.824,-0.559,-0.047,-0.169,-0.006,0.462,-0.395,-0.056,0.165,-0.968,1.015
2024-09-23 14:58:03.284,174167.75,0.09,0.822,-0.563,-0.065,-0.187,-0.026,0.343,-0.422,-0.082,0.159,-0.964,1.012
2024-09-23 14:58:03.294,174167.76,0.087,0.82,-0.566,-0.079,-0.106,-0.001,0.273,-0.418,-0.094,0.153,-0.962,1.01
2024-09-23 14:58:03.304,174167.77,0.084,0.819,-0.568,-0.111,-0.041,0.031,0.221,-0.427,-0.074,0.147,-0.959,1.008
2024-09-23 14:58:03.314,174167.78,0.081,0.818,-0.57,-0.105,-0.025,0.043,0.255,-0.458,-0.096,0.141,-0.957,1.006
2024-09-23 14:58:03.324,174167.79,0.077,0.816,-0.573,-0.074,-0.053,0.056,0.384,-0.487,-0.143,0.134,-0.954,1.003
2024-09-23 14:58:03.335,174167.8,0.073,0.813,-0.578,-0.068,-0.067,0.067,0.62,-0.413,-0.187,0.126,-0.949,0.999
2024-09-23 14:58:03.345,174167.81,0.069,0.809,-0.583,-0.084,-0.003,0.053,0.707,-0.323,-0.221,0.118,-0.943,0.994
2024-09-23 14:58:03.354,174167.82,0.065,0.805,-0.59,-0.116,0.087,0.049,0.849,-0.276,-0.291,0.111,-0.935,0.988
2024-09-23 14:58:03.364,174167.83,0.062,0.8,-0.597,-0.163,0.05,0.03,0.803,-0.246,-0.282,0.103,-0.928,0.982
2024-09-23 14:58:03.374,174167.84,0.058,0.796,-0.603,-0.164,-0.004,0.018,0.738,-0.197,-0.272,0.096,-0.92,0.976
2024-09-23 14:58:03.384,174167.85,0.055,0.792,-0.609,-0.157,0.015,0.031,0.658,-0.118,-0.199,0.09,-0.913,0.971
2024-09-23 14:58:03.394,174167.86,0.054,0.788,-0.614,-0.162,0.024,0.048,0.674,0.015,-0.139,0.087,-0.907,0.968
2024-09-23 14:58:03.404,174167.87,0.053,0.784,-0.619,-0.156,0.068,0.056,0.668,0.055,-0.134,0.085,-0.9,0.964
2024-09-23 14:58:03.414,174167.88,0.052,0.78,-0.624,-0.162,0.104,0.015,0.587,0.097,-0.069,0.084,-0.894,0.962
2024-09-23 14:58:03.424,174167.89,0.053,0.776,-0.628,-0.194,0.102,-0.045,0.484,0.141,-0.007,0.084,-0.889,0.961
2024-09-23 14:58:03.434,174167.9,0.054,0.773,-0.632,-0.188,0.133,-0.06,0.66,0.227,0.036,0.085,-0.884,0.96
2024-09-23 14:58:03.444,174167.91,0.055,0.769,-0.636,-0.145,0.155,-0.068,0.537,0.325,-0.105,0.087,-0.878,0.958
2024-09-23 14:58:03.454,174167.92,0.058,0.766,-0.64,-0.087,0.105,-0.135,0.445,0.378,0.14,0.09,-0.873,0.958
2024-09-23 14:58:03.465,174167.93,0.061,0.763,-0.643,-0.106,0.165,-0.11,0.41,0.368,0.151,0.095,-0.869,0.96
2024-09-23 14:58:03.474,174167.94,0.064,0.761,-0.645,-0.072,0.14,-0.025,0.295,0.297,0.051,0.099,-0.865,0.961
2024-09-23 14:58:03.484,174167.95,0.066,0.76,-0.647,0.002,-0.081,-0.013,0.101,0.193,0.025,0.102,-0.863,0.961
2024-09-23 14:58:03.494,174167.96,0.067,0.76,-0.647,0.028,-0.112,-0.018,-0.065,0.111,0.037,0.104,-0.863,0.962
2024-09-23 14:58:03.504,174167.97,0.068,0.76,-0.646,0.015,-0.057,-0.032,-0.164,0.061,0.011,0.105,-0.864,0.962
2024-09-23 14:58:03.514,174167.98,0.068,0.762,-0.644,0.017,-0.032,-0.027,-0.207,0.043,-0.014,0.106,-0.866,0.963
2024-09-23 14:58:03.524,174167.99,0.068,0.763,-0.643,0.016,0.007,-0.006,-0.22,0.043,-0.036,0.106,-0.868,0.963
2024-09-23 14:58:03.534,174168.0,0.068,0.764,-0.641,0.005,0.012,0.001,-0.196,0.071,-0.075,0.106,-0.87,0.962
2024-09-23 14:58:03.544,174168.01,0.068,0.766,-0.64,0.005,-0.003,0.009,-0.188,0.08,-0.094,0.106,-0.872,0.961
2024-09-23 14:58:03.554,174168.02,0.068,0.767,-0.638,0.004,0.002,0.004,-0.271,0.066,-0.093,0.106,-0.875,0.96
2024-09-23 14:58:03.564,174168.03,0.068,0.769,-0.635,0.006,0.033,0.001,-0.347,0.021,-0.094,0.106,-0.878,0.959
2024-09-23 14:58:03.574,174168.04,0.067,0.772,-0.632,0.003,-0.007,-0.012,-0.404,0.006,-0.104,0.105,-0.881,0.958
2024-09-23 14:58:03.584,174168.05,0.066,0.774,-0.629,0.014,-0.053,-0.016,-0.408,0.003,-0.081,0.105,-0.886,0.957
2024-09-23 14:58:03.594,174168.06,0.065,0.777,-0.626,0.007,-0.01,-0.002,-0.353,-0.035,-0.065,0.104,-0.89,0.957
2024-09-23 14:58:03.604,174168.07,0.064,0.779,-0.624,-0.0,0.037,0.01,-0.279,-0.102,-0.092,0.103,-0.893,0.956
2024-09-23 14:58:03.614,174168.08,0.063,0.78,-0.622,0.008,0.031,0.01,-0.225,-0.162,-0.11,0.101,-0.895,0.955
2024-09-23 14:58:03.624,174168.09,0.061,0.782,-0.621,0.017,0.001,0.01,-0.202,-0.19,-0.112,0.098,-0.898,0.953
2024-09-23 14:58:03.634,174168.1,0.059,0.783,-0.619,0.015,0.004,0.008,-0.172,-0.16,-0.11,0.095,-0.9,0.952
2024-09-23 14:58:03.644,174168.11,0.057,0.784,-0.618,0.004,0.017,0.004,-0.15,-0.145,-0.097,0.092,-0.901,0.951
2024-09-23 14:58:03.654,174168.12,0.056,0.785,-0.617,-0.004,0.031,0.012,-0.045,-0.121,-0.105,0.09,-0.902,0.949
2024-09-23 14:58:03.664,174168.13,0.054,0.785,-0.617,-0.001,0.036,0.022,0.035,-0.075,-0.12,0.087,-0.902,0.947
2024-09-23 14:58:03.674,174168.14,0.053,0.785,-0.618,-0.0,0.039,0.021,0.024,-0.056,-0.122,0.085,-0.902,0.945
2024-09-23 14:58:03.683,174168.15,0.052,0.785,-0.618,-0.005,0.063,0.011,0.012,-0.02,-0.123,0.083,-0.902,0.943
2024-09-23 14:58:03.693,174168.16,0.051,0.785,-0.618,-0.004,0.019,0.005,-0.022,0.006,-0.113,0.082,-0.902,0.941
2024-09-23 14:58:03.704,174168.17,0.05,0.785,-0.618,-0.006,-0.038,0.001,-0.037,0.011,-0.108,0.081,-0.903,0.94
2024-09-23 14:58:03.714,174168.18,0.049,0.785,-0.617,-0.006,-0.016,-0.002,-0.014,0.01,-0.106,0.079,-0.903,0.938
2024-09-23 14:58:03.724,174168.19,0.048,0.785,-0.617,-0.001,0.015,0.009,-0.002,-0.003,-0.108,0.078,-0.903,0.936
2024-09-23 14:58:03.733,174168.2,0.047,0.785,-0.617,-0.002,0.02,0.008,0.041,-0.049,-0.103,0.077,-0.903,0.935
2024-09-23 14:58:03.744,174168.21,0.046,0.785,-0.618,0.004,0.004,0.009,0.078,-0.058,-0.094,0.075,-0.903,0.933
2024-09-23 14:58:03.754,174168.22,0.045,0.785,-0.618,0.01,-0.007,0.021,0.07,-0.038,-0.068,0.073,-0.902,0.932
2024-09-23 14:58:03.764,174168.23,0.045,0.784,-0.619,0.001,0.003,0.018,0.038,0.001,-0.026,0.072,-0.902,0.931
2024-09-23 14:58:03.774,174168.24,0.045,0.784,-0.619,-0.011,0.012,0.009,-0.003,0.034,0.014,0.072,-0.902,0.931
2024-09-23 14:58:03.784,174168.25,0.045,0.785,-0.618,-0.014,-0.016,0.009,-0.084,0.061,0.027,0.073,-0.902,0.931
2024-09-23 14:58:03.794,174168.26,0.046,0.785,-0.618,-0.01,-0.048,0.006,-0.132,0.072,0.013,0.074,-0.903,0.932
2024-09-23 14:58:03.804,174168.27,0.047,0.786,-0.616,-0.012,-0.037,-0.006,-0.156,0.083,0.019,0.075,-0.904,0.932
2024-09-23 14:58:03.813,174168.28,0.047,0.787,-0.615,-0.019,-0.014,-0.012,-0.16,0.064,0.011,0.076,-0.906,0.933
2024-09-23 14:58:03.823,174168.289,0.047,0.788,-0.614,-0.013,0.001,-0.005,-0.133,0.024,-0.013,0.077,-0.908,0.933
2024-09-23 14:58:03.833,174168.299,0.047,0.789,-0.613,0.004,0.005,0.004,-0.037,-0.023,-0.024,0.077,-0.908,0.933
2024-09-23 14:58:03.844,174168.309,0.047,0.788,-0.613,0.013,0.004,0.01,0.09,-0.033,-0.033,0.076,-0.908,0.932
2024-09-23 14:58:03.853,174168.319,0.046,0.787,-0.615,0.013,0.038,0.026,0.251,-0.046,-0.038,0.075,-0.907,0.931
2024-09-23 14:58:03.863,174168.329,0.046,0.785,-0.617,0.005,0.08,0.04,0.41,-0.081,-0.052,0.074,-0.903,0.93
2024-09-23 14:58:03.873,174168.339,0.044,0.782,-0.621,0.007,0.081,0.041,0.561,-0.118,-0.068,0.071,-0.899,0.929
2024-09-23 14:58:03.883,174168.349,0.043,0.779,-0.626,0.016,0.073,0.038,0.701,-0.069,-0.05,0.069,-0.892,0.927
2024-09-23 14:58:03.893,174168.359,0.043,0.775,-0.631,0.014,0.085,0.045,0.42,0.071,0.019,0.068,-0.886,0.926
2024-09-23 14:58:03.903,174168.369,0.044,0.773,-0.632,-0.007,0.077,0.031,0.131,0.141,0.018,0.07,-0.884,0.926
2024-09-23 14:58:03.913,174168.379,0.045,0.773,-0.633,-0.036,0.022,-0.009,0.002,0.093,-0.013,0.071,-0.883,0.926
2024-09-23 14:58:03.923,174168.389,0.045,0.773,-0.632,0.004,-0.173,0.013,-0.126,0.112,-0.035,0.071,-0.884,0.926
2024-09-23 14:58:03.933,174168.399,0.046,0.774,-0.631,0.013,-0.111,-0.001,-0.095,0.171,-0.029,0.073,-0.885,0.925
2024-09-23 14:58:03.943,174168.409,0.047,0.775,-0.631,-0.012,0.039,0.021,-0.092,0.201,-0.021,0.074,-0.886,0.925
2024-09-23 14:58:03.953,174168.419,0.048,0.775,-0.63,-0.032,-0.006,0.023,-0.041,0.162,0.003,0.076,-0.887,0.925
2024-09-23 14:58:03.963,174168.429,0.049,0.775,-0.629,-0.033,-0.091,-0.012,-0.114,0.101,0.092,0.078,-0.887,0.926
2024-09-23 14:58:03.974,174168.439,0.05,0.777,-0.628,-0.016,-0.134,-0.045,-0.31,0.029,0.125,0.08,-0.89,0.928
2024-09-23 14:58:03.983,174168.449,0.051,0.779,-0.625,0.003,-0.085,-0.028,-0.388,-0.053,0.111,0.082,-0.893,0.93
2024-09-23 14:58:03.993,174168.459,0.052,0.781,-0.622,0.01,-0.091,-0.013,-0.24,-0.036,0.09,0.083,-0.896,0.932
2024-09-23 14:58:04.003,174168.469,0.053,0.782,-0.621,0.016,-0.073,-0.001,-0.102,0.115,0.115,0.085,-0.898,0.934
2024-09-23 14:58:04.013,174168.479,0.055,0.782,-0.62,-0.009,0.123,0.023,-0.094,0.19,0.143,0.088,-0.899,0.936
2024-09-23 14:58:04.023,174168.489,0.057,0.783,-0.62,-0.049,0.265,0.015,-0.038,0.107,0.087,0.091,-0.899,0.938
2024-09-23 14:58:04.033,174168.499,0.057,0.783,-0.62,-0.02,0.043,-0.001,0.043,-0.004,-0.02,0.092,-0.899,0.939
2024-09-23 14:58:04.043,174168.509,0.057,0.782,-0.62,0.04,-0.137,-0.0,0.128,-0.047,-0.075,0.091,-0.898,0.938
2024-09-23 14:58:04.053,174168.519,0.055,0.781,-0.622,0.045,0.01,0.022,0.296,-0.101,-0.092,0.089,-0.896,0.936
2024-09-23 14:58:04.063,174168.529,0.054,0.779,-0.625,0.015,0.122,0.033,0.425,-0.167,-0.129,0.086,-0.893,0.934
2024-09-23 14:58:04.073,174168.539,0.051,0.776,-0.629,0.018,0.093,0.036,0.5,-0.218,-0.155,0.082,-0.888,0.931
2024-09-23 14:58:04.083,174168.549,0.049,0.773,-0.633,0.029,0.067,0.033,0.593,-0.257,-0.143,0.077,-0.883,0.928
2024-09-23 14:58:04.093,174168.559,0.046,0.769,-0.638,0.018,0.037,0.027,0.667,-0.198,-0.115,0.072,-0.877,0.925
2024-09-23 14:58:04.103,174168.569,0.045,0.765,-0.643,0.009,0.036,0.033,0.553,-0.051,-0.055,0.07,-0.87,0.923
2024-09-23 14:58:04.113,174168.579,0.045,0.762,-0.646,-0.014,0.058,0.034,0.278,0.002,-0.011,0.069,-0.866,0.922
2024-09-23 14:58:04.123,174168.589,0.044,0.761,-0.648,-0.069,0.065,-0.051,0.148,-0.031,-0.03,0.068,-0.864,0.922
2024-09-23 14:58:04.133,174168.599,0.044,0.76,-0.648,-0.015,-0.14,-0.02,-0.102,-0.015,-0.035,0.068,-0.864,0.921
2024-09-23 14:58:04.143,174168.609,0.044,0.762,-0.646,0.016,-0.183,-0.028,-0.314,0.007,0.004,0.067,-0.866,0.921
2024-09-23 14:58:04.153,174168.619,0.044,0.765,-0.643,-0.007,-0.014,-0.041,-0.655,0.055,0.038,0.068,-0.871,0.922
2024-09-23 14:58:04.163,174168.629,0.044,0.769,-0.637,-0.019,-0.039,-0.03,-0.66,-0.03,0.035,0.07,-0.878,0.923
2024-09-23 14:58:04.173,174168.639,0.044,0.773,-0.633,0.002,-0.132,0.004,-0.476,-0.064,0.019,0.07,-0.883,0.924
2024-09-23 14:58:04.183,174168.649,0.044,0.775,-0.63,0.03,-0.064,0.013,-0.186,-0.024,0.021,0.07,-0.887,0.925
2024-09-23 14:58:04.193,174168.659,0.044,0.775,-0.63,0.001,0.045,0.039,0.079,0.003,0.078,0.07,-0.887,0.926
2024-09-23 14:58:04.203,174168.669,0.045,0.774,-0.632,-0.033,0.065,0.069,0.312,0.008,0.068,0.071,-0.885,0.927
2024-09-23 14:58:04.213,174168.679,0.046,0.772,-0.635,-0.004,0.085,0.086,0.422,0.002,0.059,0.072,-0.881,0.927
2024-09-23 14:58:04.223,174168.689,0.046,0.769,-0.638,0.01,0.062,0.053,0.417,0.064,0.085,0.073,-0.877,0.928
2024-09-23 14:58:04.233,174168.699,0.048,0.767,-0.64,-0.01,0.049,0.026,0.297,0.126,0.088,0.074,-0.873,0.929
2024-09-23 14:58:04.243,174168.709,0.049,0.765,-0.642,-0.029,0.004,0.022,0.112,0.136,0.079,0.076,-0.871,0.93
2024-09-23 14:58:04.253,174168.719,0.051,0.765,-0.642,-0.022,-0.087,-0.012,-0.014,0.117,0.079,0.079,-0.871,0.931
2024-09-23 14:58:04.263,174168.729,0.052,0.765,-0.642,-0.008,-0.114,-0.035,-0.036,0.11,0.08,0.081,-0.871,0.932
2024-09-23 14:58:04.273,174168.739,0.053,0.765,-0.642,-0.002,-0.03,-0.006,-0.04,0.123,0.055,0.083,-0.871,0.933
2024-09-23 14:58:04.283,174168.749,0.054,0.765,-0.641,-0.002,0.014,0.018,-0.062,0.117,0.046,0.084,-0.872,0.934
2024-09-23 14:58:04.293,174168.759,0.055,0.766,-0.641,-0.002,-0.015,-0.005,-0.089,0.113,0.049,0.086,-0.873,0.935
2024-09-23 14:58:04.303,174168.769,0.056,0.766,-0.64,-0.003,0.019,-0.018,-0.062,0.082,0.041,0.088,-0.873,0.936
2024-09-23 14:58:04.313,174168.779,0.057,0.767,-0.64,-0.004,0.036,-0.006,-0.01,0.022,0.017,0.089,-0.874,0.936
2024-09-23 14:58:04.323,174168.789,0.057,0.766,-0.64,0.011,0.013,0.001,0.066,-0.023,-0.01,0.089,-0.873,0.936
2024-09-23 14:58:04.333,174168.799,0.056,0.766,-0.641,0.021,0.041,0.015,0.177,-0.093,-0.034,0.088,-0.872,0.936
2024-09-23 14:58:04.343,174168.809,0.055,0.764,-0.643,0.016,0.058,0.022,0.263,-0.183,-0.061,0.086,-0.87,0.935
2024-09-23 14:58:04.352,174168.819,0.053,0.762,-0.645,0.024,0.068,0.018,0.376,-0.191,-0.064,0.083,-0.867,0.933
2024-09-23 14:58:04.363,174168.829,0.052,0.76,-0.648,0.027,0.076,0.021,0.355,-0.072,-0.03,0.08,-0.863,0.932
2024-09-23 14:58:04.373,174168.839,0.052,0.758,-0.65,0.002,0.072,0.038,-0.015,-0.09,0.011,0.08,-0.861,0.932
2024-09-23 14:58:04.382,174168.849,0.051,0.759,-0.649,-0.046,0.075,-0.05,-0.219,-0.196,-0.036,0.078,-0.862,0.932
2024-09-23 14:58:04.392,174168.859,0.049,0.761,-0.646,0.001,-0.176,-0.051,-0.469,-0.206,-0.074,0.076,-0.866,0.932
2024-09-23 14:58:04.402,174168.869,0.047,0.765,-0.642,0.032,-0.313,-0.038,-0.539,-0.161,-0.042,0.074,-0.871,0.931
2024-09-23 14:58:04.412,174168.879,0.046,0.768,-0.639,0.005,-0.065,-0.012,-0.341,-0.126,-0.013,0.072,-0.875,0.931
2024-09-23 14:58:04.422,174168.888,0.046,0.769,-0.637,-0.022,0.027,0.03,-0.164,-0.042,-0.03,0.071,-0.878,0.931
2024-09-23 14:58:04.432,174168.898,0.045,0.77,-0.637,-0.012,0.031,0.062,0.018,0.005,0.004,0.071,-0.879,0.931
2024-09-23 14:58:04.442,174168.908,0.046,0.769,-0.637,-0.014,0.078,0.049,0.184,0.077,0.028,0.072,-0.878,0.931
2024-09-23 14:58:04.452,174168.918,0.047,0.768,-0.639,-0.018,0.095,0.045,0.241,0.121,0.036,0.073,-0.875,0.932
2024-09-23 14:58:04.462,174168.928,0.048,0.766,-0.641,-0.018,0.083,0.037,0.24,0.103,0.023,0.074,-0.873,0.932
2024-09-23 14:58:04.473,174168.938,0.048,0.765,-0.643,-0.012,0.042,0.013,0.257,0.063,0.006,0.075,-0.871,0.932
2024-09-23 14:58:04.482,174168.948,0.049,0.763,-0.644,0.006,-0.025,0.003,0.236,0.052,-0.003,0.075,-0.868,0.931
2024-09-23 14:58:04.493,174168.958,0.049,0.762,-0.646,0.008,-0.002,0.007,0.21,0.024,-0.008,0.075,-0.866,0.931
2024-09-23 14:58:04.502,174168.968,0.049,0.76,-0.648,-0.0,0.035,0.007,0.195,0.1,0.003,0.076,-0.864,0.931
2024-09-23 14:58:04.512,174168.978,0.05,0.76,-0.649,-0.002,-0.003,0.0,0.046,0.122,0.035,0.077,-0.863,0.931
2024-09-23 14:58:04.523,174168.988,0.051,0.759,-0.649,-0.023,0.018,-0.016,-0.011,0.125,0.024,0.078,-0.862,0.931
2024-09-23 14:58:04.533,174168.998,0.052,0.76,-0.648,-0.02,0.005,-0.007,-0.135,0.152,0.035,0.08,-0.863,0.932
2024-09-23 14:58:04.542,174169.008,0.054,0.761,-0.647,-0.005,-0.098,-0.007,-0.231,0.147,0.074,0.083,-0.865,0.933
2024-09-23 14:58:04.552,174169.018,0.055,0.763,-0.644,-0.015,-0.065,-0.011,-0.27,0.147,0.091,0.085,-0.867,0.934
2024-09-23 14:58:04.562,174169.028,0.057,0.764,-0.642,-0.011,-0.044,0.005,-0.317,0.111,0.09,0.088,-0.87,0.936
2024-09-23 14:58:04.572,174169.038,0.058,0.766,-0.64,-0.003,-0.077,0.006,-0.288,0.051,0.061,0.09,-0.873,0.938
2024-09-23 14:58:04.582,174169.048,0.058,0.768,-0.638,0.013,-0.044,0.003,-0.209,0.026,0.027,0.091,-0.875,0.939
2024-09-23 14:58:04.592,174169.058,0.059,0.769,-0.637,0.015,0.018,0.015,-0.117,0.02,0.01,0.092,-0.877,0.939
2024-09-23 14:58:04.602,174169.068,0.059,0.769,-0.636,0.011,0.062,0.022,-0.037,0.018,-0.015,0.092,-0.878,0.939
2024-09-23 14:58:04.613,174169.078,0.059,0.769,-0.636,0.006,0.081,0.02,0.022,0.002,-0.044,0.092,-0.878,0.939
2024-09-23 14:58:04.622,174169.088,0.058,0.769,-0.636,0.008,0.043,0.018,0.053,-0.006,-0.071,0.091,-0.877,0.938
2024-09-23 14:58:04.631,174169.098,0.057,0.769,-0.637,0.01,0.001,0.015,0.1,-0.007,-0.079,0.09,-0.877,0.937
2024-09-23 14:58:04.642,174169.108,0.057,0.768,-0.638,0.007,0.005,0.021,0.139,0.005,-0.082,0.089,-0.876,0.935
2024-09-23 14:58:04.652,174169.118,0.056,0.767,-0.639,0.001,0.022,0.016,0.174,0.006,-0.082,0.088,-0.874,0.934
2024-09-23 14:58:04.662,174169.128,0.056,0.766,-0.641,-0.004,0.017,0.018,0.202,-0.03,-0.077,0.086,-0.872,0.932
2024-09-23 14:58:04.672,174169.138,0.055,0.764,-0.642,-0.002,0.004,0.012,0.243,-0.082,-0.083,0.085,-0.87,0.931
2024-09-23 14:58:04.682,174169.148,0.053,0.763,-0.645,0.007,0.024,0.006,0.336,-0.111,-0.082,0.082,-0.867,0.929
2024-09-23 14:58:04.692,174169.158,0.052,0.76,-0.648,0.011,0.045,0.012,0.431,-0.12,-0.082,0.08,-0.864,0.927
2024-09-23 14:58:04.702,174169.168,0.051,0.757,-0.651,0.006,0.068,0.031,0.61,0.049,-0.052,0.078,-0.859,0.926
2024-09-23 14:58:04.712,174169.178,0.051,0.753,-0.655,-0.001,0.074,0.049,0.459,0.054,0.017,0.078,-0.853,0.925
2024-09-23 14:58:04.722,174169.188,0.052,0.751,-0.659,-0.039,0.098,0.011,0.389,0.009,0.009,0.078,-0.849,0.925
2024-09-23 14:58:04.732,174169.198,0.052,0.749,-0.661,-0.021,0.027,-0.004,0.224,0.001,-0.009,0.078,-0.846,0.924
2024-09-23 14:58:04.742,174169.208,0.052,0.748,-0.662,0.017,-0.151,-0.0,0.021,0.036,-0.008,0.078,-0.845,0.924
2024-09-23 14:58:04.752,174169.218,0.052,0.749,-0.661,-0.006,-0.054,-0.032,-0.249,0.035,-0.005,0.079,-0.846,0.924
2024-09-23 14:58:04.762,174169.228,0.052,0.75,-0.659,-0.016,-0.003,-0.053,-0.32,-0.016,-0.034,0.079,-0.849,0.924
2024-09-23 14:58:04.772,174169.238,0.051,0.753,-0.656,-0.009,-0.096,-0.034,-0.274,-0.07,-0.048,0.078,-0.852,0.924
2024-09-23 14:58:04.782,174169.248,0.051,0.754,-0.655,0.015,-0.145,0.01,-0.17,-0.072,-0.042,0.077,-0.854,0.923
2024-09-23 14:58:04.792,174169.258,0.05,0.755,-0.654,0.022,-0.022,0.038,-0.058,-0.033,-0.031,0.076,-0.856,0.923
2024-09-23 14:58:04.802,174169.268,0.049,0.755,-0.654,0.003,0.09,0.041,0.112,-0.05,-0.056,0.076,-0.855,0.922
2024-09-23 14:58:04.812,174169.278,0.049,0.754,-0.655,-0.0,0.079,0.046,0.201,-0.03,-0.095,0.074,-0.854,0.921
2024-09-23 14:58:04.822,174169.288,0.048,0.752,-0.657,0.019,0.025,0.038,0.255,0.03,-0.094,0.073,-0.851,0.919
2024-09-23 14:58:04.832,174169.298,0.048,0.751,-0.659,0.004,0.026,0.035,0.252,0.044,-0.061,0.072,-0.849,0.918
2024-09-23 14:58:04.842,174169.308,0.047,0.749,-0.661,-0.027,0.015,0.016,0.219,0.072,-0.052,0.072,-0.847,0.917
2024-09-23 14:58:04.852,174169.318,0.048,0.748,-0.662,-0.016,-0.001,0.013,0.23,0.061,-0.043,0.072,-0.845,0.916
2024-09-23 14:58:04.861,174169.328,0.048,0.746,-0.664,-0.005,-0.025,0.009,0.175,0.078,-0.063,0.072,-0.843,0.915
2024-09-23 14:58:04.872,174169.338,0.048,0.745,-0.665,-0.008,0.013,0.005,0.114,0.089,-0.073,0.072,-0.841,0.914
2024-09-23 14:58:04.882,174169.348,0.048,0.745,-0.665,-0.006,-0.011,0.002,0.028,0.064,-0.062,0.072,-0.841,0.912
2024-09-23 14:58:04.892,174169.358,0.048,0.745,-0.665,-0.009,-0.016,-0.025,0.032,0.059,-0.051,0.072,-0.84,0.912
2024-09-23 14:58:04.902,174169.368,0.048,0.745,-0.665,0.0,0.019,-0.012,-0.045,0.038,-0.029,0.072,-0.841,0.911
2024-09-23 14:58:04.911,174169.378,0.048,0.745,-0.665,-0.008,0.015,-0.007,0.0,-0.007,-0.013,0.071,-0.841,0.911
2024-09-23 14:58:04.921,174169.388,0.047,0.745,-0.665,0.004,-0.004,0.007,0.034,-0.024,0.0,0.071,-0.841,0.911
2024-09-23 14:58:04.932,174169.398,0.047,0.745,-0.666,0.002,0.019,0.003,0.047,-0.047,-0.007,0.071,-0.84,0.911
2024-09-23 14:58:04.941,174169.408,0.047,0.745,-0.666,0.008,0.055,0.025,-0.007,-0.105,-0.012,0.07,-0.84,0.91
2024-09-23 14:58:04.951,174169.418,0.046,0.745,-0.666,0.008,-0.028,-0.004,-0.069,-0.099,-0.052,0.069,-0.841,0.91
2024-09-23 14:58:04.961,174169.428,0.045,0.746,-0.665,0.021,-0.039,-0.015,-0.209,-0.083,-0.065,0.067,-0.842,0.909
2024-09-23 14:58:04.972,174169.438,0.044,0.747,-0.663,0.004,0.004,-0.033,-0.256,-0.087,-0.062,0.066,-0.844,0.908
2024-09-23 14:58:04.981,174169.448,0.043,0.75,-0.66,-0.006,0.002,-0.023,-0.405,0.004,0.056,0.065,-0.848,0.908
2024-09-23 14:58:04.991,174169.458,0.043,0.752,-0.658,0.02,-0.036,0.009,-0.273,0.014,0.013,0.066,-0.851,0.909
2024-09-23 14:58:05.002,174169.468,0.043,0.753,-0.656,0.053,-0.023,0.063,-0.196,0.041,-0.052,0.066,-0.853,0.909
2024-09-23 14:58:05.011,174169.478,0.043,0.754,-0.655,0.015,-0.06,0.057,-0.09,-0.048,-0.04,0.065,-0.854,0.909
2024-09-23 14:58:05.021,174169.487,0.042,0.755,-0.654,-0.039,-0.044,0.03,-0.128,-0.01,-0.056,0.064,-0.856,0.908
2024-09-23 14:58:05.032,174169.497,0.042,0.756,-0.654,-0.022,-0.005,0.024,-0.125,0.017,-0.033,0.064,-0.857,0.907
2024-09-23 14:58:05.041,174169.507,0.042,0.756,-0.653,-0.032,-0.03,0.022,-0.114,0.007,0.038,0.064,-0.858,0.908
2024-09-23 14:58:05.051,174169.517,0.043,0.757,-0.652,-0.037,-0.048,-0.007,-0.08,0.08,0.051,0.065,-0.859,0.908
2024-09-23 14:58:05.061,174169.527,0.044,0.757,-0.651,-0.011,0.041,0.02,-0.097,0.117,0.092,0.067,-0.859,0.91
2024-09-23 14:58:05.072,174169.537,0.045,0.758,-0.651,-0.033,0.034,-0.001,-0.091,0.089,0.1,0.069,-0.86,0.911
2024-09-23 14:58:05.081,174169.547,0.046,0.758,-0.65,-0.02,0.017,-0.015,-0.054,0.049,0.066,0.071,-0.861,0.913
2024-09-23 14:58:05.091,174169.557,0.047,0.759,-0.65,0.004,-0.005,0.002,0.03,0.0,0.034,0.072,-0.861,0.913
2024-09-23 14:58:05.101,174169.567,0.047,0.758,-0.651,0.021,0.022,0.009,0.16,-0.041,0.018,0.072,-0.86,0.914
2024-09-23 14:58:05.111,174169.577,0.046,0.756,-0.652,0.02,0.083,0.018,0.295,-0.121,-0.015,0.071,-0.858,0.913
2024-09-23 14:58:05.121,174169.587,0.045,0.754,-0.655,0.019,0.102,0.026,0.416,-0.08,-0.051,0.069,-0.854,0.912
2024-09-23 14:58:05.132,174169.597,0.045,0.751,-0.658,0.029,0.074,0.035,0.351,0.105,-0.017,0.069,-0.85,0.911
2024-09-23 14:58:05.141,174169.607,0.046,0.75,-0.66,-0.008,0.063,0.033,0.088,0.084,0.048,0.07,-0.848,0.912
2024-09-23 14:58:05.151,174169.617,0.047,0.75,-0.66,-0.07,0.065,-0.044,-0.015,0.092,0.005,0.071,-0.848,0.912
2024-09-23 14:58:05.161,174169.627,0.047,0.75,-0.66,-0.002,-0.161,-0.033,-0.126,0.098,0.005,0.072,-0.848,0.912
2024-09-23 14:58:05.171,174169.637,0.048,0.751,-0.659,0.003,-0.156,-0.018,-0.088,0.129,0.016,0.073,-0.849,0.912
2024-09-23 14:58:05.181,174169.647,0.049,0.751,-0.658,-0.014,0.04,0.012,-0.098,0.111,0.015,0.075,-0.85,0.913
2024-09-23 14:58:05.191,174169.657,0.05,0.752,-0.657,-0.011,0.008,0.026,-0.114,0.084,0.015,0.076,-0.851,0.913
2024-09-23 14:58:05.201,174169.667,0.05,0.753,-0.656,0.008,-0.062,0.039,-0.156,0.007,0.031,0.077,-0.853,0.914
2024-09-23 14:58:05.211,174169.677,0.051,0.754,-0.655,0.004,-0.104,0.005,-0.11,-0.008,0.032,0.077,-0.854,0.914
2024-09-23 14:58:05.221,174169.687,0.051,0.755,-0.654,0.015,-0.018,0.02,-0.076,0.016,0.045,0.078,-0.855,0.915
2024-09-23 14:58:05.231,174169.697,0.052,0.755,-0.654,0.002,0.05,0.023,-0.083,0.034,0.07,0.079,-0.856,0.916
2024-09-23 14:58:05.241,174169.707,0.052,0.756,-0.653,-0.012,0.061,-0.001,-0.094,-0.021,0.071,0.08,-0.856,0.917
2024-09-23 14:58:05.252,174169.717,0.052,0.756,-0.653,-0.013,0.033,-0.017,-0.017,-0.104,0.05,0.08,-0.857,0.918
2024-09-23 14:58:05.261,174169.727,0.052,0.756,-0.653,0.011,-0.002,-0.005,0.121,-0.159,0.014,0.079,-0.856,0.918
2024-09-23 14:58:05.270,174169.737,0.05,0.754,-0.655,0.023,0.035,0.018,0.316,-0.19,-0.017,0.077,-0.854,0.918
2024-09-23 14:58:05.280,174169.747,0.049,0.751,-0.658,0.021,0.101,0.031,0.485,-0.235,-0.064,0.074,-0.85,0.917
2024-09-23 14:58:05.291,174169.757,0.047,0.748,-0.662,0.024,0.128,0.041,0.639,-0.011,-0.061,0.071,-0.845,0.915
2024-09-23 14:58:05.301,174169.767,0.047,0.745,-0.665,0.023,0.079,0.047,0.2,0.065,-0.001,0.071,-0.841,0.914
2024-09-23 14:58:05.311,174169.777,0.048,0.745,-0.666,-0.042,0.035,-0.009,0.015,0.046,0.014,0.071,-0.84,0.915
2024-09-23 14:58:05.321,174169.787,0.048,0.745,-0.665,-0.069,-0.063,-0.07,-0.143,0.075,-0.003,0.072,-0.84,0.915
2024-09-23 14:58:05.331,174169.797,0.049,0.746,-0.664,0.009,-0.258,-0.016,-0.191,0.124,0.046,0.073,-0.842,0.915
2024-09-23 14:58:05.341,174169.807,0.05,0.747,-0.663,-0.019,-0.039,-0.002,-0.22,0.119,0.065,0.075,-0.844,0.916
2024-09-23 14:58:05.351,174169.817,0.051,0.749,-0.661,-0.03,0.035,0.016,-0.189,0.099,0.071,0.077,-0.846,0.917
2024-09-23 14:58:05.361,174169.827,0.052,0.75,-0.659,-0.009,-0.074,0.024,-0.272,0.06,0.097,0.079,-0.848,0.919
2024-09-23 14:58:05.371,174169.837,0.053,0.752,-0.657,0.002,-0.084,0.016,-0.228,0.023,0.098,0.081,-0.851,0.921
2024-09-23 14:58:05.382,174169.847,0.054,0.753,-0.655,0.002,-0.017,0.015,-0.183,0.046,0.082,0.083,-0.853,0.922
2024-09-23 14:58:05.391,174169.857,0.055,0.754,-0.654,0.006,0.003,0.008,-0.143,0.06,0.085,0.084,-0.855,0.924
2024-09-23 14:58:05.401,174169.867,0.056,0.755,-0.653,0.002,0.086,0.011,-0.061,0.003,0.077,0.086,-0.855,0.925
2024-09-23 14:58:05.411,174169.877,0.056,0.755,-0.653,-0.007,0.066,0.002,0.046,-0.116,0.03,0.086,-0.856,0.926
2024-09-23 14:58:05.421,174169.887,0.055,0.754,-0.655,0.021,0.018,0.01,0.254,-0.243,-0.036,0.084,-0.854,0.926
2024-09-23 14:58:05.431,174169.897,0.053,0.751,-0.658,0.042,0.061,0.032,0.518,-0.311,-0.082,0.08,-0.85,0.925
2024-09-23 14:58:05.441,174169.907,0.05,0.747,-0.662,0.051,0.102,0.05,0.722,-0.217,-0.087,0.076,-0.844,0.922
2024-09-23 14:58:05.451,174169.917,0.049,0.742,-0.668,0.035,0.156,0.058,0.61,-0.03,-0.044,0.074,-0.837,0.921
2024-09-23 14:58:05.461,174169.927,0.049,0.74,-0.671,-0.016,0.127,0.057,0.237,-0.066,-0.004,0.073,-0.833,0.92
2024-09-23 14:58:05.472,174169.937,0.048,0.739,-0.672,-0.08,0.04,-0.064,0.012,-0.022,-0.059,0.072,-0.831,0.919
2024-09-23 14:58:05.481,174169.947,0.048,0.74,-0.671,0.012,-0.301,-0.04,-0.237,-0.018,0.007,0.071,-0.833,0.919
2024-09-23 14:58:05.491,174169.957,0.048,0.741,-0.669,-0.01,-0.206,-0.034,-0.25,0.009,0.045,0.072,-0.835,0.92
2024-09-23 14:58:05.501,174169.967,0.049,0.743,-0.667,-0.028,0.014,0.004,-0.321,-0.02,0.081,0.073,-0.838,0.921
2024-09-23 14:58:05.511,174169.977,0.049,0.745,-0.665,-0.022,-0.061,0.019,-0.3,-0.032,0.098,0.074,-0.841,0.923
2024-09-23 14:58:05.521,174169.987,0.05,0.747,-0.663,-0.007,-0.097,0.025,-0.226,0.073,0.133,0.075,-0.843,0.925
2024-09-23 14:58:05.531,174169.997,0.052,0.748,-0.662,-0.015,-0.032,0.017,-0.116,0.275,0.202,0.079,-0.845,0.927
