Date,TimeStamp,GravityX,GravityY,GravityZ,UserAccelerationX,UserAccelerationY,UserAccelerationZ,RotationRateX,RotationRateY,RotationRateZ,AttitudeRoll,AttitudePitch,AttitudeYaw
2024-11-02 23:09:23.278,41038.023,0.099,-0.265,-0.959,-0.008,0.007,0.001,-0.065,-0.046,0.03,0.102,0.268,1.15
2024-11-02 23:09:23.308,41038.033,0.098,-0.264,-0.959,0.007,-0.003,0.006,-0.062,-0.039,0.048,0.102,0.268,1.151
2024-11-02 23:09:23.310,41038.043,0.098,-0.264,-0.96,-0.013,-0.015,0.009,0.01,0.009,-0.008,0.102,0.267,1.151
2024-11-02 23:09:23.312,41038.053,0.098,-0.264,-0.959,-0.009,-0.001,0.007,0.04,0.015,0.009,0.102,0.268,1.151
2024-11-02 23:09:23.313,41038.063,0.098,-0.265,-0.959,-0.013,0.008,0.008,0.023,0.002,0.01,0.102,0.268,1.151
2024-11-02 23:09:23.316,41038.073,0.098,-0.265,-0.959,-0.01,0.012,0.015,-0.023,-0.021,-0.016,0.102,0.268,1.151
2024-11-02 23:09:23.324,41038.083,0.098,-0.264,-0.959,0.003,-0.029,0.018,-0.054,-0.025,-0.024,0.102,0.268,1.151
2024-11-02 23:09:23.335,41038.093,0.098,-0.264,-0.96,0.013,-0.041,0.021,-0.074,-0.024,-0.039,0.101,0.267,1.15
2024-11-02 23:09:23.344,41038.103,0.097,-0.263,-0.96,0.005,-0.036,0.021,-0.092,-0.035,-0.061,0.101,0.266,1.15
2024-11-02 23:09:23.355,41038.113,0.097,-0.262,-0.96,0.001,-0.042,0.021,-0.09,-0.022,-0.086,0.101,0.265,1.149
2024-11-02 23:09:23.365,41038.123,0.097,-0.261,-0.96,0.004,-0.048,0.022,-0.074,-0.011,-0.1,0.101,0.264,1.149
2024-11-02 23:09:23.374,41038.133,0.098,-0.26,-0.961,-0.003,-0.047,0.023,-0.063,-0.009,-0.12,0.101,0.263,1.147
2024-11-02 23:09:23.385,41038.143,0.098,-0.26,-0.961,-0.007,-0.051,0.025,-0.077,-0.012,-0.141,0.101,0.263,1.146
2024-11-02 23:09:23.395,41038.153,0.098,-0.259,-0.961,-0.004,-0.057,0.032,-0.092,-0.018,-0.159,0.102,0.262,1.145
2024-11-02 23:09:23.406,41038.163,0.098,-0.258,-0.961,-0.0,-0.055,0.037,-0.113,-0.024,-0.182,0.102,0.261,1.143
2024-11-02 23:09:23.415,41038.173,0.099,-0.256,-0.962,-0.001,-0.063,0.039,-0.143,-0.029,-0.216,0.102,0.259,1.141
2024-11-02 23:09:23.425,41038.183,0.099,-0.255,-0.962,-0.005,-0.071,0.04,-0.165,-0.049,-0.229,0.102,0.257,1.139
2024-11-02 23:09:23.434,41038.193,0.099,-0.253,-0.962,-0.009,-0.08,0.039,-0.166,-0.05,-0.265,0.102,0.256,1.137
2024-11-02 23:09:23.444,41038.203,0.099,-0.251,-0.963,-0.007,-0.082,0.036,-0.162,-0.036,-0.295,0.103,0.254,1.134
2024-11-02 23:09:23.455,41038.213,0.1,-0.249,-0.963,-0.014,-0.076,0.033,-0.163,-0.013,-0.32,0.103,0.252,1.131
2024-11-02 23:09:23.465,41038.223,0.101,-0.247,-0.964,-0.02,-0.07,0.033,-0.189,0.069,-0.34,0.104,0.25,1.128
2024-11-02 23:09:23.474,41038.233,0.102,-0.245,-0.964,-0.027,-0.075,0.04,-0.201,0.106,-0.356,0.106,0.248,1.124
2024-11-02 23:09:23.484,41038.243,0.104,-0.243,-0.964,-0.038,-0.085,0.063,-0.181,0.068,-0.398,0.108,0.246,1.121
2024-11-02 23:09:23.494,41038.252,0.106,-0.241,-0.965,-0.036,-0.09,0.089,-0.145,0.053,-0.414,0.109,0.244,1.117
2024-11-02 23:09:23.506,41038.262,0.108,-0.24,-0.965,-0.02,-0.08,0.097,-0.109,0.108,-0.416,0.111,0.242,1.113
2024-11-02 23:09:23.514,41038.272,0.11,-0.238,-0.965,-0.021,-0.062,0.076,-0.082,0.114,-0.419,0.113,0.241,1.109
2024-11-02 23:09:23.525,41038.282,0.112,-0.237,-0.965,-0.042,-0.061,0.051,-0.077,0.094,-0.436,0.115,0.239,1.104
2024-11-02 23:09:23.535,41038.292,0.114,-0.236,-0.965,-0.031,-0.067,0.06,-0.147,0.074,-0.457,0.117,0.238,1.1
2024-11-02 23:09:23.544,41038.302,0.115,-0.233,-0.966,-0.011,-0.095,0.062,-0.254,0.026,-0.467,0.119,0.235,1.095
2024-11-02 23:09:23.556,41038.312,0.116,-0.229,-0.966,-0.016,-0.147,0.048,-0.37,0.007,-0.506,0.12,0.232,1.091
2024-11-02 23:09:23.564,41038.322,0.118,-0.225,-0.967,-0.025,-0.182,0.047,-0.441,0.031,-0.569,0.121,0.227,1.086
2024-11-02 23:09:23.574,41038.332,0.12,-0.219,-0.968,-0.031,-0.194,0.054,-0.55,0.076,-0.619,0.123,0.221,1.08
2024-11-02 23:09:23.584,41038.342,0.122,-0.213,-0.969,-0.039,-0.22,0.059,-0.555,0.16,-0.711,0.125,0.215,1.071
2024-11-02 23:09:23.594,41038.352,0.126,-0.207,-0.97,-0.043,-0.232,0.06,-0.487,0.248,-0.796,0.129,0.209,1.061
2024-11-02 23:09:23.605,41038.362,0.13,-0.202,-0.971,-0.062,-0.228,0.061,-0.431,0.327,-0.873,0.133,0.203,1.049
2024-11-02 23:09:23.614,41038.372,0.136,-0.196,-0.971,-0.077,-0.228,0.083,-0.446,0.429,-0.979,0.139,0.198,1.037
2024-11-02 23:09:23.624,41038.382,0.142,-0.19,-0.971,-0.076,-0.258,0.1,-0.508,0.409,-1.064,0.145,0.191,1.024
2024-11-02 23:09:23.634,41038.392,0.148,-0.183,-0.972,-0.096,-0.307,0.111,-0.617,0.39,-1.147,0.151,0.184,1.011
2024-11-02 23:09:23.644,41038.402,0.154,-0.175,-0.973,-0.085,-0.345,0.137,-0.727,0.383,-1.278,0.157,0.176,0.997
2024-11-02 23:09:23.656,41038.412,0.16,-0.165,-0.973,-0.07,-0.386,0.135,-0.832,0.395,-1.395,0.163,0.166,0.982
2024-11-02 23:09:23.664,41038.422,0.166,-0.154,-0.974,-0.057,-0.413,0.129,-1.009,0.507,-1.5,0.169,0.155,0.969
2024-11-02 23:09:23.684,41038.432,0.174,-0.141,-0.975,-0.035,-0.419,0.133,-1.173,0.535,-1.629,0.176,0.141,0.952
2024-11-02 23:09:23.689,41038.442,0.181,-0.126,-0.975,-0.026,-0.428,0.156,-1.229,0.588,-1.776,0.184,0.126,0.935
2024-11-02 23:09:23.694,41038.452,0.189,-0.11,-0.976,-0.019,-0.429,0.203,-1.31,0.511,-1.872,0.191,0.11,0.916
2024-11-02 23:09:23.704,41038.462,0.195,-0.094,-0.976,-0.015,-0.416,0.246,-1.282,0.35,-1.991,0.197,0.094,0.897
2024-11-02 23:09:23.713,41038.472,0.2,-0.078,-0.977,-0.012,-0.378,0.299,-1.039,0.257,-2.187,0.202,0.078,0.876
2024-11-02 23:09:23.723,41038.482,0.203,-0.065,-0.977,-0.014,-0.329,0.253,-0.801,0.076,-2.333,0.205,0.065,0.854
2024-11-02 23:09:23.733,41038.492,0.204,-0.053,-0.977,-0.063,-0.287,0.175,-0.644,-0.169,-2.533,0.206,0.053,0.829
2024-11-02 23:09:23.743,41038.502,0.203,-0.041,-0.978,-0.05,-0.252,0.157,-0.636,-0.449,-2.694,0.204,0.041,0.802
2024-11-02 23:09:23.753,41038.512,0.198,-0.029,-0.98,-0.023,-0.231,0.125,-0.737,-0.729,-2.811,0.199,0.029,0.774
2024-11-02 23:09:23.763,41038.522,0.19,-0.016,-0.982,-0.041,-0.178,0.125,-0.895,-1.02,-2.896,0.191,0.016,0.745
2024-11-02 23:09:23.773,41038.532,0.179,-0.001,-0.984,-0.044,-0.142,0.152,-1.017,-1.226,-2.987,0.18,0.001,0.716
2024-11-02 23:09:23.784,41038.542,0.166,0.015,-0.986,-0.023,-0.094,0.19,-1.061,-1.348,-3.057,0.167,-0.015,0.686
2024-11-02 23:09:23.794,41038.552,0.152,0.03,-0.988,-0.028,-0.046,0.213,-1.035,-1.45,-3.056,0.152,-0.03,0.655
2024-11-02 23:09:23.803,41038.562,0.136,0.044,-0.99,-0.051,-0.064,0.248,-0.978,-1.438,-2.933,0.137,-0.044,0.627
2024-11-02 23:09:23.814,41038.572,0.121,0.057,-0.991,-0.058,-0.068,0.284,-0.92,-1.374,-2.724,0.121,-0.057,0.6
2024-11-02 23:09:23.845,41038.582,0.106,0.069,-0.992,-0.092,-0.018,0.256,-0.894,-1.328,-2.541,0.106,-0.069,0.575
2024-11-02 23:09:23.852,41038.592,0.091,0.08,-0.993,-0.167,0.099,0.18,-0.913,-1.306,-2.361,0.091,-0.081,0.552
2024-11-02 23:09:23.855,41038.602,0.076,0.091,-0.993,-0.21,0.245,0.104,-0.911,-1.315,-2.253,0.076,-0.092,0.529
2024-11-02 23:09:23.857,41038.612,0.061,0.102,-0.993,-0.227,0.326,0.01,-0.89,-1.365,-2.137,0.061,-0.102,0.508
2024-11-02 23:09:23.863,41038.622,0.045,0.112,-0.993,-0.234,0.335,-0.064,-0.908,-1.413,-1.972,0.045,-0.112,0.488
2024-11-02 23:09:23.873,41038.632,0.029,0.122,-0.992,-0.22,0.355,-0.088,-1.023,-1.406,-1.711,0.029,-0.122,0.47
2024-11-02 23:09:23.883,41038.642,0.013,0.133,-0.991,-0.218,0.373,-0.081,-1.035,-1.33,-1.457,0.013,-0.133,0.454
2024-11-02 23:09:23.894,41038.652,-0.001,0.142,-0.99,-0.206,0.369,-0.056,-0.864,-1.145,-1.237,-0.001,-0.143,0.441
2024-11-02 23:09:23.904,41038.662,-0.013,0.149,-0.989,-0.192,0.379,-0.029,-0.526,-0.877,-1.069,-0.013,-0.15,0.429
2024-11-02 23:09:23.915,41038.672,-0.022,0.153,-0.988,-0.196,0.454,-0.037,-0.231,-0.656,-0.919,-0.022,-0.153,0.419
2024-11-02 23:09:23.924,41038.682,-0.029,0.154,-0.988,-0.201,0.501,-0.078,-0.141,-0.546,-0.776,-0.029,-0.155,0.41
2024-11-02 23:09:23.934,41038.692,-0.035,0.156,-0.987,-0.186,0.463,-0.123,-0.3,-0.543,-0.674,-0.036,-0.156,0.403
2024-11-02 23:09:23.944,41038.702,-0.042,0.16,-0.986,-0.149,0.395,-0.165,-0.647,-0.608,-0.648,-0.043,-0.161,0.396
2024-11-02 23:09:23.954,41038.712,-0.05,0.168,-0.984,-0.111,0.356,-0.197,-1.086,-0.687,-0.577,-0.05,-0.169,0.389
2024-11-02 23:09:23.963,41038.722,-0.057,0.181,-0.982,-0.082,0.34,-0.206,-1.526,-0.644,-0.516,-0.058,-0.182,0.383
2024-11-02 23:09:23.974,41038.732,-0.064,0.197,-0.978,-0.048,0.337,-0.207,-1.913,-0.588,-0.45,-0.065,-0.199,0.377
2024-11-02 23:09:23.984,41038.742,-0.07,0.217,-0.974,-0.045,0.296,-0.2,-2.218,-0.562,-0.364,-0.072,-0.219,0.372
2024-11-02 23:09:23.994,41038.752,-0.077,0.239,-0.968,-0.04,0.231,-0.142,-2.302,-0.531,-0.306,-0.079,-0.242,0.366
2024-11-02 23:09:24.004,41038.762,-0.082,0.261,-0.962,-0.002,0.181,-0.078,-2.197,-0.43,-0.28,-0.085,-0.264,0.361
2024-11-02 23:09:24.014,41038.772,-0.086,0.28,-0.956,0.009,0.146,-0.046,-1.803,-0.256,-0.255,-0.09,-0.284,0.357
2024-11-02 23:09:24.024,41038.782,-0.089,0.295,-0.951,-0.009,0.155,-0.029,-1.362,-0.139,-0.28,-0.093,-0.299,0.353
2024-11-02 23:09:24.035,41038.792,-0.091,0.305,-0.948,-0.031,0.155,-0.074,-0.938,-0.124,-0.278,-0.095,-0.31,0.349
2024-11-02 23:09:24.044,41038.802,-0.093,0.312,-0.946,-0.045,0.185,-0.082,-0.527,-0.084,-0.362,-0.098,-0.317,0.345
2024-11-02 23:09:24.053,41038.812,-0.094,0.315,-0.944,-0.043,0.176,-0.08,-0.239,-0.039,-0.377,-0.1,-0.321,0.34
2024-11-02 23:09:24.063,41038.822,-0.096,0.317,-0.944,-0.042,0.163,-0.065,-0.197,-0.069,-0.273,-0.101,-0.322,0.337
2024-11-02 23:09:24.073,41038.832,-0.097,0.319,-0.943,-0.03,0.138,-0.03,-0.263,-0.121,-0.082,-0.103,-0.324,0.335
2024-11-02 23:09:24.083,41038.842,-0.098,0.322,-0.942,0.001,0.04,0.004,-0.367,-0.085,0.055,-0.104,-0.327,0.334
2024-11-02 23:09:24.094,41038.852,-0.099,0.325,-0.94,0.006,-0.08,0.012,-0.424,-0.114,0.11,-0.105,-0.332,0.335
2024-11-02 23:09:24.104,41038.861,-0.099,0.329,-0.939,-0.02,-0.091,0.016,-0.394,0.008,0.135,-0.105,-0.336,0.335
2024-11-02 23:09:24.114,41038.871,-0.098,0.333,-0.938,-0.031,-0.016,0.017,-0.411,0.112,0.162,-0.104,-0.34,0.337
2024-11-02 23:09:24.123,41038.881,-0.096,0.337,-0.937,-0.046,0.058,0.041,-0.141,0.112,-0.015,-0.102,-0.343,0.337
2024-11-02 23:09:24.134,41038.891,-0.093,0.336,-0.937,-0.047,0.103,0.072,0.114,0.372,-0.028,-0.099,-0.343,0.337
2024-11-02 23:09:24.143,41038.901,-0.089,0.335,-0.938,-0.154,0.149,-0.056,0.164,0.462,0.163,-0.095,-0.342,0.338
2024-11-02 23:09:24.154,41038.911,-0.085,0.334,-0.939,-0.154,0.234,-0.224,0.043,0.322,0.09,-0.09,-0.341,0.339
2024-11-02 23:09:24.164,41038.921,-0.082,0.334,-0.939,0.069,0.117,-0.162,-0.081,0.226,0.099,-0.087,-0.341,0.34
2024-11-02 23:09:24.174,41038.931,-0.08,0.336,-0.939,0.027,-0.045,-0.089,-0.176,0.227,0.078,-0.085,-0.342,0.341
2024-11-02 23:09:24.183,41038.941,-0.077,0.338,-0.938,-0.004,-0.065,-0.018,-0.237,0.234,0.062,-0.082,-0.344,0.342
2024-11-02 23:09:24.194,41038.951,-0.075,0.34,-0.937,0.002,-0.072,0.03,-0.303,0.204,0.039,-0.08,-0.347,0.342
2024-11-02 23:09:24.203,41038.961,-0.074,0.343,-0.936,0.008,-0.056,0.052,-0.351,0.096,-0.027,-0.079,-0.35,0.342
2024-11-02 23:09:24.213,41038.971,-0.074,0.347,-0.935,0.011,-0.057,0.043,-0.455,-0.022,-0.054,-0.079,-0.354,0.341
2024-11-02 23:09:24.223,41038.981,-0.074,0.352,-0.933,0.03,-0.059,0.023,-0.49,-0.034,-0.065,-0.079,-0.359,0.34
2024-11-02 23:09:24.234,41038.991,-0.074,0.356,-0.932,0.038,-0.051,0.017,-0.474,0.096,0.022,-0.079,-0.364,0.339
2024-11-02 23:09:24.243,41039.001,-0.073,0.36,-0.93,0.008,-0.052,0.017,-0.331,0.181,0.015,-0.078,-0.368,0.339
2024-11-02 23:09:24.253,41039.011,-0.071,0.362,-0.929,-0.025,0.037,0.016,-0.195,0.13,-0.011,-0.076,-0.371,0.339
2024-11-02 23:09:24.263,41039.021,-0.07,0.364,-0.929,-0.042,0.081,0.001,-0.101,0.139,-0.067,-0.075,-0.372,0.339
2024-11-02 23:09:24.273,41039.031,-0.069,0.364,-0.929,0.0,0.059,-0.004,-0.026,0.123,0.001,-0.074,-0.373,0.338
2024-11-02 23:09:24.284,41039.041,-0.068,0.364,-0.929,-0.022,0.007,-0.024,0.071,0.059,0.029,-0.073,-0.373,0.338
2024-11-02 23:09:24.293,41039.051,-0.067,0.363,-0.929,-0.01,0.059,-0.017,0.185,0.059,0.034,-0.072,-0.371,0.339
2024-11-02 23:09:24.303,41039.061,-0.066,0.361,-0.93,0.019,0.097,-0.001,0.27,0.124,0.057,-0.071,-0.369,0.34
2024-11-02 23:09:24.313,41039.071,-0.064,0.358,-0.931,0.01,0.085,0.006,0.29,0.224,0.092,-0.069,-0.366,0.341
2024-11-02 23:09:24.323,41039.081,-0.061,0.356,-0.933,-0.022,0.083,-0.002,0.277,0.296,0.106,-0.066,-0.364,0.342
2024-11-02 23:09:24.334,41039.091,-0.058,0.353,-0.934,-0.03,0.043,0.001,0.283,0.375,0.105,-0.062,-0.361,0.343
2024-11-02 23:09:24.343,41039.101,-0.054,0.35,-0.935,-0.025,-0.009,0.005,0.3,0.401,0.107,-0.058,-0.358,0.344
2024-11-02 23:09:24.353,41039.111,-0.05,0.348,-0.936,-0.029,-0.006,0.015,0.283,0.359,0.084,-0.053,-0.355,0.346
2024-11-02 23:09:24.363,41039.121,-0.047,0.345,-0.937,-0.01,0.012,0.024,0.252,0.269,0.047,-0.05,-0.352,0.346
2024-11-02 23:09:24.373,41039.131,-0.044,0.343,-0.938,0.015,-0.013,0.021,0.143,0.195,0.034,-0.047,-0.35,0.347
2024-11-02 23:09:24.383,41039.141,-0.043,0.343,-0.938,0.023,-0.037,0.017,-0.021,0.097,0.047,-0.046,-0.35,0.347
2024-11-02 23:09:24.393,41039.151,-0.042,0.344,-0.938,0.027,-0.045,0.002,-0.166,0.027,0.028,-0.045,-0.351,0.348
2024-11-02 23:09:24.403,41039.161,-0.042,0.346,-0.937,0.024,-0.082,-0.014,-0.265,-0.02,0.024,-0.045,-0.353,0.348
2024-11-02 23:09:24.413,41039.171,-0.042,0.348,-0.936,0.016,-0.103,-0.016,-0.287,-0.043,0.023,-0.045,-0.356,0.348
2024-11-02 23:09:24.423,41039.181,-0.043,0.351,-0.935,0.013,-0.048,0.006,-0.237,-0.046,0.033,-0.046,-0.359,0.348
2024-11-02 23:09:24.433,41039.191,-0.043,0.353,-0.935,0.005,0.001,0.018,-0.156,0.011,0.052,-0.046,-0.361,0.349
2024-11-02 23:09:24.443,41039.201,-0.042,0.354,-0.934,-0.009,0.033,-0.002,-0.059,0.057,0.066,-0.045,-0.362,0.349
2024-11-02 23:09:24.453,41039.211,-0.041,0.354,-0.934,-0.032,0.064,-0.003,0.004,0.092,0.07,-0.044,-0.362,0.35
2024-11-02 23:09:24.463,41039.221,-0.04,0.354,-0.934,-0.027,0.048,0.011,0.039,0.126,0.076,-0.043,-0.362,0.351
2024-11-02 23:09:24.473,41039.231,-0.039,0.353,-0.935,-0.013,0.019,0.017,0.072,0.109,0.083,-0.041,-0.361,0.352
2024-11-02 23:09:24.483,41039.241,-0.038,0.353,-0.935,-0.011,0.008,0.009,0.072,0.096,0.08,-0.04,-0.36,0.352
2024-11-02 23:09:24.493,41039.251,-0.037,0.352,-0.935,0.007,0.029,0.008,0.025,0.065,0.061,-0.039,-0.36,0.353
2024-11-02 23:09:24.503,41039.261,-0.036,0.352,-0.935,0.014,0.018,0.012,-0.064,-0.016,0.039,-0.039,-0.36,0.354
2024-11-02 23:09:24.513,41039.271,-0.036,0.353,-0.935,0.01,-0.037,0.009,-0.138,-0.066,0.017,-0.039,-0.361,0.354
2024-11-02 23:09:24.523,41039.281,-0.037,0.355,-0.934,0.022,-0.075,0.007,-0.148,-0.058,0.015,-0.04,-0.363,0.354
2024-11-02 23:09:24.533,41039.291,-0.037,0.356,-0.934,0.02,-0.058,0.004,-0.099,-0.005,0.03,-0.04,-0.364,0.354
2024-11-02 23:09:24.543,41039.301,-0.037,0.357,-0.934,0.005,0.007,0.007,-0.019,0.026,0.032,-0.04,-0.365,0.355
2024-11-02 23:09:24.553,41039.311,-0.037,0.356,-0.934,-0.007,0.061,0.007,0.035,0.029,0.025,-0.039,-0.364,0.355
2024-11-02 23:09:24.563,41039.321,-0.036,0.356,-0.934,-0.006,0.058,0.013,0.056,-0.009,0.021,-0.039,-0.364,0.355
2024-11-02 23:09:24.573,41039.331,-0.037,0.356,-0.934,0.009,0.033,0.012,0.028,-0.086,0.01,-0.039,-0.364,0.355
2024-11-02 23:09:24.583,41039.341,-0.038,0.356,-0.934,0.017,0.001,0.008,-0.01,-0.151,0.008,-0.041,-0.364,0.355
2024-11-02 23:09:24.593,41039.351,-0.039,0.356,-0.934,0.025,-0.027,0.002,-0.023,-0.158,-0.002,-0.042,-0.364,0.355
2024-11-02 23:09:24.603,41039.361,-0.041,0.356,-0.934,0.03,-0.015,0.005,-0.01,-0.144,0.0,-0.044,-0.364,0.355
2024-11-02 23:09:24.613,41039.371,-0.042,0.356,-0.934,0.006,0.011,0.007,0.004,-0.128,0.014,-0.045,-0.364,0.356
2024-11-02 23:09:24.623,41039.381,-0.043,0.356,-0.934,-0.007,0.013,0.007,0.016,-0.116,0.026,-0.046,-0.364,0.356
2024-11-02 23:09:24.633,41039.391,-0.044,0.356,-0.934,-0.004,0.006,0.013,0.045,-0.079,0.037,-0.047,-0.364,0.356
2024-11-02 23:09:24.643,41039.401,-0.044,0.355,-0.934,-0.01,0.006,0.01,0.093,-0.039,0.06,-0.047,-0.363,0.357
2024-11-02 23:09:24.653,41039.411,-0.044,0.354,-0.934,-0.013,0.025,0.005,0.155,0.03,0.079,-0.047,-0.362,0.357
2024-11-02 23:09:24.663,41039.421,-0.043,0.352,-0.935,-0.014,0.048,0.009,0.186,0.028,0.08,-0.046,-0.36,0.358
2024-11-02 23:09:24.673,41039.431,-0.043,0.351,-0.936,-0.015,0.053,0.006,0.178,0.018,0.093,-0.046,-0.358,0.359
2024-11-02 23:09:24.682,41039.441,-0.042,0.349,-0.936,0.002,0.014,0.015,0.139,-0.017,0.104,-0.045,-0.357,0.361
2024-11-02 23:09:24.692,41039.451,-0.042,0.348,-0.937,0.01,-0.019,0.01,0.117,-0.032,0.127,-0.045,-0.355,0.362
2024-11-02 23:09:24.702,41039.461,-0.042,0.347,-0.937,0.014,-0.015,0.003,0.15,-0.055,0.104,-0.045,-0.354,0.363
2024-11-02 23:09:24.712,41039.47,-0.042,0.345,-0.938,0.015,-0.002,0.0,0.181,-0.03,0.052,-0.045,-0.353,0.364
2024-11-02 23:09:24.722,41039.48,-0.042,0.344,-0.938,0.0,0.03,0.004,0.182,0.001,0.055,-0.045,-0.351,0.365
2024-11-02 23:09:24.732,41039.49,-0.042,0.342,-0.939,-0.01,0.029,0.004,0.143,0.015,0.057,-0.045,-0.349,0.365
2024-11-02 23:09:24.743,41039.5,-0.042,0.341,-0.939,-0.006,0.008,0.005,0.083,0.012,0.028,-0.045,-0.348,0.366
2024-11-02 23:09:24.752,41039.51,-0.042,0.341,-0.939,-0.005,-0.028,0.01,0.019,-0.009,0.026,-0.044,-0.348,0.366
2024-11-02 23:09:24.762,41039.52,-0.042,0.341,-0.939,-0.005,-0.055,0.009,-0.042,-0.027,0.027,-0.045,-0.348,0.366
2024-11-02 23:09:24.772,41039.53,-0.042,0.342,-0.939,-0.001,-0.037,0.01,-0.09,-0.055,0.016,-0.045,-0.349,0.367
2024-11-02 23:09:24.782,41039.54,-0.043,0.343,-0.938,-0.003,-0.037,0.008,-0.125,-0.085,0.006,-0.046,-0.35,0.367
2024-11-02 23:09:24.793,41039.55,-0.044,0.344,-0.938,-0.0,-0.037,0.005,-0.15,-0.105,-0.006,-0.047,-0.351,0.367
2024-11-02 23:09:24.803,41039.56,-0.045,0.345,-0.937,0.01,-0.023,0.002,-0.151,-0.098,-0.005,-0.048,-0.353,0.366
2024-11-02 23:09:24.813,41039.57,-0.046,0.347,-0.937,0.007,-0.016,0.004,-0.136,-0.069,0.007,-0.049,-0.354,0.366
2024-11-02 23:09:24.822,41039.58,-0.046,0.348,-0.936,-0.001,-0.003,0.008,-0.094,-0.041,0.021,-0.049,-0.355,0.367
2024-11-02 23:09:24.832,41039.59,-0.046,0.348,-0.936,-0.005,0.016,0.008,-0.036,-0.013,0.022,-0.049,-0.356,0.367
2024-11-02 23:09:24.842,41039.6,-0.046,0.348,-0.936,-0.003,0.027,0.011,0.049,0.01,0.015,-0.049,-0.356,0.367
2024-11-02 23:09:24.852,41039.61,-0.046,0.348,-0.937,-0.0,0.034,0.015,0.086,0.024,0.023,-0.049,-0.355,0.367
2024-11-02 23:09:24.862,41039.62,-0.046,0.347,-0.937,-0.0,0.055,0.014,0.104,0.011,0.023,-0.049,-0.354,0.367
2024-11-02 23:09:24.872,41039.63,-0.046,0.346,-0.937,0.003,0.043,0.007,0.087,-0.001,0.013,-0.049,-0.353,0.368
2024-11-02 23:09:24.882,41039.64,-0.046,0.345,-0.937,0.004,0.003,-0.0,0.063,-0.002,0.003,-0.049,-0.352,0.368
2024-11-02 23:09:24.892,41039.65,-0.046,0.345,-0.938,0.002,-0.007,0.007,0.039,-0.01,0.007,-0.049,-0.352,0.368
2024-11-02 23:09:24.902,41039.66,-0.046,0.344,-0.938,-0.003,-0.024,0.008,0.032,0.004,0.002,-0.049,-0.351,0.368
2024-11-02 23:09:24.912,41039.67,-0.046,0.344,-0.938,0.002,-0.015,0.011,0.043,-0.005,0.005,-0.049,-0.351,0.368
2024-11-02 23:09:24.922,41039.68,-0.046,0.343,-0.938,-0.001,-0.002,0.012,0.061,-0.014,0.005,-0.049,-0.351,0.368
2024-11-02 23:09:24.933,41039.69,-0.046,0.343,-0.938,0.0,0.005,0.006,0.071,-0.017,0.008,-0.049,-0.35,0.368
2024-11-02 23:09:24.942,41039.7,-0.046,0.342,-0.938,0.007,0.024,0.003,0.074,-0.002,0.009,-0.049,-0.349,0.368
2024-11-02 23:09:24.952,41039.71,-0.046,0.342,-0.939,0.0,0.019,0.008,0.072,-0.008,0.008,-0.049,-0.349,0.368
2024-11-02 23:09:24.962,41039.72,-0.046,0.341,-0.939,-0.003,0.001,0.009,0.049,-0.015,0.003,-0.049,-0.348,0.368
2024-11-02 23:09:24.972,41039.73,-0.046,0.341,-0.939,0.0,-0.004,0.004,0.019,-0.026,-0.002,-0.049,-0.348,0.368
2024-11-02 23:09:24.982,41039.74,-0.046,0.341,-0.939,0.001,-0.011,0.005,-0.018,-0.038,-0.006,-0.049,-0.348,0.368
2024-11-02 23:09:24.992,41039.75,-0.047,0.341,-0.939,-0.001,-0.027,0.004,-0.026,-0.041,-0.008,-0.05,-0.348,0.368
2024-11-02 23:09:25.002,41039.76,-0.047,0.341,-0.939,0.005,-0.02,0.005,-0.013,-0.039,0.0,-0.05,-0.348,0.368
2024-11-02 23:09:25.012,41039.77,-0.047,0.341,-0.939,0.004,-0.004,0.006,0.013,-0.021,0.015,-0.051,-0.348,0.368
2024-11-02 23:09:25.022,41039.78,-0.048,0.341,-0.939,0.001,0.019,0.001,0.053,0.0,0.025,-0.051,-0.348,0.369
2024-11-02 23:09:25.032,41039.79,-0.047,0.34,-0.939,0.003,0.037,-0.003,0.086,0.009,0.038,-0.05,-0.347,0.369
2024-11-02 23:09:25.042,41039.8,-0.047,0.34,-0.939,0.002,0.038,-0.003,0.09,0.031,0.071,-0.05,-0.346,0.37
2024-11-02 23:09:25.052,41039.81,-0.046,0.339,-0.94,-0.001,0.03,0.009,0.14,0.013,0.081,-0.049,-0.345,0.371
2024-11-02 23:09:25.062,41039.82,-0.046,0.337,-0.94,0.005,0.026,0.015,0.147,0.037,0.04,-0.049,-0.344,0.371
2024-11-02 23:09:25.072,41039.83,-0.045,0.336,-0.941,0.005,0.01,0.029,0.126,0.04,0.059,-0.048,-0.342,0.372
2024-11-02 23:09:25.081,41039.84,-0.045,0.335,-0.941,-0.017,0.01,0.028,0.08,0.029,0.04,-0.047,-0.341,0.373
2024-11-02 23:09:25.092,41039.85,-0.044,0.334,-0.941,-0.009,-0.024,0.021,0.037,-0.001,0.025,-0.047,-0.341,0.373
2024-11-02 23:09:25.102,41039.86,-0.044,0.334,-0.941,-0.001,-0.051,0.012,0.003,-0.013,0.011,-0.047,-0.341,0.373
2024-11-02 23:09:25.112,41039.87,-0.045,0.334,-0.941,0.011,-0.037,0.012,-0.015,-0.007,0.01,-0.047,-0.341,0.373
2024-11-02 23:09:25.122,41039.88,-0.045,0.335,-0.941,0.002,-0.025,0.008,-0.023,0.008,0.005,-0.047,-0.341,0.373
2024-11-02 23:09:25.132,41039.89,-0.044,0.335,-0.941,-0.004,-0.014,0.007,-0.025,0.011,0.006,-0.047,-0.341,0.373
2024-11-02 23:09:25.142,41039.9,-0.044,0.335,-0.941,-0.008,-0.002,0.007,-0.025,-0.004,-0.005,-0.047,-0.342,0.373
2024-11-02 23:09:25.151,41039.91,-0.044,0.335,-0.941,-0.001,-0.003,0.007,-0.013,-0.01,-0.007,-0.047,-0.342,0.373
2024-11-02 23:09:25.162,41039.92,-0.045,0.335,-0.941,0.007,0.001,0.005,-0.002,-0.013,-0.01,-0.047,-0.342,0.373
2024-11-02 23:09:25.172,41039.93,-0.045,0.335,-0.941,-0.001,0.007,0.001,0.01,-0.02,-0.007,-0.048,-0.342,0.373
2024-11-02 23:09:25.182,41039.94,-0.045,0.335,-0.941,0.002,0.016,0.004,0.014,-0.025,-0.006,-0.048,-0.342,0.373
2024-11-02 23:09:25.192,41039.95,-0.045,0.335,-0.941,0.003,0.01,0.007,0.012,-0.009,-0.009,-0.048,-0.342,0.373
2024-11-02 23:09:25.202,41039.96,-0.045,0.335,-0.941,0.005,-0.0,0.005,0.03,0.0,-0.005,-0.048,-0.341,0.373
2024-11-02 23:09:25.212,41039.97,-0.045,0.334,-0.941,0.001,0.003,0.003,0.039,-0.012,0.001,-0.048,-0.341,0.373
2024-11-02 23:09:25.222,41039.98,-0.046,0.334,-0.942,0.002,0.011,0.009,0.056,-0.02,-0.001,-0.048,-0.34,0.373
2024-11-02 23:09:25.232,41039.99,-0.046,0.333,-0.942,0.005,0.018,0.006,0.053,-0.001,0.002,-0.048,-0.34,0.373
2024-11-02 23:09:25.242,41040.0,-0.046,0.333,-0.942,0.004,0.012,0.007,0.035,0.018,-0.003,-0.048,-0.339,0.373
2024-11-02 23:09:25.252,41040.01,-0.045,0.333,-0.942,-0.004,0.004,0.01,0.013,0.024,-0.007,-0.048,-0.339,0.373
2024-11-02 23:09:25.262,41040.02,-0.045,0.333,-0.942,-0.004,-0.015,0.009,0.003,0.027,-0.013,-0.048,-0.339,0.373
2024-11-02 23:09:25.272,41040.03,-0.045,0.333,-0.942,-0.001,-0.019,0.012,0.017,0.05,-0.023,-0.048,-0.339,0.373
2024-11-02 23:09:25.282,41040.04,-0.044,0.332,-0.942,-0.004,-0.006,0.007,0.051,0.064,-0.018,-0.047,-0.339,0.372
2024-11-02 23:09:25.292,41040.05,-0.044,0.332,-0.942,-0.013,0.01,0.006,0.086,0.082,-0.016,-0.046,-0.338,0.372
2024-11-02 23:09:25.302,41040.06,-0.043,0.331,-0.943,-0.009,0.019,0.009,0.118,0.09,-0.006,-0.046,-0.337,0.372
2024-11-02 23:09:25.312,41040.069,-0.042,0.33,-0.943,-0.007,0.022,0.005,0.105,0.084,0.003,-0.045,-0.336,0.372
2024-11-02 23:09:25.321,41040.079,-0.041,0.329,-0.943,-0.008,0.017,0.005,0.057,0.086,0.011,-0.044,-0.335,0.372
2024-11-02 23:09:25.331,41040.089,-0.041,0.329,-0.944,-0.003,-0.0,0.008,0.011,0.066,0.009,-0.043,-0.335,0.373
2024-11-02 23:09:25.341,41040.099,-0.04,0.329,-0.944,0.001,-0.034,0.004,-0.016,0.064,0.019,-0.042,-0.335,0.373
2024-11-02 23:09:25.351,41040.109,-0.039,0.329,-0.944,0.005,-0.04,0.015,-0.035,0.162,0.036,-0.041,-0.335,0.373
2024-11-02 23:09:25.361,41040.119,-0.037,0.329,-0.944,0.004,-0.01,0.01,-0.004,0.253,0.053,-0.039,-0.335,0.373
2024-11-02 23:09:25.371,41040.129,-0.034,0.329,-0.944,-0.026,0.004,-0.01,0.062,0.366,0.077,-0.036,-0.335,0.374
2024-11-02 23:09:25.381,41040.139,-0.03,0.328,-0.944,-0.033,0.012,0.016,0.164,0.307,0.128,-0.032,-0.334,0.375
2024-11-02 23:09:25.391,41040.149,-0.027,0.327,-0.945,-0.026,0.032,0.033,0.165,0.263,0.115,-0.029,-0.333,0.376
2024-11-02 23:09:25.402,41040.159,-0.025,0.325,-0.945,-0.006,0.073,0.007,0.148,0.217,0.119,-0.026,-0.331,0.378
2024-11-02 23:09:25.411,41040.169,-0.022,0.324,-0.946,0.016,0.066,-0.027,0.068,0.199,0.133,-0.024,-0.33,0.379
2024-11-02 23:09:25.421,41040.179,-0.02,0.324,-0.946,-0.015,-0.009,-0.038,-0.015,0.19,0.172,-0.021,-0.33,0.381
2024-11-02 23:09:25.431,41040.189,-0.017,0.324,-0.946,-0.023,-0.027,-0.031,-0.102,0.26,0.223,-0.018,-0.33,0.383
2024-11-02 23:09:25.441,41040.199,-0.013,0.325,-0.945,-0.015,-0.016,-0.029,-0.114,0.408,0.354,-0.014,-0.332,0.386
2024-11-02 23:09:25.452,41040.209,-0.008,0.327,-0.945,-0.04,-0.014,-0.027,-0.183,0.501,0.383,-0.009,-0.333,0.389
2024-11-02 23:09:25.461,41040.219,-0.002,0.329,-0.944,-0.056,-0.007,-0.015,-0.233,0.572,0.572,-0.002,-0.335,0.395
2024-11-02 23:09:25.471,41040.229,0.006,0.332,-0.943,-0.054,-0.008,0.007,-0.309,0.68,0.538,0.007,-0.338,0.4
2024-11-02 23:09:25.481,41040.239,0.014,0.335,-0.942,-0.038,-0.018,0.015,-0.385,0.654,0.662,0.015,-0.341,0.407
2024-11-02 23:09:25.491,41040.249,0.023,0.339,-0.941,-0.075,-0.033,0.002,-0.491,0.592,0.701,0.024,-0.346,0.414
2024-11-02 23:09:25.501,41040.259,0.029,0.345,-0.938,-0.039,-0.037,-0.013,-1.014,0.241,0.54,0.031,-0.352,0.421
2024-11-02 23:09:25.511,41040.269,0.033,0.355,-0.934,-0.034,-0.039,-0.048,-1.115,0.221,0.561,0.035,-0.363,0.427
2024-11-02 23:09:25.521,41040.279,0.037,0.365,-0.93,-0.068,-0.091,-0.031,-1.088,0.259,0.591,0.04,-0.374,0.434
2024-11-02 23:09:25.531,41040.289,0.043,0.374,-0.927,-0.023,-0.042,-0.035,-0.763,0.593,0.687,0.047,-0.383,0.441
2024-11-02 23:09:25.541,41040.299,0.052,0.38,-0.924,-0.029,0.133,-0.026,-0.647,0.656,0.685,0.056,-0.389,0.449
2024-11-02 23:09:25.551,41040.309,0.06,0.385,-0.921,-0.004,0.126,-0.058,-0.65,0.644,0.699,0.065,-0.395,0.457
2024-11-02 23:09:25.561,41040.319,0.069,0.391,-0.918,-0.032,0.15,-0.075,-0.765,0.597,0.735,0.075,-0.402,0.465
2024-11-02 23:09:25.572,41040.329,0.077,0.398,-0.914,-0.03,0.119,-0.044,-0.884,0.584,0.789,0.084,-0.409,0.474
2024-11-02 23:09:25.581,41040.339,0.086,0.406,-0.91,-0.002,0.083,-0.03,-1.001,0.645,0.829,0.094,-0.418,0.484
2024-11-02 23:09:25.591,41040.349,0.095,0.415,-0.905,-0.023,0.071,-0.021,-1.056,0.694,0.854,0.105,-0.428,0.494
2024-11-02 23:09:25.601,41040.359,0.106,0.423,-0.9,-0.042,0.044,-0.02,-1.021,0.796,0.911,0.117,-0.437,0.505
2024-11-02 23:09:25.611,41040.369,0.117,0.431,-0.895,-0.054,0.042,-0.023,-0.912,0.807,0.956,0.13,-0.445,0.516
2024-11-02 23:09:25.621,41040.379,0.128,0.437,-0.89,-0.062,0.102,-0.012,-0.66,0.792,0.947,0.143,-0.452,0.528
2024-11-02 23:09:25.631,41040.389,0.139,0.441,-0.887,-0.053,0.148,0.005,-0.57,0.779,0.972,0.156,-0.456,0.539
2024-11-02 23:09:25.641,41040.399,0.151,0.445,-0.883,-0.045,0.17,0.016,-0.71,0.786,1.004,0.169,-0.461,0.551
2024-11-02 23:09:25.651,41040.409,0.162,0.451,-0.878,-0.039,0.173,0.051,-0.938,0.738,1.023,0.182,-0.467,0.564
2024-11-02 23:09:25.661,41040.419,0.173,0.458,-0.872,-0.017,0.091,0.062,-1.156,0.663,1.023,0.196,-0.476,0.578
2024-11-02 23:09:25.671,41040.429,0.183,0.467,-0.865,-0.02,0.061,0.043,-1.393,0.606,0.971,0.208,-0.486,0.592
2024-11-02 23:09:25.681,41040.439,0.192,0.478,-0.857,-0.01,0.084,0.035,-1.611,0.547,0.925,0.221,-0.499,0.606
2024-11-02 23:09:25.691,41040.449,0.201,0.491,-0.848,-0.019,0.093,0.047,-1.827,0.472,0.892,0.233,-0.514,0.62
2024-11-02 23:09:25.701,41040.459,0.209,0.506,-0.837,-0.02,0.084,0.056,-2.009,0.405,0.841,0.245,-0.53,0.635
2024-11-02 23:09:25.711,41040.469,0.216,0.521,-0.826,-0.016,0.06,0.06,-2.177,0.308,0.824,0.256,-0.548,0.651
2024-11-02 23:09:25.721,41040.479,0.223,0.538,-0.813,-0.019,0.014,0.085,-2.316,0.201,0.853,0.267,-0.568,0.667
2024-11-02 23:09:25.731,41040.489,0.228,0.555,-0.8,-0.007,-0.024,0.104,-2.313,0.01,0.888,0.278,-0.588,0.684
2024-11-02 23:09:25.741,41040.499,0.233,0.57,-0.788,-0.002,-0.008,0.077,-2.11,-0.147,0.869,0.287,-0.607,0.702
2024-11-02 23:09:25.751,41040.509,0.236,0.584,-0.777,-0.006,0.023,0.014,-1.807,-0.236,0.847,0.295,-0.623,0.719
2024-11-02 23:09:25.761,41040.519,0.239,0.594,-0.768,-0.003,0.066,-0.047,-1.57,-0.336,0.829,0.302,-0.637,0.735
2024-11-02 23:09:25.771,41040.529,0.241,0.604,-0.76,-0.019,0.077,-0.081,-1.534,-0.407,0.811,0.307,-0.649,0.75
2024-11-02 23:09:25.781,41040.539,0.242,0.614,-0.751,-0.029,0.025,-0.084,-1.694,-0.44,0.791,0.312,-0.662,0.766
2024-11-02 23:09:25.791,41040.549,0.244,0.626,-0.74,-0.03,-0.018,-0.05,-2.056,-0.448,0.787,0.318,-0.677,0.783
2024-11-02 23:09:25.800,41040.559,0.245,0.641,-0.727,-0.054,-0.023,0.006,-2.512,-0.487,0.744,0.326,-0.696,0.802
2024-11-02 23:09:25.811,41040.569,0.246,0.659,-0.711,-0.072,-0.019,0.065,-2.983,-0.614,0.704,0.334,-0.72,0.823
2024-11-02 23:09:25.821,41040.579,0.246,0.68,-0.691,-0.075,-0.045,0.111,-3.351,-0.763,0.626,0.342,-0.747,0.845
2024-11-02 23:09:25.831,41040.589,0.244,0.702,-0.669,-0.072,-0.085,0.116,-3.484,-0.846,0.565,0.35,-0.778,0.869
2024-11-02 23:09:25.841,41040.599,0.243,0.723,-0.647,-0.072,-0.116,0.065,-3.387,-0.883,0.519,0.359,-0.808,0.893
2024-11-02 23:09:25.851,41040.609,0.241,0.743,-0.625,-0.064,-0.109,0.009,-3.275,-0.769,0.507,0.368,-0.837,0.918
2024-11-02 23:09:25.861,41040.619,0.24,0.761,-0.602,-0.045,-0.072,-0.033,-3.173,-0.713,0.538,0.38,-0.865,0.943
2024-11-02 23:09:25.871,41040.629,0.24,0.779,-0.58,-0.056,-0.052,-0.027,-3.143,-0.819,0.533,0.393,-0.893,0.969
2024-11-02 23:09:25.881,41040.639,0.239,0.795,-0.557,-0.087,-0.047,-0.009,-3.043,-0.915,0.473,0.405,-0.919,0.996
2024-11-02 23:09:25.891,41040.649,0.238,0.81,-0.536,-0.088,-0.029,0.045,-2.859,-1.011,0.463,0.417,-0.944,1.023
2024-11-02 23:09:25.901,41040.659,0.236,0.823,-0.516,-0.049,-0.066,0.086,-2.609,-1.083,0.479,0.429,-0.967,1.05
2024-11-02 23:09:25.911,41040.669,0.235,0.835,-0.498,-0.01,-0.106,0.064,-2.302,-1.026,0.489,0.44,-0.988,1.076
2024-11-02 23:09:25.921,41040.678,0.234,0.844,-0.483,0.001,-0.088,-0.02,-1.988,-0.96,0.509,0.451,-1.005,1.102
2024-11-02 23:09:25.931,41040.688,0.233,0.852,-0.469,-0.007,-0.04,-0.077,-1.762,-1.027,0.472,0.462,-1.019,1.126
2024-11-02 23:09:25.941,41040.698,0.232,0.859,-0.457,-0.036,-0.002,-0.096,-1.603,-1.083,0.339,0.47,-1.033,1.147
2024-11-02 23:09:25.951,41040.708,0.23,0.865,-0.447,-0.055,0.035,-0.077,-1.296,-1.002,0.203,0.474,-1.044,1.165
2024-11-02 23:09:25.961,41040.718,0.227,0.87,-0.438,-0.051,0.034,-0.027,-1.271,-0.897,0.269,0.479,-1.054,1.18
2024-11-02 23:09:25.970,41040.728,0.226,0.875,-0.429,-0.015,-0.072,0.052,-1.384,-0.864,0.261,0.485,-1.065,1.198
2024-11-02 23:09:25.980,41040.738,0.224,0.88,-0.418,0.003,-0.196,0.091,-1.406,-0.898,0.155,0.492,-1.076,1.216
2024-11-02 23:09:25.990,41040.748,0.221,0.886,-0.408,0.009,-0.259,0.094,-1.333,-0.952,0.07,0.497,-1.088,1.231
2024-11-02 23:09:26.000,41040.758,0.218,0.891,-0.399,0.054,-0.17,0.029,-1.143,-0.976,-0.04,0.499,-1.099,1.245
2024-11-02 23:09:26.010,41040.768,0.213,0.895,-0.392,0.065,-0.018,-0.076,-0.905,-1.006,-0.166,0.497,-1.108,1.254
2024-11-02 23:09:26.020,41040.778,0.207,0.899,-0.387,0.02,0.066,-0.184,-0.817,-1.022,-0.305,0.491,-1.117,1.258
2024-11-02 23:09:26.030,41040.788,0.199,0.903,-0.382,0.004,0.109,-0.255,-0.834,-1.048,-0.392,0.482,-1.126,1.26
2024-11-02 23:09:26.040,41040.798,0.192,0.907,-0.376,0.018,0.087,-0.262,-0.932,-1.098,-0.407,0.472,-1.135,1.261
2024-11-02 23:09:26.050,41040.808,0.184,0.911,-0.369,0.056,-0.012,-0.213,-0.969,-1.129,-0.38,0.463,-1.146,1.263
2024-11-02 23:09:26.060,41040.818,0.177,0.915,-0.363,0.089,-0.132,-0.163,-0.898,-1.026,-0.286,0.454,-1.155,1.265
2024-11-02 23:09:26.070,41040.828,0.171,0.919,-0.356,0.099,-0.226,-0.135,-0.828,-0.819,-0.23,0.449,-1.164,1.269
2024-11-02 23:09:26.080,41040.838,0.167,0.922,-0.35,0.078,-0.229,-0.115,-0.768,-0.611,-0.158,0.445,-1.172,1.273
2024-11-02 23:09:26.090,41040.848,0.164,0.924,-0.344,0.04,-0.177,-0.121,-0.732,-0.412,-0.123,0.445,-1.18,1.278
2024-11-02 23:09:26.101,41040.858,0.162,0.927,-0.338,-0.006,-0.125,-0.157,-0.772,-0.174,-0.127,0.447,-1.187,1.284
2024-11-02 23:09:26.110,41040.868,0.161,0.93,-0.33,-0.059,-0.074,-0.185,-0.867,0.052,-0.126,0.453,-1.195,1.29
2024-11-02 23:09:26.120,41040.878,0.16,0.933,-0.322,-0.097,-0.051,-0.209,-0.908,0.252,-0.14,0.461,-1.203,1.298
2024-11-02 23:09:26.131,41040.888,0.16,0.936,-0.312,-0.098,-0.065,-0.231,-0.954,0.398,-0.109,0.473,-1.212,1.307
2024-11-02 23:09:26.141,41040.898,0.16,0.94,-0.303,-0.07,-0.1,-0.237,-0.968,0.462,-0.141,0.486,-1.221,1.316
2024-11-02 23:09:26.150,41040.908,0.16,0.943,-0.293,-0.057,-0.119,-0.224,-0.908,0.488,-0.2,0.499,-1.231,1.325
2024-11-02 23:09:26.160,41040.918,0.159,0.945,-0.284,-0.05,-0.103,-0.214,-0.777,0.491,-0.231,0.51,-1.239,1.332
2024-11-02 23:09:26.170,41040.928,0.158,0.948,-0.277,-0.037,-0.093,-0.223,-0.579,0.473,-0.258,0.518,-1.246,1.335
2024-11-02 23:09:26.180,41040.938,0.157,0.949,-0.272,-0.027,-0.112,-0.213,-0.298,0.461,-0.299,0.522,-1.251,1.335
2024-11-02 23:09:26.190,41040.948,0.155,0.95,-0.27,-0.026,-0.102,-0.189,0.064,0.543,-0.315,0.521,-1.254,1.328
2024-11-02 23:09:26.200,41040.958,0.154,0.95,-0.272,-0.034,-0.053,-0.17,0.411,0.579,-0.274,0.515,-1.253,1.316
2024-11-02 23:09:26.211,41040.968,0.153,0.949,-0.276,-0.061,-0.027,-0.142,0.584,0.587,-0.302,0.506,-1.25,1.3
2024-11-02 23:09:26.220,41040.978,0.151,0.948,-0.281,-0.089,-0.033,-0.098,0.66,0.587,-0.35,0.494,-1.246,1.282
2024-11-02 23:09:26.230,41040.988,0.15,0.946,-0.286,-0.084,-0.049,-0.043,0.654,0.566,-0.317,0.482,-1.242,1.263
2024-11-02 23:09:26.240,41040.998,0.148,0.945,-0.291,-0.059,-0.072,-0.007,0.584,0.482,-0.313,0.471,-1.238,1.245
2024-11-02 23:09:26.250,41041.008,0.147,0.944,-0.295,-0.05,-0.106,0.025,0.413,0.339,-0.329,0.46,-1.235,1.23
2024-11-02 23:09:26.260,41041.018,0.144,0.944,-0.298,-0.041,-0.128,0.057,0.267,0.216,-0.302,0.451,-1.233,1.217
2024-11-02 23:09:26.271,41041.028,0.142,0.943,-0.3,-0.016,-0.097,0.077,0.125,0.107,-0.288,0.442,-1.233,1.206
2024-11-02 23:09:26.280,41041.038,0.14,0.944,-0.3,0.004,-0.063,0.091,0.009,0.049,-0.287,0.435,-1.233,1.198
2024-11-02 23:09:26.290,41041.048,0.137,0.944,-0.3,-0.014,-0.019,0.115,-0.088,-0.009,-0.324,0.428,-1.235,1.19
2024-11-02 23:09:26.300,41041.058,0.133,0.945,-0.299,-0.044,0.028,0.161,-0.125,-0.085,-0.372,0.42,-1.237,1.182
2024-11-02 23:09:26.310,41041.068,0.129,0.946,-0.298,-0.051,0.064,0.203,-0.075,-0.17,-0.39,0.409,-1.24,1.172
2024-11-02 23:09:26.320,41041.078,0.125,0.946,-0.298,-0.021,0.072,0.212,0.017,-0.265,-0.383,0.397,-1.242,1.161
2024-11-02 23:09:26.330,41041.088,0.121,0.947,-0.299,0.014,0.058,0.194,0.144,-0.362,-0.366,0.383,-1.242,1.15
2024-11-02 23:09:26.340,41041.098,0.116,0.946,-0.302,0.044,0.051,0.163,0.242,-0.451,-0.377,0.367,-1.242,1.137
2024-11-02 23:09:26.350,41041.108,0.111,0.946,-0.305,0.068,0.059,0.122,0.345,-0.522,-0.4,0.348,-1.241,1.123
2024-11-02 23:09:26.360,41041.118,0.105,0.945,-0.309,0.089,0.073,0.099,0.431,-0.555,-0.418,0.328,-1.238,1.107
2024-11-02 23:09:26.370,41041.128,0.1,0.944,-0.314,0.087,0.073,0.088,0.474,-0.562,-0.383,0.307,-1.235,1.091
2024-11-02 23:09:26.380,41041.138,0.095,0.943,-0.319,0.077,0.058,0.086,0.488,-0.531,-0.317,0.288,-1.232,1.076
2024-11-02 23:09:26.390,41041.148,0.09,0.942,-0.324,0.071,0.023,0.087,0.408,-0.504,-0.283,0.272,-1.228,1.064
2024-11-02 23:09:26.400,41041.158,0.086,0.941,-0.328,0.064,-0.016,0.079,0.306,-0.507,-0.247,0.257,-1.225,1.054
2024-11-02 23:09:26.410,41041.168,0.082,0.94,-0.33,0.057,-0.03,0.075,0.195,-0.504,-0.235,0.244,-1.223,1.045
2024-11-02 23:09:26.420,41041.178,0.078,0.94,-0.333,0.061,-0.004,0.074,0.249,-0.453,-0.229,0.231,-1.222,1.037
2024-11-02 23:09:26.430,41041.188,0.075,0.939,-0.336,0.059,0.037,0.066,0.373,-0.367,-0.18,0.22,-1.219,1.029
2024-11-02 23:09:26.439,41041.198,0.072,0.938,-0.34,0.053,0.049,0.036,0.515,-0.255,-0.139,0.21,-1.215,1.022
2024-11-02 23:09:26.449,41041.208,0.07,0.936,-0.345,0.055,0.073,0.002,0.53,-0.166,-0.131,0.201,-1.21,1.015
2024-11-02 23:09:26.459,41041.218,0.069,0.934,-0.35,0.046,0.099,-0.014,0.496,-0.154,-0.132,0.194,-1.206,1.009
2024-11-02 23:09:26.470,41041.228,0.067,0.933,-0.355,0.026,0.103,-0.017,0.392,-0.156,-0.147,0.186,-1.201,1.002
2024-11-02 23:09:26.480,41041.238,0.065,0.932,-0.358,0.011,0.066,-0.03,0.2,-0.079,-0.107,0.181,-1.199,0.997
2024-11-02 23:09:26.490,41041.248,0.064,0.931,-0.359,0.007,0.033,-0.007,0.095,-0.08,-0.053,0.177,-1.198,0.995
2024-11-02 23:09:26.499,41041.258,0.064,0.931,-0.36,-0.002,0.007,0.029,0.18,-0.061,-0.025,0.175,-1.196,0.993
2024-11-02 23:09:26.509,41041.268,0.064,0.93,-0.363,-0.014,0.02,0.018,0.47,-0.004,0.029,0.173,-1.193,0.992
2024-11-02 23:09:26.520,41041.278,0.064,0.927,-0.369,-0.035,0.108,-0.035,0.779,0.069,0.041,0.172,-1.187,0.99
2024-11-02 23:09:26.530,41041.287,0.065,0.924,-0.377,-0.029,0.188,-0.124,0.991,0.108,0.067,0.17,-1.178,0.987
2024-11-02 23:09:26.540,41041.297,0.066,0.92,-0.386,-0.032,0.224,-0.169,1.024,0.131,0.111,0.169,-1.168,0.985
2024-11-02 23:09:26.549,41041.307,0.068,0.916,-0.395,-0.032,0.193,-0.169,0.83,0.077,0.12,0.17,-1.159,0.984
2024-11-02 23:09:26.559,41041.317,0.069,0.913,-0.402,-0.013,0.104,-0.121,0.71,0.084,0.088,0.17,-1.151,0.983
2024-11-02 23:09:26.569,41041.327,0.07,0.91,-0.408,0.004,0.01,-0.058,0.668,0.058,0.08,0.17,-1.144,0.982
2024-11-02 23:09:26.579,41041.337,0.071,0.908,-0.414,0.014,-0.04,-0.03,0.615,0.025,0.069,0.17,-1.137,0.982
2024-11-02 23:09:26.589,41041.347,0.071,0.905,-0.419,0.005,-0.058,0.001,0.561,-0.062,0.013,0.168,-1.132,0.98
2024-11-02 23:09:26.600,41041.357,0.071,0.903,-0.424,-0.015,-0.078,0.031,0.548,-0.163,-0.033,0.165,-1.126,0.978
2024-11-02 23:09:26.610,41041.367,0.069,0.901,-0.429,-0.011,-0.101,0.059,0.534,-0.217,-0.063,0.16,-1.121,0.975
2024-11-02 23:09:26.619,41041.377,0.068,0.898,-0.434,-0.015,-0.128,0.096,0.601,-0.261,-0.07,0.154,-1.116,0.971
2024-11-02 23:09:26.630,41041.387,0.066,0.895,-0.44,-0.035,-0.168,0.142,0.677,-0.256,-0.074,0.148,-1.109,0.967
2024-11-02 23:09:26.640,41041.397,0.064,0.892,-0.447,-0.031,-0.195,0.173,0.781,-0.196,-0.075,0.143,-1.102,0.963
2024-11-02 23:09:26.649,41041.407,0.063,0.889,-0.455,-0.026,-0.132,0.173,0.893,-0.132,-0.049,0.137,-1.094,0.959
2024-11-02 23:09:26.659,41041.417,0.062,0.884,-0.463,-0.034,-0.046,0.125,0.98,-0.074,0.012,0.133,-1.085,0.956
2024-11-02 23:09:26.669,41041.427,0.062,0.88,-0.472,-0.025,0.007,0.075,1.014,-0.028,0.1,0.132,-1.075,0.955
2024-11-02 23:09:26.679,41041.437,0.064,0.875,-0.48,-0.004,0.047,0.046,0.951,0.006,0.174,0.132,-1.065,0.955
2024-11-02 23:09:26.689,41041.447,0.065,0.87,-0.488,0.01,0.074,0.032,0.88,0.008,0.213,0.133,-1.056,0.956
2024-11-02 23:09:26.699,41041.457,0.067,0.866,-0.496,0.02,0.087,0.014,0.868,-0.016,0.168,0.134,-1.047,0.958
2024-11-02 23:09:26.709,41041.467,0.068,0.861,-0.504,0.035,0.082,-0.019,0.913,-0.053,0.108,0.134,-1.038,0.958
2024-11-02 23:09:26.719,41041.477,0.069,0.856,-0.512,0.037,0.088,-0.046,0.937,-0.061,0.095,0.133,-1.028,0.958
2024-11-02 23:09:26.730,41041.487,0.069,0.852,-0.52,0.024,0.088,-0.032,0.949,-0.052,0.137,0.132,-1.019,0.957
2024-11-02 23:09:26.739,41041.497,0.071,0.846,-0.528,0.02,0.035,0.031,0.976,0.049,0.27,0.134,-1.009,0.959
2024-11-02 23:09:26.749,41041.507,0.074,0.841,-0.536,0.03,-0.038,0.077,1.027,0.168,0.34,0.137,-0.999,0.962
2024-11-02 23:09:26.759,41041.517,0.078,0.835,-0.545,0.05,-0.028,0.097,1.08,0.228,0.319,0.142,-0.988,0.965
2024-11-02 23:09:26.769,41041.527,0.084,0.827,-0.556,0.05,0.002,0.085,2.279,0.722,1.128,0.15,-0.973,0.971
2024-11-02 23:09:26.779,41041.537,0.091,0.817,-0.57,0.062,0.009,0.011,1.291,0.396,0.095,0.158,-0.956,0.975
2024-11-02 23:09:26.789,41041.547,0.093,0.81,-0.579,0.247,0.095,-0.268,1.052,0.08,0.049,0.159,-0.944,0.973
2024-11-02 23:09:26.799,41041.557,0.093,0.804,-0.587,0.059,0.232,-0.21,0.927,-0.022,0.016,0.157,-0.934,0.971
2024-11-02 23:09:26.809,41041.567,0.093,0.799,-0.594,-0.05,0.133,-0.076,0.809,-0.003,-0.079,0.155,-0.926,0.969
2024-11-02 23:09:26.819,41041.577,0.092,0.795,-0.6,0.075,-0.047,0.005,0.642,0.059,-0.112,0.153,-0.919,0.965
2024-11-02 23:09:26.829,41041.587,0.092,0.792,-0.604,0.027,-0.051,0.013,0.436,0.109,-0.163,0.151,-0.914,0.962
2024-11-02 23:09:26.839,41041.597,0.091,0.79,-0.606,-0.032,-0.091,-0.022,0.17,0.117,-0.209,0.149,-0.911,0.958
2024-11-02 23:09:26.849,41041.607,0.09,0.79,-0.607,-0.017,-0.129,-0.045,-0.049,0.114,-0.183,0.147,-0.91,0.955
2024-11-02 23:09:26.859,41041.617,0.089,0.791,-0.606,-0.024,-0.07,-0.059,-0.195,0.095,-0.199,0.146,-0.912,0.952
2024-11-02 23:09:26.869,41041.627,0.088,0.792,-0.604,-0.002,-0.086,-0.047,-0.283,0.046,-0.157,0.145,-0.915,0.95
2024-11-02 23:09:26.879,41041.637,0.087,0.794,-0.601,-0.003,-0.107,-0.035,-0.295,0.016,-0.145,0.144,-0.918,0.948
2024-11-02 23:09:26.889,41041.647,0.086,0.796,-0.599,0.002,-0.015,-0.025,-0.207,-0.003,-0.135,0.143,-0.92,0.946
2024-11-02 23:09:26.899,41041.657,0.085,0.797,-0.598,0.006,0.067,-0.01,-0.11,-0.018,-0.12,0.141,-0.922,0.945
2024-11-02 23:09:26.909,41041.667,0.084,0.797,-0.598,0.002,0.09,0.019,-0.005,-0.028,-0.079,0.14,-0.923,0.943
2024-11-02 23:09:26.919,41041.677,0.084,0.797,-0.598,0.003,0.057,0.037,0.039,-0.019,-0.003,0.139,-0.923,0.942
2024-11-02 23:09:26.929,41041.687,0.084,0.797,-0.598,0.004,-0.007,0.038,0.027,0.019,0.066,0.139,-0.922,0.943
2024-11-02 23:09:26.939,41041.697,0.085,0.797,-0.598,-0.017,-0.025,0.011,-0.014,0.059,0.088,0.141,-0.922,0.944
2024-11-02 23:09:26.949,41041.707,0.086,0.797,-0.598,-0.023,0.01,0.001,-0.067,0.049,0.106,0.143,-0.922,0.946
2024-11-02 23:09:26.959,41041.717,0.087,0.797,-0.597,-0.01,-0.015,0.004,-0.131,0.012,0.113,0.145,-0.923,0.948
2024-11-02 23:09:26.969,41041.727,0.088,0.798,-0.596,0.001,-0.064,-0.015,-0.184,-0.046,0.084,0.146,-0.925,0.95
2024-11-02 23:09:26.980,41041.737,0.088,0.799,-0.594,0.009,-0.031,-0.022,-0.166,-0.07,0.048,0.147,-0.926,0.952
2024-11-02 23:09:26.989,41041.747,0.088,0.8,-0.593,0.016,-0.003,-0.006,-0.131,-0.104,0.034,0.147,-0.928,0.953
2024-11-02 23:09:26.999,41041.757,0.087,0.801,-0.592,0.015,-0.001,-0.002,-0.097,-0.082,-0.015,0.146,-0.929,0.953
2024-11-02 23:09:27.009,41041.767,0.087,0.801,-0.592,0.011,0.037,0.002,-0.073,-0.056,-0.039,0.145,-0.93,0.953
2024-11-02 23:09:27.019,41041.777,0.086,0.802,-0.591,0.008,0.027,0.016,-0.081,-0.021,-0.044,0.145,-0.931,0.952
2024-11-02 23:09:27.029,41041.787,0.086,0.803,-0.59,0.003,-0.027,0.005,-0.106,-0.007,-0.057,0.144,-0.932,0.952
2024-11-02 23:09:27.039,41041.797,0.085,0.803,-0.589,-0.003,-0.031,-0.007,-0.149,0.011,-0.067,0.143,-0.933,0.951
2024-11-02 23:09:27.049,41041.807,0.085,0.804,-0.588,-0.0,-0.013,-0.006,-0.166,-0.004,-0.059,0.143,-0.934,0.95
2024-11-02 23:09:27.059,41041.817,0.084,0.805,-0.587,-0.0,-0.007,-0.008,-0.162,-0.026,-0.046,0.142,-0.936,0.95
2024-11-02 23:09:27.069,41041.827,0.084,0.806,-0.586,0.0,-0.012,-0.005,-0.125,-0.046,-0.028,0.142,-0.938,0.949
2024-11-02 23:09:27.078,41041.837,0.083,0.807,-0.585,0.003,-0.005,0.002,-0.066,-0.064,-0.029,0.141,-0.939,0.949
2024-11-02 23:09:27.088,41041.847,0.082,0.807,-0.585,0.004,0.019,0.01,0.012,-0.083,-0.034,0.14,-0.939,0.949
2024-11-02 23:09:27.098,41041.857,0.082,0.807,-0.585,0.008,0.038,0.017,0.074,-0.086,-0.034,0.139,-0.939,0.948
2024-11-02 23:09:27.109,41041.867,0.081,0.806,-0.586,0.01,0.032,0.025,0.099,-0.08,-0.023,0.137,-0.938,0.947
2024-11-02 23:09:27.118,41041.877,0.08,0.806,-0.587,0.006,0.012,0.016,0.099,-0.06,-0.0,0.136,-0.937,0.947
2024-11-02 23:09:27.128,41041.887,0.08,0.805,-0.588,-0.0,0.005,0.009,0.083,-0.028,0.023,0.136,-0.936,0.947
2024-11-02 23:09:27.139,41041.896,0.08,0.805,-0.588,-0.007,-0.008,0.007,0.021,-0.004,0.04,0.136,-0.935,0.947
2024-11-02 23:09:27.149,41041.906,0.081,0.805,-0.588,-0.011,-0.024,-0.002,-0.063,0.011,0.047,0.137,-0.935,0.948
2024-11-02 23:09:27.159,41041.916,0.081,0.805,-0.587,-0.007,-0.019,-0.014,-0.133,0.022,0.06,0.138,-0.936,0.949
2024-11-02 23:09:27.169,41041.926,0.082,0.806,-0.586,-0.004,-0.047,-0.013,-0.191,0.01,0.063,0.139,-0.938,0.951
2024-11-02 23:09:27.179,41041.936,0.082,0.807,-0.584,-0.005,-0.062,-0.015,-0.207,0.002,0.04,0.14,-0.94,0.952
2024-11-02 23:09:27.188,41041.946,0.083,0.809,-0.582,0.001,-0.022,-0.013,-0.174,-0.005,0.013,0.141,-0.942,0.953
2024-11-02 23:09:27.198,41041.956,0.083,0.809,-0.581,0.005,0.016,-0.003,-0.092,-0.008,-0.005,0.141,-0.943,0.953
2024-11-02 23:09:27.208,41041.966,0.083,0.81,-0.581,0.006,0.026,0.01,-0.021,-0.001,-0.026,0.141,-0.944,0.953
2024-11-02 23:09:27.218,41041.976,0.082,0.81,-0.581,0.006,0.028,0.014,0.027,0.002,-0.05,0.141,-0.944,0.953
2024-11-02 23:09:27.228,41041.986,0.082,0.81,-0.581,0.006,0.044,0.019,0.057,-0.007,-0.053,0.14,-0.943,0.952
2024-11-02 23:09:27.238,41041.996,0.081,0.809,-0.582,0.006,0.017,0.015,0.078,0.015,-0.047,0.139,-0.943,0.951
2024-11-02 23:09:27.248,41042.006,0.081,0.809,-0.583,0.005,-0.01,0.009,0.082,0.047,-0.038,0.138,-0.942,0.95
2024-11-02 23:09:27.258,41042.016,0.081,0.808,-0.583,-0.004,-0.005,0.007,0.075,0.058,-0.041,0.138,-0.941,0.949
2024-11-02 23:09:27.268,41042.026,0.081,0.808,-0.584,-0.008,-0.003,0.003,0.053,0.049,-0.049,0.138,-0.94,0.948
2024-11-02 23:09:27.278,41042.036,0.081,0.808,-0.584,-0.002,-0.005,-0.001,0.042,0.03,-0.065,0.138,-0.94,0.947
2024-11-02 23:09:27.289,41042.046,0.081,0.807,-0.584,0.006,-0.014,-0.001,0.022,0.013,-0.072,0.137,-0.94,0.946
2024-11-02 23:09:27.299,41042.056,0.08,0.807,-0.585,0.006,-0.007,-0.002,0.06,-0.003,-0.079,0.136,-0.94,0.944
2024-11-02 23:09:27.308,41042.066,0.079,0.807,-0.585,0.005,0.007,0.003,0.103,-0.007,-0.096,0.135,-0.939,0.943
2024-11-02 23:09:27.318,41042.076,0.078,0.806,-0.586,0.007,0.012,0.017,0.167,-0.012,-0.101,0.133,-0.938,0.941
2024-11-02 23:09:27.329,41042.086,0.078,0.805,-0.588,0.006,0.021,0.019,0.229,-0.034,-0.096,0.131,-0.936,0.939
2024-11-02 23:09:27.339,41042.096,0.077,0.804,-0.59,0.006,0.022,0.021,0.254,-0.06,-0.082,0.129,-0.934,0.937
2024-11-02 23:09:27.348,41042.106,0.076,0.802,-0.592,0.008,0.018,0.023,0.228,-0.044,-0.031,0.127,-0.931,0.935
2024-11-02 23:09:27.358,41042.116,0.075,0.801,-0.594,0.006,0.004,0.016,0.17,-0.059,-0.015,0.126,-0.929,0.934
2024-11-02 23:09:27.368,41042.126,0.075,0.8,-0.595,-0.015,0.008,-0.01,0.116,-0.067,-0.011,0.125,-0.928,0.934
2024-11-02 23:09:27.378,41042.136,0.074,0.8,-0.595,0.0,-0.025,-0.005,0.049,-0.066,0.012,0.124,-0.927,0.934
2024-11-02 23:09:27.388,41042.146,0.074,0.8,-0.596,0.005,-0.067,-0.01,-0.018,-0.049,-0.003,0.124,-0.927,0.934
2024-11-02 23:09:27.398,41042.156,0.074,0.8,-0.595,-0.009,-0.02,-0.013,-0.046,-0.052,-0.017,0.123,-0.928,0.934
2024-11-02 23:09:27.408,41042.166,0.073,0.8,-0.595,0.003,-0.005,-0.004,-0.039,-0.056,-0.021,0.123,-0.928,0.934
2024-11-02 23:09:27.418,41042.176,0.073,0.801,-0.595,0.006,-0.018,-0.005,-0.028,-0.064,-0.035,0.122,-0.929,0.933
2024-11-02 23:09:27.428,41042.186,0.072,0.801,-0.594,0.004,0.007,0.005,0.005,-0.08,-0.038,0.121,-0.929,0.933
2024-11-02 23:09:27.438,41042.196,0.071,0.801,-0.595,0.01,0.019,0.011,0.026,-0.087,-0.034,0.119,-0.929,0.932
2024-11-02 23:09:27.448,41042.206,0.071,0.801,-0.595,0.008,0.014,0.012,0.007,-0.105,-0.024,0.118,-0.929,0.932
2024-11-02 23:09:27.458,41042.216,0.07,0.801,-0.595,0.004,0.013,0.01,-0.009,-0.136,0.01,0.117,-0.929,0.931
2024-11-02 23:09:27.468,41042.226,0.069,0.801,-0.595,0.006,-0.019,0.001,-0.046,-0.141,0.033,0.116,-0.929,0.932
2024-11-02 23:09:27.478,41042.236,0.069,0.801,-0.594,0.001,-0.031,-0.005,-0.108,-0.197,0.076,0.115,-0.929,0.933
2024-11-02 23:09:27.488,41042.246,0.068,0.802,-0.594,-0.003,-0.031,-0.007,-0.141,-0.209,0.091,0.114,-0.93,0.935
2024-11-02 23:09:27.498,41042.256,0.068,0.802,-0.593,0.005,-0.041,-0.006,-0.112,-0.19,0.102,0.114,-0.931,0.936
2024-11-02 23:09:27.507,41042.266,0.067,0.803,-0.592,0.004,-0.008,-0.0,-0.108,-0.153,0.089,0.113,-0.932,0.938
2024-11-02 23:09:27.517,41042.276,0.067,0.804,-0.591,-0.007,0.04,-0.002,-0.08,-0.139,0.078,0.113,-0.933,0.94
2024-11-02 23:09:27.528,41042.286,0.067,0.804,-0.591,-0.004,0.023,0.002,-0.131,-0.113,0.081,0.113,-0.934,0.941
2024-11-02 23:09:27.537,41042.296,0.067,0.805,-0.59,0.002,-0.022,-0.005,-0.08,-0.103,0.078,0.114,-0.935,0.943
2024-11-02 23:09:27.548,41042.306,0.067,0.805,-0.589,-0.002,0.018,-0.003,-0.147,-0.087,0.052,0.114,-0.936,0.944
2024-11-02 23:09:27.558,41042.316,0.067,0.806,-0.588,-0.001,-0.012,0.001,-0.163,-0.142,0.118,0.114,-0.937,0.946
2024-11-02 23:09:27.568,41042.326,0.067,0.807,-0.587,0.006,-0.033,-0.006,-0.087,-0.082,0.05,0.114,-0.938,0.948
2024-11-02 23:09:27.578,41042.336,0.067,0.807,-0.587,0.015,0.033,0.002,-0.046,-0.025,0.004,0.114,-0.939,0.948
2024-11-02 23:09:27.589,41042.346,0.067,0.807,-0.587,-0.009,0.014,0.021,-0.051,0.008,0.006,0.114,-0.939,0.948
2024-11-02 23:09:27.597,41042.356,0.067,0.807,-0.587,-0.006,-0.059,0.017,0.07,0.097,0.014,0.114,-0.939,0.948
2024-11-02 23:09:27.607,41042.366,0.068,0.807,-0.587,-0.001,-0.015,0.009,0.095,0.22,0.029,0.116,-0.938,0.949
2024-11-02 23:09:27.617,41042.376,0.07,0.806,-0.588,-0.027,0.036,0.022,0.143,0.255,0.06,0.119,-0.937,0.949
2024-11-02 23:09:27.627,41042.386,0.072,0.805,-0.589,-0.027,0.024,0.018,0.132,0.216,0.1,0.122,-0.936,0.95
2024-11-02 23:09:27.637,41042.396,0.074,0.804,-0.59,-0.016,0.003,0.007,0.116,0.155,0.107,0.125,-0.934,0.952
2024-11-02 23:09:27.647,41042.406,0.076,0.803,-0.591,-0.001,-0.001,0.008,0.115,0.128,0.107,0.128,-0.933,0.953
2024-11-02 23:09:27.657,41042.416,0.077,0.803,-0.591,0.007,-0.03,0.002,0.107,0.138,0.092,0.13,-0.932,0.955
2024-11-02 23:09:27.667,41042.426,0.079,0.802,-0.592,0.0,-0.003,0.006,0.063,0.14,0.071,0.133,-0.931,0.956
2024-11-02 23:09:27.678,41042.436,0.08,0.802,-0.592,-0.007,0.001,0.0,-0.02,0.146,0.067,0.135,-0.931,0.957
2024-11-02 23:09:27.688,41042.446,0.082,0.802,-0.591,0.001,-0.04,-0.009,-0.087,0.197,0.054,0.137,-0.931,0.958
2024-11-02 23:09:27.698,41042.456,0.083,0.803,-0.59,-0.006,-0.022,-0.018,-0.154,0.208,0.021,0.14,-0.932,0.959
2024-11-02 23:09:27.708,41042.466,0.084,0.804,-0.588,-0.013,0.015,-0.017,-0.203,0.186,-0.01,0.142,-0.934,0.959
2024-11-02 23:09:27.717,41042.476,0.085,0.805,-0.587,0.008,-0.039,-0.009,-0.218,0.17,-0.034,0.144,-0.936,0.959
2024-11-02 23:09:27.728,41042.486,0.086,0.807,-0.585,0.011,-0.058,-0.011,-0.209,0.151,-0.062,0.145,-0.939,0.959
2024-11-02 23:09:27.738,41042.496,0.086,0.808,-0.583,0.005,0.005,-0.001,-0.19,0.106,-0.083,0.146,-0.941,0.958
2024-11-02 23:09:27.748,41042.505,0.086,0.809,-0.582,0.01,0.023,-0.001,-0.131,0.052,-0.08,0.146,-0.942,0.957
2024-11-02 23:09:27.758,41042.515,0.085,0.81,-0.581,0.014,0.003,0.005,-0.048,0.023,-0.08,0.146,-0.943,0.956
2024-11-02 23:09:27.768,41042.525,0.085,0.81,-0.581,0.014,0.008,0.017,0.03,0.004,-0.081,0.145,-0.943,0.955
2024-11-02 23:09:27.777,41042.535,0.084,0.809,-0.581,0.007,0.041,0.02,0.11,-0.0,-0.074,0.143,-0.943,0.953
2024-11-02 23:09:27.787,41042.545,0.083,0.808,-0.583,0.007,0.041,0.022,0.167,-0.0,-0.082,0.142,-0.942,0.951
2024-11-02 23:09:27.797,41042.555,0.083,0.807,-0.584,0.0,0.029,0.022,0.204,-0.005,-0.087,0.14,-0.94,0.95
2024-11-02 23:09:27.807,41042.565,0.082,0.806,-0.586,0.002,0.02,0.018,0.218,-0.019,-0.085,0.139,-0.938,0.948
2024-11-02 23:09:27.817,41042.575,0.081,0.805,-0.588,0.004,0.002,0.012,0.223,-0.038,-0.088,0.137,-0.936,0.946
2024-11-02 23:09:27.828,41042.585,0.08,0.804,-0.59,0.003,-0.0,0.008,0.226,-0.053,-0.1,0.135,-0.934,0.944
2024-11-02 23:09:27.837,41042.595,0.079,0.802,-0.591,0.007,-0.002,0.005,0.24,-0.075,-0.116,0.132,-0.931,0.941
2024-11-02 23:09:27.847,41042.605,0.077,0.801,-0.594,0.009,0.005,0.007,0.268,-0.08,-0.129,0.13,-0.929,0.939
2024-11-02 23:09:27.857,41042.615,0.076,0.799,-0.596,0.01,0.006,0.015,0.257,-0.007,-0.103,0.127,-0.926,0.936
2024-11-02 23:09:27.867,41042.625,0.075,0.798,-0.598,0.006,0.014,0.018,0.2,-0.001,-0.128,0.125,-0.924,0.934
2024-11-02 23:09:27.878,41042.635,0.074,0.797,-0.599,-0.027,0.049,-0.012,0.203,-0.009,-0.108,0.124,-0.923,0.932
2024-11-02 23:09:27.887,41042.645,0.074,0.796,-0.601,0.003,-0.025,0.005,0.171,0.007,-0.084,0.122,-0.921,0.93
2024-11-02 23:09:27.897,41042.655,0.073,0.795,-0.602,0.011,-0.079,0.001,0.154,0.045,-0.089,0.121,-0.919,0.928
2024-11-02 23:09:27.907,41042.665,0.073,0.794,-0.603,-0.011,0.019,0.005,0.157,0.094,0.016,0.121,-0.918,0.927
2024-11-02 23:09:27.917,41042.675,0.074,0.793,-0.604,0.014,0.018,0.024,0.216,0.084,0.003,0.122,-0.916,0.927
2024-11-02 23:09:27.927,41042.685,0.074,0.792,-0.606,0.033,0.013,0.034,0.251,0.07,-0.021,0.122,-0.914,0.926
2024-11-02 23:09:27.937,41042.695,0.075,0.79,-0.608,0.014,0.03,0.022,0.218,0.061,0.017,0.122,-0.911,0.926
2024-11-02 23:09:27.947,41042.705,0.075,0.789,-0.609,0.001,0.025,0.006,0.133,0.043,0.011,0.123,-0.91,0.926
2024-11-02 23:09:27.957,41042.715,0.075,0.789,-0.61,0.018,-0.001,0.005,-0.007,0.021,0.042,0.123,-0.909,0.926
2024-11-02 23:09:27.967,41042.725,0.076,0.789,-0.609,0.004,-0.039,-0.014,-0.162,0.08,0.052,0.124,-0.909,0.926
2024-11-02 23:09:27.977,41042.735,0.077,0.791,-0.608,0.008,-0.059,-0.024,-0.255,0.038,0.073,0.126,-0.912,0.928
2024-11-02 23:09:27.987,41042.745,0.077,0.792,-0.606,-0.009,-0.051,-0.035,-0.206,0.043,-0.012,0.127,-0.914,0.929
2024-11-02 23:09:27.997,41042.755,0.078,0.793,-0.604,-0.013,-0.061,-0.022,-0.17,0.048,0.017,0.128,-0.916,0.929
2024-11-02 23:09:28.007,41042.765,0.078,0.794,-0.603,-0.042,-0.036,-0.015,-0.137,0.089,-0.008,0.129,-0.917,0.93
2024-11-02 23:09:28.017,41042.775,0.079,0.794,-0.602,-0.023,0.007,-0.0,-0.058,0.082,0.02,0.13,-0.918,0.93
2024-11-02 23:09:28.027,41042.785,0.08,0.795,-0.602,-0.006,0.001,0.008,0.006,0.093,0.021,0.132,-0.918,0.93
2024-11-02 23:09:28.037,41042.795,0.08,0.795,-0.602,-0.017,0.033,0.012,0.029,0.008,0.05,0.133,-0.918,0.931
2024-11-02 23:09:28.047,41042.805,0.081,0.794,-0.603,0.003,0.016,0.003,0.102,-0.042,0.056,0.133,-0.917,0.932
2024-11-02 23:09:28.057,41042.815,0.081,0.793,-0.603,-0.001,0.021,0.007,0.089,-0.069,0.052,0.133,-0.916,0.933
2024-11-02 23:09:28.067,41042.825,0.081,0.793,-0.604,0.005,0.002,0.017,0.105,-0.076,0.054,0.133,-0.915,0.933
2024-11-02 23:09:28.077,41042.835,0.081,0.792,-0.605,0.016,-0.016,0.016,0.047,-0.044,0.068,0.133,-0.914,0.934
2024-11-02 23:09:28.087,41042.845,0.081,0.792,-0.605,-0.0,-0.001,-0.002,-0.061,0.016,0.106,0.134,-0.914,0.935
2024-11-02 23:09:28.097,41042.855,0.083,0.793,-0.604,-0.014,-0.021,0.002,-0.277,0.091,0.159,0.136,-0.916,0.938
2024-11-02 23:09:28.107,41042.865,0.085,0.795,-0.601,-0.018,-0.085,-0.013,-0.485,0.105,0.194,0.14,-0.919,0.941
2024-11-02 23:09:28.117,41042.875,0.087,0.798,-0.596,-0.031,-0.092,-0.035,-0.646,0.06,0.226,0.145,-0.924,0.946
2024-11-02 23:09:28.127,41042.885,0.089,0.802,-0.591,-0.014,-0.123,-0.05,-0.676,0.1,0.22,0.15,-0.931,0.952
2024-11-02 23:09:28.137,41042.895,0.092,0.806,-0.584,0.001,-0.085,-0.034,-0.846,0.174,0.248,0.156,-0.938,0.957
2024-11-02 23:09:28.147,41042.905,0.095,0.812,-0.576,-0.014,0.019,-0.034,-1.085,0.139,0.253,0.163,-0.947,0.964
2024-11-02 23:09:28.157,41042.915,0.098,0.818,-0.567,-0.048,0.059,-0.082,-1.175,0.073,0.252,0.17,-0.958,0.972
2024-11-02 23:09:28.167,41042.925,0.1,0.824,-0.558,-0.01,-0.083,-0.085,-1.103,0.075,0.293,0.178,-0.968,0.98
2024-11-02 23:09:28.177,41042.935,0.103,0.829,-0.549,-0.012,-0.075,-0.059,-0.95,0.128,0.345,0.186,-0.978,0.989
2024-11-02 23:09:28.187,41042.945,0.107,0.834,-0.542,-0.061,0.147,-0.04,-0.732,0.162,0.419,0.195,-0.986,0.998
2024-11-02 23:09:28.197,41042.955,0.101,0.839,-0.534,-0.087,0.244,-0.042,-1.198,-0.595,-0.772,0.187,-0.996,0.993
2024-11-02 23:09:28.207,41042.965,0.097,0.845,-0.526,-0.199,0.177,0.012,-0.907,-0.2,0.218,0.183,-1.007,0.993
2024-11-02 23:09:28.217,41042.975,0.096,0.85,-0.518,-0.416,0.064,0.109,-0.996,-0.318,-0.251,0.183,-1.016,0.996
2024-11-02 23:09:28.227,41042.985,0.091,0.855,-0.51,0.105,0.114,0.025,-0.78,-0.411,-0.216,0.177,-1.026,0.994
2024-11-02 23:09:28.237,41042.995,0.088,0.858,-0.505,-0.076,0.055,0.152,-0.53,-0.368,-0.097,0.173,-1.032,0.994
2024-11-02 23:09:28.247,41043.005,0.085,0.861,-0.502,-0.183,0.009,0.206,-0.304,-0.361,-0.19,0.168,-1.037,0.992
2024-11-02 23:09:28.257,41043.015,0.081,0.862,-0.501,0.061,0.036,0.172,-0.111,-0.384,-0.232,0.161,-1.039,0.989
2024-11-02 23:09:28.267,41043.025,0.078,0.862,-0.501,0.043,0.001,0.134,0.132,-0.323,-0.167,0.154,-1.039,0.985
2024-11-02 23:09:28.277,41043.035,0.075,0.861,-0.503,0.028,-0.01,0.124,0.366,-0.231,-0.062,0.149,-1.037,0.982
2024-11-02 23:09:28.287,41043.045,0.074,0.859,-0.507,0.08,-0.016,0.106,0.51,-0.142,0.043,0.146,-1.032,0.98
2024-11-02 23:09:28.297,41043.055,0.074,0.856,-0.512,0.098,-0.043,0.087,0.507,-0.114,0.078,0.144,-1.027,0.98
2024-11-02 23:09:28.307,41043.065,0.075,0.853,-0.516,0.093,-0.082,0.058,0.479,-0.085,0.079,0.143,-1.022,0.98
2024-11-02 23:09:28.317,41043.075,0.075,0.851,-0.52,0.09,-0.121,0.011,0.49,-0.019,0.086,0.143,-1.017,0.98
2024-11-02 23:09:28.326,41043.085,0.076,0.848,-0.525,0.083,-0.144,-0.024,0.559,0.091,0.083,0.144,-1.012,0.981
2024-11-02 23:09:28.336,41043.095,0.077,0.844,-0.53,0.08,-0.136,-0.046,0.774,0.248,0.094,0.145,-1.006,0.98
2024-11-02 23:09:28.346,41043.105,0.08,0.841,-0.536,0.079,-0.101,-0.083,0.575,0.349,0.071,0.148,-0.998,0.98
2024-11-02 23:09:28.357,41043.114,0.085,0.836,-0.542,0.089,-0.082,-0.119,0.674,0.405,0.225,0.156,-0.99,0.984
2024-11-02 23:09:28.367,41043.124,0.087,0.834,-0.545,0.123,-0.083,-0.109,0.242,0.335,-0.109,0.159,-0.986,0.983
2024-11-02 23:09:28.377,41043.134,0.088,0.833,-0.546,0.181,0.028,-0.227,0.108,0.282,-0.178,0.159,-0.984,0.979
2024-11-02 23:09:28.388,41043.144,0.087,0.833,-0.546,-0.042,0.175,-0.126,-0.025,0.222,-0.243,0.159,-0.984,0.976
2024-11-02 23:09:28.397,41043.154,0.086,0.834,-0.546,-0.016,-0.002,-0.038,-0.076,0.177,-0.292,0.157,-0.985,0.971
2024-11-02 23:09:28.407,41043.164,0.085,0.834,-0.545,0.062,-0.113,-0.017,-0.066,0.147,-0.263,0.154,-0.987,0.966
2024-11-02 23:09:28.416,41043.174,0.084,0.835,-0.544,-0.001,-0.05,-0.016,-0.015,0.151,-0.233,0.152,-0.987,0.962
2024-11-02 23:09:28.427,41043.184,0.083,0.835,-0.545,-0.007,0.018,0.001,0.072,0.145,-0.173,0.151,-0.987,0.958
2024-11-02 23:09:28.436,41043.194,0.082,0.834,-0.546,-0.01,0.061,0.014,0.193,0.165,-0.106,0.15,-0.986,0.955
2024-11-02 23:09:28.447,41043.204,0.083,0.833,-0.547,-0.018,0.055,0.023,0.292,0.167,-0.05,0.15,-0.984,0.953
2024-11-02 23:09:28.457,41043.214,0.083,0.831,-0.55,-0.016,0.045,0.033,0.348,0.159,-0.001,0.15,-0.981,0.952
2024-11-02 23:09:28.466,41043.224,0.084,0.829,-0.553,-0.006,0.037,0.029,0.36,0.161,0.028,0.151,-0.977,0.951
2024-11-02 23:09:28.477,41043.234,0.086,0.827,-0.556,-0.006,0.025,0.015,0.378,0.169,0.051,0.153,-0.974,0.951
2024-11-02 23:09:28.486,41043.244,0.087,0.825,-0.559,-0.013,0.024,0.004,0.365,0.181,0.047,0.154,-0.97,0.951
2024-11-02 23:09:28.496,41043.254,0.088,0.823,-0.561,-0.009,0.007,0.007,0.311,0.162,0.036,0.156,-0.966,0.951
2024-11-02 23:09:28.507,41043.264,0.089,0.821,-0.563,-0.004,-0.006,0.003,0.269,0.137,0.032,0.157,-0.964,0.951
2024-11-02 23:09:28.517,41043.274,0.09,0.82,-0.565,0.004,-0.025,-0.003,0.229,0.115,0.022,0.158,-0.961,0.95
2024-11-02 23:09:28.526,41043.284,0.091,0.819,-0.567,0.009,-0.026,-0.001,0.196,0.095,-0.009,0.159,-0.959,0.95
2024-11-02 23:09:28.536,41043.294,0.091,0.818,-0.568,0.01,-0.005,0.001,0.168,0.063,-0.015,0.159,-0.957,0.949
2024-11-02 23:09:28.546,41043.304,0.091,0.817,-0.57,0.009,-0.009,-0.001,0.136,0.046,-0.022,0.159,-0.956,0.948
2024-11-02 23:09:28.557,41043.314,0.091,0.816,-0.571,0.008,-0.013,-0.0,0.11,0.023,-0.023,0.159,-0.955,0.948
2024-11-02 23:09:28.566,41043.324,0.091,0.816,-0.571,0.004,-0.01,-0.004,0.097,0.015,-0.012,0.159,-0.954,0.947
2024-11-02 23:09:28.576,41043.334,0.091,0.815,-0.572,0.005,-0.009,0.002,0.086,0.011,-0.011,0.158,-0.953,0.947
2024-11-02 23:09:28.586,41043.344,0.091,0.815,-0.573,0.001,0.0,0.008,0.063,0.004,-0.01,0.158,-0.952,0.946
2024-11-02 23:09:28.596,41043.354,0.091,0.814,-0.573,0.001,-0.008,0.006,0.062,0.009,-0.016,0.158,-0.951,0.946
2024-11-02 23:09:28.606,41043.364,0.091,0.814,-0.574,0.002,-0.021,0.003,0.051,0.018,-0.028,0.158,-0.951,0.946
2024-11-02 23:09:28.616,41043.374,0.091,0.814,-0.574,0.002,-0.01,0.004,0.058,0.03,-0.039,0.157,-0.95,0.945
2024-11-02 23:09:28.626,41043.384,0.091,0.813,-0.574,-0.0,0.006,0.002,0.043,0.043,-0.05,0.157,-0.95,0.944
2024-11-02 23:09:28.636,41043.394,0.091,0.813,-0.575,-0.001,-0.005,0.001,0.025,0.047,-0.054,0.157,-0.95,0.943
2024-11-02 23:09:28.646,41043.404,0.091,0.813,-0.575,-0.003,-0.007,0.002,0.001,0.045,-0.045,0.157,-0.95,0.942
2024-11-02 23:09:28.656,41043.414,0.091,0.813,-0.575,0.002,-0.02,-0.001,-0.026,0.034,-0.033,0.156,-0.95,0.942
2024-11-02 23:09:28.666,41043.424,0.091,0.814,-0.574,-0.001,-0.015,0.0,-0.039,0.003,-0.021,0.156,-0.95,0.941
2024-11-02 23:09:28.676,41043.434,0.09,0.814,-0.574,0.001,-0.012,-0.0,-0.037,-0.031,-0.002,0.156,-0.951,0.941
2024-11-02 23:09:28.686,41043.444,0.09,0.814,-0.574,0.008,-0.012,0.002,0.013,-0.044,0.01,0.156,-0.951,0.941
2024-11-02 23:09:28.696,41043.454,0.09,0.814,-0.574,0.006,0.003,0.008,0.074,-0.023,0.014,0.156,-0.95,0.941
2024-11-02 23:09:28.706,41043.464,0.09,0.813,-0.575,0.0,0.026,0.015,0.134,0.011,0.015,0.156,-0.949,0.941
2024-11-02 23:09:28.716,41043.474,0.09,0.812,-0.576,-0.006,0.041,0.017,0.175,0.041,0.021,0.156,-0.948,0.941
2024-11-02 23:09:28.726,41043.484,0.091,0.811,-0.578,-0.005,0.028,0.016,0.192,0.063,0.015,0.156,-0.946,0.941
2024-11-02 23:09:28.736,41043.494,0.091,0.81,-0.579,-0.006,0.004,0.012,0.166,0.086,-0.007,0.156,-0.944,0.941
2024-11-02 23:09:28.746,41043.504,0.092,0.809,-0.58,-0.007,-0.008,0.003,0.124,0.081,-0.015,0.157,-0.943,0.94
2024-11-02 23:09:28.756,41043.514,0.092,0.809,-0.581,-0.003,-0.011,-0.003,0.076,0.061,-0.023,0.157,-0.942,0.939
2024-11-02 23:09:28.766,41043.524,0.092,0.808,-0.581,0.005,-0.025,-0.003,0.021,0.029,-0.03,0.157,-0.941,0.939
2024-11-02 23:09:28.776,41043.534,0.092,0.808,-0.581,0.005,-0.026,-0.007,0.015,-0.002,-0.031,0.157,-0.941,0.938
2024-11-02 23:09:28.786,41043.544,0.092,0.808,-0.582,0.009,-0.014,-0.006,0.058,-0.002,-0.029,0.156,-0.941,0.938
2024-11-02 23:09:28.796,41043.554,0.091,0.808,-0.582,0.009,0.001,0.006,0.12,0.012,-0.027,0.156,-0.94,0.937
2024-11-02 23:09:28.806,41043.564,0.091,0.807,-0.583,0.002,0.026,0.017,0.192,0.024,-0.019,0.155,-0.939,0.936
2024-11-02 23:09:28.816,41043.574,0.091,0.806,-0.585,-0.0,0.028,0.019,0.259,0.039,-0.017,0.155,-0.937,0.935
2024-11-02 23:09:28.826,41043.584,0.092,0.804,-0.587,-0.002,0.029,0.018,0.301,0.089,0.004,0.155,-0.934,0.934
2024-11-02 23:09:28.836,41043.594,0.092,0.802,-0.589,-0.003,0.021,0.018,0.263,0.1,0.003,0.155,-0.931,0.934
2024-11-02 23:09:28.846,41043.604,0.093,0.801,-0.591,-0.014,0.018,0.013,0.218,0.093,0.001,0.156,-0.929,0.933
2024-11-02 23:09:28.856,41043.614,0.093,0.8,-0.593,-0.01,0.0,-0.002,0.157,0.081,0.016,0.156,-0.927,0.933
2024-11-02 23:09:28.866,41043.624,0.094,0.799,-0.594,0.006,-0.055,-0.004,0.099,0.045,0.01,0.157,-0.926,0.933
2024-11-02 23:09:28.876,41043.634,0.094,0.799,-0.594,-0.007,-0.025,-0.008,0.067,0.0,0.012,0.157,-0.925,0.933
2024-11-02 23:09:28.886,41043.644,0.094,0.798,-0.595,0.011,-0.013,-0.005,0.075,-0.021,0.01,0.157,-0.925,0.933
2024-11-02 23:09:28.896,41043.654,0.094,0.798,-0.596,0.01,-0.02,-0.002,0.12,-0.02,0.001,0.157,-0.924,0.933
2024-11-02 23:09:28.906,41043.664,0.094,0.797,-0.597,0.002,0.014,0.01,0.143,-0.019,-0.004,0.156,-0.922,0.932
2024-11-02 23:09:28.916,41043.674,0.094,0.796,-0.598,0.004,0.022,0.017,0.136,-0.04,-0.012,0.155,-0.921,0.932
2024-11-02 23:09:28.926,41043.684,0.093,0.796,-0.599,0.003,0.01,0.008,0.113,-0.043,-0.017,0.155,-0.92,0.931
2024-11-02 23:09:28.936,41043.694,0.093,0.795,-0.599,0.007,-0.002,0.003,0.06,-0.05,-0.035,0.153,-0.919,0.931
2024-11-02 23:09:28.946,41043.704,0.092,0.795,-0.6,0.006,-0.014,0.0,0.003,-0.058,-0.049,0.152,-0.919,0.93
2024-11-02 23:09:28.956,41043.714,0.091,0.795,-0.599,0.003,-0.02,-0.007,-0.079,-0.075,-0.065,0.151,-0.919,0.929
2024-11-02 23:09:28.966,41043.723,0.09,0.796,-0.599,0.008,-0.029,-0.011,-0.137,-0.109,-0.063,0.149,-0.92,0.928
2024-11-02 23:09:28.976,41043.733,0.089,0.797,-0.598,0.006,-0.024,-0.017,-0.167,-0.139,-0.059,0.148,-0.922,0.928
2024-11-02 23:09:28.986,41043.743,0.088,0.798,-0.596,0.008,-0.016,-0.012,-0.176,-0.142,-0.05,0.146,-0.924,0.927
2024-11-02 23:09:28.996,41043.753,0.088,0.8,-0.593,0.003,-0.006,-0.004,-0.404,-0.125,0.144,0.146,-0.928,0.929
2024-11-02 23:09:29.006,41043.763,0.087,0.802,-0.591,0.011,-0.012,0.026,-0.235,-0.159,0.059,0.147,-0.93,0.931
2024-11-02 23:09:29.016,41043.773,0.087,0.803,-0.59,0.062,-0.074,0.042,-0.045,-0.116,-0.002,0.146,-0.932,0.932
2024-11-02 23:09:29.026,41043.783,0.086,0.803,-0.59,-0.022,0.075,-0.02,-0.025,-0.127,0.034,0.145,-0.932,0.932
2024-11-02 23:09:29.036,41043.793,0.086,0.803,-0.59,-0.035,0.075,0.002,-0.14,-0.093,0.076,0.145,-0.932,0.933
2024-11-02 23:09:29.046,41043.803,0.086,0.804,-0.589,0.011,-0.054,0.004,-0.122,-0.147,0.116,0.145,-0.934,0.936
2024-11-02 23:09:29.056,41043.813,0.085,0.804,-0.588,0.01,-0.019,-0.002,-0.085,-0.129,-0.011,0.144,-0.935,0.936
2024-11-02 23:09:29.065,41043.823,0.085,0.805,-0.587,-0.0,0.003,-0.008,-0.18,-0.186,0.041,0.143,-0.936,0.937
2024-11-02 23:09:29.075,41043.833,0.084,0.806,-0.586,-0.021,-0.04,-0.016,-0.18,-0.084,0.005,0.143,-0.938,0.938
2024-11-02 23:09:29.085,41043.843,0.084,0.807,-0.584,0.009,-0.023,-0.019,-0.221,-0.073,0.019,0.143,-0.94,0.939
2024-11-02 23:09:29.096,41043.853,0.084,0.809,-0.582,-0.004,0.017,-0.006,-0.174,-0.057,0.01,0.143,-0.942,0.94
2024-11-02 23:09:29.105,41043.863,0.084,0.809,-0.581,-0.0,-0.034,0.005,-0.091,0.039,-0.019,0.143,-0.943,0.94
2024-11-02 23:09:29.115,41043.873,0.084,0.81,-0.581,0.005,-0.048,0.017,-0.059,0.077,0.026,0.144,-0.944,0.94
2024-11-02 23:09:29.125,41043.883,0.085,0.81,-0.58,-0.028,0.013,0.022,0.015,0.134,0.021,0.145,-0.944,0.941
2024-11-02 23:09:29.135,41043.893,0.086,0.81,-0.581,-0.018,0.008,0.008,0.038,0.175,0.088,0.148,-0.944,0.941
2024-11-02 23:09:29.145,41043.903,0.088,0.809,-0.581,-0.018,0.021,0.011,0.098,0.187,0.129,0.151,-0.943,0.943
2024-11-02 23:09:29.156,41043.913,0.091,0.808,-0.582,-0.015,0.005,0.021,0.139,0.187,0.173,0.154,-0.941,0.945
2024-11-02 23:09:29.166,41043.923,0.093,0.807,-0.583,-0.014,-0.008,0.015,0.21,0.165,0.18,0.158,-0.939,0.948
2024-11-02 23:09:29.175,41043.933,0.095,0.806,-0.584,-0.007,0.01,0.019,0.184,0.183,0.134,0.162,-0.937,0.95
2024-11-02 23:09:29.185,41043.943,0.097,0.805,-0.585,0.001,-0.002,0.022,0.108,0.127,0.14,0.165,-0.935,0.952
2024-11-02 23:09:29.195,41043.953,0.099,0.804,-0.586,0.003,-0.051,0.008,0.061,0.176,0.107,0.168,-0.934,0.954
2024-11-02 23:09:29.205,41043.963,0.101,0.804,-0.586,-0.003,-0.019,-0.017,-0.01,0.227,0.11,0.171,-0.934,0.955
2024-11-02 23:09:29.215,41043.973,0.103,0.804,-0.585,-0.015,0.035,-0.016,-0.085,0.25,0.092,0.175,-0.934,0.957
2024-11-02 23:09:29.225,41043.983,0.105,0.805,-0.584,-0.026,0.006,-0.031,-0.122,0.252,0.097,0.179,-0.935,0.959
2024-11-02 23:09:29.235,41043.993,0.108,0.805,-0.583,-0.002,-0.056,-0.021,-0.168,0.238,0.114,0.183,-0.936,0.961
2024-11-02 23:09:29.245,41044.003,0.11,0.806,-0.581,-0.007,-0.048,-0.016,-0.172,0.22,0.112,0.187,-0.938,0.963
2024-11-02 23:09:29.255,41044.013,0.112,0.807,-0.58,-0.012,0.013,-0.024,-0.109,0.176,0.105,0.191,-0.939,0.966
2024-11-02 23:09:29.265,41044.023,0.114,0.807,-0.579,-0.001,0.02,-0.009,-0.036,0.149,0.104,0.194,-0.94,0.968
2024-11-02 23:09:29.275,41044.033,0.115,0.807,-0.579,0.005,0.014,0.017,0.004,0.143,0.047,0.196,-0.94,0.969
2024-11-02 23:09:29.285,41044.043,0.116,0.807,-0.579,0.004,0.027,0.017,0.065,0.091,0.074,0.198,-0.939,0.97
2024-11-02 23:09:29.295,41044.053,0.117,0.806,-0.58,0.008,0.003,0.008,0.126,0.1,0.075,0.2,-0.938,0.971
2024-11-02 23:09:29.305,41044.063,0.118,0.806,-0.581,0.012,-0.003,0.03,0.151,0.084,0.007,0.201,-0.937,0.971
2024-11-02 23:09:29.315,41044.073,0.118,0.805,-0.582,0.003,0.084,0.026,0.153,0.0,-0.025,0.201,-0.935,0.97
2024-11-02 23:09:29.325,41044.083,0.118,0.804,-0.583,0.02,0.039,0.01,0.121,-0.045,-0.056,0.2,-0.934,0.969
2024-11-02 23:09:29.335,41044.093,0.117,0.803,-0.584,0.029,-0.052,0.006,0.078,-0.074,-0.098,0.198,-0.933,0.967
2024-11-02 23:09:29.345,41044.103,0.116,0.803,-0.584,0.017,-0.018,0.003,0.018,-0.088,-0.105,0.195,-0.933,0.965
2024-11-02 23:09:29.355,41044.113,0.114,0.803,-0.584,0.016,-0.008,0.001,-0.022,-0.084,-0.088,0.193,-0.933,0.964
2024-11-02 23:09:29.365,41044.123,0.113,0.804,-0.584,0.009,-0.04,-0.003,-0.052,-0.061,-0.077,0.191,-0.933,0.963
2024-11-02 23:09:29.375,41044.133,0.112,0.804,-0.584,-0.003,-0.024,-0.004,-0.078,-0.034,-0.059,0.19,-0.934,0.962
2024-11-02 23:09:29.385,41044.143,0.112,0.805,-0.583,-0.007,-0.007,-0.003,-0.099,-0.01,-0.038,0.19,-0.935,0.961
2024-11-02 23:09:29.395,41044.153,0.112,0.805,-0.582,-0.01,-0.023,-0.01,-0.096,0.0,-0.034,0.189,-0.936,0.961
2024-11-02 23:09:29.405,41044.163,0.111,0.806,-0.581,-0.01,-0.009,-0.011,-0.05,0.008,-0.027,0.189,-0.937,0.961
2024-11-02 23:09:29.415,41044.173,0.111,0.806,-0.581,-0.003,0.004,-0.002,0.015,-0.008,-0.034,0.189,-0.937,0.96
2024-11-02 23:09:29.425,41044.183,0.111,0.806,-0.582,0.002,0.02,0.012,0.088,-0.037,-0.045,0.188,-0.937,0.96
2024-11-02 23:09:29.435,41044.193,0.11,0.805,-0.583,0.01,0.029,0.018,0.155,-0.072,-0.054,0.187,-0.936,0.958
2024-11-02 23:09:29.445,41044.203,0.109,0.804,-0.584,0.015,0.028,0.023,0.206,-0.107,-0.069,0.185,-0.934,0.957
2024-11-02 23:09:29.455,41044.213,0.108,0.803,-0.586,0.014,0.024,0.023,0.278,-0.066,-0.069,0.182,-0.932,0.955
2024-11-02 23:09:29.465,41044.223,0.107,0.801,-0.588,0.015,0.018,0.022,0.199,-0.072,-0.08,0.18,-0.93,0.953
2024-11-02 23:09:29.475,41044.233,0.106,0.801,-0.59,-0.004,0.023,0.006,0.132,-0.078,-0.095,0.178,-0.928,0.951
2024-11-02 23:09:29.485,41044.243,0.105,0.8,-0.591,-0.008,0.004,-0.018,0.102,-0.089,-0.072,0.175,-0.927,0.95
2024-11-02 23:09:29.495,41044.253,0.104,0.799,-0.592,0.015,-0.077,-0.007,0.116,-0.071,-0.077,0.173,-0.926,0.948
2024-11-02 23:09:29.505,41044.263,0.103,0.799,-0.593,-0.008,-0.02,0.001,0.199,-0.083,-0.063,0.171,-0.925,0.946
2024-11-02 23:09:29.515,41044.273,0.102,0.797,-0.595,0.005,0.027,0.017,0.282,-0.101,-0.06,0.169,-0.923,0.945
2024-11-02 23:09:29.525,41044.283,0.101,0.795,-0.598,0.009,0.035,0.019,0.397,-0.102,-0.047,0.167,-0.92,0.943
2024-11-02 23:09:29.535,41044.293,0.1,0.793,-0.601,0.01,0.056,0.024,0.477,-0.1,-0.043,0.164,-0.915,0.941
2024-11-02 23:09:29.545,41044.303,0.099,0.79,-0.605,0.008,0.055,0.035,0.496,-0.079,-0.036,0.162,-0.911,0.939
2024-11-02 23:09:29.555,41044.313,0.099,0.787,-0.609,0.003,0.042,0.031,0.449,0.078,0.011,0.161,-0.906,0.938
2024-11-02 23:09:29.565,41044.323,0.1,0.785,-0.612,0.001,0.004,0.015,0.288,0.034,0.024,0.161,-0.902,0.938
2024-11-02 23:09:29.575,41044.332,0.1,0.784,-0.613,-0.022,-0.02,-0.02,0.102,0.11,0.068,0.162,-0.901,0.938
2024-11-02 23:09:29.585,41044.342,0.101,0.784,-0.613,-0.05,-0.064,-0.043,-0.118,0.164,0.07,0.164,-0.901,0.939
2024-11-02 23:09:29.595,41044.352,0.103,0.785,-0.611,-0.024,-0.175,-0.043,-0.262,0.148,0.084,0.167,-0.903,0.941
2024-11-02 23:09:29.604,41044.362,0.105,0.787,-0.609,-0.047,-0.044,-0.058,-0.263,0.158,0.042,0.17,-0.905,0.943
2024-11-02 23:09:29.615,41044.372,0.106,0.788,-0.607,-0.013,-0.036,-0.023,-0.254,0.147,0.006,0.173,-0.907,0.944
2024-11-02 23:09:29.625,41044.382,0.106,0.79,-0.604,0.006,-0.055,-0.002,-0.255,0.042,0.03,0.174,-0.91,0.945
2024-11-02 23:09:29.634,41044.392,0.106,0.791,-0.603,0.004,0.002,0.002,-0.139,-0.062,-0.013,0.175,-0.912,0.946
2024-11-02 23:09:29.644,41044.402,0.106,0.791,-0.602,0.045,-0.001,0.014,0.051,-0.11,-0.07,0.173,-0.913,0.945
2024-11-02 23:09:29.654,41044.412,0.104,0.791,-0.604,0.053,0.09,0.034,0.178,-0.143,-0.07,0.171,-0.912,0.944
2024-11-02 23:09:29.664,41044.422,0.103,0.789,-0.605,0.027,0.119,0.047,0.234,-0.109,-0.072,0.168,-0.91,0.942
2024-11-02 23:09:29.675,41044.432,0.102,0.788,-0.607,0.033,-0.014,0.056,0.165,-0.022,-0.088,0.166,-0.908,0.94
2024-11-02 23:09:29.684,41044.442,0.101,0.788,-0.608,-0.0,-0.001,0.022,-0.001,0.039,-0.045,0.165,-0.907,0.939
2024-11-02 23:09:29.694,41044.452,0.102,0.788,-0.607,-0.026,-0.005,-0.006,-0.258,0.106,0.013,0.166,-0.908,0.939
2024-11-02 23:09:29.704,41044.462,0.103,0.791,-0.603,-0.017,-0.119,-0.015,-0.56,0.127,0.049,0.168,-0.912,0.941
2024-11-02 23:09:29.714,41044.472,0.104,0.795,-0.598,-0.024,-0.164,-0.032,-0.852,0.129,0.098,0.172,-0.919,0.944
2024-11-02 23:09:29.724,41044.482,0.106,0.8,-0.59,-0.022,-0.163,-0.064,-0.972,0.127,0.162,0.177,-0.928,0.949
2024-11-02 23:09:29.734,41044.492,0.108,0.806,-0.583,-0.015,-0.122,-0.052,-0.827,0.171,0.153,0.183,-0.937,0.954
2024-11-02 23:09:29.744,41044.502,0.111,0.81,-0.576,-0.011,-0.024,-0.02,-0.794,0.29,0.164,0.19,-0.944,0.959
2024-11-02 23:09:29.754,41044.512,0.113,0.815,-0.569,-0.027,0.095,-0.009,-0.939,0.246,0.169,0.197,-0.952,0.965
2024-11-02 23:09:29.764,41044.522,0.116,0.82,-0.56,-0.046,0.054,-0.037,-1.059,0.123,0.154,0.204,-0.962,0.971
2024-11-02 23:09:29.774,41044.532,0.117,0.826,-0.551,-0.009,-0.063,-0.066,-1.101,0.016,0.144,0.21,-0.972,0.977
2024-11-02 23:09:29.785,41044.542,0.119,0.832,-0.542,0.024,-0.084,-0.048,-1.099,-0.052,0.141,0.215,-0.982,0.984
2024-11-02 23:09:29.795,41044.552,0.119,0.837,-0.533,0.014,-0.008,-0.034,-1.009,-0.09,0.148,0.22,-0.993,0.991
2024-11-02 23:09:29.805,41044.562,0.12,0.842,-0.526,0.003,0.056,-0.024,-0.795,-0.074,0.141,0.225,-1.001,0.997
2024-11-02 23:09:29.814,41044.572,0.121,0.846,-0.52,-0.017,0.092,-0.018,-0.617,-0.064,0.085,0.228,-1.008,1.003
2024-11-02 23:09:29.824,41044.582,0.112,0.85,-0.515,-0.045,0.173,-0.02,-0.635,-0.71,-0.999,0.214,-1.015,0.992
2024-11-02 23:09:29.834,41044.592,0.105,0.852,-0.512,-0.137,0.16,-0.001,-0.171,-0.248,0.01,0.202,-1.02,0.984
2024-11-02 23:09:29.844,41044.602,0.103,0.854,-0.51,-0.329,0.039,0.039,-0.397,-0.255,-0.202,0.2,-1.024,0.984
2024-11-02 23:09:29.854,41044.612,0.1,0.856,-0.508,0.17,0.115,-0.001,-0.177,-0.306,-0.142,0.194,-1.027,0.981
2024-11-02 23:09:29.864,41044.622,0.098,0.856,-0.507,0.063,0.07,0.068,-0.015,-0.259,-0.14,0.19,-1.028,0.98
2024-11-02 23:09:29.874,41044.632,0.095,0.856,-0.508,-0.17,0.074,0.082,0.075,-0.258,-0.227,0.184,-1.028,0.976
2024-11-02 23:09:29.884,41044.642,0.091,0.856,-0.509,-0.005,0.094,0.106,0.233,-0.268,-0.193,0.177,-1.027,0.971
2024-11-02 23:09:29.894,41044.652,0.089,0.854,-0.512,0.004,-0.028,0.111,0.376,-0.236,-0.155,0.171,-1.024,0.967
2024-11-02 23:09:29.904,41044.662,0.087,0.852,-0.516,0.026,-0.048,0.098,0.474,-0.179,-0.062,0.166,-1.02,0.963
2024-11-02 23:09:29.914,41044.672,0.086,0.85,-0.52,0.049,-0.053,0.102,0.456,-0.144,0.016,0.163,-1.015,0.961
2024-11-02 23:09:29.924,41044.682,0.085,0.847,-0.524,0.057,-0.104,0.087,0.399,-0.14,0.049,0.161,-1.011,0.961
2024-11-02 23:09:29.934,41044.692,0.085,0.845,-0.527,0.063,-0.116,0.049,0.364,-0.145,0.041,0.159,-1.007,0.961
2024-11-02 23:09:29.944,41044.702,0.084,0.843,-0.531,0.062,-0.115,0.003,0.423,-0.117,0.043,0.158,-1.004,0.96
2024-11-02 23:09:29.954,41044.712,0.084,0.841,-0.535,0.056,-0.086,-0.016,0.533,-0.047,0.065,0.157,-0.999,0.96
2024-11-02 23:09:29.964,41044.722,0.085,0.838,-0.539,0.061,-0.05,-0.021,0.367,-0.001,0.037,0.156,-0.994,0.959
2024-11-02 23:09:29.974,41044.732,0.085,0.837,-0.541,0.069,-0.036,-0.011,0.226,0.025,0.037,0.156,-0.991,0.959
2024-11-02 23:09:29.984,41044.742,0.086,0.836,-0.543,0.046,-0.029,0.013,0.154,0.068,0.063,0.157,-0.989,0.96
2024-11-02 23:09:29.994,41044.752,0.087,0.835,-0.544,0.046,-0.04,-0.015,0.118,0.105,0.081,0.158,-0.988,0.961
2024-11-02 23:09:30.004,41044.762,0.089,0.833,-0.546,0.041,-0.003,-0.033,0.35,0.155,0.21,0.162,-0.984,0.963
2024-11-02 23:09:30.014,41044.772,0.091,0.832,-0.548,0.039,0.005,-0.05,0.163,0.115,0.062,0.165,-0.982,0.965
2024-11-02 23:09:30.024,41044.782,0.092,0.831,-0.549,0.075,0.033,-0.113,0.118,0.082,0.038,0.166,-0.981,0.965
2024-11-02 23:09:30.034,41044.792,0.093,0.83,-0.549,-0.02,0.08,-0.058,0.054,0.052,0.009,0.167,-0.98,0.965
2024-11-02 23:09:30.044,41044.802,0.093,0.83,-0.55,-0.017,0.012,-0.021,0.02,0.035,-0.012,0.167,-0.979,0.965
2024-11-02 23:09:30.054,41044.812,0.093,0.83,-0.55,0.023,-0.044,-0.009,0.001,0.012,-0.015,0.167,-0.979,0.965
2024-11-02 23:09:30.064,41044.822,0.093,0.83,-0.55,0.004,-0.042,-0.007,-0.013,-0.007,-0.021,0.167,-0.98,0.965
2024-11-02 23:09:30.074,41044.832,0.093,0.83,-0.55,0.003,-0.015,-0.003,0.009,-0.008,0.003,0.167,-0.98,0.964
2024-11-02 23:09:30.084,41044.842,0.093,0.83,-0.55,0.003,0.001,-0.002,0.044,0.008,0.01,0.167,-0.979,0.964
2024-11-02 23:09:30.094,41044.852,0.093,0.83,-0.55,-0.003,0.014,0.009,0.085,0.018,0.009,0.167,-0.979,0.964
2024-11-02 23:09:30.104,41044.862,0.093,0.829,-0.551,-0.004,0.019,0.01,0.097,0.025,0.013,0.167,-0.978,0.964
2024-11-02 23:09:30.114,41044.872,0.093,0.829,-0.552,-0.005,0.01,0.004,0.102,0.032,0.02,0.167,-0.977,0.964
2024-11-02 23:09:30.124,41044.882,0.094,0.828,-0.553,-0.006,0.006,-0.0,0.109,0.045,0.02,0.168,-0.976,0.964
2024-11-02 23:09:30.134,41044.892,0.094,0.827,-0.554,-0.004,0.005,0.001,0.105,0.056,0.019,0.168,-0.975,0.964
2024-11-02 23:09:30.144,41044.902,0.095,0.827,-0.554,-0.004,-0.001,0.003,0.093,0.059,0.026,0.169,-0.973,0.965
2024-11-02 23:09:30.153,41044.912,0.095,0.826,-0.555,-0.002,-0.007,0.004,0.08,0.054,0.027,0.17,-0.973,0.965
2024-11-02 23:09:30.163,41044.922,0.096,0.826,-0.556,-0.002,-0.009,0.002,0.063,0.038,0.028,0.17,-0.972,0.965
2024-11-02 23:09:30.174,41044.932,0.096,0.826,-0.556,0.001,-0.014,0.002,0.074,0.028,0.023,0.171,-0.971,0.965
2024-11-02 23:09:30.184,41044.941,0.096,0.825,-0.557,0.002,-0.007,-0.001,0.117,0.038,0.016,0.171,-0.97,0.965
2024-11-02 23:09:30.194,41044.951,0.096,0.824,-0.558,0.001,0.008,0.004,0.171,0.041,-0.008,0.171,-0.969,0.965
2024-11-02 23:09:30.203,41044.961,0.096,0.823,-0.559,0.002,0.022,0.011,0.225,0.036,-0.031,0.171,-0.967,0.964
2024-11-02 23:09:30.214,41044.971,0.096,0.822,-0.562,0.004,0.028,0.009,0.287,0.03,-0.045,0.17,-0.965,0.962
2024-11-02 23:09:30.223,41044.981,0.096,0.82,-0.564,0.006,0.024,0.014,0.341,0.025,-0.062,0.169,-0.962,0.961
2024-11-02 23:09:30.233,41044.991,0.096,0.818,-0.567,0.009,0.021,0.019,0.376,0.018,-0.071,0.167,-0.958,0.958
2024-11-02 23:09:30.244,41045.001,0.095,0.816,-0.57,0.012,0.022,0.02,0.379,0.049,-0.037,0.166,-0.954,0.956
2024-11-02 23:09:30.253,41045.011,0.095,0.814,-0.573,0.01,0.021,0.026,0.311,0.044,-0.077,0.165,-0.951,0.954
2024-11-02 23:09:30.263,41045.021,0.095,0.813,-0.575,-0.022,0.031,-0.005,0.244,0.028,-0.048,0.163,-0.949,0.952
2024-11-02 23:09:30.273,41045.031,0.095,0.811,-0.577,0.005,-0.035,-0.005,0.154,0.016,-0.025,0.163,-0.947,0.951
2024-11-02 23:09:30.283,41045.041,0.094,0.811,-0.578,0.01,-0.074,-0.007,0.077,-0.002,-0.037,0.162,-0.946,0.95
2024-11-02 23:09:30.294,41045.051,0.094,0.811,-0.578,-0.012,-0.011,-0.017,0.016,-0.03,-0.032,0.161,-0.945,0.95
2024-11-02 23:09:30.303,41045.061,0.094,0.811,-0.578,0.003,-0.032,-0.014,-0.021,-0.062,-0.035,0.161,-0.945,0.949
2024-11-02 23:09:30.314,41045.071,0.093,0.811,-0.578,0.005,-0.037,-0.009,-0.073,-0.105,-0.044,0.159,-0.946,0.949
2024-11-02 23:09:30.323,41045.081,0.092,0.812,-0.577,0.007,-0.015,-0.009,-0.105,-0.148,-0.063,0.157,-0.947,0.948
2024-11-02 23:09:30.333,41045.091,0.09,0.813,-0.576,0.011,0.002,-0.014,-0.165,-0.187,-0.059,0.155,-0.949,0.947
2024-11-02 23:09:30.343,41045.101,0.089,0.814,-0.575,0.014,-0.004,-0.017,-0.189,-0.209,-0.038,0.153,-0.95,0.947
2024-11-02 23:09:30.353,41045.111,0.087,0.815,-0.573,0.009,-0.002,-0.017,-0.21,-0.236,-0.032,0.151,-0.952,0.947
2024-11-02 23:09:30.362,41045.121,0.086,0.816,-0.572,0.004,-0.0,-0.012,-0.179,-0.224,0.01,0.149,-0.954,0.947
2024-11-02 23:09:30.373,41045.131,0.085,0.817,-0.57,0.007,-0.023,-0.001,-0.299,-0.055,0.207,0.149,-0.956,0.949
2024-11-02 23:09:30.383,41045.141,0.086,0.818,-0.568,0.018,-0.038,0.012,-0.23,-0.233,0.122,0.15,-0.959,0.953
2024-11-02 23:09:30.393,41045.151,0.086,0.819,-0.567,0.041,-0.012,-0.003,-0.085,-0.153,0.117,0.15,-0.96,0.955
2024-11-02 23:09:30.403,41045.161,0.086,0.819,-0.567,0.011,0.016,0.005,-0.102,-0.108,0.179,0.151,-0.96,0.958
2024-11-02 23:09:30.413,41045.171,0.087,0.82,-0.566,-0.042,0.063,-0.009,-0.073,-0.176,0.105,0.152,-0.961,0.961
2024-11-02 23:09:30.423,41045.181,0.087,0.82,-0.566,0.028,0.028,-0.018,-0.022,-0.058,0.058,0.152,-0.961,0.963
2024-11-02 23:09:30.433,41045.191,0.087,0.821,-0.565,0.004,0.001,-0.04,-0.288,-0.104,0.022,0.152,-0.963,0.964
2024-11-02 23:09:30.443,41045.201,0.086,0.822,-0.563,-0.012,0.001,-0.021,-0.124,-0.056,0.03,0.152,-0.965,0.965
2024-11-02 23:09:30.452,41045.211,0.087,0.822,-0.562,0.002,-0.079,0.009,-0.09,0.05,0.013,0.153,-0.965,0.965
2024-11-02 23:09:30.462,41045.221,0.087,0.823,-0.561,0.009,-0.059,0.014,-0.199,0.053,-0.013,0.153,-0.967,0.966
2024-11-02 23:09:30.472,41045.231,0.087,0.824,-0.56,-0.019,-0.051,0.051,-0.195,0.093,0.029,0.155,-0.969,0.966
2024-11-02 23:09:30.483,41045.241,0.088,0.825,-0.558,-0.014,-0.102,0.065,-0.1,0.128,0.023,0.157,-0.97,0.967
2024-11-02 23:09:30.493,41045.251,0.089,0.825,-0.558,-0.017,0.007,0.07,-0.033,0.103,0.04,0.158,-0.971,0.968
2024-11-02 23:09:30.503,41045.261,0.091,0.824,-0.559,-0.049,0.048,0.068,0.194,0.15,0.216,0.162,-0.969,0.971
2024-11-02 23:09:30.513,41045.271,0.094,0.823,-0.56,-0.023,0.008,0.022,0.138,0.178,0.182,0.166,-0.967,0.974
2024-11-02 23:09:30.523,41045.281,0.096,0.822,-0.561,0.023,0.064,-0.054,0.078,0.175,0.179,0.17,-0.966,0.976
2024-11-02 23:09:30.533,41045.291,0.099,0.822,-0.561,-0.043,0.052,-0.035,-0.03,0.187,0.12,0.174,-0.965,0.979
2024-11-02 23:09:30.543,41045.301,0.101,0.822,-0.56,-0.018,-0.056,-0.025,-0.115,0.202,0.092,0.178,-0.966,0.981
2024-11-02 23:09:30.553,41045.311,0.103,0.823,-0.558,0.016,-0.091,-0.012,-0.207,0.277,0.057,0.182,-0.967,0.983
2024-11-02 23:09:30.564,41045.321,0.104,0.825,-0.556,-0.004,-0.047,-0.016,-0.301,0.31,0.024,0.186,-0.969,0.984
2024-11-02 23:09:30.574,41045.331,0.106,0.826,-0.553,-0.023,-0.004,-0.027,-0.353,0.297,0.002,0.19,-0.973,0.985
2024-11-02 23:09:30.583,41045.341,0.108,0.829,-0.549,-0.014,-0.028,-0.032,-0.4,0.235,-0.019,0.193,-0.976,0.987
2024-11-02 23:09:30.593,41045.351,0.109,0.831,-0.546,0.007,-0.056,-0.022,-0.352,0.166,-0.034,0.196,-0.98,0.987
2024-11-02 23:09:30.603,41045.361,0.109,0.832,-0.544,0.011,-0.015,-0.025,-0.211,0.139,-0.04,0.198,-0.983,0.988
2024-11-02 23:09:30.613,41045.371,0.109,0.833,-0.542,0.012,0.054,-0.002,-0.042,0.113,-0.035,0.199,-0.984,0.987
2024-11-02 23:09:30.623,41045.381,0.11,0.833,-0.543,0.006,0.088,0.028,0.106,0.103,-0.013,0.2,-0.984,0.987
2024-11-02 23:09:30.633,41045.391,0.11,0.832,-0.544,0.013,0.063,0.042,0.189,0.092,-0.013,0.2,-0.983,0.986
2024-11-02 23:09:30.643,41045.401,0.111,0.831,-0.545,0.015,0.041,0.042,0.223,0.089,-0.017,0.2,-0.981,0.985
2024-11-02 23:09:30.653,41045.411,0.111,0.83,-0.547,0.005,0.027,0.024,0.208,0.074,-0.025,0.2,-0.979,0.984
2024-11-02 23:09:30.663,41045.421,0.111,0.829,-0.548,0.005,0.009,0.009,0.145,0.045,-0.028,0.2,-0.977,0.983
2024-11-02 23:09:30.673,41045.431,0.111,0.828,-0.549,-0.001,-0.01,-0.003,0.087,0.007,-0.024,0.199,-0.976,0.982
2024-11-02 23:09:30.683,41045.441,0.111,0.828,-0.55,0.004,-0.034,-0.01,0.028,-0.011,-0.018,0.199,-0.975,0.981
2024-11-02 23:09:30.693,41045.451,0.11,0.828,-0.55,0.007,-0.035,-0.007,-0.011,-0.025,-0.008,0.198,-0.975,0.981
2024-11-02 23:09:30.702,41045.461,0.11,0.828,-0.55,0.001,-0.015,-0.008,-0.046,-0.03,0.004,0.198,-0.976,0.981
2024-11-02 23:09:30.712,41045.471,0.11,0.828,-0.549,-0.003,-0.013,-0.009,-0.039,-0.015,0.022,0.198,-0.976,0.982
2024-11-02 23:09:30.723,41045.481,0.11,0.829,-0.549,-0.001,-0.023,-0.006,-0.009,0.005,0.024,0.198,-0.976,0.982
2024-11-02 23:09:30.733,41045.491,0.111,0.828,-0.549,-0.004,-0.006,0.002,0.022,-0.006,0.017,0.199,-0.976,0.983
2024-11-02 23:09:30.742,41045.501,0.111,0.828,-0.549,-0.006,0.023,0.002,0.073,-0.023,0.01,0.199,-0.976,0.983
2024-11-02 23:09:30.753,41045.511,0.11,0.828,-0.55,0.006,0.019,0.005,0.134,-0.035,-0.005,0.198,-0.975,0.982
2024-11-02 23:09:30.762,41045.521,0.11,0.827,-0.552,0.012,0.013,0.014,0.207,-0.038,-0.025,0.197,-0.973,0.981
2024-11-02 23:09:30.772,41045.531,0.11,0.825,-0.554,0.013,0.026,0.02,0.261,-0.05,-0.046,0.195,-0.971,0.98
2024-11-02 23:09:30.782,41045.541,0.109,0.824,-0.556,0.013,0.031,0.024,0.288,-0.054,-0.049,0.193,-0.968,0.978
2024-11-02 23:09:30.792,41045.55,0.108,0.822,-0.559,0.012,0.014,0.022,0.296,-0.067,-0.056,0.191,-0.966,0.976
2024-11-02 23:09:30.802,41045.56,0.107,0.821,-0.561,0.01,-0.006,0.017,0.265,-0.098,-0.072,0.189,-0.963,0.974
2024-11-02 23:09:30.812,41045.57,0.106,0.819,-0.563,0.004,-0.007,0.006,0.265,-0.132,-0.066,0.186,-0.96,0.972
2024-11-02 23:09:30.823,41045.58,0.105,0.818,-0.566,0.006,-0.004,-0.006,0.298,-0.131,-0.052,0.183,-0.958,0.97
2024-11-02 23:09:30.832,41045.59,0.104,0.816,-0.568,0.009,0.0,0.005,0.299,-0.072,-0.026,0.181,-0.955,0.969
2024-11-02 23:09:30.842,41045.6,0.103,0.815,-0.571,-0.002,0.023,0.017,0.252,-0.06,-0.034,0.179,-0.952,0.968
2024-11-02 23:09:30.852,41045.61,0.103,0.813,-0.573,-0.033,0.036,-0.016,0.249,-0.057,-0.009,0.178,-0.95,0.967
2024-11-02 23:09:30.862,41045.62,0.103,0.812,-0.574,0.0,-0.041,-0.004,0.252,-0.039,-0.005,0.177,-0.948,0.966
2024-11-02 23:09:30.872,41045.63,0.102,0.811,-0.577,0.004,-0.049,0.007,0.282,-0.044,-0.014,0.176,-0.945,0.965
2024-11-02 23:09:30.882,41045.64,0.102,0.809,-0.579,-0.011,0.033,0.008,0.328,-0.051,-0.018,0.174,-0.942,0.964
2024-11-02 23:09:30.892,41045.65,0.102,0.807,-0.582,0.008,0.011,0.01,0.357,-0.058,-0.033,0.173,-0.939,0.962
2024-11-02 23:09:30.903,41045.66,0.101,0.805,-0.585,0.006,0.021,0.017,0.371,-0.053,-0.039,0.171,-0.935,0.961
2024-11-02 23:09:30.912,41045.67,0.1,0.803,-0.588,0.008,0.021,0.016,0.343,-0.038,-0.042,0.169,-0.932,0.959
2024-11-02 23:09:30.922,41045.68,0.1,0.801,-0.59,0.012,0.001,0.015,0.301,-0.028,-0.048,0.168,-0.929,0.957
2024-11-02 23:09:30.932,41045.69,0.099,0.799,-0.593,0.001,0.004,0.008,0.223,-0.018,-0.061,0.166,-0.926,0.956
2024-11-02 23:09:30.942,41045.7,0.099,0.798,-0.594,0.001,-0.01,-0.003,0.097,-0.013,-0.067,0.165,-0.925,0.954
2024-11-02 23:09:30.953,41045.71,0.098,0.799,-0.594,-0.0,-0.031,-0.017,-0.04,-0.007,-0.028,0.164,-0.925,0.954
2024-11-02 23:09:30.962,41045.72,0.098,0.799,-0.593,-0.021,-0.039,-0.038,-0.108,0.001,-0.032,0.164,-0.926,0.953
2024-11-02 23:09:30.972,41045.73,0.098,0.8,-0.592,-0.004,-0.069,-0.029,-0.162,-0.033,-0.026,0.164,-0.927,0.953
2024-11-02 23:09:30.982,41045.74,0.098,0.801,-0.591,-0.011,-0.047,-0.029,-0.092,0.001,0.005,0.164,-0.928,0.953
2024-11-02 23:09:30.992,41045.75,0.098,0.801,-0.591,-0.007,-0.012,0.003,-0.005,0.046,0.025,0.164,-0.929,0.954
2024-11-02 23:09:31.002,41045.76,0.098,0.801,-0.591,0.014,0.002,0.011,0.068,0.054,-0.011,0.164,-0.928,0.954
2024-11-02 23:09:31.012,41045.77,0.098,0.8,-0.592,-0.005,0.066,0.025,0.047,-0.034,-0.02,0.164,-0.928,0.953
2024-11-02 23:09:31.022,41045.78,0.098,0.8,-0.592,-0.004,-0.005,0.025,0.047,-0.07,0.034,0.164,-0.927,0.953
2024-11-02 23:09:31.032,41045.79,0.097,0.8,-0.593,0.002,0.009,0.006,0.05,-0.161,-0.002,0.163,-0.926,0.953
2024-11-02 23:09:31.042,41045.8,0.096,0.799,-0.593,0.027,0.005,0.007,0.013,-0.124,-0.007,0.161,-0.926,0.953
2024-11-02 23:09:31.052,41045.81,0.095,0.799,-0.594,0.041,-0.017,0.02,0.043,-0.047,-0.072,0.159,-0.926,0.952
2024-11-02 23:09:31.062,41045.82,0.094,0.799,-0.594,0.041,0.016,0.02,-0.019,-0.095,-0.047,0.158,-0.926,0.951
2024-11-02 23:09:31.073,41045.83,0.094,0.8,-0.593,-0.0,-0.035,-0.017,-0.129,-0.04,-0.034,0.156,-0.927,0.95
2024-11-02 23:09:31.082,41045.84,0.094,0.801,-0.592,-0.002,-0.081,-0.004,-0.295,0.048,0.023,0.157,-0.929,0.951
2024-11-02 23:09:31.092,41045.85,0.094,0.803,-0.588,-0.016,-0.135,0.002,-0.503,0.093,0.083,0.159,-0.932,0.953
2024-11-02 23:09:31.102,41045.86,0.096,0.807,-0.583,-0.036,-0.09,-0.018,-0.716,0.121,0.132,0.163,-0.938,0.956
2024-11-02 23:09:31.112,41045.87,0.098,0.811,-0.577,-0.038,-0.121,-0.049,-0.854,0.163,0.16,0.168,-0.946,0.961
2024-11-02 23:09:31.122,41045.88,0.1,0.816,-0.57,-0.033,-0.092,-0.057,-0.894,0.167,0.207,0.175,-0.954,0.967
2024-11-02 23:09:31.132,41045.89,0.103,0.82,-0.563,-0.026,-0.04,-0.038,-0.797,0.199,0.187,0.181,-0.962,0.973
2024-11-02 23:09:31.142,41045.9,0.106,0.825,-0.555,-0.006,0.031,-0.015,-0.887,0.165,0.143,0.188,-0.97,0.978
2024-11-02 23:09:31.152,41045.91,0.107,0.83,-0.547,-0.029,0.088,-0.056,-1.06,0.061,0.133,0.194,-0.979,0.984
2024-11-02 23:09:31.162,41045.92,0.109,0.836,-0.538,-0.034,0.036,-0.087,-1.107,-0.048,0.173,0.199,-0.99,0.99
2024-11-02 23:09:31.172,41045.93,0.109,0.841,-0.53,0.018,-0.096,-0.066,-0.772,-0.263,-0.026,0.203,-0.999,0.996
2024-11-02 23:09:31.182,41045.94,0.105,0.844,-0.526,0.02,-0.039,-0.023,-0.251,-0.236,-0.087,0.197,-1.004,0.993
2024-11-02 23:09:31.192,41045.95,0.104,0.844,-0.526,-0.137,0.145,-0.002,0.146,-0.124,-0.132,0.195,-1.005,0.992
2024-11-02 23:09:31.203,41045.96,0.102,0.843,-0.528,-0.215,0.287,0.001,0.36,-0.141,-0.097,0.19,-1.002,0.988
2024-11-02 23:09:31.213,41045.97,0.1,0.842,-0.53,0.022,0.119,0.031,0.133,-0.228,-0.104,0.187,-1.001,0.986
2024-11-02 23:09:31.221,41045.98,0.098,0.841,-0.532,-0.052,0.066,0.037,0.279,-0.282,-0.141,0.182,-0.999,0.983
2024-11-02 23:09:31.232,41045.99,0.095,0.839,-0.536,-0.044,0.069,0.07,0.396,-0.268,-0.111,0.176,-0.996,0.98
2024-11-02 23:09:31.242,41046.0,0.093,0.837,-0.539,-0.064,0.041,0.072,0.417,-0.287,-0.153,0.17,-0.992,0.976
2024-11-02 23:09:31.252,41046.01,0.09,0.835,-0.543,-0.039,0.064,0.085,0.387,-0.286,-0.181,0.164,-0.988,0.972
2024-11-02 23:09:31.262,41046.02,0.087,0.833,-0.546,-0.013,0.015,0.072,0.359,-0.239,-0.186,0.157,-0.985,0.968
2024-11-02 23:09:31.272,41046.03,0.084,0.831,-0.549,-0.004,0.012,0.046,0.265,-0.188,-0.164,0.152,-0.982,0.964
2024-11-02 23:09:31.282,41046.04,0.082,0.83,-0.551,0.0,-0.006,0.036,0.15,-0.123,-0.065,0.148,-0.98,0.961
2024-11-02 23:09:31.292,41046.05,0.082,0.83,-0.552,0.02,-0.079,0.055,-0.037,-0.078,0.007,0.147,-0.979,0.961
2024-11-02 23:09:31.302,41046.06,0.081,0.831,-0.551,0.037,-0.157,0.064,-0.132,-0.073,-0.019,0.146,-0.98,0.961
2024-11-02 23:09:31.312,41046.07,0.08,0.831,-0.55,0.038,-0.147,0.051,-0.034,-0.049,-0.045,0.145,-0.981,0.96
2024-11-02 23:09:31.322,41046.08,0.08,0.831,-0.55,0.044,-0.095,0.01,0.115,-0.003,-0.027,0.144,-0.981,0.96
2024-11-02 23:09:31.332,41046.09,0.08,0.83,-0.552,0.064,-0.063,-0.02,0.218,0.046,-0.017,0.144,-0.979,0.959
2024-11-02 23:09:31.342,41046.1,0.08,0.829,-0.554,0.074,-0.032,-0.0,0.198,0.098,-0.022,0.144,-0.977,0.958
2024-11-02 23:09:31.352,41046.11,0.081,0.828,-0.555,0.079,-0.01,0.025,0.14,0.119,-0.004,0.144,-0.975,0.957
2024-11-02 23:09:31.362,41046.12,0.081,0.827,-0.556,0.097,0.004,0.019,0.113,0.142,-0.003,0.145,-0.974,0.957
2024-11-02 23:09:31.372,41046.13,0.082,0.827,-0.557,0.112,0.019,-0.006,0.128,0.159,0.005,0.147,-0.973,0.957
2024-11-02 23:09:31.382,41046.14,0.083,0.826,-0.557,0.086,0.047,-0.037,0.056,0.141,0.012,0.148,-0.972,0.956
2024-11-02 23:09:31.392,41046.149,0.084,0.826,-0.557,0.069,0.015,-0.05,-0.041,0.094,0.005,0.149,-0.972,0.957
2024-11-02 23:09:31.402,41046.159,0.084,0.826,-0.557,0.052,-0.025,-0.034,-0.093,0.065,0.019,0.15,-0.973,0.957
2024-11-02 23:09:31.412,41046.169,0.085,0.827,-0.556,0.025,-0.049,-0.015,-0.07,0.054,0.01,0.151,-0.974,0.958
2024-11-02 23:09:31.422,41046.179,0.085,0.827,-0.556,0.005,-0.027,-0.011,-0.03,0.041,0.012,0.152,-0.974,0.958
2024-11-02 23:09:31.432,41046.189,0.086,0.827,-0.555,-0.012,-0.002,-0.011,-0.004,0.028,0.001,0.153,-0.974,0.958
2024-11-02 23:09:31.441,41046.199,0.086,0.827,-0.555,-0.018,-0.004,-0.002,0.037,0.019,-0.006,0.153,-0.974,0.958
2024-11-02 23:09:31.452,41046.209,0.086,0.827,-0.556,-0.021,-0.005,0.004,0.247,0.087,0.001,0.153,-0.973,0.958
2024-11-02 23:09:31.462,41046.219,0.086,0.826,-0.558,-0.022,0.005,-0.002,0.15,0.064,-0.001,0.153,-0.971,0.957
2024-11-02 23:09:31.472,41046.229,0.087,0.825,-0.559,-0.016,0.03,-0.041,0.107,0.048,0.003,0.154,-0.97,0.957
2024-11-02 23:09:31.482,41046.239,0.087,0.824,-0.559,-0.01,0.047,-0.026,0.032,0.025,0.012,0.154,-0.969,0.957
2024-11-02 23:09:31.492,41046.249,0.087,0.824,-0.559,-0.002,-0.018,-0.018,-0.008,0.004,0.013,0.155,-0.969,0.957
2024-11-02 23:09:31.501,41046.259,0.087,0.824,-0.559,0.007,-0.034,-0.02,-0.004,0.005,0.01,0.155,-0.969,0.958
2024-11-02 23:09:31.512,41046.269,0.087,0.824,-0.56,0.005,-0.019,-0.009,0.025,0.022,-0.003,0.155,-0.969,0.958
2024-11-02 23:09:31.521,41046.279,0.087,0.824,-0.56,0.002,0.007,0.006,0.053,0.026,-0.002,0.155,-0.968,0.957
2024-11-02 23:09:31.531,41046.289,0.088,0.824,-0.56,-0.002,0.013,0.011,0.079,0.048,-0.0,0.155,-0.968,0.957
2024-11-02 23:09:31.541,41046.299,0.088,0.823,-0.561,0.003,-0.006,0.011,0.104,0.064,-0.008,0.155,-0.967,0.957
2024-11-02 23:09:31.551,41046.309,0.088,0.822,-0.562,-0.001,-0.001,0.012,0.106,0.061,-0.017,0.155,-0.966,0.956
2024-11-02 23:09:31.562,41046.319,0.088,0.822,-0.563,-0.005,0.006,0.006,0.09,0.047,-0.02,0.156,-0.965,0.956
2024-11-02 23:09:31.571,41046.329,0.088,0.821,-0.563,0.003,-0.004,-0.001,0.089,0.016,-0.022,0.155,-0.964,0.955
2024-11-02 23:09:31.581,41046.339,0.088,0.821,-0.564,0.004,-0.003,-0.006,0.114,-0.004,-0.036,0.155,-0.963,0.954
2024-11-02 23:09:31.592,41046.349,0.088,0.82,-0.565,0.008,0.005,-0.001,0.158,-0.02,-0.049,0.154,-0.962,0.953
2024-11-02 23:09:31.601,41046.359,0.087,0.819,-0.567,0.011,0.013,0.009,0.22,-0.039,-0.055,0.152,-0.96,0.952
2024-11-02 23:09:31.612,41046.369,0.086,0.818,-0.569,0.009,0.018,0.016,0.283,-0.069,-0.069,0.151,-0.958,0.95
2024-11-02 23:09:31.621,41046.379,0.086,0.816,-0.572,0.012,0.021,0.021,0.342,0.005,-0.047,0.149,-0.954,0.948
2024-11-02 23:09:31.631,41046.389,0.085,0.814,-0.574,0.013,0.024,0.026,0.315,0.017,-0.052,0.148,-0.951,0.947
2024-11-02 23:09:31.641,41046.399,0.085,0.813,-0.577,-0.023,0.04,0.005,0.285,0.034,-0.028,0.147,-0.949,0.945
2024-11-02 23:09:31.651,41046.409,0.085,0.811,-0.579,-0.019,0.006,-0.004,0.247,0.041,0.008,0.146,-0.946,0.944
2024-11-02 23:09:31.661,41046.419,0.086,0.81,-0.58,0.004,-0.066,0.005,0.211,0.056,0.0,0.146,-0.944,0.944
2024-11-02 23:09:31.671,41046.429,0.086,0.809,-0.582,-0.015,-0.002,-0.006,-0.021,-0.037,-0.025,0.146,-0.942,0.943
2024-11-02 23:09:31.681,41046.439,0.085,0.809,-0.581,-0.006,0.008,-0.003,0.066,-0.031,-0.004,0.146,-0.943,0.943
2024-11-02 23:09:31.691,41046.449,0.085,0.809,-0.582,0.002,-0.037,0.016,0.094,-0.049,0.026,0.145,-0.942,0.943
2024-11-02 23:09:31.701,41046.459,0.085,0.808,-0.583,0.022,-0.032,-0.012,0.029,-0.104,0.024,0.145,-0.941,0.943
2024-11-02 23:09:31.711,41046.469,0.085,0.808,-0.583,0.019,0.021,-0.026,-0.07,-0.103,0.026,0.144,-0.941,0.944
2024-11-02 23:09:31.722,41046.479,0.084,0.809,-0.582,0.021,-0.031,-0.017,-0.157,-0.155,0.153,0.144,-0.942,0.945
2024-11-02 23:09:31.731,41046.489,0.084,0.809,-0.581,0.014,-0.039,-0.018,-0.039,-0.125,0.036,0.144,-0.943,0.947
2024-11-02 23:09:31.741,41046.499,0.084,0.81,-0.581,0.019,0.015,-0.022,-0.109,-0.164,0.079,0.144,-0.944,0.948
2024-11-02 23:09:31.751,41046.509,0.084,0.81,-0.58,0.001,-0.01,-0.035,-0.147,-0.144,0.067,0.143,-0.945,0.95
2024-11-02 23:09:31.761,41046.519,0.083,0.811,-0.579,0.007,-0.01,-0.027,-0.13,-0.192,0.051,0.142,-0.946,0.951
2024-11-02 23:09:31.771,41046.529,0.083,0.812,-0.578,0.015,-0.0,-0.023,-0.152,-0.146,0.067,0.142,-0.947,0.952
2024-11-02 23:09:31.781,41046.539,0.082,0.813,-0.576,0.004,-0.017,-0.017,-0.296,-0.233,0.034,0.141,-0.949,0.954
2024-11-02 23:09:31.791,41046.549,0.081,0.814,-0.574,0.008,-0.026,-0.011,-0.173,-0.176,0.047,0.14,-0.952,0.955
2024-11-02 23:09:31.801,41046.559,0.081,0.815,-0.574,0.0,0.012,-0.008,-0.039,-0.117,0.008,0.14,-0.953,0.956
2024-11-02 23:09:31.811,41046.569,0.08,0.815,-0.573,-0.003,0.045,-0.026,-0.123,-0.055,0.006,0.139,-0.953,0.956
2024-11-02 23:09:31.821,41046.579,0.08,0.816,-0.572,-0.014,0.016,0.005,-0.145,-0.128,0.003,0.138,-0.955,0.957
2024-11-02 23:09:31.831,41046.589,0.079,0.817,-0.572,-0.011,-0.088,0.039,0.025,0.062,-0.02,0.138,-0.955,0.957
2024-11-02 23:09:31.841,41046.599,0.08,0.817,-0.571,0.008,-0.058,0.042,-0.176,0.031,0.003,0.139,-0.956,0.957
2024-11-02 23:09:31.852,41046.609,0.08,0.818,-0.569,-0.043,-0.013,0.039,-0.262,0.036,0.012,0.14,-0.958,0.957
2024-11-02 23:09:31.861,41046.619,0.08,0.82,-0.567,-0.023,-0.12,0.069,-0.186,0.049,0.022,0.141,-0.961,0.958
2024-11-02 23:09:31.871,41046.629,0.081,0.82,-0.566,-0.001,-0.044,0.05,-0.119,0.03,0.058,0.142,-0.962,0.959
2024-11-02 23:09:31.881,41046.639,0.082,0.821,-0.565,-0.032,0.047,0.01,-0.104,0.024,0.065,0.143,-0.963,0.961
2024-11-02 23:09:31.891,41046.649,0.082,0.821,-0.564,-0.023,0.016,-0.01,-0.1,0.03,0.058,0.145,-0.964,0.962
2024-11-02 23:09:31.901,41046.659,0.083,0.822,-0.564,-0.008,0.012,-0.014,-0.095,0.039,0.048,0.146,-0.965,0.963
2024-11-02 23:09:31.911,41046.669,0.084,0.822,-0.563,-0.013,-0.002,-0.011,-0.079,0.068,0.038,0.147,-0.965,0.964
2024-11-02 23:09:31.921,41046.679,0.084,0.823,-0.562,-0.006,-0.02,0.003,-0.099,0.145,0.044,0.149,-0.966,0.965
2024-11-02 23:09:31.931,41046.689,0.086,0.823,-0.561,0.003,-0.016,0.02,-0.147,0.172,0.021,0.151,-0.967,0.966
2024-11-02 23:09:31.941,41046.699,0.087,0.824,-0.56,-0.008,-0.022,0.017,-0.012,0.237,0.087,0.154,-0.968,0.967
2024-11-02 23:09:31.951,41046.709,0.089,0.824,-0.559,-0.005,-0.04,-0.015,-0.169,0.207,0.02,0.157,-0.969,0.968
2024-11-02 23:09:31.961,41046.719,0.09,0.825,-0.557,0.019,0.007,-0.073,-0.209,0.177,0.01,0.16,-0.971,0.969
2024-11-02 23:09:31.972,41046.729,0.091,0.827,-0.555,0.006,0.047,-0.043,-0.224,0.141,-0.003,0.162,-0.973,0.969
2024-11-02 23:09:31.980,41046.739,0.091,0.828,-0.553,0.003,-0.011,-0.016,-0.195,0.11,-0.026,0.163,-0.975,0.97
2024-11-02 23:09:31.990,41046.749,0.091,0.829,-0.552,0.014,-0.006,-0.011,-0.115,0.094,-0.037,0.164,-0.977,0.97
2024-11-02 23:09:32.000,41046.758,0.092,0.829,-0.552,0.012,0.017,0.003,-0.002,0.081,-0.05,0.165,-0.978,0.969
2024-11-02 23:09:32.010,41046.768,0.092,0.829,-0.552,0.01,0.037,0.021,0.101,0.089,-0.052,0.164,-0.977,0.968
2024-11-02 23:09:32.020,41046.778,0.092,0.828,-0.553,0.009,0.04,0.029,0.151,0.075,-0.043,0.164,-0.976,0.967
2024-11-02 23:09:32.030,41046.788,0.092,0.827,-0.554,0.006,0.028,0.029,0.147,0.054,-0.035,0.164,-0.974,0.966
2024-11-02 23:09:32.040,41046.798,0.092,0.827,-0.555,0.005,0.011,0.014,0.121,0.04,-0.02,0.164,-0.973,0.965
2024-11-02 23:09:32.051,41046.808,0.092,0.826,-0.556,0.005,-0.009,-0.003,0.071,0.024,-0.016,0.164,-0.972,0.964
2024-11-02 23:09:32.060,41046.818,0.092,0.826,-0.556,-0.003,-0.02,-0.01,0.021,0.028,-0.009,0.163,-0.972,0.964
2024-11-02 23:09:32.070,41046.828,0.092,0.826,-0.556,-0.002,-0.018,-0.012,-0.03,0.031,-0.012,0.164,-0.972,0.964
2024-11-02 23:09:32.081,41046.838,0.092,0.826,-0.556,0.0,-0.028,-0.01,-0.08,0.015,-0.012,0.164,-0.972,0.964
2024-11-02 23:09:32.091,41046.848,0.092,0.827,-0.555,-0.003,-0.021,-0.01,-0.099,-0.009,-0.01,0.164,-0.973,0.964
2024-11-02 23:09:32.101,41046.858,0.092,0.827,-0.554,0.004,-0.018,-0.01,-0.075,-0.031,-0.014,0.164,-0.974,0.964
2024-11-02 23:09:32.111,41046.868,0.091,0.828,-0.554,0.011,-0.016,-0.002,-0.01,-0.039,-0.019,0.163,-0.975,0.964
2024-11-02 23:09:32.120,41046.878,0.091,0.827,-0.554,0.009,0.014,0.01,0.086,-0.034,-0.02,0.163,-0.975,0.963
2024-11-02 23:09:32.130,41046.888,0.091,0.827,-0.555,0.008,0.031,0.021,0.172,-0.045,-0.031,0.162,-0.973,0.963
2024-11-02 23:09:32.140,41046.898,0.09,0.826,-0.557,0.003,0.044,0.023,0.245,-0.068,-0.032,0.16,-0.971,0.961
2024-11-02 23:09:32.150,41046.908,0.089,0.824,-0.559,0.006,0.035,0.017,0.307,-0.07,-0.039,0.158,-0.969,0.96
2024-11-02 23:09:32.160,41046.918,0.089,0.822,-0.562,0.011,0.021,0.019,0.35,-0.064,-0.045,0.156,-0.965,0.958
2024-11-02 23:09:32.170,41046.928,0.088,0.82,-0.565,0.003,0.02,0.022,0.358,-0.019,-0.042,0.154,-0.962,0.957
2024-11-02 23:09:32.180,41046.938,0.088,0.819,-0.568,0.0,0.003,0.015,0.25,-0.004,-0.027,0.153,-0.959,0.955
2024-11-02 23:09:32.190,41046.948,0.088,0.817,-0.569,-0.009,-0.005,0.004,0.162,0.007,-0.026,0.153,-0.957,0.954
2024-11-02 23:09:32.200,41046.958,0.087,0.817,-0.57,-0.03,-0.003,-0.03,0.107,-0.005,-0.003,0.152,-0.956,0.954
2024-11-02 23:09:32.210,41046.968,0.087,0.816,-0.571,0.012,-0.082,-0.008,0.085,-0.006,-0.007,0.152,-0.955,0.953
2024-11-02 23:09:32.220,41046.978,0.087,0.816,-0.572,-0.002,-0.042,-0.005,0.112,-0.021,-0.009,0.151,-0.954,0.953
2024-11-02 23:09:32.231,41046.988,0.087,0.815,-0.573,-0.003,0.024,-0.004,0.151,-0.027,-0.011,0.151,-0.953,0.953
2024-11-02 23:09:32.241,41046.998,0.087,0.814,-0.574,0.006,0.012,0.005,0.216,-0.026,-0.015,0.15,-0.951,0.952
2024-11-02 23:09:32.250,41047.008,0.087,0.813,-0.576,0.005,0.017,0.019,0.26,-0.016,-0.017,0.149,-0.949,0.951
2024-11-02 23:09:32.260,41047.018,0.086,0.811,-0.579,0.004,0.015,0.022,0.278,-0.008,-0.029,0.148,-0.946,0.95
2024-11-02 23:09:32.270,41047.028,0.086,0.81,-0.581,0.004,0.018,0.017,0.272,-0.014,-0.041,0.147,-0.943,0.949
2024-11-02 23:09:32.280,41047.038,0.086,0.808,-0.583,0.003,0.017,0.01,0.21,-0.027,-0.044,0.146,-0.941,0.947
2024-11-02 23:09:32.290,41047.048,0.085,0.807,-0.584,0.004,-0.004,0.001,0.124,-0.04,-0.054,0.144,-0.939,0.946
2024-11-02 23:09:32.300,41047.058,0.084,0.807,-0.585,0.008,-0.033,-0.009,0.054,-0.034,-0.061,0.143,-0.939,0.945
2024-11-02 23:09:32.310,41047.068,0.084,0.807,-0.585,0.012,-0.033,-0.014,-0.037,0.081,0.116,0.143,-0.939,0.945
2024-11-02 23:09:32.320,41047.078,0.086,0.807,-0.585,-0.001,-0.018,-0.029,0.018,0.014,0.028,0.145,-0.938,0.947
2024-11-02 23:09:32.330,41047.088,0.085,0.807,-0.585,0.033,0.0,-0.023,-0.015,-0.029,0.009,0.145,-0.939,0.947
2024-11-02 23:09:32.340,41047.098,0.086,0.807,-0.585,-0.007,-0.04,-0.007,0.01,0.011,0.02,0.145,-0.939,0.948
2024-11-02 23:09:32.350,41047.108,0.086,0.807,-0.584,-0.055,0.023,-0.013,-0.03,0.006,0.004,0.145,-0.939,0.948
2024-11-02 23:09:32.360,41047.118,0.086,0.807,-0.584,0.017,0.015,0.004,-0.018,-0.042,0.025,0.146,-0.939,0.948
2024-11-02 23:09:32.370,41047.128,0.086,0.807,-0.585,-0.005,-0.016,0.007,0.13,-0.044,0.017,0.145,-0.939,0.948
2024-11-02 23:09:32.380,41047.138,0.085,0.806,-0.586,0.005,0.011,-0.008,0.086,-0.104,-0.013,0.145,-0.938,0.948
2024-11-02 23:09:32.390,41047.148,0.085,0.805,-0.587,0.017,0.015,-0.008,0.131,-0.059,0.018,0.144,-0.936,0.948
2024-11-02 23:09:32.400,41047.158,0.085,0.804,-0.588,0.028,-0.013,0.032,0.164,-0.067,-0.008,0.143,-0.935,0.948
2024-11-02 23:09:32.410,41047.168,0.084,0.804,-0.589,0.022,-0.006,0.012,0.144,-0.028,-0.024,0.142,-0.933,0.947
2024-11-02 23:09:32.420,41047.178,0.084,0.803,-0.59,-0.011,0.031,0.014,0.054,-0.026,-0.008,0.141,-0.932,0.947
2024-11-02 23:09:32.430,41047.188,0.084,0.803,-0.59,-0.013,-0.057,0.044,-0.01,-0.015,-0.014,0.141,-0.932,0.946
2024-11-02 23:09:32.440,41047.198,0.084,0.803,-0.59,-0.01,-0.055,0.019,-0.129,-0.02,0.02,0.141,-0.933,0.947
2024-11-02 23:09:32.450,41047.208,0.084,0.804,-0.588,-0.03,-0.042,-0.012,-0.277,-0.004,0.028,0.141,-0.935,0.947
2024-11-02 23:09:32.460,41047.218,0.084,0.806,-0.585,-0.023,-0.069,-0.013,-0.419,0.005,0.052,0.143,-0.938,0.949
2024-11-02 23:09:32.470,41047.228,0.085,0.809,-0.582,-0.036,-0.087,-0.004,-0.511,0.018,0.073,0.144,-0.943,0.951
2024-11-02 23:09:32.480,41047.238,0.085,0.812,-0.577,-0.043,-0.114,-0.011,-0.553,0.037,0.08,0.147,-0.948,0.954
2024-11-02 23:09:32.490,41047.248,0.088,0.815,-0.573,-0.039,-0.093,-0.022,-0.484,0.145,0.359,0.152,-0.952,0.958
2024-11-02 23:09:32.499,41047.258,0.091,0.817,-0.569,-0.033,-0.022,-0.018,-0.472,0.206,0.265,0.159,-0.957,0.965
2024-11-02 23:09:32.509,41047.268,0.092,0.82,-0.565,0.032,0.052,-0.05,-0.576,0.039,-0.105,0.162,-0.961,0.968
2024-11-02 23:09:32.519,41047.278,0.092,0.823,-0.56,-0.022,0.127,-0.018,-0.536,0.019,0.026,0.163,-0.967,0.969
2024-11-02 23:09:32.529,41047.288,0.092,0.826,-0.556,-0.123,0.055,-0.028,-0.514,-0.053,-0.059,0.164,-0.972,0.97
2024-11-02 23:09:32.539,41047.298,0.092,0.829,-0.552,-0.007,-0.048,-0.064,-0.323,-0.019,0.085,0.165,-0.976,0.971
2024-11-02 23:09:32.549,41047.308,0.092,0.83,-0.55,-0.003,-0.032,-0.044,-0.146,-0.02,0.031,0.166,-0.979,0.973
2024-11-02 23:09:32.560,41047.318,0.091,0.831,-0.548,-0.014,0.083,-0.051,-0.365,-0.144,-0.193,0.164,-0.982,0.972
2024-11-02 23:09:32.570,41047.328,0.089,0.832,-0.547,-0.019,0.117,-0.07,-0.055,-0.103,-0.049,0.162,-0.983,0.971
2024-11-02 23:09:32.580,41047.338,0.088,0.833,-0.546,-0.129,0.094,0.009,-0.106,-0.084,-0.095,0.16,-0.985,0.97
2024-11-02 23:09:32.590,41047.348,0.087,0.834,-0.546,-0.065,0.03,0.043,-0.068,-0.079,-0.107,0.158,-0.985,0.968
2024-11-02 23:09:32.600,41047.358,0.086,0.834,-0.545,-0.043,0.068,0.089,-0.076,-0.096,-0.104,0.156,-0.986,0.966
2024-11-02 23:09:32.611,41047.367,0.084,0.834,-0.545,-0.067,0.018,0.085,-0.041,-0.1,-0.113,0.153,-0.987,0.965
2024-11-02 23:09:32.620,41047.377,0.083,0.835,-0.545,-0.027,0.004,0.093,0.02,-0.105,-0.088,0.151,-0.987,0.963
2024-11-02 23:09:32.630,41047.387,0.082,0.834,-0.545,-0.011,0.006,0.084,0.06,-0.121,-0.04,0.148,-0.987,0.962
2024-11-02 23:09:32.640,41047.397,0.081,0.834,-0.546,-0.003,-0.02,0.059,0.068,-0.131,-0.034,0.147,-0.986,0.961
2024-11-02 23:09:32.649,41047.407,0.08,0.834,-0.547,0.017,-0.044,0.046,0.098,-0.111,-0.05,0.144,-0.986,0.96
2024-11-02 23:09:32.660,41047.417,0.079,0.833,-0.547,0.025,-0.03,0.035,0.102,-0.082,-0.026,0.143,-0.985,0.959
2024-11-02 23:09:32.670,41047.427,0.078,0.833,-0.548,0.027,-0.023,0.024,0.09,-0.05,-0.018,0.142,-0.984,0.958
2024-11-02 23:09:32.680,41047.437,0.078,0.832,-0.549,0.037,-0.045,0.02,0.078,0.022,-0.016,0.141,-0.983,0.958
2024-11-02 23:09:32.689,41047.447,0.078,0.832,-0.55,0.05,-0.043,0.016,0.108,0.06,-0.002,0.141,-0.982,0.957
2024-11-02 23:09:32.699,41047.457,0.079,0.831,-0.551,0.046,-0.026,0.007,0.157,0.093,0.015,0.142,-0.981,0.957
2024-11-02 23:09:32.709,41047.467,0.079,0.83,-0.552,0.056,-0.026,-0.022,0.185,0.133,0.037,0.143,-0.979,0.957
2024-11-02 23:09:32.719,41047.477,0.081,0.829,-0.554,0.069,-0.009,-0.025,0.253,0.162,0.083,0.145,-0.977,0.958
2024-11-02 23:09:32.730,41047.487,0.082,0.828,-0.555,0.073,-0.021,-0.024,0.054,0.148,0.018,0.147,-0.975,0.958
2024-11-02 23:09:32.740,41047.497,0.083,0.828,-0.555,0.098,-0.05,-0.023,0.001,0.134,0.035,0.148,-0.975,0.958
2024-11-02 23:09:32.749,41047.507,0.084,0.828,-0.555,0.064,-0.051,-0.004,-0.044,0.122,0.043,0.15,-0.975,0.959
2024-11-02 23:09:32.759,41047.517,0.085,0.828,-0.554,0.061,-0.055,-0.031,-0.052,0.108,0.014,0.152,-0.976,0.96
2024-11-02 23:09:32.769,41047.527,0.086,0.828,-0.554,0.055,-0.013,-0.03,-0.042,0.072,0.007,0.153,-0.976,0.96
2024-11-02 23:09:32.779,41047.537,0.086,0.828,-0.553,0.024,-0.011,-0.023,0.004,0.056,-0.008,0.154,-0.976,0.96
2024-11-02 23:09:32.789,41047.547,0.086,0.828,-0.553,0.019,0.007,-0.029,0.021,0.048,-0.026,0.154,-0.976,0.96
2024-11-02 23:09:32.799,41047.557,0.086,0.828,-0.554,0.012,0.044,-0.024,0.024,0.037,-0.012,0.155,-0.976,0.96
2024-11-02 23:09:32.809,41047.567,0.087,0.828,-0.554,-0.001,0.022,-0.008,0.013,0.045,-0.001,0.155,-0.976,0.96
2024-11-02 23:09:32.819,41047.577,0.087,0.828,-0.554,-0.001,-0.004,0.004,0.005,0.037,0.007,0.156,-0.975,0.96
2024-11-02 23:09:32.829,41047.587,0.087,0.828,-0.554,-0.01,-0.014,0.007,0.003,0.027,0.017,0.157,-0.975,0.96
2024-11-02 23:09:32.839,41047.597,0.088,0.828,-0.554,-0.023,-0.041,0.0,0.027,0.025,0.015,0.157,-0.975,0.961
2024-11-02 23:09:32.849,41047.607,0.088,0.828,-0.554,-0.019,-0.018,-0.01,0.038,0.017,0.013,0.158,-0.975,0.961
2024-11-02 23:09:32.859,41047.617,0.088,0.827,-0.555,-0.016,0.009,-0.017,0.071,-0.003,0.019,0.158,-0.974,0.961
2024-11-02 23:09:32.869,41047.627,0.088,0.827,-0.556,-0.012,0.011,-0.011,0.115,-0.02,0.011,0.158,-0.973,0.961
2024-11-02 23:09:32.879,41047.637,0.088,0.826,-0.557,-0.003,0.026,0.002,0.149,-0.042,-0.002,0.157,-0.972,0.961
2024-11-02 23:09:32.889,41047.647,0.088,0.825,-0.558,0.003,0.036,0.001,0.204,-0.065,-0.0,0.156,-0.97,0.96
2024-11-02 23:09:32.899,41047.657,0.087,0.824,-0.56,0.01,0.023,0.016,0.272,-0.067,-0.008,0.155,-0.968,0.96
2024-11-02 23:09:32.909,41047.667,0.087,0.822,-0.563,0.017,0.03,0.024,0.32,-0.078,-0.025,0.153,-0.965,0.959
2024-11-02 23:09:32.919,41047.677,0.086,0.82,-0.566,0.015,0.03,0.022,0.369,-0.081,-0.023,0.151,-0.962,0.957
2024-11-02 23:09:32.929,41047.687,0.086,0.818,-0.569,0.009,0.006,0.021,0.406,-0.043,-0.017,0.149,-0.958,0.956
2024-11-02 23:09:32.939,41047.697,0.086,0.816,-0.572,0.011,0.01,0.014,0.281,-0.008,0.029,0.149,-0.954,0.955
2024-11-02 23:09:32.949,41047.707,0.085,0.814,-0.574,0.003,0.013,0.01,0.224,-0.005,-0.031,0.148,-0.952,0.954
2024-11-02 23:09:32.959,41047.717,0.085,0.814,-0.575,-0.02,-0.012,-0.024,0.128,-0.009,0.001,0.147,-0.95,0.953
2024-11-02 23:09:32.969,41047.727,0.085,0.813,-0.576,-0.002,-0.052,-0.035,0.074,-0.008,-0.006,0.147,-0.949,0.953
2024-11-02 23:09:32.979,41047.737,0.085,0.813,-0.576,0.002,-0.052,-0.021,0.072,-0.002,-0.01,0.147,-0.949,0.953
2024-11-02 23:09:32.988,41047.747,0.085,0.812,-0.577,-0.001,-0.007,-0.009,0.085,-0.032,-0.004,0.146,-0.948,0.953
2024-11-02 23:09:32.999,41047.757,0.085,0.812,-0.578,0.006,0.004,0.001,0.134,-0.043,0.009,0.146,-0.947,0.952
2024-11-02 23:09:33.009,41047.767,0.085,0.811,-0.579,0.018,0.004,0.011,0.17,-0.047,0.033,0.145,-0.946,0.952
2024-11-02 23:09:33.019,41047.777,0.085,0.81,-0.581,0.015,0.016,0.007,0.161,-0.049,0.037,0.145,-0.944,0.953
2024-11-02 23:09:33.029,41047.787,0.085,0.809,-0.582,0.01,0.015,0.005,0.119,-0.117,0.045,0.144,-0.942,0.953
2024-11-02 23:09:33.039,41047.797,0.084,0.808,-0.583,0.003,0.0,0.005,0.056,-0.068,0.06,0.144,-0.941,0.953
2024-11-02 23:09:33.049,41047.807,0.085,0.808,-0.582,0.004,-0.04,0.001,-0.147,-0.168,0.076,0.144,-0.942,0.955
2024-11-02 23:09:33.059,41047.817,0.084,0.809,-0.582,0.003,-0.057,-0.015,0.05,-0.171,0.054,0.143,-0.942,0.956
2024-11-02 23:09:33.069,41047.827,0.084,0.808,-0.583,-0.012,0.012,-0.023,0.023,-0.039,0.09,0.143,-0.941,0.957
2024-11-02 23:09:33.079,41047.837,0.084,0.809,-0.582,0.001,0.054,-0.016,-0.157,-0.235,0.072,0.143,-0.942,0.959
2024-11-02 23:09:33.089,41047.847,0.083,0.809,-0.582,-0.004,-0.04,0.005,0.172,-0.114,0.077,0.142,-0.942,0.96
2024-11-02 23:09:33.099,41047.857,0.083,0.808,-0.583,0.006,-0.008,-0.004,0.022,-0.086,0.045,0.142,-0.941,0.961
2024-11-02 23:09:33.109,41047.867,0.083,0.808,-0.583,-0.004,0.06,-0.017,-0.024,-0.226,0.052,0.141,-0.941,0.961
2024-11-02 23:09:33.119,41047.877,0.082,0.808,-0.584,-0.016,-0.035,0.005,0.119,-0.052,0.066,0.14,-0.94,0.962
2024-11-02 23:09:33.129,41047.887,0.082,0.808,-0.584,0.03,-0.013,-0.007,-0.196,-0.256,0.043,0.139,-0.94,0.963
2024-11-02 23:09:33.139,41047.897,0.081,0.808,-0.583,-0.002,0.016,-0.013,0.002,-0.141,0.073,0.138,-0.941,0.964
2024-11-02 23:09:33.149,41047.907,0.081,0.808,-0.584,-0.004,-0.039,0.015,0.047,-0.098,0.021,0.137,-0.94,0.965
2024-11-02 23:09:33.159,41047.917,0.08,0.808,-0.584,0.014,0.051,0.013,-0.02,-0.104,0.038,0.136,-0.94,0.965
2024-11-02 23:09:33.169,41047.927,0.08,0.808,-0.584,-0.027,-0.017,0.019,-0.001,-0.084,0.028,0.136,-0.941,0.966
2024-11-02 23:09:33.178,41047.937,0.08,0.808,-0.584,0.011,-0.1,0.035,0.062,0.063,0.015,0.136,-0.94,0.966
2024-11-02 23:09:33.189,41047.947,0.08,0.808,-0.584,-0.008,0.005,0.014,-0.153,0.024,-0.005,0.137,-0.941,0.966
2024-11-02 23:09:33.199,41047.957,0.081,0.809,-0.582,-0.046,-0.034,0.004,-0.234,0.096,0.006,0.138,-0.943,0.967
2024-11-02 23:09:33.208,41047.967,0.081,0.811,-0.58,-0.015,-0.098,0.017,-0.27,0.136,-0.0,0.139,-0.945,0.967
2024-11-02 23:09:33.219,41047.976,0.082,0.812,-0.578,-0.02,-0.042,0.013,-0.238,0.119,0.022,0.141,-0.948,0.968
2024-11-02 23:09:33.229,41047.986,0.083,0.813,-0.576,-0.045,-0.027,0.023,-0.109,0.108,0.022,0.143,-0.949,0.969
2024-11-02 23:09:33.239,41047.996,0.084,0.813,-0.576,-0.022,-0.021,0.022,-0.027,0.133,0.017,0.145,-0.95,0.969
2024-11-02 23:09:33.249,41048.006,0.085,0.814,-0.575,-0.014,0.014,0.014,-0.063,0.107,0.029,0.146,-0.95,0.97
2024-11-02 23:09:33.268,41048.016,0.086,0.814,-0.575,-0.014,-0.003,0.011,-0.003,0.158,0.024,0.148,-0.951,0.97
2024-11-02 23:09:33.270,41048.026,0.087,0.814,-0.575,0.005,0.028,0.009,0.014,0.164,0.014,0.15,-0.951,0.971
2024-11-02 23:09:33.278,41048.036,0.088,0.814,-0.574,-0.001,0.073,-0.014,-0.039,0.171,-0.003,0.151,-0.951,0.971
2024-11-02 23:09:33.288,41048.046,0.089,0.814,-0.574,-0.0,0.01,-0.021,-0.103,0.188,-0.011,0.153,-0.951,0.971
2024-11-02 23:09:33.298,41048.056,0.09,0.815,-0.573,0.014,-0.042,-0.006,-0.163,0.214,-0.017,0.155,-0.953,0.971
2024-11-02 23:09:33.308,41048.066,0.091,0.816,-0.571,0.003,-0.042,-0.009,-0.229,0.211,-0.01,0.158,-0.955,0.971
2024-11-02 23:09:33.318,41048.076,0.092,0.818,-0.568,0.001,-0.03,-0.031,-0.293,0.178,-0.014,0.16,-0.957,0.972
2024-11-02 23:09:33.328,41048.086,0.093,0.819,-0.566,0.005,-0.026,-0.053,-0.304,0.159,-0.001,0.162,-0.96,0.972
2024-11-02 23:09:33.338,41048.096,0.093,0.821,-0.563,0.008,-0.013,-0.057,-0.293,0.137,-0.001,0.164,-0.963,0.973
2024-11-02 23:09:33.348,41048.106,0.094,0.823,-0.561,0.012,0.004,-0.031,-0.266,0.107,-0.003,0.166,-0.966,0.974
2024-11-02 23:09:33.358,41048.116,0.095,0.824,-0.559,0.009,0.004,-0.002,-0.193,0.083,-0.014,0.168,-0.968,0.975
2024-11-02 23:09:33.368,41048.126,0.095,0.825,-0.558,0.01,0.016,0.011,-0.102,0.056,-0.024,0.168,-0.97,0.975
2024-11-02 23:09:33.378,41048.136,0.095,0.825,-0.557,0.012,0.032,0.019,-0.002,0.035,-0.022,0.169,-0.97,0.974
2024-11-02 23:09:33.389,41048.146,0.095,0.825,-0.557,0.013,0.032,0.024,0.066,0.019,-0.027,0.168,-0.97,0.974
2024-11-02 23:09:33.398,41048.156,0.095,0.824,-0.558,0.016,0.03,0.024,0.095,0.005,-0.024,0.168,-0.969,0.973
2024-11-02 23:09:33.408,41048.166,0.094,0.824,-0.559,0.013,0.025,0.016,0.092,-0.013,-0.022,0.167,-0.968,0.972
2024-11-02 23:09:33.418,41048.176,0.094,0.823,-0.56,0.012,0.01,0.007,0.074,-0.014,-0.019,0.167,-0.967,0.972
2024-11-02 23:09:33.428,41048.186,0.094,0.823,-0.56,0.008,-0.009,0.0,0.051,-0.017,-0.023,0.166,-0.967,0.971
2024-11-02 23:09:33.438,41048.196,0.094,0.823,-0.561,-0.001,-0.018,-0.0,0.038,-0.01,-0.02,0.166,-0.966,0.971
2024-11-02 23:09:33.449,41048.206,0.093,0.823,-0.561,-0.003,-0.023,-0.009,0.026,-0.009,-0.015,0.165,-0.966,0.97
2024-11-02 23:09:33.458,41048.216,0.093,0.823,-0.561,-0.002,-0.015,-0.019,0.024,-0.01,-0.021,0.165,-0.966,0.97
2024-11-02 23:09:33.469,41048.226,0.093,0.822,-0.561,-0.005,-0.006,-0.011,0.041,-0.017,-0.026,0.164,-0.966,0.97
2024-11-02 23:09:33.478,41048.236,0.093,0.822,-0.562,-0.004,-0.003,0.002,0.07,-0.037,-0.021,0.164,-0.965,0.969
2024-11-02 23:09:33.488,41048.246,0.092,0.822,-0.562,0.001,0.006,0.012,0.116,-0.064,-0.015,0.163,-0.964,0.969
2024-11-02 23:09:33.499,41048.256,0.092,0.821,-0.564,0.004,0.01,0.019,0.176,-0.081,-0.014,0.162,-0.963,0.968
2024-11-02 23:09:33.509,41048.266,0.091,0.82,-0.565,0.004,0.013,0.021,0.238,-0.083,-0.014,0.16,-0.961,0.967
2024-11-02 23:09:33.517,41048.276,0.091,0.818,-0.568,0.007,0.033,0.013,0.261,-0.084,-0.028,0.158,-0.959,0.966
2024-11-02 23:09:33.527,41048.286,0.09,0.817,-0.57,0.005,0.031,0.019,0.296,-0.072,-0.03,0.157,-0.956,0.965
2024-11-02 23:09:33.537,41048.296,0.089,0.815,-0.572,0.003,0.014,0.015,0.317,-0.065,-0.034,0.155,-0.953,0.964
2024-11-02 23:09:33.547,41048.306,0.089,0.813,-0.575,0.006,0.008,0.003,0.267,0.024,0.003,0.154,-0.95,0.962
2024-11-02 23:09:33.557,41048.316,0.089,0.812,-0.577,0.005,0.007,0.002,0.196,-0.026,-0.055,0.153,-0.948,0.961
2024-11-02 23:09:33.568,41048.326,0.088,0.811,-0.578,-0.007,-0.009,-0.007,0.151,-0.012,-0.024,0.152,-0.946,0.96
2024-11-02 23:09:33.578,41048.336,0.088,0.81,-0.579,-0.009,-0.041,-0.025,0.179,-0.04,-0.028,0.151,-0.945,0.96
2024-11-02 23:09:33.588,41048.346,0.088,0.809,-0.581,0.005,-0.039,0.002,0.265,-0.04,-0.03,0.15,-0.943,0.959
2024-11-02 23:09:33.598,41048.356,0.087,0.807,-0.583,-0.005,0.013,0.011,0.364,-0.059,-0.016,0.148,-0.94,0.957
2024-11-02 23:09:33.608,41048.366,0.087,0.805,-0.587,0.001,0.025,0.023,0.466,-0.056,-0.005,0.147,-0.936,0.956
2024-11-02 23:09:33.618,41048.376,0.086,0.802,-0.591,0.002,0.031,0.034,0.554,-0.051,0.009,0.145,-0.931,0.955
2024-11-02 23:09:33.628,41048.386,0.086,0.799,-0.595,-0.005,0.042,0.036,0.564,-0.055,0.023,0.144,-0.925,0.954
2024-11-02 23:09:33.638,41048.396,0.086,0.796,-0.6,-0.008,0.027,0.035,0.466,-0.058,0.036,0.143,-0.92,0.953
2024-11-02 23:09:33.648,41048.406,0.086,0.793,-0.603,-0.006,0.006,0.03,0.315,-0.044,0.023,0.142,-0.916,0.953
2024-11-02 23:09:33.658,41048.416,0.086,0.792,-0.605,-0.005,-0.027,0.005,0.149,-0.034,0.044,0.142,-0.914,0.953
2024-11-02 23:09:33.668,41048.426,0.086,0.791,-0.605,-0.005,-0.062,-0.037,-0.027,0.016,0.006,0.142,-0.913,0.953
2024-11-02 23:09:33.678,41048.436,0.087,0.792,-0.605,0.002,-0.065,-0.054,-0.11,0.05,0.053,0.143,-0.914,0.953
2024-11-02 23:09:33.688,41048.446,0.087,0.792,-0.604,0.0,-0.083,-0.058,-0.1,0.054,-0.024,0.143,-0.915,0.954
2024-11-02 23:09:33.697,41048.456,0.087,0.793,-0.602,-0.014,-0.009,-0.08,-0.193,0.049,0.009,0.144,-0.916,0.954
2024-11-02 23:09:33.708,41048.466,0.088,0.794,-0.601,-0.022,-0.036,-0.022,-0.13,0.046,-0.004,0.145,-0.918,0.955
2024-11-02 23:09:33.718,41048.476,0.088,0.795,-0.6,0.003,-0.044,0.019,-0.031,0.071,-0.019,0.146,-0.919,0.955
2024-11-02 23:09:33.728,41048.486,0.088,0.795,-0.6,-0.004,0.055,0.024,0.039,0.071,0.023,0.146,-0.919,0.955
2024-11-02 23:09:33.737,41048.496,0.089,0.795,-0.6,-0.02,0.023,0.013,-0.016,-0.063,0.011,0.147,-0.919,0.955
2024-11-02 23:09:33.748,41048.506,0.088,0.795,-0.601,0.001,-0.01,0.015,0.08,-0.083,0.014,0.146,-0.918,0.955
2024-11-02 23:09:33.758,41048.516,0.088,0.794,-0.602,0.032,0.015,0.033,0.237,-0.046,0.034,0.145,-0.917,0.955
2024-11-02 23:09:33.768,41048.526,0.088,0.792,-0.605,0.046,0.033,0.037,0.356,-0.086,-0.008,0.144,-0.914,0.955
2024-11-02 23:09:33.778,41048.536,0.087,0.79,-0.607,0.027,0.077,0.001,0.337,-0.058,-0.027,0.143,-0.91,0.953
2024-11-02 23:09:33.787,41048.546,0.087,0.788,-0.61,0.001,0.042,0.002,0.243,-0.055,-0.022,0.141,-0.907,0.952
2024-11-02 23:09:33.797,41048.556,0.086,0.787,-0.611,0.01,-0.07,0.039,0.114,-0.023,-0.018,0.14,-0.905,0.952
2024-11-02 23:09:33.807,41048.566,0.086,0.787,-0.611,-0.003,-0.056,0.021,-0.091,0.004,0.0,0.14,-0.905,0.951
2024-11-02 23:09:33.817,41048.576,0.086,0.788,-0.609,-0.031,-0.071,-0.007,-0.4,0.031,0.019,0.141,-0.908,0.952
2024-11-02 23:09:33.827,41048.585,0.087,0.791,-0.605,-0.032,-0.105,-0.011,-0.653,0.061,0.037,0.142,-0.913,0.954
2024-11-02 23:09:33.837,41048.595,0.088,0.796,-0.599,-0.047,-0.147,-0.017,-0.806,0.085,0.05,0.145,-0.92,0.956
2024-11-02 23:09:33.847,41048.605,0.089,0.801,-0.592,-0.046,-0.163,-0.044,-0.877,0.076,0.071,0.148,-0.928,0.959
2024-11-02 23:09:33.857,41048.615,0.09,0.806,-0.585,-0.042,-0.096,-0.045,-0.891,0.073,0.084,0.152,-0.937,0.963
2024-11-02 23:09:33.867,41048.625,0.091,0.811,-0.578,-0.031,-0.018,-0.025,-0.805,0.167,0.151,0.156,-0.945,0.967
2024-11-02 23:09:33.877,41048.635,0.093,0.815,-0.571,-0.02,0.049,0.003,-0.89,0.219,0.104,0.162,-0.953,0.971
2024-11-02 23:09:33.887,41048.645,0.095,0.821,-0.563,-0.033,0.09,-0.037,-1.067,0.157,0.105,0.168,-0.963,0.976
2024-11-02 23:09:33.898,41048.655,0.097,0.827,-0.554,-0.046,-0.024,-0.069,-1.073,0.121,0.113,0.173,-0.973,0.981
2024-11-02 23:09:33.907,41048.665,0.098,0.832,-0.545,-0.021,-0.134,-0.053,-0.997,0.083,0.104,0.179,-0.983,0.986
2024-11-02 23:09:33.918,41048.675,0.1,0.837,-0.538,-0.02,-0.038,-0.045,-0.903,0.016,0.123,0.183,-0.992,0.992
2024-11-02 23:09:33.927,41048.685,0.1,0.842,-0.53,-0.038,0.024,-0.063,-0.773,-0.05,0.068,0.187,-1.0,0.996
2024-11-02 23:09:33.937,41048.695,0.101,0.845,-0.524,-0.038,0.021,-0.049,-0.676,-0.127,0.118,0.19,-1.007,1.001
2024-11-02 23:09:33.947,41048.705,0.101,0.848,-0.52,-0.07,0.043,-0.021,-0.509,-0.149,0.112,0.192,-1.013,1.005
2024-11-02 23:09:33.958,41048.715,0.101,0.85,-0.516,-0.06,0.033,0.006,-0.279,-0.103,0.074,0.194,-1.017,1.008
2024-11-02 23:09:33.967,41048.725,0.101,0.851,-0.515,-0.056,0.04,0.035,-0.026,-0.034,0.001,0.194,-1.018,1.009
2024-11-02 23:09:33.977,41048.735,0.1,0.852,-0.515,-0.075,0.152,0.051,-0.025,-0.056,-0.119,0.192,-1.019,1.008
2024-11-02 23:09:33.987,41048.745,0.099,0.852,-0.515,-0.098,0.199,0.032,0.008,-0.147,-0.12,0.19,-1.019,1.006
2024-11-02 23:09:33.997,41048.755,0.097,0.852,-0.515,-0.093,0.09,0.025,0.067,-0.147,-0.174,0.186,-1.019,1.003
2024-11-02 23:09:34.007,41048.765,0.095,0.851,-0.516,-0.042,0.029,0.01,0.133,-0.092,-0.202,0.181,-1.018,0.999
2024-11-02 23:09:34.018,41048.775,0.092,0.851,-0.518,-0.044,0.06,0.024,0.213,-0.092,-0.253,0.176,-1.017,0.994
2024-11-02 23:09:34.027,41048.785,0.089,0.85,-0.52,-0.043,0.05,0.029,0.292,-0.086,-0.282,0.17,-1.015,0.989
2024-11-02 23:09:34.037,41048.795,0.086,0.848,-0.523,-0.015,0.025,0.037,0.318,-0.094,-0.289,0.164,-1.012,0.982
2024-11-02 23:09:34.047,41048.805,0.084,0.847,-0.525,0.003,0.022,0.037,0.343,-0.078,-0.199,0.158,-1.01,0.977
2024-11-02 23:09:34.057,41048.815,0.082,0.845,-0.528,0.01,0.001,0.039,0.321,-0.084,-0.081,0.154,-1.007,0.973
2024-11-02 23:09:34.067,41048.825,0.082,0.843,-0.531,0.033,-0.081,0.038,0.27,-0.101,0.006,0.152,-1.004,0.972
2024-11-02 23:09:34.077,41048.835,0.081,0.842,-0.533,0.045,-0.111,0.052,0.246,-0.071,0.018,0.151,-1.001,0.971
2024-11-02 23:09:34.087,41048.845,0.081,0.841,-0.535,0.04,-0.029,0.062,0.27,-0.077,0.017,0.15,-0.999,0.971
2024-11-02 23:09:34.097,41048.855,0.081,0.839,-0.538,0.023,0.031,0.036,0.299,-0.086,-0.001,0.149,-0.996,0.97
2024-11-02 23:09:34.107,41048.865,0.08,0.837,-0.541,0.026,0.022,0.025,0.344,-0.077,-0.01,0.147,-0.993,0.969
2024-11-02 23:09:34.117,41048.875,0.079,0.836,-0.543,0.033,0.025,0.029,0.345,-0.096,-0.037,0.145,-0.989,0.968
2024-11-02 23:09:34.127,41048.885,0.079,0.834,-0.546,0.042,0.028,0.03,0.32,-0.115,-0.028,0.143,-0.986,0.966
2024-11-02 23:09:34.137,41048.895,0.078,0.832,-0.549,0.057,0.003,0.02,0.248,-0.114,0.014,0.141,-0.983,0.965
2024-11-02 23:09:34.148,41048.905,0.078,0.831,-0.551,0.073,-0.036,0.026,0.173,-0.072,0.069,0.14,-0.981,0.966
