Date,TimeStamp,GravityX,GravityY,GravityZ,UserAccelerationX,UserAccelerationY,UserAccelerationZ,RotationRateX,RotationRateY,RotationRateZ,AttitudeRoll,AttitudePitch,AttitudeYaw
2024-09-23 15:21:59.324,175603.796,0.086,0.777,-0.623,-0.032,-0.008,-0.006,0.116,-0.082,-0.059,0.138,-0.891,0.815
2024-09-23 15:21:59.334,175603.806,0.086,0.776,-0.624,-0.031,-0.007,-0.003,0.218,-0.057,0.004,0.136,-0.889,0.815
2024-09-23 15:21:59.345,175603.816,0.085,0.775,-0.627,-0.036,0.031,-0.002,0.339,-0.074,0.012,0.135,-0.886,0.814
2024-09-23 15:21:59.355,175603.826,0.085,0.772,-0.63,-0.031,0.069,0.006,0.391,-0.105,0.004,0.134,-0.883,0.814
2024-09-23 15:21:59.364,175603.836,0.084,0.77,-0.633,-0.015,0.074,0.015,0.353,-0.125,0.001,0.132,-0.879,0.813
2024-09-23 15:21:59.375,175603.846,0.084,0.768,-0.635,-0.004,0.04,0.016,0.251,-0.089,0.012,0.131,-0.876,0.812
2024-09-23 15:21:59.384,175603.856,0.083,0.767,-0.637,-0.009,-0.019,0.009,0.197,-0.037,0.036,0.13,-0.874,0.812
2024-09-23 15:21:59.394,175603.866,0.084,0.765,-0.638,-0.024,-0.047,-0.0,0.158,0.009,0.064,0.13,-0.872,0.813
2024-09-23 15:21:59.404,175603.876,0.084,0.764,-0.639,-0.031,-0.033,0.003,0.123,0.039,0.08,0.131,-0.87,0.813
2024-09-23 15:21:59.414,175603.886,0.085,0.764,-0.64,-0.027,-0.002,0.003,0.063,0.064,0.088,0.132,-0.869,0.815
2024-09-23 15:21:59.423,175603.896,0.086,0.764,-0.64,-0.023,0.007,0.002,-0.014,0.088,0.084,0.134,-0.869,0.816
2024-09-23 15:21:59.434,175603.906,0.087,0.764,-0.639,-0.019,-0.015,0.001,-0.082,0.093,0.076,0.136,-0.869,0.817
2024-09-23 15:21:59.444,175603.916,0.088,0.765,-0.638,-0.015,-0.033,-0.004,-0.117,0.085,0.064,0.138,-0.87,0.818
2024-09-23 15:21:59.454,175603.926,0.089,0.765,-0.637,-0.011,-0.03,-0.005,-0.118,0.074,0.032,0.139,-0.871,0.819
2024-09-23 15:21:59.464,175603.936,0.09,0.766,-0.637,-0.006,-0.016,-0.001,-0.088,0.051,0.01,0.14,-0.872,0.82
2024-09-23 15:21:59.475,175603.946,0.09,0.766,-0.636,-0.002,0.003,0.002,-0.042,0.028,-0.014,0.141,-0.873,0.82
2024-09-23 15:21:59.484,175603.956,0.09,0.766,-0.636,0.0,0.022,0.006,-0.009,0.012,-0.028,0.141,-0.873,0.82
2024-09-23 15:21:59.494,175603.966,0.09,0.766,-0.636,0.001,0.021,0.014,0.024,0.012,-0.016,0.14,-0.873,0.819
2024-09-23 15:21:59.504,175603.976,0.09,0.766,-0.636,-0.002,0.011,0.012,0.057,0.02,0.005,0.14,-0.873,0.819
2024-09-23 15:21:59.514,175603.986,0.09,0.766,-0.637,-0.01,0.011,0.011,0.087,0.023,0.02,0.141,-0.872,0.819
2024-09-23 15:21:59.524,175603.996,0.09,0.765,-0.638,-0.015,0.016,0.012,0.125,0.02,0.026,0.141,-0.871,0.819
2024-09-23 15:21:59.534,175604.006,0.091,0.764,-0.639,-0.014,0.018,0.011,0.131,0.017,0.026,0.141,-0.87,0.819
2024-09-23 15:21:59.543,175604.016,0.091,0.763,-0.64,-0.012,0.017,0.013,0.114,0.018,0.021,0.141,-0.868,0.819
2024-09-23 15:21:59.553,175604.026,0.091,0.763,-0.64,-0.009,0.011,0.011,0.095,0.015,0.015,0.142,-0.867,0.819
2024-09-23 15:21:59.563,175604.036,0.091,0.762,-0.641,-0.007,-0.0,0.006,0.088,0.014,0.013,0.142,-0.866,0.819
2024-09-23 15:21:59.574,175604.046,0.092,0.762,-0.642,-0.007,-0.004,0.003,0.099,0.008,0.0,0.142,-0.866,0.819
2024-09-23 15:21:59.583,175604.056,0.091,0.761,-0.642,-0.006,0.003,0.006,0.112,-0.008,-0.015,0.141,-0.865,0.819
2024-09-23 15:21:59.593,175604.066,0.091,0.76,-0.643,-0.004,0.009,0.01,0.117,-0.011,-0.022,0.141,-0.864,0.818
2024-09-23 15:21:59.604,175604.076,0.091,0.759,-0.644,-0.002,0.01,0.011,0.139,-0.022,-0.026,0.14,-0.863,0.818
2024-09-23 15:21:59.612,175604.086,0.09,0.759,-0.645,-0.004,0.012,0.011,0.165,-0.028,-0.03,0.139,-0.861,0.817
2024-09-23 15:21:59.623,175604.096,0.09,0.758,-0.647,-0.004,0.013,0.01,0.189,-0.044,-0.037,0.138,-0.86,0.816
2024-09-23 15:21:59.633,175604.106,0.089,0.756,-0.648,-0.006,0.023,0.011,0.205,-0.061,-0.048,0.137,-0.858,0.815
2024-09-23 15:21:59.644,175604.116,0.088,0.755,-0.65,-0.003,0.029,0.011,0.225,-0.073,-0.059,0.135,-0.856,0.814
2024-09-23 15:21:59.654,175604.125,0.087,0.754,-0.652,-0.001,0.017,0.014,0.253,-0.077,-0.061,0.133,-0.853,0.812
2024-09-23 15:21:59.664,175604.135,0.086,0.752,-0.654,-0.001,0.004,0.016,0.268,-0.081,-0.058,0.132,-0.851,0.811
2024-09-23 15:21:59.674,175604.145,0.086,0.75,-0.656,-0.003,0.01,0.014,0.271,-0.071,-0.054,0.13,-0.848,0.809
2024-09-23 15:21:59.684,175604.155,0.085,0.749,-0.657,-0.005,0.021,0.011,0.221,-0.014,-0.024,0.128,-0.846,0.808
2024-09-23 15:21:59.693,175604.165,0.085,0.748,-0.658,-0.009,0.016,0.013,0.058,0.021,0.02,0.128,-0.845,0.808
2024-09-23 15:21:59.703,175604.175,0.085,0.748,-0.659,-0.009,0.005,0.021,0.025,0.079,-0.035,0.129,-0.845,0.808
2024-09-23 15:21:59.714,175604.185,0.085,0.748,-0.658,-0.004,-0.012,0.016,-0.05,0.044,-0.002,0.129,-0.845,0.807
2024-09-23 15:21:59.725,175604.195,0.086,0.748,-0.658,-0.024,-0.041,-0.015,-0.126,0.083,0.04,0.13,-0.846,0.808
2024-09-23 15:21:59.734,175604.205,0.087,0.749,-0.656,-0.025,-0.081,-0.009,-0.167,0.12,0.049,0.132,-0.847,0.809
2024-09-23 15:21:59.744,175604.215,0.088,0.751,-0.655,-0.03,-0.047,-0.02,-0.243,0.093,0.056,0.134,-0.849,0.81
2024-09-23 15:21:59.753,175604.225,0.089,0.752,-0.653,-0.024,-0.006,-0.011,-0.253,0.114,0.056,0.136,-0.852,0.811
2024-09-23 15:21:59.763,175604.235,0.091,0.754,-0.651,-0.004,-0.01,-0.008,-0.247,0.131,0.076,0.138,-0.854,0.813
2024-09-23 15:21:59.774,175604.245,0.092,0.756,-0.649,-0.013,-0.03,-0.002,-0.317,0.138,0.1,0.141,-0.857,0.815
2024-09-23 15:21:59.783,175604.255,0.094,0.758,-0.646,-0.02,-0.024,0.011,-0.325,0.164,0.101,0.144,-0.86,0.817
2024-09-23 15:21:59.794,175604.265,0.096,0.76,-0.643,-0.017,-0.012,-0.009,-0.406,0.141,0.112,0.147,-0.863,0.819
2024-09-23 15:21:59.803,175604.275,0.097,0.762,-0.64,-0.017,-0.023,-0.005,-0.429,0.136,0.117,0.151,-0.867,0.822
2024-09-23 15:21:59.813,175604.285,0.099,0.765,-0.636,-0.012,-0.031,-0.004,-0.426,0.14,0.126,0.154,-0.871,0.825
2024-09-23 15:21:59.823,175604.295,0.101,0.767,-0.633,-0.012,-0.032,-0.002,-0.355,0.14,0.122,0.158,-0.875,0.828
2024-09-23 15:21:59.833,175604.305,0.102,0.769,-0.631,-0.015,-0.006,0.001,-0.294,0.115,0.093,0.161,-0.878,0.83
2024-09-23 15:21:59.843,175604.315,0.104,0.771,-0.628,-0.011,0.02,0.003,-0.276,0.091,0.059,0.164,-0.88,0.832
2024-09-23 15:21:59.854,175604.325,0.104,0.773,-0.626,-0.004,0.017,0.002,-0.239,0.044,0.018,0.165,-0.883,0.833
2024-09-23 15:21:59.864,175604.335,0.105,0.774,-0.625,0.001,-0.004,0.01,-0.149,0.013,-0.003,0.166,-0.885,0.834
2024-09-23 15:21:59.873,175604.345,0.105,0.774,-0.624,0.006,-0.004,0.015,-0.074,-0.006,-0.023,0.166,-0.886,0.834
2024-09-23 15:21:59.883,175604.355,0.104,0.775,-0.624,0.002,0.014,0.019,0.016,-0.027,-0.033,0.166,-0.886,0.834
2024-09-23 15:21:59.894,175604.365,0.104,0.774,-0.624,-0.002,0.029,0.023,0.126,-0.052,-0.044,0.165,-0.886,0.833
2024-09-23 15:21:59.903,175604.375,0.103,0.773,-0.626,-0.002,0.03,0.023,0.222,-0.052,-0.043,0.163,-0.884,0.832
2024-09-23 15:21:59.913,175604.385,0.102,0.772,-0.627,-0.003,0.037,0.024,0.195,-0.031,-0.05,0.162,-0.882,0.831
2024-09-23 15:21:59.923,175604.395,0.102,0.771,-0.629,-0.005,0.042,0.026,0.114,-0.026,-0.047,0.161,-0.88,0.829
2024-09-23 15:21:59.933,175604.405,0.101,0.771,-0.629,-0.008,0.021,0.005,0.028,-0.019,-0.04,0.16,-0.88,0.829
2024-09-23 15:21:59.943,175604.415,0.101,0.771,-0.629,-0.008,-0.031,-0.004,-0.015,-0.001,-0.031,0.159,-0.88,0.828
2024-09-23 15:21:59.953,175604.425,0.101,0.771,-0.629,-0.008,-0.047,-0.003,-0.022,0.006,-0.029,0.159,-0.88,0.828
2024-09-23 15:21:59.963,175604.435,0.101,0.771,-0.629,-0.012,-0.015,-0.002,-0.019,-0.002,-0.026,0.159,-0.88,0.827
2024-09-23 15:21:59.973,175604.445,0.1,0.771,-0.629,-0.008,0.008,0.002,0.015,-0.006,-0.024,0.158,-0.881,0.827
2024-09-23 15:21:59.983,175604.455,0.1,0.771,-0.629,-0.007,0.01,0.005,0.059,-0.003,-0.022,0.158,-0.88,0.826
2024-09-23 15:21:59.993,175604.465,0.1,0.771,-0.63,-0.009,0.016,0.007,0.093,-0.009,-0.014,0.158,-0.88,0.826
2024-09-23 15:22:00.002,175604.475,0.1,0.77,-0.63,-0.009,0.026,0.011,0.131,-0.02,-0.016,0.157,-0.879,0.826
2024-09-23 15:22:00.012,175604.485,0.1,0.769,-0.631,-0.009,0.028,0.01,0.155,-0.02,-0.015,0.157,-0.877,0.825
2024-09-23 15:22:00.023,175604.495,0.099,0.768,-0.633,-0.006,0.019,0.013,0.182,-0.023,-0.02,0.156,-0.876,0.824
2024-09-23 15:22:00.033,175604.505,0.099,0.767,-0.634,-0.007,0.017,0.011,0.222,-0.033,-0.024,0.155,-0.874,0.823
2024-09-23 15:22:00.042,175604.515,0.099,0.765,-0.636,-0.005,0.017,0.01,0.261,-0.037,-0.039,0.154,-0.871,0.822
2024-09-23 15:22:00.052,175604.525,0.098,0.763,-0.638,-0.004,0.02,0.013,0.28,-0.05,-0.05,0.152,-0.869,0.821
2024-09-23 15:22:00.062,175604.535,0.097,0.762,-0.641,-0.004,0.03,0.015,0.307,-0.07,-0.059,0.15,-0.866,0.82
2024-09-23 15:22:00.072,175604.545,0.096,0.76,-0.643,-0.002,0.022,0.012,0.355,-0.073,-0.064,0.148,-0.863,0.818
2024-09-23 15:22:00.081,175604.555,0.095,0.757,-0.646,-0.002,0.012,0.015,0.416,-0.082,-0.065,0.146,-0.859,0.816
2024-09-23 15:22:00.092,175604.565,0.094,0.755,-0.649,-0.004,0.025,0.016,0.467,-0.098,-0.072,0.144,-0.855,0.814
2024-09-23 15:22:00.102,175604.575,0.093,0.752,-0.653,-0.004,0.039,0.019,0.422,-0.125,-0.057,0.141,-0.851,0.812
2024-09-23 15:22:00.112,175604.585,0.092,0.75,-0.655,-0.001,0.041,0.022,0.27,-0.011,-0.066,0.14,-0.848,0.81
2024-09-23 15:22:00.122,175604.595,0.091,0.749,-0.657,-0.002,0.031,0.011,0.127,-0.03,-0.048,0.138,-0.846,0.809
2024-09-23 15:22:00.131,175604.605,0.091,0.748,-0.657,-0.017,-0.006,-0.027,-0.028,0.003,-0.003,0.138,-0.846,0.809
2024-09-23 15:22:00.141,175604.615,0.091,0.749,-0.656,-0.014,-0.131,0.018,-0.117,0.047,0.023,0.138,-0.846,0.809
2024-09-23 15:22:00.153,175604.625,0.092,0.75,-0.655,-0.02,-0.111,-0.006,-0.201,0.059,0.032,0.139,-0.848,0.81
2024-09-23 15:22:00.163,175604.635,0.093,0.752,-0.653,-0.025,-0.022,-0.014,-0.341,0.08,0.038,0.141,-0.851,0.811
2024-09-23 15:22:00.173,175604.645,0.094,0.754,-0.65,-0.014,-0.004,-0.015,-0.357,0.095,0.062,0.143,-0.854,0.812
2024-09-23 15:22:00.183,175604.655,0.095,0.756,-0.647,-0.014,-0.041,-0.018,-0.407,0.113,0.095,0.145,-0.858,0.814
2024-09-23 15:22:00.193,175604.665,0.096,0.759,-0.644,-0.02,-0.094,0.014,-0.336,0.144,0.129,0.149,-0.861,0.817
2024-09-23 15:22:00.203,175604.675,0.098,0.761,-0.642,-0.026,-0.061,0.013,-0.341,0.149,0.151,0.152,-0.864,0.82
2024-09-23 15:22:00.212,175604.685,0.101,0.763,-0.639,-0.027,0.006,0.011,-0.363,0.158,0.174,0.156,-0.867,0.823
2024-09-23 15:22:00.222,175604.695,0.103,0.765,-0.636,-0.022,0.007,0.005,-0.382,0.198,0.196,0.161,-0.871,0.827
2024-09-23 15:22:00.232,175604.705,0.106,0.767,-0.633,-0.019,-0.033,0.0,-0.421,0.247,0.223,0.166,-0.874,0.831
2024-09-23 15:22:00.243,175604.714,0.11,0.77,-0.629,-0.026,-0.033,-0.003,-0.543,0.307,0.252,0.173,-0.879,0.836
2024-09-23 15:22:00.251,175604.724,0.114,0.773,-0.624,-0.032,-0.006,-0.015,-0.7,0.383,0.252,0.181,-0.884,0.841
2024-09-23 15:22:00.262,175604.734,0.118,0.778,-0.617,-0.037,0.009,-0.043,-0.867,0.415,0.252,0.189,-0.891,0.848
2024-09-23 15:22:00.273,175604.744,0.123,0.783,-0.609,-0.038,-0.032,-0.053,-0.979,0.438,0.239,0.199,-0.9,0.854
2024-09-23 15:22:00.282,175604.754,0.127,0.789,-0.601,-0.033,-0.091,-0.031,-0.973,0.477,0.22,0.209,-0.909,0.861
2024-09-23 15:22:00.292,175604.764,0.132,0.794,-0.593,-0.036,-0.071,-0.029,-0.892,0.491,0.185,0.219,-0.918,0.868
2024-09-23 15:22:00.302,175604.774,0.136,0.799,-0.586,-0.042,0.009,-0.017,-0.809,0.505,0.147,0.228,-0.926,0.874
2024-09-23 15:22:00.313,175604.784,0.14,0.803,-0.579,-0.043,0.066,-0.01,-0.713,0.517,0.128,0.238,-0.933,0.879
2024-09-23 15:22:00.322,175604.794,0.144,0.807,-0.573,-0.044,0.085,-0.01,-0.64,0.572,0.204,0.247,-0.939,0.884
2024-09-23 15:22:00.332,175604.804,0.15,0.81,-0.567,-0.043,0.078,-0.003,-0.529,0.693,0.278,0.259,-0.944,0.891
2024-09-23 15:22:00.342,175604.814,0.156,0.812,-0.562,-0.074,0.091,-0.005,-0.374,0.562,0.282,0.271,-0.948,0.897
2024-09-23 15:22:00.352,175604.824,0.159,0.813,-0.559,-0.079,0.048,-0.007,-0.214,-0.132,0.282,0.277,-0.95,0.903
2024-09-23 15:22:00.362,175604.834,0.161,0.814,-0.559,-0.039,-0.014,0.033,-0.077,-0.221,0.447,0.281,-0.95,0.91
2024-09-23 15:22:00.373,175604.844,0.164,0.813,-0.559,-0.047,0.034,0.058,0.007,-0.022,0.523,0.286,-0.949,0.918
2024-09-23 15:22:00.381,175604.854,0.167,0.812,-0.559,-0.077,0.073,0.063,-0.028,-0.13,0.163,0.291,-0.948,0.924
2024-09-23 15:22:00.391,175604.864,0.164,0.813,-0.559,-0.117,0.054,0.042,-0.149,-0.584,-0.403,0.286,-0.949,0.922
2024-09-23 15:22:00.401,175604.874,0.156,0.815,-0.558,-0.13,0.01,0.061,-0.297,-0.778,-0.611,0.273,-0.953,0.915
2024-09-23 15:22:00.411,175604.884,0.147,0.818,-0.556,-0.15,-0.043,0.113,-0.432,-0.597,-0.507,0.259,-0.958,0.907
2024-09-23 15:22:00.422,175604.894,0.142,0.821,-0.553,-0.124,-0.052,0.101,-0.452,-0.231,-0.272,0.251,-0.963,0.902
2024-09-23 15:22:00.432,175604.904,0.139,0.824,-0.549,-0.088,-0.033,0.062,-0.49,-0.055,-0.167,0.249,-0.968,0.901
2024-09-23 15:22:00.442,175604.914,0.138,0.827,-0.545,-0.004,-0.027,0.007,-0.628,-0.109,-0.172,0.247,-0.974,0.9
2024-09-23 15:22:00.452,175604.924,0.136,0.831,-0.539,0.102,-0.06,-0.02,-0.689,-0.144,-0.153,0.246,-0.981,0.9
2024-09-23 15:22:00.462,175604.934,0.134,0.835,-0.534,0.162,-0.089,-0.014,-0.661,-0.073,-0.138,0.245,-0.988,0.9
2024-09-23 15:22:00.473,175604.944,0.133,0.838,-0.529,0.162,-0.054,-0.022,-0.512,0.049,-0.066,0.246,-0.994,0.901
2024-09-23 15:22:00.483,175604.954,0.133,0.84,-0.525,0.107,-0.009,-0.039,-0.327,0.091,-0.028,0.247,-0.998,0.902
2024-09-23 15:22:00.493,175604.964,0.133,0.842,-0.523,0.079,0.008,-0.053,-0.151,0.111,-0.015,0.249,-1.0,0.903
2024-09-23 15:22:00.502,175604.974,0.133,0.842,-0.523,0.086,-0.008,-0.049,0.02,0.097,-0.054,0.25,-1.001,0.903
2024-09-23 15:22:00.512,175604.984,0.133,0.842,-0.523,0.108,-0.015,-0.044,0.125,0.058,-0.163,0.249,-1.001,0.901
2024-09-23 15:22:00.522,175604.994,0.131,0.841,-0.524,0.109,0.008,-0.047,0.185,0.028,-0.258,0.246,-1.0,0.896
2024-09-23 15:22:00.532,175605.004,0.129,0.841,-0.526,0.08,0.037,-0.028,0.214,0.021,-0.324,0.241,-0.998,0.89
2024-09-23 15:22:00.542,175605.014,0.126,0.84,-0.528,0.049,0.038,-0.012,0.222,0.027,-0.313,0.235,-0.997,0.883
2024-09-23 15:22:00.552,175605.024,0.124,0.839,-0.53,0.02,0.017,0.004,0.227,0.029,-0.257,0.23,-0.996,0.877
2024-09-23 15:22:00.562,175605.034,0.123,0.838,-0.532,-0.002,0.002,0.008,0.236,0.024,-0.187,0.227,-0.994,0.872
2024-09-23 15:22:00.572,175605.044,0.121,0.837,-0.534,-0.013,0.002,0.007,0.25,0.001,-0.14,0.223,-0.992,0.868
2024-09-23 15:22:00.582,175605.054,0.12,0.836,-0.536,-0.014,0.016,0.011,0.262,-0.03,-0.106,0.221,-0.99,0.865
2024-09-23 15:22:00.592,175605.064,0.119,0.834,-0.538,-0.009,0.024,0.014,0.254,-0.052,-0.078,0.218,-0.987,0.862
2024-09-23 15:22:00.602,175605.074,0.118,0.833,-0.54,-0.003,0.017,0.013,0.213,-0.043,-0.048,0.216,-0.985,0.86
2024-09-23 15:22:00.612,175605.084,0.118,0.832,-0.542,-0.004,0.005,0.007,0.148,-0.027,-0.016,0.214,-0.983,0.859
2024-09-23 15:22:00.622,175605.094,0.118,0.832,-0.543,-0.01,-0.003,0.0,0.089,-0.025,0.012,0.214,-0.982,0.859
2024-09-23 15:22:00.632,175605.104,0.118,0.831,-0.543,-0.017,-0.012,-0.004,0.053,-0.015,0.026,0.214,-0.981,0.859
2024-09-23 15:22:00.642,175605.114,0.118,0.831,-0.543,-0.015,-0.017,-0.001,0.023,-0.01,0.025,0.214,-0.981,0.859
2024-09-23 15:22:00.652,175605.124,0.118,0.831,-0.544,-0.013,-0.016,0.001,-0.0,-0.009,0.025,0.214,-0.981,0.859
2024-09-23 15:22:00.662,175605.134,0.118,0.831,-0.543,-0.011,-0.01,0.001,-0.018,-0.011,0.023,0.214,-0.981,0.86
2024-09-23 15:22:00.672,175605.144,0.118,0.831,-0.543,-0.007,-0.007,-0.0,-0.012,-0.017,0.018,0.214,-0.981,0.86
2024-09-23 15:22:00.682,175605.154,0.118,0.831,-0.543,-0.007,-0.003,-0.001,0.026,-0.022,0.002,0.214,-0.981,0.861
2024-09-23 15:22:00.692,175605.164,0.118,0.831,-0.544,-0.006,-0.001,0.007,0.043,-0.026,-0.014,0.214,-0.981,0.86
2024-09-23 15:22:00.702,175605.174,0.118,0.831,-0.544,-0.006,0.005,0.016,0.058,-0.027,-0.043,0.213,-0.98,0.86
2024-09-23 15:22:00.712,175605.184,0.117,0.83,-0.545,-0.005,0.014,0.012,0.087,-0.041,-0.065,0.212,-0.98,0.858
2024-09-23 15:22:00.722,175605.194,0.116,0.83,-0.546,-0.002,0.013,0.008,0.114,-0.028,-0.078,0.21,-0.979,0.857
2024-09-23 15:22:00.732,175605.204,0.115,0.829,-0.547,-0.001,0.008,0.011,0.14,-0.021,-0.083,0.208,-0.978,0.855
2024-09-23 15:22:00.742,175605.214,0.115,0.829,-0.548,-0.006,0.012,0.015,0.176,-0.024,-0.085,0.206,-0.976,0.853
2024-09-23 15:22:00.752,175605.224,0.114,0.828,-0.55,-0.01,0.021,0.017,0.216,-0.025,-0.084,0.204,-0.975,0.85
2024-09-23 15:22:00.761,175605.234,0.113,0.826,-0.552,-0.006,0.014,0.02,0.229,-0.016,-0.074,0.202,-0.973,0.848
2024-09-23 15:22:00.771,175605.244,0.112,0.825,-0.554,-0.006,0.007,0.019,0.256,-0.015,-0.057,0.2,-0.97,0.846
2024-09-23 15:22:00.781,175605.254,0.112,0.824,-0.556,-0.011,0.016,0.013,0.301,-0.033,-0.038,0.199,-0.968,0.845
2024-09-23 15:22:00.791,175605.264,0.111,0.822,-0.558,-0.008,0.022,0.013,0.34,-0.041,-0.038,0.197,-0.965,0.843
2024-09-23 15:22:00.801,175605.274,0.111,0.82,-0.561,-0.006,0.023,0.019,0.361,-0.044,-0.043,0.195,-0.962,0.841
2024-09-23 15:22:00.811,175605.284,0.11,0.818,-0.564,-0.006,0.022,0.024,0.38,-0.049,-0.049,0.193,-0.958,0.839
2024-09-23 15:22:00.821,175605.294,0.109,0.816,-0.567,-0.005,0.014,0.023,0.358,-0.039,-0.049,0.191,-0.955,0.837
2024-09-23 15:22:00.831,175605.303,0.109,0.814,-0.57,-0.003,0.008,0.02,0.32,-0.042,-0.048,0.189,-0.952,0.835
2024-09-23 15:22:00.842,175605.313,0.108,0.813,-0.573,-0.005,0.016,0.016,0.298,-0.05,-0.053,0.187,-0.949,0.833
2024-09-23 15:22:00.852,175605.323,0.107,0.811,-0.575,0.001,0.019,0.021,0.294,-0.055,-0.062,0.185,-0.946,0.831
2024-09-23 15:22:00.862,175605.333,0.107,0.81,-0.577,0.005,0.008,0.027,0.284,-0.048,-0.065,0.183,-0.943,0.829
2024-09-23 15:22:00.872,175605.343,0.106,0.808,-0.579,0.003,-0.0,0.025,0.253,-0.055,-0.049,0.181,-0.941,0.828
2024-09-23 15:22:00.882,175605.353,0.105,0.807,-0.581,-0.002,-0.0,0.015,-0.006,-0.031,-0.003,0.18,-0.94,0.827
2024-09-23 15:22:00.891,175605.363,0.105,0.808,-0.58,-0.002,-0.002,0.008,-0.091,0.038,-0.033,0.18,-0.94,0.827
2024-09-23 15:22:00.901,175605.373,0.105,0.808,-0.579,-0.007,-0.016,-0.026,-0.125,0.038,-0.051,0.179,-0.941,0.826
2024-09-23 15:22:00.912,175605.383,0.105,0.809,-0.578,-0.02,-0.085,-0.035,-0.171,0.082,0.034,0.18,-0.943,0.826
2024-09-23 15:22:00.922,175605.393,0.106,0.81,-0.576,-0.039,-0.122,-0.042,-0.14,0.11,0.089,0.183,-0.944,0.828
2024-09-23 15:22:00.932,175605.403,0.108,0.811,-0.575,-0.041,-0.048,-0.009,-0.082,0.088,0.102,0.185,-0.945,0.83
2024-09-23 15:22:00.942,175605.413,0.109,0.811,-0.575,-0.029,0.029,0.01,-0.015,0.048,0.071,0.187,-0.946,0.832
2024-09-23 15:22:00.951,175605.423,0.11,0.811,-0.575,-0.006,0.058,0.003,0.011,0.035,0.05,0.189,-0.946,0.833
2024-09-23 15:22:00.961,175605.433,0.11,0.811,-0.575,0.007,0.042,0.004,-0.023,0.067,0.046,0.19,-0.945,0.833
2024-09-23 15:22:00.972,175605.443,0.111,0.811,-0.574,-0.002,0.001,0.008,-0.165,0.087,0.08,0.191,-0.946,0.835
2024-09-23 15:22:00.982,175605.453,0.113,0.812,-0.572,-0.019,-0.032,-0.001,-0.263,0.086,0.137,0.194,-0.948,0.837
2024-09-23 15:22:00.991,175605.463,0.115,0.814,-0.57,-0.028,-0.049,-0.023,-0.28,0.131,0.207,0.198,-0.95,0.841
2024-09-23 15:22:01.003,175605.473,0.117,0.815,-0.567,-0.024,-0.065,-0.021,-0.355,0.159,0.257,0.204,-0.953,0.846
2024-09-23 15:22:01.012,175605.483,0.12,0.817,-0.564,-0.031,-0.041,-0.011,-0.456,0.127,0.263,0.21,-0.956,0.852
2024-09-23 15:22:01.021,175605.493,0.123,0.819,-0.56,-0.032,0.007,-0.013,-0.474,0.13,0.224,0.216,-0.96,0.858
2024-09-23 15:22:01.031,175605.503,0.125,0.822,-0.556,-0.012,-0.002,-0.021,-0.481,0.081,0.217,0.222,-0.965,0.863
2024-09-23 15:22:01.042,175605.513,0.128,0.824,-0.552,-0.001,-0.053,-0.015,-0.371,0.134,0.189,0.227,-0.968,0.868
2024-09-23 15:22:01.051,175605.523,0.13,0.826,-0.549,-0.01,-0.038,0.001,-0.305,0.135,0.146,0.232,-0.971,0.873
2024-09-23 15:22:01.061,175605.533,0.131,0.827,-0.547,-0.021,0.02,0.023,-0.213,0.062,0.057,0.235,-0.974,0.876
2024-09-23 15:22:01.072,175605.543,0.131,0.828,-0.545,-0.009,0.069,0.014,-0.123,-0.024,-0.018,0.236,-0.975,0.877
2024-09-23 15:22:01.081,175605.553,0.131,0.828,-0.545,0.023,0.035,0.013,-0.009,0.004,-0.07,0.236,-0.976,0.876
2024-09-23 15:22:01.091,175605.563,0.13,0.828,-0.545,0.025,-0.005,0.02,0.053,0.01,-0.084,0.235,-0.976,0.875
2024-09-23 15:22:01.101,175605.573,0.129,0.828,-0.546,-0.003,0.008,0.031,0.179,-0.022,-0.104,0.233,-0.975,0.872
2024-09-23 15:22:01.111,175605.583,0.128,0.827,-0.548,-0.017,0.046,0.027,0.303,-0.054,-0.11,0.23,-0.973,0.87
2024-09-23 15:22:01.121,175605.593,0.127,0.825,-0.551,0.0,0.047,0.033,0.307,-0.044,-0.136,0.227,-0.97,0.866
2024-09-23 15:22:01.132,175605.603,0.126,0.824,-0.553,0.007,0.041,0.033,0.209,-0.022,-0.157,0.224,-0.968,0.863
2024-09-23 15:22:01.141,175605.613,0.124,0.823,-0.554,-0.002,0.03,0.014,0.122,-0.008,-0.158,0.221,-0.967,0.859
2024-09-23 15:22:01.151,175605.623,0.123,0.823,-0.555,-0.005,-0.008,-0.007,0.044,0.024,-0.128,0.218,-0.966,0.857
2024-09-23 15:22:01.161,175605.633,0.123,0.823,-0.555,-0.007,-0.055,-0.01,0.025,0.065,-0.1,0.217,-0.966,0.854
2024-09-23 15:22:01.171,175605.643,0.122,0.823,-0.555,-0.019,-0.052,-0.002,0.03,0.083,-0.077,0.217,-0.966,0.853
2024-09-23 15:22:01.181,175605.653,0.122,0.823,-0.555,-0.025,-0.015,0.007,0.01,0.049,-0.077,0.216,-0.966,0.851
2024-09-23 15:22:01.191,175605.663,0.121,0.823,-0.555,-0.014,0.014,0.003,0.033,0.007,-0.081,0.215,-0.966,0.85
2024-09-23 15:22:01.201,175605.673,0.121,0.823,-0.556,0.003,0.023,-0.004,0.069,0.0,-0.083,0.214,-0.966,0.848
2024-09-23 15:22:01.211,175605.683,0.12,0.822,-0.556,0.008,0.009,0.004,0.104,0.016,-0.081,0.213,-0.965,0.847
2024-09-23 15:22:01.221,175605.693,0.12,0.822,-0.557,-0.004,0.01,0.015,0.149,0.002,-0.077,0.211,-0.964,0.845
2024-09-23 15:22:01.231,175605.703,0.119,0.821,-0.559,-0.014,0.03,0.016,0.212,-0.039,-0.082,0.209,-0.963,0.843
2024-09-23 15:22:01.242,175605.713,0.118,0.819,-0.561,-0.002,0.034,0.015,0.276,-0.056,-0.087,0.207,-0.96,0.841
2024-09-23 15:22:01.251,175605.723,0.117,0.818,-0.564,0.008,0.026,0.015,0.367,-0.058,-0.089,0.204,-0.957,0.838
2024-09-23 15:22:01.262,175605.733,0.116,0.815,-0.567,0.001,0.03,0.022,0.468,-0.109,-0.096,0.201,-0.954,0.835
2024-09-23 15:22:01.271,175605.743,0.114,0.813,-0.571,-0.006,0.047,0.029,0.33,-0.091,-0.089,0.198,-0.95,0.832
2024-09-23 15:22:01.281,175605.753,0.113,0.812,-0.573,-0.0,0.051,0.036,0.172,-0.04,-0.115,0.195,-0.947,0.829
2024-09-23 15:22:01.291,175605.763,0.112,0.812,-0.574,0.002,0.03,0.004,0.009,-0.055,-0.075,0.193,-0.947,0.827
2024-09-23 15:22:01.301,175605.773,0.112,0.812,-0.573,-0.004,-0.054,-0.023,-0.105,0.033,-0.002,0.192,-0.947,0.827
2024-09-23 15:22:01.311,175605.783,0.112,0.813,-0.572,-0.011,-0.137,-0.018,-0.159,0.089,0.057,0.194,-0.949,0.828
2024-09-23 15:22:01.321,175605.793,0.113,0.813,-0.57,-0.042,-0.082,-0.009,-0.158,0.056,0.091,0.196,-0.95,0.83
2024-09-23 15:22:01.331,175605.803,0.114,0.814,-0.569,-0.042,-0.004,-0.005,-0.177,0.003,0.113,0.198,-0.952,0.832
2024-09-23 15:22:01.341,175605.813,0.115,0.815,-0.568,-0.009,0.016,-0.017,-0.182,0.063,0.121,0.2,-0.953,0.835
2024-09-23 15:22:01.350,175605.823,0.117,0.816,-0.566,0.002,-0.016,-0.013,-0.233,0.124,0.138,0.204,-0.955,0.838
2024-09-23 15:22:01.361,175605.833,0.119,0.817,-0.564,-0.021,-0.037,-0.0,-0.207,0.156,0.162,0.208,-0.957,0.841
2024-09-23 15:22:01.371,175605.843,0.121,0.818,-0.562,-0.041,-0.014,-0.001,-0.179,0.124,0.191,0.212,-0.958,0.845
2024-09-23 15:22:01.381,175605.853,0.123,0.819,-0.561,-0.03,-0.009,0.01,-0.138,0.132,0.184,0.217,-0.959,0.848
2024-09-23 15:22:01.391,175605.863,0.126,0.819,-0.559,-0.014,0.002,0.009,-0.191,0.149,0.172,0.221,-0.961,0.852
2024-09-23 15:22:01.401,175605.873,0.128,0.82,-0.557,-0.011,0.004,0.01,-0.216,0.154,0.201,0.226,-0.962,0.856
2024-09-23 15:22:01.410,175605.882,0.131,0.821,-0.555,-0.019,0.013,-0.009,-0.216,0.132,0.277,0.231,-0.964,0.861
2024-09-23 15:22:01.421,175605.892,0.134,0.822,-0.553,-0.018,-0.016,-0.01,-0.363,0.129,0.257,0.237,-0.966,0.867
2024-09-23 15:22:01.430,175605.902,0.136,0.825,-0.548,-0.026,-0.031,0.002,-0.685,0.155,0.053,0.243,-0.97,0.872
2024-09-23 15:22:01.441,175605.912,0.137,0.829,-0.542,-0.059,-0.015,0.006,-0.764,0.239,-0.019,0.247,-0.978,0.875
2024-09-23 15:22:01.451,175605.922,0.139,0.833,-0.535,-0.106,-0.05,-0.002,-0.851,0.293,0.075,0.253,-0.985,0.879
2024-09-23 15:22:01.461,175605.932,0.141,0.838,-0.527,-0.107,-0.135,-0.032,-0.899,0.315,0.195,0.262,-0.994,0.885
2024-09-23 15:22:01.470,175605.942,0.145,0.842,-0.52,-0.085,-0.099,-0.035,-0.731,0.145,0.269,0.271,-1.001,0.893
2024-09-23 15:22:01.481,175605.952,0.147,0.845,-0.513,-0.059,0.005,-0.013,-0.742,0.236,0.123,0.279,-1.007,0.901
2024-09-23 15:22:01.490,175605.962,0.149,0.848,-0.508,-0.013,0.054,-0.014,-0.488,0.135,0.153,0.286,-1.013,0.906
2024-09-23 15:22:01.500,175605.972,0.15,0.85,-0.504,-0.027,0.085,0.056,-0.377,-0.07,0.056,0.29,-1.017,0.911
2024-09-23 15:22:01.510,175605.982,0.15,0.852,-0.502,-0.049,0.099,0.005,-0.164,-0.122,-0.044,0.29,-1.019,0.912
2024-09-23 15:22:01.521,175605.992,0.149,0.852,-0.501,-0.092,0.137,0.045,-0.119,-0.034,-0.069,0.289,-1.021,0.912
2024-09-23 15:22:01.529,175606.002,0.148,0.853,-0.5,-0.137,0.084,0.061,-0.189,0.013,-0.05,0.289,-1.022,0.911
2024-09-23 15:22:01.540,175606.012,0.148,0.854,-0.498,-0.129,0.036,0.032,-0.167,0.001,-0.02,0.289,-1.024,0.912
2024-09-23 15:22:01.551,175606.022,0.148,0.855,-0.497,-0.078,0.023,0.057,-0.094,-0.009,0.0,0.29,-1.025,0.912
2024-09-23 15:22:01.561,175606.032,0.148,0.855,-0.497,-0.032,0.015,0.046,-0.03,-0.036,-0.003,0.29,-1.026,0.913
2024-09-23 15:22:01.571,175606.042,0.148,0.855,-0.497,-0.009,0.028,0.027,0.043,-0.063,-0.018,0.289,-1.026,0.913
2024-09-23 15:22:01.581,175606.052,0.147,0.855,-0.497,0.005,0.047,0.016,0.121,-0.048,-0.016,0.288,-1.025,0.912
2024-09-23 15:22:01.590,175606.062,0.147,0.854,-0.499,0.015,0.031,0.01,0.158,-0.016,-0.003,0.286,-1.024,0.911
2024-09-23 15:22:01.600,175606.072,0.147,0.853,-0.5,0.025,-0.001,0.001,0.164,0.023,0.006,0.286,-1.022,0.91
2024-09-23 15:22:01.610,175606.082,0.147,0.853,-0.502,0.034,-0.015,-0.001,0.176,0.055,0.008,0.286,-1.021,0.909
2024-09-23 15:22:01.620,175606.092,0.148,0.852,-0.503,0.048,-0.016,-0.002,0.162,0.077,-0.001,0.285,-1.019,0.908
2024-09-23 15:22:01.630,175606.102,0.148,0.851,-0.504,0.065,-0.023,-0.011,0.15,0.089,0.001,0.286,-1.018,0.907
2024-09-23 15:22:01.640,175606.112,0.149,0.85,-0.505,0.08,-0.026,-0.01,0.129,0.093,0.009,0.286,-1.016,0.907
2024-09-23 15:22:01.651,175606.122,0.149,0.85,-0.506,0.091,-0.036,-0.017,0.092,0.104,0.014,0.287,-1.015,0.906
2024-09-23 15:22:01.660,175606.132,0.15,0.849,-0.506,0.093,-0.048,-0.022,0.062,0.15,0.043,0.288,-1.014,0.907
2024-09-23 15:22:01.670,175606.142,0.151,0.849,-0.507,0.086,-0.05,-0.021,0.036,0.154,0.047,0.29,-1.014,0.907
2024-09-23 15:22:01.680,175606.152,0.152,0.849,-0.507,0.077,-0.043,-0.023,0.032,0.097,0.021,0.292,-1.013,0.908
2024-09-23 15:22:01.690,175606.162,0.152,0.849,-0.507,0.081,-0.029,-0.019,0.001,0.031,-0.036,0.292,-1.013,0.907
2024-09-23 15:22:01.700,175606.172,0.152,0.849,-0.507,0.082,-0.021,-0.007,0.003,0.041,-0.047,0.292,-1.013,0.907
2024-09-23 15:22:01.710,175606.182,0.152,0.849,-0.507,0.055,-0.01,0.01,0.024,0.056,-0.015,0.292,-1.013,0.906
2024-09-23 15:22:01.720,175606.192,0.153,0.848,-0.507,0.016,-0.001,0.01,0.055,0.04,0.013,0.292,-1.013,0.906
2024-09-23 15:22:01.730,175606.202,0.153,0.848,-0.508,-0.015,0.01,0.002,0.102,0.02,0.022,0.293,-1.012,0.906
2024-09-23 15:22:01.740,175606.212,0.153,0.847,-0.509,-0.028,0.022,0.004,0.128,0.009,0.012,0.293,-1.011,0.906
2024-09-23 15:22:01.750,175606.222,0.153,0.847,-0.51,-0.03,0.023,0.003,0.138,0.0,0.005,0.292,-1.009,0.905
2024-09-23 15:22:01.760,175606.232,0.154,0.846,-0.511,-0.023,0.013,0.002,0.126,-0.003,0.018,0.292,-1.008,0.905
2024-09-23 15:22:01.771,175606.242,0.154,0.845,-0.512,-0.015,-0.002,0.005,0.097,0.006,0.029,0.292,-1.007,0.905
2024-09-23 15:22:01.780,175606.252,0.154,0.845,-0.512,-0.012,-0.005,0.008,0.074,0.01,0.027,0.292,-1.006,0.905
2024-09-23 15:22:01.790,175606.262,0.154,0.844,-0.513,-0.013,-0.001,0.003,0.066,-0.001,0.011,0.292,-1.005,0.905
2024-09-23 15:22:01.800,175606.272,0.154,0.844,-0.514,-0.014,0.001,-0.001,0.034,0.006,0.011,0.292,-1.005,0.905
2024-09-23 15:22:01.810,175606.282,0.155,0.844,-0.514,-0.011,-0.009,0.004,-0.005,0.028,0.013,0.292,-1.005,0.905
2024-09-23 15:22:01.820,175606.292,0.155,0.844,-0.513,-0.009,-0.016,0.007,-0.016,0.038,0.007,0.293,-1.005,0.905
2024-09-23 15:22:01.830,175606.302,0.155,0.844,-0.513,-0.012,-0.012,0.004,-0.018,0.03,0.011,0.293,-1.005,0.905
2024-09-23 15:22:01.840,175606.312,0.155,0.844,-0.513,-0.014,-0.007,0.002,0.006,0.02,0.019,0.294,-1.005,0.906
2024-09-23 15:22:01.850,175606.322,0.155,0.844,-0.513,-0.011,0.004,0.003,0.043,0.01,0.02,0.294,-1.005,0.906
2024-09-23 15:22:01.860,175606.332,0.156,0.844,-0.514,-0.005,0.01,0.007,0.063,0.008,0.013,0.294,-1.004,0.906
2024-09-23 15:22:01.870,175606.342,0.156,0.843,-0.514,-0.001,0.007,0.011,0.083,0.006,0.02,0.294,-1.003,0.906
2024-09-23 15:22:01.880,175606.352,0.156,0.843,-0.515,-0.003,0.008,0.013,0.102,0.008,0.029,0.294,-1.003,0.905
2024-09-23 15:22:01.890,175606.362,0.156,0.842,-0.516,-0.005,0.012,0.01,0.126,0.001,0.032,0.294,-1.001,0.905
2024-09-23 15:22:01.901,175606.372,0.156,0.842,-0.517,-0.007,0.016,0.012,0.12,0.0,0.03,0.294,-1.0,0.905
2024-09-23 15:22:01.910,175606.382,0.157,0.841,-0.518,-0.009,0.017,0.015,0.128,0.002,0.016,0.294,-0.999,0.905
2024-09-23 15:22:01.920,175606.392,0.157,0.84,-0.519,-0.013,0.01,0.012,0.114,0.009,0.018,0.293,-0.998,0.904
2024-09-23 15:22:01.930,175606.402,0.157,0.84,-0.52,-0.019,-0.008,0.007,0.084,0.018,0.029,0.293,-0.997,0.904
2024-09-23 15:22:01.940,175606.412,0.157,0.839,-0.52,-0.02,-0.012,0.007,0.077,0.017,0.029,0.294,-0.996,0.905
2024-09-23 15:22:01.950,175606.422,0.158,0.839,-0.521,-0.02,-0.002,0.006,0.084,0.006,0.021,0.294,-0.995,0.905
2024-09-23 15:22:01.960,175606.432,0.158,0.838,-0.522,-0.016,0.004,0.006,0.092,-0.004,0.012,0.294,-0.994,0.904
2024-09-23 15:22:01.970,175606.442,0.158,0.838,-0.522,-0.011,0.003,0.001,0.082,-0.008,0.015,0.293,-0.993,0.904
2024-09-23 15:22:01.980,175606.452,0.158,0.838,-0.523,-0.003,-0.002,0.003,0.068,-0.004,0.02,0.293,-0.993,0.904
2024-09-23 15:22:01.990,175606.462,0.158,0.837,-0.524,-0.0,-0.004,0.005,0.068,-0.009,0.015,0.293,-0.992,0.904
2024-09-23 15:22:02.000,175606.471,0.158,0.837,-0.524,-0.005,0.002,0.004,0.064,-0.016,0.011,0.293,-0.992,0.904
2024-09-23 15:22:02.012,175606.481,0.158,0.837,-0.525,-0.005,0.004,0.006,0.075,-0.018,0.008,0.292,-0.991,0.903
2024-09-23 15:22:02.019,175606.491,0.158,0.836,-0.525,-0.003,0.002,0.009,0.078,-0.01,0.006,0.292,-0.99,0.903
2024-09-23 15:22:02.029,175606.501,0.158,0.836,-0.526,-0.004,-0.002,0.008,0.086,-0.014,0.005,0.291,-0.989,0.903
2024-09-23 15:22:02.038,175606.511,0.158,0.835,-0.527,-0.005,0.002,0.007,0.106,-0.016,0.002,0.291,-0.989,0.902
2024-09-23 15:22:02.049,175606.521,0.157,0.835,-0.528,-0.007,0.01,0.009,0.123,-0.034,-0.004,0.29,-0.987,0.902
2024-09-23 15:22:02.059,175606.531,0.157,0.834,-0.529,-0.006,0.016,0.01,0.143,-0.038,-0.002,0.289,-0.986,0.901
2024-09-23 15:22:02.069,175606.541,0.157,0.833,-0.53,-0.004,0.015,0.016,0.16,-0.035,-0.001,0.288,-0.985,0.9
2024-09-23 15:22:02.080,175606.551,0.157,0.832,-0.532,-0.001,0.011,0.015,0.182,-0.04,0.001,0.287,-0.983,0.899
2024-09-23 15:22:02.090,175606.561,0.157,0.831,-0.533,-0.006,0.01,0.011,0.218,-0.045,0.007,0.286,-0.981,0.898
2024-09-23 15:22:02.100,175606.571,0.156,0.83,-0.535,-0.01,0.015,0.01,0.255,-0.074,0.008,0.284,-0.979,0.897
2024-09-23 15:22:02.110,175606.581,0.156,0.829,-0.537,-0.01,0.023,0.017,0.127,-0.055,0.032,0.283,-0.977,0.897
2024-09-23 15:22:02.120,175606.591,0.156,0.828,-0.538,-0.009,0.029,0.025,0.08,-0.022,-0.021,0.283,-0.976,0.896
2024-09-23 15:22:02.129,175606.601,0.156,0.828,-0.538,-0.009,0.016,0.001,0.057,-0.018,-0.031,0.282,-0.976,0.895
2024-09-23 15:22:02.139,175606.611,0.156,0.828,-0.538,-0.023,-0.04,-0.019,-0.053,0.031,0.028,0.282,-0.976,0.895
2024-09-23 15:22:02.149,175606.621,0.156,0.829,-0.538,-0.034,-0.088,-0.022,-0.097,0.069,0.065,0.283,-0.977,0.897
2024-09-23 15:22:02.160,175606.631,0.157,0.829,-0.537,-0.038,-0.054,-0.006,-0.087,0.054,0.056,0.285,-0.977,0.898
2024-09-23 15:22:02.169,175606.641,0.158,0.829,-0.536,-0.03,-0.003,0.011,-0.038,0.011,0.055,0.286,-0.978,0.899
2024-09-23 15:22:02.179,175606.651,0.158,0.829,-0.536,-0.018,0.024,-0.002,0.053,0.008,0.074,0.287,-0.978,0.9
2024-09-23 15:22:02.189,175606.661,0.159,0.829,-0.537,-0.001,0.019,-0.009,0.053,-0.003,0.077,0.288,-0.977,0.901
2024-09-23 15:22:02.199,175606.671,0.16,0.829,-0.537,-0.005,0.004,0.001,-0.007,-0.007,0.061,0.289,-0.976,0.902
2024-09-23 15:22:02.209,175606.681,0.16,0.829,-0.536,-0.026,0.004,-0.011,-0.051,-0.006,0.076,0.29,-0.977,0.904
2024-09-23 15:22:02.219,175606.691,0.161,0.829,-0.536,-0.022,-0.023,-0.014,-0.147,0.018,0.097,0.292,-0.977,0.906
2024-09-23 15:22:02.229,175606.701,0.162,0.83,-0.534,-0.009,-0.047,0.011,-0.201,0.013,0.069,0.294,-0.979,0.908
2024-09-23 15:22:02.239,175606.711,0.162,0.831,-0.533,-0.011,-0.023,-0.0,-0.181,0.015,0.043,0.296,-0.98,0.91
2024-09-23 15:22:02.249,175606.721,0.163,0.832,-0.531,-0.001,-0.012,-0.002,-0.178,0.021,0.023,0.297,-0.982,0.912
2024-09-23 15:22:02.259,175606.731,0.163,0.832,-0.53,0.012,-0.014,0.012,-0.092,0.017,-0.004,0.298,-0.983,0.912
2024-09-23 15:22:02.270,175606.741,0.163,0.833,-0.529,0.015,0.005,0.004,-0.066,-0.02,-0.018,0.298,-0.984,0.913
2024-09-23 15:22:02.279,175606.751,0.162,0.833,-0.529,0.016,0.006,0.006,-0.095,-0.046,-0.02,0.298,-0.985,0.913
2024-09-23 15:22:02.289,175606.761,0.162,0.834,-0.528,0.012,0.01,0.005,-0.077,-0.036,0.001,0.298,-0.986,0.913
2024-09-23 15:22:02.299,175606.771,0.162,0.834,-0.528,0.009,0.0,0.021,-0.076,-0.027,0.007,0.298,-0.986,0.913
2024-09-23 15:22:02.309,175606.781,0.162,0.834,-0.527,-0.006,-0.002,0.035,-0.122,-0.017,-0.022,0.298,-0.987,0.914
2024-09-23 15:22:02.319,175606.791,0.161,0.835,-0.526,-0.02,0.023,0.032,-0.141,-0.008,-0.065,0.298,-0.989,0.914
2024-09-23 15:22:02.329,175606.801,0.161,0.836,-0.525,-0.014,0.024,0.018,-0.164,-0.004,-0.08,0.297,-0.99,0.913
2024-09-23 15:22:02.339,175606.811,0.16,0.837,-0.523,-0.006,-0.016,-0.012,-0.215,0.012,-0.041,0.297,-0.992,0.913
2024-09-23 15:22:02.349,175606.821,0.16,0.838,-0.521,-0.005,-0.048,-0.019,-0.231,0.051,-0.01,0.298,-0.994,0.914
2024-09-23 15:22:02.359,175606.831,0.16,0.839,-0.519,-0.014,-0.033,-0.003,-0.156,0.061,-0.013,0.3,-0.996,0.915
2024-09-23 15:22:02.369,175606.841,0.16,0.84,-0.518,-0.026,0.004,0.013,-0.038,0.024,-0.039,0.3,-0.997,0.915
2024-09-23 15:22:02.379,175606.851,0.16,0.84,-0.518,-0.028,0.032,0.007,0.039,-0.019,-0.032,0.3,-0.997,0.914
2024-09-23 15:22:02.389,175606.861,0.16,0.84,-0.519,-0.012,0.044,0.002,0.079,-0.03,-0.012,0.299,-0.997,0.914
2024-09-23 15:22:02.399,175606.871,0.16,0.839,-0.52,0.007,0.047,0.012,0.106,-0.019,-0.001,0.298,-0.996,0.913
2024-09-23 15:22:02.409,175606.881,0.16,0.839,-0.521,0.011,0.038,0.022,0.126,-0.006,-0.001,0.297,-0.995,0.912
2024-09-23 15:22:02.419,175606.891,0.159,0.838,-0.522,0.003,0.022,0.02,0.177,-0.005,-0.01,0.296,-0.994,0.912
2024-09-23 15:22:02.428,175606.901,0.159,0.837,-0.524,-0.01,0.015,0.012,0.22,-0.006,-0.009,0.295,-0.992,0.91
2024-09-23 15:22:02.439,175606.911,0.159,0.836,-0.526,-0.014,0.01,0.007,0.229,-0.005,0.005,0.294,-0.989,0.909
2024-09-23 15:22:02.449,175606.921,0.159,0.834,-0.528,-0.012,0.01,0.011,0.244,-0.002,0.003,0.293,-0.987,0.908
2024-09-23 15:22:02.459,175606.931,0.159,0.833,-0.53,-0.008,0.017,0.012,0.258,-0.003,0.003,0.292,-0.985,0.906
2024-09-23 15:22:02.469,175606.941,0.159,0.832,-0.532,-0.006,0.013,0.011,0.277,-0.007,-0.003,0.291,-0.982,0.905
2024-09-23 15:22:02.479,175606.951,0.159,0.83,-0.534,-0.006,0.01,0.009,0.264,-0.039,0.002,0.289,-0.98,0.904
2024-09-23 15:22:02.489,175606.961,0.159,0.83,-0.535,-0.007,0.008,0.007,0.074,-0.009,0.024,0.289,-0.978,0.903
2024-09-23 15:22:02.499,175606.971,0.159,0.829,-0.536,-0.006,0.005,0.019,0.079,0.021,-0.038,0.289,-0.978,0.903
2024-09-23 15:22:02.509,175606.981,0.159,0.829,-0.536,-0.01,-0.004,-0.005,0.065,0.031,-0.024,0.288,-0.977,0.902
2024-09-23 15:22:02.519,175606.991,0.159,0.829,-0.536,-0.026,-0.064,-0.021,-0.029,0.041,0.02,0.288,-0.977,0.902
2024-09-23 15:22:02.529,175607.001,0.159,0.829,-0.536,-0.032,-0.064,-0.014,0.034,0.044,0.032,0.289,-0.977,0.902
2024-09-23 15:22:02.540,175607.011,0.16,0.828,-0.537,-0.028,0.009,0.022,0.102,0.022,0.012,0.289,-0.976,0.902
2024-09-23 15:22:02.549,175607.021,0.16,0.828,-0.538,-0.019,0.033,0.016,0.145,-0.05,-0.013,0.289,-0.975,0.902
2024-09-23 15:22:02.559,175607.031,0.159,0.827,-0.539,-0.006,0.037,-0.015,0.118,-0.02,0.008,0.288,-0.974,0.901
2024-09-23 15:22:02.569,175607.041,0.16,0.827,-0.54,-0.001,0.011,-0.017,0.054,0.063,0.017,0.288,-0.973,0.901
2024-09-23 15:22:02.579,175607.051,0.16,0.826,-0.54,-0.016,-0.033,-0.01,0.007,0.094,-0.006,0.288,-0.973,0.9
2024-09-23 15:22:02.589,175607.06,0.16,0.827,-0.539,-0.054,-0.033,-0.003,-0.066,0.105,-0.035,0.289,-0.973,0.9
2024-09-23 15:22:02.599,175607.07,0.161,0.827,-0.539,-0.071,-0.042,-0.017,-0.068,0.138,-0.026,0.29,-0.974,0.9
2024-09-23 15:22:02.609,175607.08,0.162,0.827,-0.538,-0.056,-0.041,-0.013,-0.072,0.179,-0.002,0.292,-0.974,0.9
2024-09-23 15:22:02.618,175607.09,0.162,0.828,-0.537,-0.036,-0.028,0.009,-0.059,0.167,-0.011,0.294,-0.975,0.9
2024-09-23 15:22:02.629,175607.1,0.163,0.828,-0.536,-0.022,-0.0,0.005,-0.026,0.148,-0.008,0.295,-0.976,0.9
2024-09-23 15:22:02.639,175607.11,0.164,0.828,-0.536,-0.003,0.015,0.002,0.003,0.133,0.033,0.297,-0.976,0.901
2024-09-23 15:22:02.648,175607.12,0.165,0.828,-0.536,0.015,-0.005,-0.002,-0.075,0.076,0.067,0.299,-0.976,0.902
2024-09-23 15:22:02.658,175607.13,0.166,0.829,-0.534,0.011,-0.005,-0.013,-0.345,0.099,0.074,0.301,-0.978,0.904
2024-09-23 15:22:02.669,175607.14,0.167,0.831,-0.53,0.004,-0.007,0.018,-0.533,0.2,0.027,0.305,-0.982,0.907
2024-09-23 15:22:02.678,175607.15,0.168,0.834,-0.525,-0.006,-0.023,0.017,-0.562,0.239,-0.02,0.31,-0.987,0.91
2024-09-23 15:22:02.688,175607.16,0.168,0.838,-0.519,-0.02,-0.073,-0.023,-0.857,0.061,-0.178,0.313,-0.994,0.912
2024-09-23 15:22:02.698,175607.17,0.167,0.842,-0.512,-0.028,-0.091,-0.063,-0.63,0.044,-0.162,0.314,-1.002,0.913
2024-09-23 15:22:02.708,175607.18,0.166,0.845,-0.508,-0.108,0.032,0.004,-0.445,0.104,-0.015,0.316,-1.007,0.915
2024-09-23 15:22:02.718,175607.19,0.167,0.848,-0.504,-0.208,0.051,0.04,-0.495,0.071,-0.025,0.32,-1.011,0.917
2024-09-23 15:22:02.728,175607.2,0.166,0.85,-0.5,-0.186,0.034,-0.029,-0.422,0.045,-0.107,0.321,-1.016,0.919
2024-09-23 15:22:02.738,175607.21,0.166,0.852,-0.496,-0.135,0.08,0.066,-0.386,0.029,-0.131,0.322,-1.02,0.919
2024-09-23 15:22:02.748,175607.22,0.164,0.854,-0.493,-0.087,0.035,0.058,-0.378,-0.014,-0.124,0.322,-1.024,0.919
2024-09-23 15:22:02.758,175607.23,0.163,0.856,-0.49,-0.042,0.025,0.04,-0.281,-0.014,-0.106,0.322,-1.028,0.919
2024-09-23 15:22:02.768,175607.24,0.163,0.857,-0.488,-0.018,0.051,0.05,-0.197,0.018,-0.09,0.321,-1.03,0.919
2024-09-23 15:22:02.778,175607.25,0.162,0.858,-0.487,-0.014,0.044,0.05,-0.139,0.028,-0.072,0.321,-1.032,0.918
2024-09-23 15:22:02.788,175607.26,0.161,0.859,-0.486,-0.001,0.038,0.039,-0.091,-0.006,-0.071,0.321,-1.033,0.918
2024-09-23 15:22:02.799,175607.27,0.161,0.859,-0.485,0.017,0.049,0.04,-0.031,-0.015,-0.059,0.32,-1.034,0.917
2024-09-23 15:22:02.809,175607.28,0.16,0.86,-0.485,0.027,0.044,0.045,0.019,0.019,-0.043,0.319,-1.034,0.916
2024-09-23 15:22:02.818,175607.29,0.16,0.859,-0.486,0.029,0.022,0.038,0.074,0.05,-0.028,0.319,-1.034,0.915
2024-09-23 15:22:02.828,175607.3,0.16,0.859,-0.486,0.036,0.006,0.03,0.145,0.065,-0.029,0.319,-1.033,0.914
2024-09-23 15:22:02.838,175607.31,0.16,0.858,-0.488,0.05,0.003,0.018,0.209,0.07,-0.028,0.318,-1.032,0.912
2024-09-23 15:22:02.848,175607.32,0.161,0.857,-0.49,0.069,0.0,0.009,0.232,0.096,-0.004,0.317,-1.029,0.91
2024-09-23 15:22:02.858,175607.33,0.161,0.856,-0.491,0.09,-0.012,0.009,0.237,0.122,0.014,0.317,-1.027,0.909
2024-09-23 15:22:02.868,175607.34,0.162,0.855,-0.493,0.108,-0.027,0.002,0.222,0.155,0.017,0.318,-1.025,0.908
2024-09-23 15:22:02.878,175607.35,0.163,0.854,-0.495,0.117,-0.042,-0.006,0.239,0.169,0.026,0.318,-1.023,0.907
2024-09-23 15:22:02.888,175607.36,0.164,0.852,-0.496,0.118,-0.054,-0.014,0.167,0.131,-0.004,0.319,-1.021,0.906
2024-09-23 15:22:02.898,175607.37,0.164,0.852,-0.497,0.117,-0.055,-0.038,0.068,0.102,-0.027,0.319,-1.02,0.905
2024-09-23 15:22:02.908,175607.38,0.165,0.852,-0.497,0.106,-0.043,-0.035,0.022,0.116,-0.003,0.32,-1.019,0.905
2024-09-23 15:22:02.918,175607.39,0.166,0.852,-0.497,0.063,-0.035,-0.02,0.004,0.13,0.026,0.321,-1.019,0.905
2024-09-23 15:22:02.928,175607.4,0.166,0.852,-0.497,0.007,-0.031,-0.02,0.022,0.118,0.021,0.323,-1.019,0.905
2024-09-23 15:22:02.938,175607.41,0.167,0.851,-0.497,-0.033,-0.017,-0.014,0.058,0.099,0.001,0.324,-1.019,0.905
2024-09-23 15:22:02.948,175607.42,0.168,0.851,-0.498,-0.049,0.001,-0.012,0.089,0.065,0.005,0.325,-1.018,0.905
2024-09-23 15:22:02.958,175607.43,0.168,0.851,-0.498,-0.045,0.015,-0.014,0.089,0.046,0.022,0.325,-1.017,0.905
2024-09-23 15:22:02.968,175607.44,0.168,0.85,-0.499,-0.029,0.017,-0.006,0.083,0.049,0.031,0.326,-1.016,0.905
2024-09-23 15:22:02.978,175607.45,0.169,0.85,-0.5,-0.014,0.013,0.002,0.106,0.053,0.018,0.326,-1.015,0.905
2024-09-23 15:22:02.988,175607.46,0.169,0.849,-0.501,-0.017,0.01,0.0,0.111,0.052,0.007,0.326,-1.014,0.904
2024-09-23 15:22:02.998,175607.47,0.17,0.848,-0.501,-0.028,0.007,-0.001,0.097,0.05,0.003,0.326,-1.013,0.904
2024-09-23 15:22:03.008,175607.48,0.17,0.848,-0.502,-0.031,0.008,0.002,0.096,0.042,0.005,0.326,-1.012,0.903
2024-09-23 15:22:03.018,175607.49,0.17,0.847,-0.503,-0.027,0.009,0.002,0.081,0.047,0.014,0.326,-1.011,0.903
2024-09-23 15:22:03.028,175607.5,0.171,0.847,-0.503,-0.015,0.001,0.007,0.064,0.056,0.016,0.327,-1.01,0.903
2024-09-23 15:22:03.038,175607.51,0.171,0.847,-0.504,-0.004,-0.001,0.013,0.087,0.051,0.002,0.327,-1.01,0.902
2024-09-23 15:22:03.048,175607.52,0.171,0.846,-0.505,0.001,0.008,0.008,0.125,0.028,-0.004,0.327,-1.009,0.902
2024-09-23 15:22:03.058,175607.53,0.171,0.845,-0.506,0.006,0.01,0.0,0.146,0.022,0.007,0.326,-1.007,0.901
2024-09-23 15:22:03.068,175607.54,0.171,0.845,-0.507,0.012,0.012,0.007,0.184,0.007,0.012,0.326,-1.006,0.9
2024-09-23 15:22:03.078,175607.55,0.171,0.844,-0.509,0.009,0.022,0.014,0.203,-0.013,0.005,0.325,-1.004,0.899
2024-09-23 15:22:03.088,175607.56,0.171,0.843,-0.51,0.002,0.024,0.019,0.198,-0.006,0.007,0.324,-1.002,0.898
2024-09-23 15:22:03.098,175607.57,0.171,0.842,-0.512,-0.001,0.015,0.026,0.195,0.006,0.008,0.323,-1.0,0.896
2024-09-23 15:22:03.108,175607.58,0.171,0.841,-0.514,-0.006,0.004,0.019,0.195,0.011,0.009,0.322,-0.999,0.895
2024-09-23 15:22:03.118,175607.59,0.171,0.84,-0.515,-0.013,-0.002,0.007,0.189,0.016,0.018,0.321,-0.997,0.894
2024-09-23 15:22:03.127,175607.6,0.172,0.839,-0.517,-0.016,-0.002,0.005,0.19,0.008,0.018,0.321,-0.995,0.894
2024-09-23 15:22:03.137,175607.61,0.172,0.838,-0.518,-0.017,0.007,0.005,0.189,0.001,0.011,0.32,-0.993,0.893
2024-09-23 15:22:03.147,175607.62,0.172,0.837,-0.52,-0.016,0.008,0.006,0.19,-0.0,0.008,0.319,-0.991,0.892
2024-09-23 15:22:03.158,175607.63,0.172,0.836,-0.521,-0.015,0.001,0.008,0.176,0.008,0.01,0.319,-0.99,0.891
2024-09-23 15:22:03.168,175607.639,0.172,0.835,-0.523,-0.015,-0.005,0.01,0.182,0.014,0.016,0.318,-0.988,0.891
2024-09-23 15:22:03.178,175607.649,0.172,0.834,-0.524,-0.015,0.002,0.011,0.202,0.002,0.012,0.318,-0.986,0.89
2024-09-23 15:22:03.188,175607.659,0.172,0.833,-0.526,-0.016,0.012,0.007,0.239,-0.016,0.004,0.317,-0.984,0.889
2024-09-23 15:22:03.197,175607.669,0.172,0.832,-0.528,-0.009,0.016,0.006,0.252,-0.046,0.008,0.315,-0.982,0.887
2024-09-23 15:22:03.207,175607.679,0.172,0.831,-0.53,-0.002,0.011,0.012,0.119,-0.007,0.026,0.314,-0.98,0.886
2024-09-23 15:22:03.217,175607.689,0.172,0.83,-0.53,0.0,0.006,0.016,0.007,0.019,-0.006,0.314,-0.98,0.886
2024-09-23 15:22:03.227,175607.699,0.172,0.831,-0.53,-0.001,-0.0,0.007,-0.022,0.009,-0.039,0.314,-0.98,0.886
2024-09-23 15:22:03.237,175607.709,0.172,0.831,-0.529,-0.016,-0.034,-0.036,-0.12,0.045,0.003,0.314,-0.981,0.886
2024-09-23 15:22:03.247,175607.719,0.172,0.832,-0.528,-0.02,-0.081,-0.025,-0.153,0.067,0.04,0.316,-0.982,0.887
2024-09-23 15:22:03.257,175607.729,0.173,0.832,-0.527,-0.014,-0.046,0.0,-0.075,0.045,0.031,0.317,-0.983,0.888
2024-09-23 15:22:03.267,175607.739,0.173,0.832,-0.526,-0.01,0.01,0.015,0.008,0.006,0.012,0.318,-0.983,0.889
2024-09-23 15:22:03.277,175607.749,0.173,0.832,-0.527,-0.005,0.032,0.007,0.062,-0.012,0.017,0.318,-0.983,0.889
2024-09-23 15:22:03.287,175607.759,0.173,0.832,-0.527,0.003,0.041,0.004,0.065,-0.017,0.028,0.318,-0.982,0.889
2024-09-23 15:22:03.297,175607.769,0.174,0.831,-0.528,0.006,0.035,0.003,0.057,-0.007,0.038,0.318,-0.982,0.889
2024-09-23 15:22:03.309,175607.779,0.174,0.831,-0.528,-0.001,0.014,0.003,0.034,0.019,0.04,0.318,-0.981,0.889
2024-09-23 15:22:03.318,175607.789,0.175,0.831,-0.528,-0.01,-0.008,0.005,-0.044,0.023,0.053,0.319,-0.981,0.89
2024-09-23 15:22:03.327,175607.799,0.175,0.831,-0.528,-0.019,-0.017,-0.003,-0.08,0.013,0.071,0.321,-0.981,0.892
2024-09-23 15:22:03.337,175607.809,0.176,0.831,-0.527,-0.02,-0.022,-0.021,-0.046,0.019,0.092,0.322,-0.982,0.893
2024-09-23 15:22:03.347,175607.819,0.177,0.832,-0.527,-0.015,-0.045,-0.016,-0.042,0.04,0.108,0.324,-0.982,0.895
2024-09-23 15:22:03.357,175607.829,0.178,0.832,-0.526,-0.023,-0.048,0.0,-0.042,0.046,0.102,0.326,-0.982,0.897
2024-09-23 15:22:03.368,175607.839,0.179,0.832,-0.526,-0.035,-0.005,0.004,-0.033,0.014,0.077,0.328,-0.982,0.899
2024-09-23 15:22:03.377,175607.849,0.18,0.832,-0.526,-0.03,0.026,0.014,0.028,0.003,0.06,0.329,-0.982,0.9
2024-09-23 15:22:03.387,175607.859,0.18,0.831,-0.526,-0.018,0.025,-0.003,0.049,0.008,0.064,0.33,-0.981,0.901
2024-09-23 15:22:03.397,175607.869,0.181,0.831,-0.526,0.003,-0.008,0.003,-0.013,0.022,0.058,0.331,-0.981,0.902
2024-09-23 15:22:03.407,175607.879,0.181,0.831,-0.526,0.015,-0.008,0.021,-0.01,0.004,-0.001,0.331,-0.981,0.903
2024-09-23 15:22:03.417,175607.889,0.181,0.831,-0.526,0.013,0.023,0.014,0.061,0.034,-0.024,0.331,-0.981,0.902
2024-09-23 15:22:03.427,175607.899,0.181,0.831,-0.527,0.013,0.004,0.003,0.026,0.009,-0.027,0.331,-0.98,0.901
2024-09-23 15:22:03.437,175607.909,0.18,0.831,-0.527,0.012,-0.014,0.007,-0.026,-0.019,-0.009,0.33,-0.981,0.901
2024-09-23 15:22:03.447,175607.919,0.181,0.831,-0.526,0.004,-0.007,-0.001,-0.081,0.014,0.03,0.331,-0.981,0.901
2024-09-23 15:22:03.457,175607.929,0.181,0.831,-0.525,0.002,-0.025,0.016,-0.055,0.006,0.011,0.331,-0.982,0.902
2024-09-23 15:22:03.467,175607.939,0.181,0.832,-0.525,-0.017,0.014,0.033,0.009,-0.021,-0.014,0.331,-0.982,0.902
2024-09-23 15:22:03.477,175607.949,0.18,0.832,-0.525,-0.025,0.034,0.024,-0.011,-0.027,-0.01,0.331,-0.982,0.902
2024-09-23 15:22:03.487,175607.959,0.18,0.832,-0.525,-0.012,0.015,0.021,-0.032,-0.027,0.003,0.331,-0.982,0.902
2024-09-23 15:22:03.497,175607.969,0.18,0.832,-0.525,-0.007,0.008,0.009,-0.043,-0.02,0.02,0.331,-0.983,0.903
2024-09-23 15:22:03.507,175607.979,0.18,0.832,-0.524,-0.009,-0.012,0.01,-0.033,-0.012,0.025,0.331,-0.983,0.903
2024-09-23 15:22:03.517,175607.989,0.181,0.832,-0.524,-0.017,-0.013,0.013,-0.01,-0.012,0.021,0.332,-0.983,0.904
2024-09-23 15:22:03.527,175607.999,0.181,0.832,-0.524,-0.021,-0.001,0.008,0.01,-0.02,0.016,0.332,-0.983,0.904
2024-09-23 15:22:03.537,175608.009,0.181,0.832,-0.525,-0.018,0.001,-0.003,0.006,-0.013,0.022,0.332,-0.983,0.904
2024-09-23 15:22:03.547,175608.019,0.181,0.832,-0.524,-0.011,-0.008,-0.004,0.001,-0.008,0.028,0.332,-0.983,0.905
2024-09-23 15:22:03.557,175608.029,0.181,0.832,-0.524,-0.008,-0.016,-0.0,-0.018,-0.012,0.031,0.332,-0.983,0.905
2024-09-23 15:22:03.567,175608.039,0.181,0.832,-0.524,-0.008,-0.019,0.001,-0.045,-0.02,0.022,0.333,-0.983,0.906
2024-09-23 15:22:03.577,175608.049,0.181,0.833,-0.524,-0.008,-0.015,0.01,-0.085,-0.012,0.013,0.333,-0.984,0.907
2024-09-23 15:22:03.587,175608.059,0.181,0.833,-0.523,-0.007,-0.017,0.018,-0.102,0.008,0.01,0.334,-0.985,0.907
2024-09-23 15:22:03.597,175608.069,0.181,0.833,-0.522,-0.006,-0.022,0.011,-0.059,0.032,-0.005,0.334,-0.985,0.908
2024-09-23 15:22:03.607,175608.079,0.181,0.834,-0.521,-0.009,-0.021,0.002,-0.096,0.014,-0.015,0.335,-0.986,0.908
2024-09-23 15:22:03.617,175608.089,0.181,0.835,-0.52,-0.014,-0.007,0.003,-0.228,0.013,-0.002,0.335,-0.988,0.909
2024-09-23 15:22:03.627,175608.099,0.181,0.836,-0.518,-0.007,0.008,0.0,-0.292,0.056,0.001,0.337,-0.99,0.91
2024-09-23 15:22:03.637,175608.109,0.182,0.837,-0.515,0.007,0.01,0.001,-0.229,0.082,-0.032,0.339,-0.993,0.912
2024-09-23 15:22:03.647,175608.119,0.182,0.838,-0.514,-0.004,-0.003,-0.001,-0.163,0.075,-0.039,0.34,-0.995,0.912
2024-09-23 15:22:03.657,175608.129,0.182,0.839,-0.512,-0.023,-0.013,-0.007,-0.131,0.058,-0.008,0.341,-0.996,0.913
2024-09-23 15:22:03.668,175608.139,0.182,0.84,-0.512,-0.021,0.004,0.001,-0.056,0.041,0.015,0.342,-0.997,0.913
2024-09-23 15:22:03.677,175608.149,0.182,0.84,-0.511,-0.01,0.035,0.009,0.01,0.018,0.015,0.343,-0.997,0.914
2024-09-23 15:22:03.687,175608.159,0.183,0.84,-0.512,-0.001,0.036,0.02,0.033,0.012,0.005,0.343,-0.997,0.914
2024-09-23 15:22:03.697,175608.169,0.183,0.839,-0.512,0.001,0.028,0.022,0.052,0.009,-0.001,0.343,-0.996,0.913
2024-09-23 15:22:03.706,175608.179,0.183,0.839,-0.512,-0.001,0.025,0.015,0.067,0.015,-0.002,0.342,-0.996,0.913
2024-09-23 15:22:03.717,175608.189,0.183,0.839,-0.513,-0.004,0.016,0.006,0.097,0.02,-0.001,0.342,-0.995,0.912
2024-09-23 15:22:03.727,175608.199,0.183,0.838,-0.514,-0.007,0.011,0.002,0.131,0.02,-0.002,0.342,-0.994,0.912
2024-09-23 15:22:03.736,175608.209,0.183,0.837,-0.515,-0.008,0.011,0.006,0.168,0.008,0.006,0.341,-0.992,0.911
2024-09-23 15:22:03.746,175608.219,0.183,0.836,-0.517,-0.008,0.012,0.006,0.182,-0.002,0.012,0.34,-0.991,0.91
2024-09-23 15:22:03.756,175608.228,0.183,0.836,-0.518,-0.003,0.012,0.005,0.193,-0.008,0.013,0.339,-0.989,0.909
2024-09-23 15:22:03.767,175608.238,0.183,0.834,-0.52,0.0,0.018,0.008,0.217,-0.012,-0.0,0.338,-0.987,0.908
2024-09-23 15:22:03.776,175608.248,0.183,0.833,-0.522,-0.0,0.018,0.01,0.242,-0.004,-0.005,0.337,-0.985,0.906
2024-09-23 15:22:03.786,175608.258,0.183,0.832,-0.524,-0.001,0.014,0.012,0.281,-0.014,-0.006,0.336,-0.983,0.905
2024-09-23 15:22:03.796,175608.268,0.182,0.831,-0.526,-0.002,0.013,0.011,0.305,-0.06,0.001,0.334,-0.98,0.903
2024-09-23 15:22:03.806,175608.278,0.182,0.829,-0.528,-0.004,0.014,0.008,0.127,-0.039,0.036,0.333,-0.978,0.902
2024-09-23 15:22:03.816,175608.288,0.182,0.829,-0.529,-0.001,0.015,0.019,0.12,-0.001,-0.031,0.332,-0.977,0.901
2024-09-23 15:22:03.827,175608.298,0.182,0.828,-0.53,-0.006,0.013,-0.008,0.153,-0.001,-0.026,0.331,-0.976,0.9
2024-09-23 15:22:03.836,175608.308,0.182,0.828,-0.531,-0.026,-0.044,-0.018,0.045,0.021,0.022,0.33,-0.975,0.899
2024-09-23 15:22:03.847,175608.318,0.182,0.827,-0.531,-0.03,-0.068,-0.009,0.075,0.028,0.037,0.331,-0.974,0.9
2024-09-23 15:22:03.857,175608.328,0.183,0.827,-0.532,-0.022,0.001,0.018,0.145,-0.028,-0.001,0.331,-0.973,0.899
2024-09-23 15:22:03.867,175608.338,0.182,0.826,-0.533,-0.011,0.034,0.014,0.176,-0.065,-0.01,0.329,-0.972,0.898
2024-09-23 15:22:03.877,175608.348,0.182,0.825,-0.535,0.005,0.025,-0.002,0.146,-0.059,0.006,0.328,-0.97,0.897
2024-09-23 15:22:03.887,175608.358,0.182,0.824,-0.536,0.018,0.01,0.003,0.092,-0.036,0.005,0.327,-0.969,0.897
2024-09-23 15:22:03.896,175608.368,0.181,0.824,-0.537,0.007,0.002,-0.004,0.06,-0.062,-0.018,0.326,-0.969,0.896
2024-09-23 15:22:03.906,175608.378,0.181,0.824,-0.537,-0.013,-0.014,-0.02,0.009,-0.019,-0.018,0.325,-0.968,0.896
2024-09-23 15:22:03.916,175608.388,0.181,0.824,-0.537,-0.03,-0.041,-0.019,-0.098,0.044,0.006,0.325,-0.969,0.896
2024-09-23 15:22:03.926,175608.398,0.181,0.825,-0.536,-0.039,-0.05,-0.017,-0.104,0.009,-0.066,0.326,-0.97,0.896
2024-09-23 15:22:03.936,175608.408,0.181,0.825,-0.535,-0.047,-0.014,-0.05,-0.039,0.013,-0.056,0.325,-0.971,0.895
2024-09-23 15:22:03.947,175608.418,0.181,0.826,-0.534,-0.039,-0.049,-0.024,-0.113,0.11,-0.025,0.326,-0.972,0.895
2024-09-23 15:22:03.957,175608.428,0.181,0.826,-0.533,-0.028,-0.077,-0.011,-0.08,0.126,-0.031,0.327,-0.973,0.895
2024-09-23 15:22:03.966,175608.438,0.181,0.827,-0.533,-0.027,-0.01,0.023,-0.038,0.06,-0.053,0.328,-0.973,0.895
2024-09-23 15:22:03.976,175608.448,0.181,0.827,-0.532,-0.016,0.03,0.002,0.016,0.055,-0.005,0.328,-0.974,0.894
2024-09-23 15:22:03.986,175608.458,0.182,0.827,-0.533,0.011,0.025,-0.0,0.064,0.008,0.017,0.329,-0.973,0.894
2024-09-23 15:22:03.996,175608.468,0.182,0.826,-0.533,0.03,0.05,0.019,0.127,-0.039,-0.019,0.328,-0.972,0.894
2024-09-23 15:22:04.006,175608.478,0.181,0.826,-0.535,0.04,0.067,0.052,0.131,-0.008,-0.036,0.327,-0.971,0.892
2024-09-23 15:22:04.016,175608.488,0.181,0.825,-0.536,0.05,0.041,0.067,0.183,0.006,-0.046,0.326,-0.97,0.891
2024-09-23 15:22:04.026,175608.498,0.18,0.824,-0.538,0.044,0.05,0.05,0.266,-0.049,-0.052,0.324,-0.968,0.889
2024-09-23 15:22:04.036,175608.508,0.18,0.822,-0.54,0.026,0.044,0.015,0.192,-0.07,-0.05,0.321,-0.966,0.886
2024-09-23 15:22:04.046,175608.518,0.179,0.822,-0.541,0.006,-0.018,-0.012,0.007,-0.016,-0.029,0.319,-0.965,0.885
2024-09-23 15:22:04.056,175608.528,0.179,0.823,-0.54,-0.021,-0.079,0.0,-0.208,0.047,-0.007,0.32,-0.966,0.885
2024-09-23 15:22:04.066,175608.538,0.179,0.824,-0.537,-0.054,-0.112,-0.001,-0.424,0.071,0.025,0.322,-0.969,0.887
2024-09-23 15:22:04.077,175608.548,0.18,0.827,-0.532,-0.068,-0.114,-0.008,-0.783,0.151,0.078,0.327,-0.974,0.892
2024-09-23 15:22:04.086,175608.558,0.182,0.832,-0.525,-0.057,-0.069,0.013,-0.871,0.19,0.027,0.333,-0.982,0.897
2024-09-23 15:22:04.096,175608.568,0.183,0.836,-0.518,-0.043,0.01,-0.014,-0.675,0.156,-0.01,0.339,-0.99,0.902
2024-09-23 15:22:04.106,175608.578,0.183,0.839,-0.512,-0.036,-0.017,-0.069,-0.703,0.114,0.067,0.344,-0.996,0.907
2024-09-23 15:22:04.116,175608.588,0.185,0.842,-0.506,-0.029,-0.071,-0.052,-0.547,0.11,0.151,0.35,-1.001,0.913
2024-09-23 15:22:04.126,175608.598,0.187,0.844,-0.502,-0.036,0.026,0.008,-0.347,0.066,0.132,0.356,-1.005,0.918
2024-09-23 15:22:04.136,175608.608,0.188,0.845,-0.5,-0.03,0.08,0.058,-0.161,-0.004,0.061,0.359,-1.007,0.921
2024-09-23 15:22:04.146,175608.618,0.187,0.846,-0.5,-0.002,0.092,0.057,-0.163,-0.436,-0.052,0.358,-1.008,0.923
2024-09-23 15:22:04.156,175608.628,0.184,0.848,-0.497,0.046,0.1,0.033,-0.435,-0.259,-0.246,0.354,-1.012,0.922
2024-09-23 15:22:04.166,175608.638,0.182,0.849,-0.497,0.024,0.116,0.061,0.169,0.021,0.029,0.351,-1.013,0.92
2024-09-23 15:22:04.176,175608.648,0.183,0.848,-0.498,-0.138,0.077,0.196,-0.003,-0.074,0.127,0.352,-1.012,0.921
2024-09-23 15:22:04.186,175608.658,0.183,0.848,-0.498,-0.161,-0.041,-0.057,-0.011,-0.13,0.022,0.352,-1.012,0.923
2024-09-23 15:22:04.196,175608.668,0.182,0.847,-0.499,-0.055,0.035,0.01,0.223,-0.067,-0.041,0.35,-1.011,0.922
2024-09-23 15:22:04.206,175608.678,0.182,0.846,-0.501,0.006,0.052,0.053,0.282,-0.06,0.008,0.348,-1.009,0.92
2024-09-23 15:22:04.216,175608.688,0.182,0.845,-0.504,0.019,-0.019,-0.047,0.293,-0.089,0.049,0.346,-1.006,0.919
2024-09-23 15:22:04.226,175608.698,0.182,0.843,-0.506,0.044,-0.013,-0.042,0.26,-0.027,0.011,0.345,-1.003,0.917
2024-09-23 15:22:04.236,175608.708,0.182,0.842,-0.508,0.05,-0.021,-0.018,0.216,0.048,-0.012,0.343,-1.001,0.916
2024-09-23 15:22:04.245,175608.718,0.182,0.841,-0.509,0.024,-0.054,-0.025,0.126,0.042,-0.001,0.343,-0.999,0.915
2024-09-23 15:22:04.255,175608.728,0.182,0.841,-0.51,0.02,-0.06,-0.038,0.064,0.04,0.005,0.343,-0.999,0.914
2024-09-23 15:22:04.266,175608.738,0.182,0.84,-0.51,0.054,-0.05,-0.025,0.063,0.062,-0.007,0.343,-0.998,0.914
2024-09-23 15:22:04.276,175608.748,0.182,0.84,-0.511,0.074,-0.047,-0.012,0.026,0.049,-0.046,0.343,-0.998,0.913
2024-09-23 15:22:04.285,175608.758,0.182,0.84,-0.511,0.069,-0.036,-0.01,0.036,0.037,-0.071,0.342,-0.998,0.912
2024-09-23 15:22:04.295,175608.768,0.182,0.84,-0.511,0.054,-0.004,0.002,0.106,0.024,-0.064,0.341,-0.997,0.91
2024-09-23 15:22:04.306,175608.778,0.181,0.839,-0.513,0.03,0.022,0.004,0.185,-0.013,-0.04,0.34,-0.996,0.908
2024-09-23 15:22:04.315,175608.788,0.181,0.838,-0.514,0.005,0.031,0.004,0.241,-0.032,-0.03,0.338,-0.994,0.906
2024-09-23 15:22:04.325,175608.798,0.18,0.837,-0.517,-0.009,0.03,0.023,0.277,-0.029,-0.026,0.336,-0.992,0.904
2024-09-23 15:22:04.336,175608.807,0.18,0.835,-0.519,-0.02,0.03,0.031,0.303,-0.037,-0.016,0.334,-0.989,0.902
2024-09-23 15:22:04.345,175608.817,0.18,0.834,-0.522,-0.028,0.03,0.023,0.321,-0.056,-0.017,0.332,-0.986,0.9
2024-09-23 15:22:04.355,175608.827,0.179,0.832,-0.525,-0.022,0.03,0.014,0.335,-0.06,-0.021,0.329,-0.983,0.898
2024-09-23 15:22:04.366,175608.837,0.179,0.83,-0.528,-0.01,0.017,0.011,0.326,-0.046,-0.023,0.327,-0.98,0.896
2024-09-23 15:22:04.375,175608.847,0.179,0.829,-0.53,-0.01,-0.003,0.006,0.313,-0.034,-0.019,0.325,-0.977,0.894
2024-09-23 15:22:04.386,175608.857,0.178,0.827,-0.533,-0.015,-0.008,0.007,0.33,-0.033,-0.018,0.323,-0.974,0.892
2024-09-23 15:22:04.395,175608.867,0.178,0.825,-0.536,-0.017,0.005,0.008,0.382,-0.05,-0.021,0.321,-0.971,0.889
2024-09-23 15:22:04.406,175608.877,0.178,0.823,-0.539,-0.009,0.018,0.007,0.431,-0.073,-0.024,0.318,-0.967,0.887
2024-09-23 15:22:04.416,175608.887,0.177,0.821,-0.543,0.001,0.025,0.011,0.462,-0.156,-0.026,0.315,-0.963,0.884
2024-09-23 15:22:04.425,175608.897,0.176,0.819,-0.546,0.012,0.03,0.023,0.148,-0.057,-0.001,0.312,-0.96,0.882
2024-09-23 15:22:04.435,175608.907,0.176,0.819,-0.547,0.011,0.027,0.039,0.091,0.008,-0.086,0.311,-0.959,0.881
2024-09-23 15:22:04.445,175608.917,0.175,0.818,-0.548,0.001,0.02,0.016,0.058,-0.021,-0.089,0.309,-0.958,0.879
2024-09-23 15:22:04.455,175608.927,0.174,0.819,-0.547,-0.027,-0.069,-0.053,-0.134,0.047,0.012,0.309,-0.959,0.878
2024-09-23 15:22:04.466,175608.937,0.175,0.819,-0.546,-0.027,-0.137,-0.025,-0.09,0.099,0.036,0.31,-0.96,0.879
2024-09-23 15:22:04.475,175608.947,0.176,0.819,-0.546,-0.032,-0.025,0.023,0.014,0.047,-0.014,0.311,-0.96,0.88
2024-09-23 15:22:04.486,175608.957,0.176,0.819,-0.546,-0.032,0.029,0.014,0.049,0.007,-0.003,0.311,-0.96,0.879
2024-09-23 15:22:04.495,175608.967,0.176,0.819,-0.546,-0.005,0.027,0.002,0.079,0.03,0.013,0.311,-0.959,0.879
2024-09-23 15:22:04.505,175608.977,0.176,0.818,-0.547,0.015,0.035,0.007,0.031,0.04,0.002,0.312,-0.959,0.879
2024-09-23 15:22:04.515,175608.987,0.176,0.818,-0.547,-0.003,0.018,0.003,0.009,0.076,-0.002,0.312,-0.959,0.879
2024-09-23 15:22:04.526,175608.997,0.177,0.819,-0.546,-0.026,-0.02,-0.004,-0.084,0.088,0.042,0.313,-0.959,0.879
2024-09-23 15:22:04.534,175609.007,0.178,0.819,-0.546,-0.029,-0.056,0.01,-0.068,0.081,0.074,0.315,-0.96,0.881
2024-09-23 15:22:04.545,175609.017,0.179,0.819,-0.545,-0.029,-0.048,-0.005,-0.034,0.091,0.087,0.317,-0.96,0.882
2024-09-23 15:22:04.555,175609.027,0.18,0.819,-0.545,-0.022,-0.022,0.006,-0.004,0.076,0.053,0.319,-0.96,0.884
2024-09-23 15:22:04.565,175609.037,0.181,0.819,-0.545,-0.02,0.014,0.001,0.044,0.036,0.039,0.32,-0.959,0.884
2024-09-23 15:22:04.575,175609.047,0.181,0.819,-0.545,-0.004,0.022,-0.02,0.047,0.038,0.038,0.321,-0.959,0.885
2024-09-23 15:22:04.585,175609.057,0.182,0.818,-0.545,0.018,-0.004,0.001,-0.014,0.045,0.028,0.322,-0.959,0.885
2024-09-23 15:22:04.595,175609.067,0.182,0.818,-0.545,0.014,0.008,0.025,0.039,0.005,0.002,0.322,-0.959,0.885
2024-09-23 15:22:04.605,175609.077,0.182,0.818,-0.545,0.004,0.031,0.013,-0.003,-0.048,-0.009,0.322,-0.958,0.885
2024-09-23 15:22:04.615,175609.087,0.182,0.818,-0.545,0.01,0.011,0.006,-0.025,-0.032,0.015,0.321,-0.958,0.885
2024-09-23 15:22:04.625,175609.097,0.181,0.818,-0.545,0.019,-0.005,0.025,-0.011,-0.033,0.005,0.321,-0.958,0.885
2024-09-23 15:22:04.635,175609.107,0.181,0.818,-0.546,0.003,0.013,0.022,0.084,-0.031,-0.008,0.32,-0.958,0.885
2024-09-23 15:22:04.645,175609.117,0.181,0.817,-0.547,-0.011,0.01,0.024,0.149,-0.022,-0.023,0.319,-0.957,0.884
2024-09-23 15:22:04.655,175609.127,0.18,0.817,-0.548,-0.012,0.018,0.018,0.202,-0.007,-0.063,0.318,-0.955,0.883
2024-09-23 15:22:04.665,175609.137,0.18,0.816,-0.55,-0.009,0.01,-0.0,0.074,-0.046,-0.084,0.316,-0.954,0.881
2024-09-23 15:22:04.675,175609.147,0.179,0.816,-0.549,-0.011,-0.023,-0.028,-0.104,-0.024,-0.023,0.315,-0.955,0.88
2024-09-23 15:22:04.685,175609.157,0.179,0.817,-0.548,-0.004,-0.074,-0.01,-0.178,0.033,0.022,0.316,-0.956,0.881
2024-09-23 15:22:04.695,175609.167,0.179,0.818,-0.547,-0.017,-0.063,0.028,-0.14,0.011,-0.002,0.317,-0.958,0.882
2024-09-23 15:22:04.705,175609.177,0.179,0.818,-0.546,-0.046,0.024,0.049,-0.089,-0.048,-0.02,0.317,-0.959,0.882
2024-09-23 15:22:04.716,175609.187,0.179,0.819,-0.545,-0.027,0.055,0.042,-0.045,-0.075,-0.018,0.317,-0.959,0.882
2024-09-23 15:22:04.725,175609.197,0.178,0.819,-0.545,0.014,0.03,0.023,-0.048,-0.091,-0.022,0.316,-0.96,0.882
2024-09-23 15:22:04.735,175609.207,0.177,0.82,-0.545,0.019,-0.01,0.007,-0.099,-0.073,-0.007,0.315,-0.961,0.882
2024-09-23 15:22:04.745,175609.217,0.177,0.82,-0.544,-0.003,-0.041,0.006,-0.115,-0.013,0.008,0.315,-0.962,0.883
2024-09-23 15:22:04.755,175609.227,0.177,0.821,-0.543,-0.022,-0.049,0.01,-0.083,0.053,-0.006,0.316,-0.963,0.883
2024-09-23 15:22:04.765,175609.237,0.177,0.821,-0.542,-0.03,-0.031,0.003,-0.187,0.015,-0.038,0.316,-0.964,0.884
2024-09-23 15:22:04.775,175609.247,0.177,0.823,-0.54,-0.025,-0.003,-0.022,-0.341,0.007,-0.035,0.317,-0.966,0.885
2024-09-23 15:22:04.785,175609.257,0.177,0.825,-0.537,0.001,0.006,-0.048,-0.388,0.074,-0.044,0.318,-0.97,0.886
2024-09-23 15:22:04.795,175609.267,0.177,0.827,-0.533,0.02,-0.019,-0.033,-0.365,0.109,-0.056,0.32,-0.974,0.887
2024-09-23 15:22:04.805,175609.277,0.177,0.829,-0.53,-0.006,-0.042,-0.022,-0.349,0.094,-0.036,0.322,-0.977,0.888
2024-09-23 15:22:04.815,175609.287,0.177,0.831,-0.527,-0.023,-0.035,-0.01,-0.304,0.086,-0.012,0.325,-0.981,0.89
2024-09-23 15:22:04.825,175609.297,0.178,0.832,-0.525,-0.009,-0.001,0.008,-0.186,0.074,-0.02,0.326,-0.983,0.891
2024-09-23 15:22:04.834,175609.307,0.178,0.833,-0.524,-0.0,0.035,0.02,-0.063,0.037,-0.023,0.327,-0.984,0.891
2024-09-23 15:22:04.845,175609.317,0.178,0.833,-0.524,-0.002,0.049,0.019,0.035,0.005,-0.018,0.327,-0.984,0.891
2024-09-23 15:22:04.855,175609.327,0.178,0.833,-0.525,-0.0,0.053,0.018,0.089,-0.024,-0.011,0.326,-0.984,0.89
2024-09-23 15:22:04.865,175609.337,0.177,0.832,-0.525,0.002,0.061,0.023,0.076,-0.015,-0.002,0.326,-0.983,0.89
2024-09-23 15:22:04.875,175609.347,0.177,0.832,-0.526,0.002,0.047,0.033,0.116,0.004,-0.009,0.325,-0.982,0.889
2024-09-23 15:22:04.885,175609.357,0.177,0.831,-0.527,-0.004,0.032,0.03,0.174,0.003,-0.009,0.324,-0.981,0.888
2024-09-23 15:22:04.894,175609.367,0.177,0.83,-0.529,-0.013,0.012,0.016,0.178,-0.006,0.005,0.323,-0.979,0.887
2024-09-23 15:22:04.904,175609.377,0.177,0.829,-0.53,-0.013,0.003,0.014,0.182,-0.01,0.011,0.323,-0.977,0.886
2024-09-23 15:22:04.915,175609.387,0.177,0.828,-0.532,-0.012,0.017,0.009,0.174,0.001,0.009,0.322,-0.976,0.885
2024-09-23 15:22:04.924,175609.396,0.177,0.827,-0.533,-0.008,0.008,0.005,0.162,0.005,0.007,0.321,-0.974,0.884
2024-09-23 15:22:04.934,175609.406,0.178,0.826,-0.534,-0.011,-0.005,-0.0,0.145,0.006,0.013,0.321,-0.973,0.884
2024-09-23 15:22:04.945,175609.416,0.178,0.826,-0.535,-0.016,-0.011,-0.004,0.129,0.012,0.019,0.32,-0.971,0.883
2024-09-23 15:22:04.954,175609.426,0.178,0.825,-0.537,-0.013,-0.009,0.001,0.149,0.007,0.017,0.32,-0.97,0.883
2024-09-23 15:22:04.964,175609.436,0.178,0.824,-0.538,-0.009,0.002,0.005,0.163,-0.008,0.014,0.32,-0.969,0.882
2024-09-23 15:22:04.975,175609.446,0.178,0.823,-0.539,-0.004,0.01,0.002,0.19,-0.022,0.01,0.319,-0.967,0.882
2024-09-23 15:22:04.985,175609.456,0.178,0.822,-0.541,0.001,0.017,0.004,0.24,-0.032,0.01,0.318,-0.965,0.88
2024-09-23 15:22:04.994,175609.466,0.178,0.821,-0.543,0.004,0.017,0.008,0.278,-0.039,0.007,0.316,-0.963,0.879
2024-09-23 15:22:05.004,175609.476,0.178,0.819,-0.546,0.001,0.01,0.016,0.316,-0.045,0.008,0.315,-0.96,0.878
2024-09-23 15:22:05.015,175609.486,0.177,0.817,-0.548,-0.006,0.021,0.022,0.347,-0.102,0.011,0.313,-0.957,0.876
2024-09-23 15:22:05.024,175609.496,0.177,0.816,-0.551,-0.007,0.03,0.02,0.138,-0.037,0.021,0.311,-0.954,0.875
2024-09-23 15:22:05.035,175609.506,0.177,0.815,-0.552,0.001,0.026,0.027,0.118,-0.002,-0.05,0.31,-0.953,0.874
2024-09-23 15:22:05.045,175609.516,0.176,0.815,-0.552,-0.0,0.018,0.011,0.084,-0.024,-0.055,0.309,-0.952,0.872
2024-09-23 15:22:05.054,175609.526,0.176,0.815,-0.553,-0.019,-0.062,-0.049,-0.037,0.036,0.041,0.309,-0.952,0.872
2024-09-23 15:22:05.065,175609.536,0.177,0.815,-0.552,-0.025,-0.118,-0.018,0.001,0.065,0.065,0.31,-0.952,0.873
2024-09-23 15:22:05.074,175609.546,0.177,0.814,-0.553,-0.036,-0.02,0.026,0.126,0.004,0.022,0.311,-0.952,0.874
2024-09-23 15:22:05.084,175609.556,0.177,0.813,-0.554,-0.033,0.043,0.022,0.187,-0.057,0.014,0.31,-0.95,0.873
2024-09-23 15:22:05.094,175609.566,0.177,0.812,-0.556,0.003,0.041,0.008,0.21,-0.061,0.01,0.309,-0.948,0.872
2024-09-23 15:22:05.105,175609.576,0.177,0.811,-0.557,0.026,0.044,0.01,0.193,-0.044,-0.01,0.307,-0.946,0.871
2024-09-23 15:22:05.114,175609.586,0.177,0.81,-0.559,0.01,0.027,0.011,0.142,-0.023,-0.0,0.306,-0.945,0.87
2024-09-23 15:22:05.124,175609.596,0.177,0.81,-0.56,-0.013,-0.009,0.01,0.098,-0.001,0.035,0.306,-0.943,0.87
2024-09-23 15:22:05.134,175609.606,0.177,0.809,-0.56,-0.02,-0.026,0.009,0.065,0.005,0.038,0.306,-0.943,0.87
2024-09-23 15:22:05.145,175609.616,0.177,0.809,-0.561,-0.019,-0.023,0.003,0.039,0.011,0.028,0.306,-0.942,0.87
2024-09-23 15:22:05.154,175609.626,0.178,0.809,-0.561,-0.014,-0.016,-0.001,0.001,0.04,0.012,0.307,-0.942,0.871
2024-09-23 15:22:05.165,175609.636,0.178,0.808,-0.561,-0.015,-0.016,-0.009,0.039,0.014,0.014,0.307,-0.942,0.871
2024-09-23 15:22:05.174,175609.646,0.179,0.808,-0.561,-0.025,-0.021,-0.021,0.035,0.113,0.059,0.308,-0.941,0.871
2024-09-23 15:22:05.184,175609.656,0.18,0.808,-0.561,-0.036,-0.039,-0.009,0.045,0.091,0.05,0.31,-0.941,0.872
2024-09-23 15:22:05.194,175609.666,0.181,0.807,-0.562,-0.043,-0.023,-0.008,0.072,0.094,0.047,0.311,-0.94,0.872
2024-09-23 15:22:05.204,175609.676,0.182,0.807,-0.562,-0.045,0.004,-0.034,-0.059,0.129,0.065,0.313,-0.939,0.873
2024-09-23 15:22:05.214,175609.686,0.183,0.807,-0.561,-0.013,-0.058,-0.004,-0.044,0.151,0.068,0.315,-0.94,0.874
2024-09-23 15:22:05.224,175609.696,0.184,0.808,-0.56,-0.014,-0.02,-0.008,-0.074,0.108,0.06,0.317,-0.94,0.876
2024-09-23 15:22:05.235,175609.706,0.185,0.808,-0.559,-0.005,-0.008,0.023,-0.045,0.114,0.047,0.32,-0.941,0.877
2024-09-23 15:22:05.244,175609.716,0.186,0.808,-0.559,0.011,0.019,0.038,0.043,0.002,-0.012,0.32,-0.941,0.877
2024-09-23 15:22:05.254,175609.726,0.185,0.807,-0.56,0.03,0.071,0.025,0.123,-0.022,-0.041,0.319,-0.94,0.876
2024-09-23 15:22:05.264,175609.736,0.185,0.807,-0.562,0.058,0.066,0.024,0.23,-0.024,-0.07,0.318,-0.938,0.874
2024-09-23 15:22:05.274,175609.746,0.184,0.805,-0.564,0.068,0.053,0.039,0.302,-0.047,-0.098,0.315,-0.936,0.871
2024-09-23 15:22:05.284,175609.756,0.183,0.804,-0.566,0.02,0.077,0.007,0.23,-0.03,-0.073,0.312,-0.934,0.868
2024-09-23 15:22:05.294,175609.766,0.182,0.803,-0.568,0.01,0.009,0.017,0.167,0.008,-0.043,0.31,-0.932,0.867
2024-09-23 15:22:05.304,175609.776,0.182,0.802,-0.569,-0.01,-0.016,0.003,0.117,0.032,-0.03,0.31,-0.931,0.865
2024-09-23 15:22:05.314,175609.786,0.182,0.802,-0.569,-0.031,-0.037,0.01,0.054,0.055,-0.002,0.31,-0.93,0.865
2024-09-23 15:22:05.324,175609.796,0.183,0.801,-0.57,-0.041,-0.05,0.013,0.035,0.06,0.021,0.31,-0.93,0.864
2024-09-23 15:22:05.334,175609.806,0.183,0.801,-0.57,-0.038,-0.029,0.012,0.011,0.03,0.024,0.311,-0.929,0.865
2024-09-23 15:22:05.344,175609.816,0.183,0.801,-0.569,-0.026,-0.016,0.004,-0.078,0.022,0.018,0.311,-0.93,0.865
2024-09-23 15:22:05.354,175609.826,0.184,0.802,-0.568,-0.017,-0.019,0.017,-0.182,0.049,0.018,0.313,-0.931,0.866
2024-09-23 15:22:05.364,175609.836,0.184,0.803,-0.566,-0.021,-0.037,0.024,-0.265,0.097,0.046,0.315,-0.933,0.868
2024-09-23 15:22:05.373,175609.846,0.185,0.805,-0.564,-0.037,-0.063,0.003,-0.333,0.114,0.092,0.318,-0.936,0.871
2024-09-23 15:22:05.383,175609.856,0.187,0.807,-0.56,-0.05,-0.055,-0.008,-0.513,0.121,0.142,0.322,-0.939,0.875
2024-09-23 15:22:05.394,175609.866,0.189,0.81,-0.555,-0.05,-0.012,-0.01,-0.691,0.137,0.127,0.328,-0.944,0.88
2024-09-23 15:22:05.404,175609.876,0.191,0.814,-0.549,-0.039,0.026,-0.021,-0.791,0.125,0.106,0.334,-0.951,0.886
2024-09-23 15:22:05.414,175609.886,0.192,0.818,-0.541,-0.034,0.001,-0.067,-0.92,0.212,0.114,0.342,-0.959,0.893
2024-09-23 15:22:05.424,175609.896,0.193,0.824,-0.533,-0.021,-0.09,-0.017,-1.088,-0.105,-0.279,0.347,-0.968,0.899
2024-09-23 15:22:05.434,175609.906,0.19,0.829,-0.526,-0.057,0.004,-0.029,-0.681,0.036,-0.363,0.346,-0.978,0.898
2024-09-23 15:22:05.444,175609.916,0.189,0.833,-0.521,-0.186,0.129,-0.005,-0.56,0.194,0.131,0.349,-0.984,0.899
2024-09-23 15:22:05.454,175609.926,0.192,0.835,-0.515,-0.285,0.042,0.079,-0.618,0.064,0.2,0.356,-0.989,0.906
2024-09-23 15:22:05.464,175609.936,0.192,0.838,-0.511,-0.059,-0.058,0.003,-0.308,-0.044,-0.036,0.36,-0.993,0.911
2024-09-23 15:22:05.474,175609.946,0.192,0.839,-0.51,0.001,0.107,0.067,-0.094,-0.041,-0.059,0.359,-0.995,0.911
2024-09-23 15:22:05.485,175609.956,0.191,0.839,-0.509,-0.026,0.095,0.065,-0.001,-0.061,0.025,0.359,-0.995,0.911
2024-09-23 15:22:05.493,175609.966,0.191,0.839,-0.51,0.013,0.071,0.03,0.086,-0.079,0.003,0.358,-0.995,0.911
2024-09-23 15:22:05.504,175609.976,0.19,0.838,-0.511,0.047,0.077,0.024,0.113,-0.026,-0.039,0.357,-0.994,0.91
2024-09-23 15:22:05.514,175609.985,0.19,0.838,-0.512,0.044,0.017,0.03,0.114,0.023,-0.031,0.356,-0.993,0.909
2024-09-23 15:22:05.524,175609.995,0.19,0.837,-0.513,0.03,-0.032,0.028,0.154,0.03,-0.004,0.355,-0.992,0.908
2024-09-23 15:22:05.534,175610.005,0.19,0.836,-0.514,0.023,-0.024,0.01,0.177,0.024,0.022,0.355,-0.99,0.907
2024-09-23 15:22:05.544,175610.015,0.191,0.835,-0.516,0.034,-0.019,-0.006,0.152,0.04,0.022,0.354,-0.989,0.906
2024-09-23 15:22:05.554,175610.025,0.191,0.835,-0.517,0.061,-0.029,-0.014,0.138,0.056,0.011,0.354,-0.987,0.905
2024-09-23 15:22:05.564,175610.035,0.191,0.834,-0.518,0.065,-0.02,-0.007,0.124,0.054,-0.006,0.354,-0.986,0.905
2024-09-23 15:22:05.574,175610.045,0.192,0.833,-0.519,0.062,-0.024,-0.006,0.108,0.087,0.037,0.354,-0.985,0.904
2024-09-23 15:22:05.584,175610.055,0.193,0.833,-0.519,0.069,-0.048,-0.007,0.097,0.109,0.043,0.356,-0.984,0.904
2024-09-23 15:22:05.594,175610.065,0.193,0.832,-0.52,0.082,-0.059,-0.006,0.069,0.078,-0.015,0.356,-0.983,0.904
2024-09-23 15:22:05.603,175610.075,0.193,0.832,-0.52,0.084,-0.04,-0.016,0.06,0.065,-0.057,0.356,-0.983,0.903
2024-09-23 15:22:05.614,175610.085,0.193,0.832,-0.521,0.062,-0.007,-0.012,0.07,0.069,-0.054,0.356,-0.982,0.902
2024-09-23 15:22:05.624,175610.095,0.193,0.831,-0.521,0.034,0.006,0.003,0.097,0.058,-0.048,0.355,-0.981,0.9
2024-09-23 15:22:05.634,175610.105,0.193,0.831,-0.522,0.008,0.01,0.006,0.14,0.034,-0.038,0.355,-0.98,0.899
2024-09-23 15:22:05.644,175610.115,0.193,0.83,-0.523,-0.006,0.006,0.007,0.199,0.026,-0.019,0.354,-0.979,0.897
2024-09-23 15:22:05.653,175610.125,0.193,0.829,-0.525,-0.015,0.014,0.014,0.271,0.009,-0.007,0.353,-0.977,0.896
2024-09-23 15:22:05.663,175610.135,0.193,0.827,-0.528,-0.019,0.033,0.016,0.34,-0.024,0.001,0.351,-0.974,0.894
2024-09-23 15:22:05.673,175610.145,0.193,0.825,-0.531,-0.014,0.039,0.007,0.395,-0.058,0.005,0.349,-0.97,0.892
2024-09-23 15:22:05.683,175610.155,0.193,0.823,-0.534,-0.009,0.036,-0.001,0.409,-0.066,0.0,0.347,-0.967,0.89
2024-09-23 15:22:05.693,175610.165,0.193,0.821,-0.538,-0.004,0.027,0.004,0.399,-0.063,-0.0,0.344,-0.963,0.887
2024-09-23 15:22:05.703,175610.175,0.192,0.819,-0.541,-0.008,0.017,0.008,0.368,-0.061,-0.008,0.342,-0.959,0.885
2024-09-23 15:22:05.713,175610.185,0.192,0.817,-0.544,-0.015,0.009,0.005,0.306,-0.057,-0.006,0.339,-0.956,0.883
2024-09-23 15:22:05.724,175610.195,0.192,0.815,-0.546,-0.015,-0.002,0.003,0.267,-0.051,-0.007,0.337,-0.953,0.881
2024-09-23 15:22:05.733,175610.205,0.191,0.814,-0.548,-0.012,-0.004,-0.0,0.244,-0.04,-0.008,0.336,-0.951,0.88
2024-09-23 15:22:05.744,175610.215,0.191,0.813,-0.55,-0.011,-0.007,-0.001,0.24,-0.04,-0.007,0.334,-0.949,0.878
2024-09-23 15:22:05.753,175610.225,0.191,0.811,-0.552,-0.012,-0.007,0.004,0.267,-0.048,0.01,0.332,-0.947,0.877
2024-09-23 15:22:05.764,175610.235,0.191,0.81,-0.555,-0.013,-0.0,0.005,0.288,-0.06,0.016,0.331,-0.944,0.876
2024-09-23 15:22:05.773,175610.245,0.19,0.808,-0.557,-0.009,0.012,0.012,0.331,-0.067,0.009,0.329,-0.941,0.874
2024-09-23 15:22:05.783,175610.255,0.19,0.806,-0.56,-0.005,0.03,0.022,0.327,-0.119,0.003,0.327,-0.938,0.872
2024-09-23 15:22:05.793,175610.265,0.19,0.805,-0.562,-0.005,0.032,0.021,0.124,-0.054,-0.002,0.325,-0.936,0.871
2024-09-23 15:22:05.803,175610.275,0.189,0.804,-0.563,-0.002,0.026,0.033,0.123,-0.017,-0.067,0.324,-0.935,0.87
2024-09-23 15:22:05.813,175610.285,0.189,0.804,-0.564,-0.013,0.0,-0.004,-0.017,0.003,0.006,0.323,-0.934,0.869
2024-09-23 15:22:05.823,175610.295,0.189,0.804,-0.563,-0.029,-0.1,-0.037,-0.087,0.066,0.067,0.324,-0.935,0.87
2024-09-23 15:22:05.833,175610.305,0.19,0.805,-0.563,-0.028,-0.079,0.004,-0.037,0.061,0.033,0.326,-0.935,0.871
2024-09-23 15:22:05.843,175610.315,0.19,0.805,-0.562,-0.031,-0.002,0.021,-0.004,0.004,0.012,0.326,-0.935,0.872
2024-09-23 15:22:05.853,175610.325,0.191,0.805,-0.562,-0.019,0.013,0.003,0.012,0.0,0.025,0.327,-0.935,0.872
2024-09-23 15:22:05.863,175610.335,0.191,0.804,-0.563,0.01,0.025,0.01,0.073,0.023,0.017,0.327,-0.935,0.872
2024-09-23 15:22:05.873,175610.345,0.191,0.804,-0.563,0.011,0.022,0.01,0.023,0.012,0.012,0.327,-0.934,0.872
2024-09-23 15:22:05.883,175610.355,0.191,0.804,-0.563,-0.017,0.016,0.006,0.079,0.04,0.03,0.327,-0.934,0.872
2024-09-23 15:22:05.893,175610.365,0.192,0.803,-0.564,-0.014,0.001,0.01,0.035,0.026,0.026,0.328,-0.933,0.872
2024-09-23 15:22:05.903,175610.375,0.192,0.803,-0.564,-0.011,-0.01,0.009,-0.034,0.033,0.03,0.328,-0.933,0.872
2024-09-23 15:22:05.920,175610.385,0.192,0.804,-0.563,-0.016,-0.011,-0.004,-0.097,0.04,0.043,0.329,-0.933,0.873
2024-09-23 15:22:05.925,175610.395,0.193,0.804,-0.562,-0.002,-0.028,-0.017,-0.091,0.028,0.051,0.331,-0.934,0.875
2024-09-23 15:22:05.933,175610.405,0.194,0.804,-0.562,-0.019,-0.019,-0.023,-0.08,0.013,0.071,0.332,-0.935,0.876
2024-09-23 15:22:05.942,175610.415,0.194,0.805,-0.561,-0.019,-0.011,-0.002,-0.084,0.007,0.057,0.334,-0.935,0.877
2024-09-23 15:22:05.953,175610.425,0.195,0.805,-0.56,-0.008,0.002,0.016,-0.068,-0.01,0.056,0.334,-0.936,0.879
2024-09-23 15:22:05.963,175610.435,0.195,0.805,-0.56,-0.003,0.015,0.018,0.01,-0.012,0.047,0.335,-0.936,0.88
2024-09-23 15:22:05.973,175610.445,0.195,0.805,-0.56,0.0,0.015,0.021,-0.037,-0.04,0.029,0.335,-0.936,0.88
2024-09-23 15:22:05.983,175610.455,0.195,0.805,-0.56,-0.002,0.027,0.035,-0.005,-0.065,0.014,0.335,-0.936,0.881
2024-09-23 15:22:05.993,175610.465,0.195,0.805,-0.56,0.004,0.02,0.006,0.015,-0.056,0.033,0.334,-0.936,0.881
2024-09-23 15:22:06.003,175610.475,0.195,0.805,-0.561,0.014,-0.005,0.02,0.068,-0.05,-0.005,0.334,-0.935,0.881
2024-09-23 15:22:06.012,175610.485,0.194,0.804,-0.562,-0.005,0.014,0.02,0.045,-0.027,-0.02,0.333,-0.935,0.88
2024-09-23 15:22:06.022,175610.495,0.194,0.804,-0.562,-0.007,0.016,0.025,0.108,-0.004,-0.052,0.332,-0.934,0.879
2024-09-23 15:22:06.033,175610.505,0.193,0.804,-0.563,0.001,0.004,-0.014,0.077,-0.009,-0.071,0.331,-0.933,0.878
2024-09-23 15:22:06.043,175610.515,0.193,0.804,-0.563,-0.003,-0.02,-0.023,-0.077,-0.032,-0.059,0.33,-0.934,0.877
2024-09-23 15:22:06.053,175610.525,0.192,0.805,-0.562,-0.01,-0.039,-0.008,-0.205,0.014,-0.013,0.33,-0.935,0.877
2024-09-23 15:22:06.063,175610.535,0.192,0.806,-0.56,0.0,-0.056,0.018,-0.188,0.028,-0.019,0.331,-0.937,0.878
2024-09-23 15:22:06.073,175610.545,0.192,0.807,-0.559,-0.021,-0.005,0.054,-0.119,-0.016,-0.029,0.332,-0.939,0.878
2024-09-23 15:22:06.083,175610.555,0.192,0.808,-0.558,-0.034,0.042,0.048,-0.108,-0.06,-0.028,0.331,-0.94,0.879
2024-09-23 15:22:06.093,175610.564,0.191,0.808,-0.557,-0.002,0.019,0.025,-0.161,-0.054,-0.028,0.331,-0.941,0.879
2024-09-23 15:22:06.103,175610.574,0.191,0.81,-0.555,0.008,-0.018,0.015,-0.223,-0.03,-0.011,0.331,-0.943,0.88
2024-09-23 15:22:06.113,175610.584,0.191,0.811,-0.554,-0.014,-0.056,0.011,-0.182,0.035,0.012,0.332,-0.945,0.881
2024-09-23 15:22:06.123,175610.594,0.191,0.812,-0.552,-0.032,-0.078,0.006,-0.167,0.033,-0.002,0.333,-0.947,0.882
2024-09-23 15:22:06.133,175610.604,0.191,0.813,-0.55,-0.034,-0.054,-0.006,-0.367,0.021,-0.006,0.335,-0.949,0.883
2024-09-23 15:22:06.143,175610.614,0.192,0.815,-0.546,-0.017,-0.02,-0.029,-0.532,0.112,-0.027,0.337,-0.953,0.886
2024-09-23 15:22:06.152,175610.624,0.192,0.818,-0.542,0.012,-0.001,-0.034,-0.49,0.168,-0.089,0.34,-0.959,0.888
2024-09-23 15:22:06.163,175610.634,0.192,0.821,-0.538,-0.006,0.006,-0.044,-0.414,0.134,-0.057,0.343,-0.963,0.889
2024-09-23 15:22:06.172,175610.644,0.192,0.823,-0.534,-0.025,-0.025,-0.052,-0.346,0.107,-0.011,0.346,-0.967,0.891
2024-09-23 15:22:06.182,175610.654,0.193,0.825,-0.532,-0.005,-0.009,-0.014,-0.264,0.088,-0.024,0.348,-0.97,0.892
2024-09-23 15:22:06.192,175610.664,0.193,0.826,-0.53,0.003,0.038,0.023,-0.194,0.054,-0.034,0.349,-0.972,0.893
2024-09-23 15:22:06.202,175610.674,0.193,0.827,-0.528,-0.004,0.044,0.028,-0.109,0.039,-0.019,0.35,-0.974,0.894
2024-09-23 15:22:06.212,175610.684,0.193,0.827,-0.528,-0.004,0.043,0.027,-0.005,0.03,-0.011,0.351,-0.974,0.894
2024-09-23 15:22:06.222,175610.694,0.193,0.827,-0.528,-0.003,0.048,0.027,0.056,-0.001,-0.014,0.35,-0.974,0.893
2024-09-23 15:22:06.232,175610.704,0.193,0.827,-0.528,-0.006,0.049,0.012,0.056,-0.003,0.007,0.35,-0.973,0.893
2024-09-23 15:22:06.242,175610.714,0.193,0.826,-0.529,-0.004,0.031,0.007,0.104,0.009,0.008,0.35,-0.973,0.892
2024-09-23 15:22:06.253,175610.724,0.193,0.826,-0.53,-0.005,0.026,0.007,0.116,0.003,-0.001,0.349,-0.971,0.892
2024-09-23 15:22:06.262,175610.734,0.193,0.825,-0.531,-0.013,0.013,0.001,0.092,0.001,-0.005,0.349,-0.97,0.891
2024-09-23 15:22:06.272,175610.744,0.193,0.825,-0.532,-0.011,0.002,0.003,0.071,0.019,-0.006,0.348,-0.97,0.891
2024-09-23 15:22:06.282,175610.754,0.193,0.824,-0.532,-0.005,0.0,0.004,0.077,0.015,-0.008,0.348,-0.969,0.89
2024-09-23 15:22:06.292,175610.764,0.193,0.824,-0.533,-0.008,-0.001,0.002,0.094,0.01,0.006,0.348,-0.968,0.889
2024-09-23 15:22:06.302,175610.774,0.193,0.823,-0.533,-0.007,-0.003,-0.003,0.115,-0.004,0.013,0.347,-0.967,0.889
2024-09-23 15:22:06.312,175610.784,0.193,0.823,-0.535,-0.004,-0.003,-0.003,0.146,-0.008,0.008,0.347,-0.966,0.888
2024-09-23 15:22:06.322,175610.794,0.193,0.822,-0.536,-0.004,0.007,0.006,0.168,-0.022,-0.001,0.346,-0.965,0.887
2024-09-23 15:22:06.332,175610.804,0.193,0.821,-0.537,-0.003,0.015,0.013,0.197,-0.036,-0.002,0.345,-0.963,0.886
2024-09-23 15:22:06.342,175610.814,0.193,0.82,-0.539,-0.003,0.021,0.014,0.215,-0.036,0.003,0.343,-0.961,0.885
2024-09-23 15:22:06.352,175610.824,0.193,0.819,-0.541,-0.002,0.014,0.015,0.222,-0.036,0.007,0.342,-0.959,0.884
2024-09-23 15:22:06.362,175610.834,0.192,0.818,-0.543,-0.006,0.012,0.016,0.217,-0.042,0.004,0.341,-0.957,0.883
2024-09-23 15:22:06.372,175610.844,0.192,0.816,-0.545,-0.01,0.009,0.014,0.221,-0.035,0.004,0.339,-0.955,0.882
2024-09-23 15:22:06.382,175610.854,0.192,0.815,-0.546,-0.009,0.006,0.017,0.237,-0.04,-0.002,0.338,-0.953,0.88
2024-09-23 15:22:06.392,175610.864,0.192,0.814,-0.549,-0.008,0.005,0.013,0.263,-0.048,0.006,0.336,-0.951,0.879
2024-09-23 15:22:06.402,175610.874,0.191,0.812,-0.551,-0.007,0.006,0.009,0.29,-0.054,0.016,0.335,-0.948,0.877
2024-09-23 15:22:06.412,175610.884,0.191,0.811,-0.553,-0.006,0.009,0.011,0.322,-0.096,0.012,0.333,-0.945,0.876
2024-09-23 15:22:06.422,175610.894,0.191,0.809,-0.555,-0.005,0.016,0.012,0.114,-0.032,0.015,0.331,-0.943,0.875
2024-09-23 15:22:06.432,175610.904,0.191,0.809,-0.556,-0.007,0.017,0.02,0.125,-0.008,-0.051,0.33,-0.942,0.874
2024-09-23 15:22:06.442,175610.914,0.19,0.809,-0.557,-0.008,0.006,0.004,0.039,-0.018,0.003,0.329,-0.942,0.873
2024-09-23 15:22:06.452,175610.924,0.191,0.808,-0.557,-0.018,-0.072,-0.044,-0.002,0.021,0.057,0.33,-0.942,0.874
2024-09-23 15:22:06.462,175610.934,0.191,0.808,-0.557,-0.015,-0.076,-0.002,0.078,-0.004,0.025,0.33,-0.941,0.874
2024-09-23 15:22:06.472,175610.944,0.191,0.808,-0.558,-0.022,0.024,0.021,0.12,-0.048,0.003,0.33,-0.94,0.874
2024-09-23 15:22:06.482,175610.954,0.191,0.807,-0.559,-0.008,0.033,0.01,0.139,-0.062,0.009,0.329,-0.939,0.873
2024-09-23 15:22:06.492,175610.964,0.19,0.806,-0.56,0.014,0.035,0.014,0.129,-0.038,-0.0,0.328,-0.938,0.872
2024-09-23 15:22:06.502,175610.974,0.191,0.806,-0.561,0.01,0.025,0.006,0.07,0.037,0.006,0.327,-0.937,0.872
2024-09-23 15:22:06.513,175610.984,0.191,0.805,-0.561,-0.006,-0.014,0.006,0.036,-0.002,-0.016,0.327,-0.936,0.872
2024-09-23 15:22:06.522,175610.994,0.191,0.806,-0.561,-0.02,-0.022,-0.028,-0.113,0.007,0.027,0.328,-0.937,0.872
2024-09-23 15:22:06.532,175611.004,0.191,0.806,-0.559,-0.011,-0.057,-0.028,-0.216,0.112,0.045,0.33,-0.938,0.873
2024-09-23 15:22:06.542,175611.014,0.192,0.807,-0.558,-0.005,-0.074,0.009,-0.135,0.106,0.019,0.332,-0.94,0.875
2024-09-23 15:22:06.552,175611.024,0.193,0.808,-0.557,-0.038,-0.022,-0.007,-0.097,0.158,0.029,0.334,-0.941,0.876
2024-09-23 15:22:06.562,175611.034,0.194,0.808,-0.556,-0.029,-0.017,0.001,-0.043,0.085,-0.017,0.336,-0.941,0.877
2024-09-23 15:22:06.572,175611.044,0.194,0.809,-0.555,-0.001,0.004,-0.01,-0.14,0.058,0.001,0.337,-0.942,0.877
2024-09-23 15:22:06.582,175611.054,0.195,0.81,-0.553,-0.004,0.005,-0.036,-0.273,0.158,0.053,0.339,-0.944,0.878
2024-09-23 15:22:06.592,175611.064,0.196,0.811,-0.55,0.012,-0.067,0.031,-0.306,0.113,0.005,0.342,-0.947,0.88
2024-09-23 15:22:06.602,175611.074,0.197,0.813,-0.547,-0.031,-0.002,0.008,-0.433,0.072,0.012,0.345,-0.95,0.883
2024-09-23 15:22:06.612,175611.084,0.197,0.816,-0.543,-0.02,-0.017,0.034,-0.594,0.079,-0.011,0.348,-0.955,0.886
2024-09-23 15:22:06.622,175611.094,0.197,0.82,-0.538,0.018,-0.045,0.033,-0.649,0.044,-0.024,0.351,-0.961,0.889
2024-09-23 15:22:06.632,175611.104,0.197,0.824,-0.531,0.009,-0.02,0.0,-0.945,0.046,-0.01,0.355,-0.968,0.893
2024-09-23 15:22:06.642,175611.114,0.197,0.83,-0.522,0.008,-0.041,-0.009,-1.256,0.063,-0.083,0.361,-0.979,0.9
2024-09-23 15:22:06.652,175611.124,0.197,0.837,-0.51,0.008,-0.017,-0.035,-1.563,0.074,-0.15,0.368,-0.992,0.906
2024-09-23 15:22:06.662,175611.134,0.196,0.846,-0.496,0.021,-0.099,-0.112,-1.876,0.144,-0.129,0.376,-1.009,0.916
2024-09-23 15:22:06.671,175611.144,0.196,0.856,-0.479,0.032,-0.183,-0.129,-1.94,0.201,-0.119,0.388,-1.027,0.927
2024-09-23 15:22:06.681,175611.153,0.196,0.865,-0.463,0.031,-0.12,-0.095,-1.728,0.166,-0.118,0.4,-1.044,0.939
2024-09-23 15:22:06.691,175611.163,0.195,0.872,-0.449,0.039,-0.039,-0.087,-1.404,0.042,-0.088,0.41,-1.059,0.949
2024-09-23 15:22:06.701,175611.173,0.195,0.878,-0.438,0.07,0.032,-0.075,-1.162,-0.026,-0.035,0.418,-1.071,0.959
2024-09-23 15:22:06.711,175611.183,0.194,0.882,-0.429,0.117,0.094,-0.04,-0.932,-0.074,-0.063,0.425,-1.081,0.967
2024-09-23 15:22:06.721,175611.193,0.193,0.886,-0.422,0.154,0.146,-0.017,-0.652,-0.157,-0.06,0.429,-1.088,0.973
2024-09-23 15:22:06.731,175611.203,0.192,0.888,-0.417,0.162,0.166,-0.008,-0.464,-0.234,0.029,0.431,-1.093,0.977
2024-09-23 15:22:06.741,175611.213,0.192,0.89,-0.415,0.16,0.157,0.026,-0.31,-0.299,0.119,0.433,-1.097,0.982
2024-09-23 15:22:06.751,175611.223,0.191,0.89,-0.413,0.147,0.166,0.07,-0.206,-0.349,0.133,0.434,-1.098,0.987
2024-09-23 15:22:06.762,175611.233,0.191,0.891,-0.412,0.117,0.157,0.086,-0.164,-0.366,0.13,0.434,-1.099,0.991
2024-09-23 15:22:06.771,175611.243,0.191,0.891,-0.411,0.085,0.103,0.087,-0.161,-0.351,0.153,0.435,-1.1,0.996
2024-09-23 15:22:06.781,175611.253,0.191,0.892,-0.411,0.065,0.062,0.087,-0.099,-0.328,0.204,0.436,-1.101,1.001
2024-09-23 15:22:06.791,175611.263,0.192,0.891,-0.411,0.055,0.046,0.073,0.048,-0.309,0.244,0.437,-1.1,1.005
2024-09-23 15:22:06.801,175611.273,0.193,0.89,-0.413,0.056,0.05,0.05,0.142,-0.387,0.286,0.437,-1.098,1.01
2024-09-23 15:22:06.811,175611.283,0.194,0.889,-0.414,0.076,0.062,0.056,0.108,-0.429,0.307,0.437,-1.096,1.015
2024-09-23 15:22:06.821,175611.293,0.194,0.888,-0.416,0.112,0.076,0.039,0.195,-0.451,0.275,0.437,-1.093,1.019
2024-09-23 15:22:06.831,175611.303,0.195,0.887,-0.42,0.097,0.103,0.018,0.256,-0.482,0.23,0.434,-1.09,1.022
2024-09-23 15:22:06.841,175611.313,0.195,0.885,-0.422,0.072,0.052,0.037,0.201,-0.515,0.216,0.432,-1.087,1.024
2024-09-23 15:22:06.851,175611.323,0.194,0.884,-0.425,0.053,-0.016,0.052,0.215,-0.556,0.248,0.428,-1.084,1.027
2024-09-23 15:22:06.861,175611.333,0.194,0.883,-0.428,0.033,-0.063,0.079,0.167,-0.574,0.327,0.426,-1.081,1.03
2024-09-23 15:22:06.871,175611.343,0.195,0.881,-0.43,0.006,-0.124,0.072,-0.002,-0.547,0.355,0.426,-1.079,1.036
2024-09-23 15:22:06.881,175611.353,0.196,0.881,-0.431,-0.019,-0.132,0.06,-0.027,-0.52,0.273,0.426,-1.078,1.043
2024-09-23 15:22:06.892,175611.363,0.195,0.881,-0.432,-0.053,-0.096,0.046,0.068,-0.517,0.146,0.424,-1.077,1.047
2024-09-23 15:22:06.901,175611.373,0.194,0.88,-0.434,-0.091,-0.08,0.003,0.133,-0.513,0.046,0.42,-1.076,1.048
2024-09-23 15:22:06.911,175611.383,0.192,0.879,-0.436,-0.096,-0.091,-0.002,0.215,-0.514,-0.02,0.414,-1.074,1.046
2024-09-23 15:22:06.921,175611.393,0.189,0.878,-0.439,-0.072,-0.091,0.018,0.252,-0.512,-0.069,0.406,-1.072,1.043
2024-09-23 15:22:06.931,175611.403,0.186,0.877,-0.443,-0.044,-0.11,0.031,0.225,-0.522,-0.103,0.398,-1.07,1.04
2024-09-23 15:22:06.941,175611.413,0.183,0.876,-0.446,-0.027,-0.123,0.045,0.27,-0.528,-0.131,0.389,-1.068,1.036
2024-09-23 15:22:06.951,175611.423,0.179,0.875,-0.449,-0.032,-0.12,0.057,0.313,-0.525,-0.13,0.379,-1.066,1.031
2024-09-23 15:22:06.961,175611.433,0.176,0.874,-0.453,-0.065,-0.124,0.058,0.26,-0.494,-0.129,0.37,-1.064,1.026
2024-09-23 15:22:06.971,175611.443,0.172,0.873,-0.456,-0.106,-0.116,0.055,0.219,-0.462,-0.183,0.361,-1.062,1.022
2024-09-23 15:22:06.981,175611.453,0.168,0.873,-0.458,-0.143,-0.086,0.046,0.127,-0.414,-0.277,0.352,-1.061,1.016
2024-09-23 15:22:06.991,175611.463,0.164,0.873,-0.459,-0.167,-0.074,0.034,0.007,-0.357,-0.343,0.343,-1.062,1.009
2024-09-23 15:22:07.001,175611.473,0.159,0.874,-0.459,-0.162,-0.077,0.044,-0.06,-0.303,-0.339,0.334,-1.063,1.003
2024-09-23 15:22:07.011,175611.483,0.155,0.875,-0.459,-0.132,-0.074,0.062,-0.072,-0.261,-0.3,0.326,-1.065,0.997
2024-09-23 15:22:07.022,175611.493,0.152,0.875,-0.459,-0.094,-0.07,0.073,-0.01,-0.133,-0.176,0.32,-1.066,0.993
2024-09-23 15:22:07.031,175611.503,0.151,0.875,-0.459,-0.071,-0.045,0.062,0.074,-0.054,-0.006,0.317,-1.066,0.991
2024-09-23 15:22:07.041,175611.513,0.151,0.875,-0.46,-0.07,0.035,0.002,0.123,-0.088,-0.003,0.316,-1.065,0.99
2024-09-23 15:22:07.052,175611.523,0.15,0.874,-0.462,-0.078,0.183,-0.065,0.284,-0.145,-0.112,0.313,-1.063,0.988
2024-09-23 15:22:07.061,175611.533,0.148,0.873,-0.465,-0.066,0.236,-0.042,0.363,-0.122,-0.181,0.307,-1.061,0.983
2024-09-23 15:22:07.069,175611.543,0.146,0.871,-0.469,-0.054,0.15,-0.03,0.349,-0.061,-0.145,0.301,-1.058,0.977
2024-09-23 15:22:07.080,175611.553,0.145,0.87,-0.472,-0.036,0.055,-0.017,0.31,-0.025,-0.072,0.297,-1.055,0.973
2024-09-23 15:22:07.091,175611.563,0.144,0.869,-0.474,-0.012,0.012,0.026,0.297,-0.049,-0.039,0.295,-1.052,0.97
2024-09-23 15:22:07.101,175611.573,0.143,0.867,-0.477,0.0,0.013,0.064,0.326,-0.122,-0.041,0.292,-1.049,0.968
2024-09-23 15:22:07.111,175611.583,0.142,0.866,-0.48,-0.001,0.024,0.076,0.354,-0.177,-0.034,0.288,-1.046,0.965
2024-09-23 15:22:07.121,175611.593,0.139,0.862,-0.487,-0.006,0.01,0.075,1.082,-0.321,-0.476,0.278,-1.04,0.957
2024-09-23 15:22:07.131,175611.603,0.133,0.858,-0.497,-0.013,-0.023,0.068,1.196,-0.103,-0.503,0.262,-1.031,0.941
2024-09-23 15:22:07.141,175611.613,0.13,0.852,-0.508,-0.116,0.001,-0.043,1.323,0.019,-0.264,0.25,-1.019,0.927
2024-09-23 15:22:07.151,175611.623,0.128,0.845,-0.519,-0.182,0.155,-0.031,1.374,-0.009,-0.127,0.242,-1.007,0.918
2024-09-23 15:22:07.161,175611.633,0.127,0.838,-0.53,-0.086,0.196,-0.003,1.256,-0.106,-0.085,0.235,-0.994,0.91
2024-09-23 15:22:07.171,175611.643,0.126,0.832,-0.54,-0.023,0.092,-0.017,1.01,-0.105,-0.111,0.229,-0.983,0.903
2024-09-23 15:22:07.181,175611.653,0.124,0.828,-0.547,0.012,-0.005,0.003,0.704,-0.009,-0.132,0.224,-0.975,0.898
2024-09-23 15:22:07.191,175611.663,0.124,0.825,-0.552,-0.005,-0.042,-0.011,0.437,0.079,-0.086,0.221,-0.97,0.894
2024-09-23 15:22:07.201,175611.673,0.124,0.823,-0.554,-0.033,-0.047,-0.035,0.246,0.104,-0.021,0.22,-0.967,0.891
2024-09-23 15:22:07.210,175611.683,0.124,0.822,-0.556,-0.039,-0.048,-0.05,0.112,0.108,0.027,0.22,-0.965,0.891
2024-09-23 15:22:07.221,175611.693,0.125,0.822,-0.556,-0.026,-0.05,-0.035,0.018,0.113,0.031,0.222,-0.964,0.891
2024-09-23 15:22:07.230,175611.703,0.126,0.822,-0.556,-0.016,-0.038,-0.019,-0.018,0.127,0.02,0.223,-0.964,0.892
2024-09-23 15:22:07.240,175611.713,0.127,0.822,-0.555,-0.016,-0.019,-0.007,-0.053,0.133,0.029,0.225,-0.965,0.892
2024-09-23 15:22:07.250,175611.723,0.128,0.822,-0.555,-0.019,-0.012,0.002,-0.078,0.122,0.07,0.227,-0.965,0.893
2024-09-23 15:22:07.261,175611.732,0.129,0.822,-0.554,-0.015,-0.009,-0.01,-0.048,0.098,0.089,0.23,-0.966,0.895
2024-09-23 15:22:07.270,175611.742,0.131,0.822,-0.554,-0.005,-0.001,-0.016,0.03,0.082,0.054,0.232,-0.966,0.896
2024-09-23 15:22:07.282,175611.752,0.131,0.822,-0.554,-0.001,0.016,0.0,0.112,0.058,0.019,0.233,-0.965,0.897
2024-09-23 15:22:07.290,175611.762,0.131,0.821,-0.556,-0.001,0.042,0.018,0.209,0.012,-0.022,0.232,-0.963,0.896
2024-09-23 15:22:07.300,175611.772,0.131,0.82,-0.558,0.008,0.053,0.018,0.283,-0.023,-0.062,0.231,-0.961,0.894
2024-09-23 15:22:07.311,175611.782,0.13,0.818,-0.56,0.017,0.044,0.021,0.342,-0.028,-0.09,0.229,-0.958,0.892
2024-09-23 15:22:07.320,175611.792,0.129,0.816,-0.563,0.015,0.035,0.024,0.406,-0.036,-0.106,0.226,-0.955,0.889
2024-09-23 15:22:07.330,175611.802,0.128,0.814,-0.567,0.009,0.031,0.02,0.485,-0.047,-0.101,0.223,-0.951,0.885
2024-09-23 15:22:07.340,175611.812,0.127,0.811,-0.571,0.004,0.029,0.021,0.568,-0.072,-0.11,0.219,-0.946,0.881
2024-09-23 15:22:07.350,175611.822,0.126,0.808,-0.576,0.005,0.033,0.027,0.657,-0.107,-0.125,0.215,-0.94,0.877
2024-09-23 15:22:07.360,175611.832,0.124,0.804,-0.582,0.006,0.037,0.028,0.598,-0.129,-0.123,0.21,-0.934,0.873
2024-09-23 15:22:07.370,175611.842,0.122,0.801,-0.586,0.007,0.04,0.035,0.417,-0.071,-0.128,0.206,-0.929,0.869
2024-09-23 15:22:07.380,175611.852,0.121,0.799,-0.589,0.001,0.047,0.02,0.312,-0.093,-0.089,0.203,-0.926,0.866
2024-09-23 15:22:07.390,175611.862,0.12,0.798,-0.591,-0.011,0.016,-0.029,0.111,-0.067,-0.035,0.201,-0.924,0.864
2024-09-23 15:22:07.400,175611.872,0.12,0.798,-0.591,-0.002,-0.102,-0.001,-0.066,0.028,-0.008,0.2,-0.924,0.864
2024-09-23 15:22:07.411,175611.882,0.12,0.799,-0.59,-0.02,-0.116,-0.006,-0.153,0.053,0.03,0.201,-0.925,0.864
2024-09-23 15:22:07.420,175611.892,0.121,0.799,-0.588,-0.045,-0.051,-0.006,-0.162,0.025,0.081,0.202,-0.926,0.866
2024-09-23 15:22:07.430,175611.902,0.122,0.8,-0.587,-0.028,-0.011,-0.001,-0.125,0.023,0.078,0.204,-0.928,0.868
2024-09-23 15:22:07.440,175611.912,0.122,0.801,-0.586,-0.003,-0.004,-0.008,-0.122,0.04,0.057,0.206,-0.929,0.869
2024-09-23 15:22:07.450,175611.922,0.123,0.802,-0.585,0.0,-0.019,-0.005,-0.156,0.06,0.057,0.207,-0.93,0.871
2024-09-23 15:22:07.461,175611.932,0.124,0.802,-0.584,-0.012,-0.03,0.003,-0.171,0.066,0.065,0.209,-0.931,0.872
2024-09-23 15:22:07.470,175611.942,0.125,0.803,-0.582,-0.018,-0.026,0.001,-0.21,0.068,0.069,0.211,-0.933,0.874
2024-09-23 15:22:07.480,175611.952,0.126,0.805,-0.58,-0.016,-0.026,0.005,-0.222,0.079,0.052,0.213,-0.935,0.876
2024-09-23 15:22:07.490,175611.962,0.127,0.806,-0.578,-0.015,-0.022,0.001,-0.265,0.083,0.035,0.215,-0.937,0.877
2024-09-23 15:22:07.500,175611.972,0.127,0.808,-0.576,-0.016,-0.021,0.003,-0.271,0.08,0.004,0.217,-0.94,0.879
2024-09-23 15:22:07.510,175611.982,0.128,0.809,-0.573,-0.016,0.001,0.0,-0.34,0.091,-0.009,0.219,-0.943,0.88
2024-09-23 15:22:07.519,175611.992,0.128,0.811,-0.57,-0.015,0.011,0.007,-0.424,0.113,-0.007,0.221,-0.947,0.881
2024-09-23 15:22:07.529,175612.002,0.129,0.814,-0.567,-0.01,0.005,-0.009,-0.446,0.114,0.023,0.224,-0.951,0.883
2024-09-23 15:22:07.540,175612.012,0.13,0.816,-0.563,-0.008,-0.017,-0.031,-0.425,0.107,0.062,0.227,-0.955,0.885
2024-09-23 15:22:07.550,175612.022,0.131,0.818,-0.56,-0.005,-0.049,-0.015,-0.33,0.117,0.064,0.23,-0.959,0.888
2024-09-23 15:22:07.561,175612.032,0.132,0.82,-0.557,-0.013,-0.021,0.004,-0.186,0.081,0.048,0.233,-0.961,0.89
2024-09-23 15:22:07.570,175612.042,0.133,0.82,-0.556,-0.022,0.043,0.021,-0.058,0.009,0.025,0.234,-0.962,0.891
2024-09-23 15:22:07.580,175612.052,0.133,0.82,-0.556,-0.004,0.072,0.024,0.024,-0.027,-0.011,0.234,-0.962,0.891
2024-09-23 15:22:07.590,175612.062,0.132,0.82,-0.557,0.018,0.067,0.021,0.066,-0.033,-0.041,0.233,-0.962,0.89
2024-09-23 15:22:07.600,175612.072,0.132,0.82,-0.557,0.016,0.045,0.017,0.089,-0.019,-0.043,0.232,-0.961,0.889
2024-09-23 15:22:07.610,175612.082,0.131,0.819,-0.558,0.002,0.013,0.019,0.106,-0.016,-0.032,0.231,-0.96,0.888
2024-09-23 15:22:07.620,175612.092,0.131,0.819,-0.559,-0.009,0.001,0.016,0.124,-0.016,-0.023,0.23,-0.959,0.887
2024-09-23 15:22:07.630,175612.102,0.131,0.818,-0.56,-0.011,0.008,0.011,0.136,-0.02,-0.032,0.229,-0.958,0.886
2024-09-23 15:22:07.640,175612.112,0.13,0.817,-0.562,-0.005,0.013,0.009,0.16,-0.034,-0.048,0.228,-0.956,0.885
2024-09-23 15:22:07.650,175612.122,0.129,0.816,-0.563,0.0,0.013,0.01,0.191,-0.031,-0.06,0.226,-0.955,0.883
2024-09-23 15:22:07.661,175612.132,0.129,0.815,-0.565,0.001,0.008,0.015,0.219,-0.034,-0.069,0.224,-0.953,0.881
2024-09-23 15:22:07.670,175612.142,0.128,0.814,-0.567,-0.004,0.008,0.019,0.275,-0.053,-0.073,0.222,-0.951,0.879
2024-09-23 15:22:07.680,175612.152,0.127,0.812,-0.569,-0.003,0.02,0.018,0.339,-0.064,-0.078,0.22,-0.948,0.877
2024-09-23 15:22:07.690,175612.162,0.126,0.81,-0.572,-0.0,0.027,0.021,0.39,-0.07,-0.094,0.217,-0.945,0.874
2024-09-23 15:22:07.700,175612.172,0.125,0.808,-0.576,-0.0,0.032,0.023,0.454,-0.092,-0.101,0.213,-0.941,0.871
2024-09-23 15:22:07.709,175612.182,0.123,0.806,-0.58,-0.001,0.038,0.022,0.449,-0.096,-0.092,0.21,-0.937,0.868
2024-09-23 15:22:07.720,175612.192,0.122,0.804,-0.583,0.001,0.031,0.029,0.323,-0.022,-0.09,0.207,-0.933,0.865
2024-09-23 15:22:07.730,175612.202,0.122,0.802,-0.585,-0.006,0.024,0.024,0.223,-0.026,-0.032,0.205,-0.931,0.863
2024-09-23 15:22:07.740,175612.212,0.122,0.801,-0.586,-0.019,-0.001,-0.018,0.134,0.016,0.044,0.205,-0.929,0.863
2024-09-23 15:22:07.749,175612.222,0.122,0.8,-0.587,-0.016,-0.086,-0.001,0.141,0.08,0.081,0.206,-0.928,0.863
2024-09-23 15:22:07.760,175612.232,0.124,0.799,-0.588,-0.032,-0.077,0.008,0.193,0.049,0.09,0.207,-0.926,0.864
2024-09-23 15:22:07.769,175612.242,0.124,0.798,-0.59,-0.043,-0.005,0.02,0.247,-0.02,0.066,0.208,-0.924,0.865
2024-09-23 15:22:07.780,175612.252,0.124,0.796,-0.592,-0.008,0.039,0.02,0.239,-0.051,-0.007,0.207,-0.921,0.864
2024-09-23 15:22:07.790,175612.262,0.124,0.795,-0.594,0.02,0.047,0.015,0.17,-0.02,-0.057,0.206,-0.919,0.863
2024-09-23 15:22:07.800,175612.272,0.123,0.795,-0.594,0.013,0.021,0.013,0.018,-0.004,-0.056,0.204,-0.918,0.862
2024-09-23 15:22:07.809,175612.282,0.123,0.795,-0.594,-0.004,-0.023,0.013,-0.062,0.061,-0.038,0.204,-0.919,0.861
2024-09-23 15:22:07.819,175612.292,0.123,0.796,-0.593,-0.019,-0.053,0.0,-0.152,0.091,-0.01,0.205,-0.92,0.861
2024-09-23 15:22:07.829,175612.302,0.124,0.797,-0.592,-0.025,-0.068,-0.004,-0.205,0.138,0.01,0.206,-0.922,0.862
2024-09-23 15:22:07.839,175612.312,0.125,0.798,-0.59,-0.027,-0.054,-0.011,-0.27,0.144,0.041,0.209,-0.924,0.863
2024-09-23 15:22:07.849,175612.321,0.126,0.799,-0.587,-0.019,-0.02,-0.018,-0.247,0.138,0.075,0.212,-0.926,0.865
2024-09-23 15:22:07.860,175612.331,0.128,0.801,-0.585,-0.014,-0.007,-0.02,-0.236,0.111,0.099,0.215,-0.928,0.867
2024-09-23 15:22:07.869,175612.341,0.129,0.802,-0.583,-0.005,-0.012,-0.01,-0.211,0.082,0.113,0.218,-0.93,0.869
2024-09-23 15:22:07.879,175612.351,0.13,0.803,-0.582,-0.011,0.002,0.004,-0.114,0.059,0.099,0.22,-0.932,0.872
2024-09-23 15:22:07.889,175612.361,0.131,0.803,-0.581,-0.012,0.034,0.01,-0.041,0.025,0.048,0.222,-0.932,0.873
2024-09-23 15:22:07.899,175612.371,0.131,0.803,-0.581,-0.001,0.034,0.02,0.019,-0.006,-0.016,0.222,-0.932,0.874
2024-09-23 15:22:07.909,175612.381,0.131,0.803,-0.581,0.006,0.043,0.018,0.012,-0.017,-0.056,0.221,-0.932,0.873
2024-09-23 15:22:07.920,175612.391,0.13,0.803,-0.581,0.011,0.039,0.013,-0.053,0.002,-0.047,0.221,-0.933,0.872
2024-09-23 15:22:07.929,175612.401,0.13,0.804,-0.581,0.009,0.001,0.004,-0.124,0.042,-0.01,0.221,-0.933,0.872
2024-09-23 15:22:07.939,175612.411,0.131,0.805,-0.579,-0.007,-0.027,-0.008,-0.18,0.083,0.032,0.222,-0.935,0.873
2024-09-23 15:22:07.949,175612.421,0.132,0.806,-0.578,-0.021,-0.052,-0.006,-0.217,0.088,0.056,0.224,-0.937,0.874
2024-09-23 15:22:07.960,175612.431,0.132,0.807,-0.576,-0.027,-0.031,-0.005,-0.265,0.007,0.08,0.226,-0.939,0.876
2024-09-23 15:22:07.969,175612.441,0.133,0.808,-0.574,-0.018,-0.003,-0.002,-0.064,0.067,0.079,0.228,-0.94,0.878
2024-09-23 15:22:07.979,175612.451,0.134,0.808,-0.574,-0.001,0.001,0.003,-0.099,0.013,0.116,0.23,-0.941,0.88
2024-09-23 15:22:07.989,175612.461,0.135,0.808,-0.573,-0.01,0.005,0.028,-0.02,-0.005,0.112,0.232,-0.941,0.882
2024-09-23 15:22:07.999,175612.471,0.136,0.808,-0.573,-0.019,0.06,0.013,0.057,-0.018,0.092,0.233,-0.941,0.884
2024-09-23 15:22:08.009,175612.481,0.137,0.808,-0.574,-0.002,0.042,0.014,0.067,-0.023,0.078,0.234,-0.94,0.885
2024-09-23 15:22:08.019,175612.491,0.137,0.807,-0.574,-0.001,0.007,0.022,0.085,-0.018,0.067,0.234,-0.939,0.886
2024-09-23 15:22:08.029,175612.501,0.137,0.807,-0.575,-0.011,0.022,0.015,0.026,-0.017,0.06,0.235,-0.938,0.887
2024-09-23 15:22:08.039,175612.511,0.138,0.806,-0.575,-0.01,0.009,0.014,0.005,-0.024,0.075,0.235,-0.938,0.888
2024-09-23 15:22:08.050,175612.521,0.138,0.806,-0.575,-0.008,-0.01,0.0,0.022,0.009,0.099,0.236,-0.938,0.889
2024-09-23 15:22:08.060,175612.531,0.139,0.806,-0.576,-0.012,-0.026,0.004,0.021,0.031,0.095,0.237,-0.937,0.89
2024-09-23 15:22:08.069,175612.541,0.14,0.806,-0.576,-0.023,-0.004,0.015,0.001,-0.03,0.082,0.239,-0.937,0.892
2024-09-23 15:22:08.079,175612.551,0.14,0.806,-0.576,-0.02,0.032,0.006,0.026,-0.015,0.045,0.239,-0.937,0.893
2024-09-23 15:22:08.089,175612.561,0.141,0.806,-0.575,0.001,-0.002,0.006,-0.081,0.018,0.036,0.24,-0.937,0.893
2024-09-23 15:22:08.099,175612.571,0.141,0.806,-0.575,-0.001,-0.035,0.012,-0.102,0.004,0.034,0.241,-0.938,0.894
2024-09-23 15:22:08.109,175612.581,0.141,0.807,-0.574,-0.016,-0.01,-0.01,-0.051,0.015,-0.001,0.241,-0.939,0.895
2024-09-23 15:22:08.119,175612.591,0.141,0.807,-0.573,-0.003,-0.015,-0.003,-0.05,0.015,-0.023,0.241,-0.939,0.895
2024-09-23 15:22:08.129,175612.601,0.141,0.807,-0.573,-0.001,-0.019,0.018,-0.007,-0.021,-0.053,0.241,-0.939,0.894
2024-09-23 15:22:08.139,175612.611,0.14,0.807,-0.573,-0.005,0.031,0.009,0.062,-0.039,-0.078,0.239,-0.939,0.893
2024-09-23 15:22:08.149,175612.621,0.139,0.807,-0.574,0.007,0.017,0.014,0.14,-0.034,-0.079,0.238,-0.939,0.891
2024-09-23 15:22:08.159,175612.631,0.138,0.806,-0.576,0.005,0.006,0.025,0.219,-0.041,-0.083,0.236,-0.937,0.889
2024-09-23 15:22:08.169,175612.641,0.137,0.805,-0.578,-0.007,0.042,0.024,0.256,-0.071,-0.086,0.233,-0.935,0.887
2024-09-23 15:22:08.179,175612.651,0.136,0.803,-0.58,-0.003,0.054,0.024,0.245,-0.08,-0.093,0.231,-0.933,0.884
2024-09-23 15:22:08.188,175612.661,0.135,0.802,-0.582,0.006,0.032,0.017,0.206,-0.047,-0.089,0.228,-0.931,0.882
2024-09-23 15:22:08.198,175612.671,0.134,0.801,-0.583,0.001,-0.004,0.013,0.163,-0.031,-0.075,0.226,-0.929,0.88
2024-09-23 15:22:08.209,175612.681,0.133,0.8,-0.585,-0.013,-0.02,0.011,0.151,-0.018,-0.066,0.224,-0.928,0.878
2024-09-23 15:22:08.219,175612.691,0.133,0.8,-0.586,-0.018,-0.015,0.008,0.096,0.004,-0.074,0.223,-0.927,0.877
2024-09-23 15:22:08.229,175612.701,0.132,0.8,-0.586,-0.014,-0.009,0.012,-0.011,0.007,-0.062,0.222,-0.926,0.876
2024-09-23 15:22:08.240,175612.711,0.132,0.8,-0.586,-0.012,-0.002,0.009,-0.051,0.053,-0.054,0.222,-0.927,0.875
2024-09-23 15:22:08.249,175612.721,0.132,0.8,-0.585,-0.011,-0.014,-0.002,-0.139,0.128,-0.046,0.222,-0.928,0.874
2024-09-23 15:22:08.259,175612.731,0.133,0.802,-0.583,-0.018,-0.049,0.001,-0.267,0.16,0.004,0.224,-0.93,0.875
2024-09-23 15:22:08.269,175612.741,0.134,0.803,-0.58,-0.029,-0.044,-0.011,-0.272,0.173,0.023,0.227,-0.933,0.876
2024-09-23 15:22:08.279,175612.751,0.135,0.805,-0.578,-0.019,-0.032,-0.034,-0.291,0.22,0.04,0.23,-0.936,0.878
2024-09-23 15:22:08.289,175612.761,0.137,0.807,-0.575,-0.017,-0.065,-0.003,-0.29,0.208,0.055,0.234,-0.938,0.879
2024-09-23 15:22:08.300,175612.771,0.138,0.808,-0.573,-0.026,-0.007,0.001,-0.249,0.159,0.061,0.237,-0.941,0.881
2024-09-23 15:22:08.309,175612.781,0.14,0.809,-0.571,-0.017,0.039,-0.008,-0.211,0.085,0.077,0.24,-0.943,0.884
2024-09-23 15:22:08.319,175612.791,0.141,0.81,-0.569,0.004,0.018,-0.003,-0.074,0.088,0.047,0.242,-0.944,0.885
2024-09-23 15:22:08.329,175612.801,0.141,0.81,-0.569,0.009,0.014,0.006,0.009,0.077,0.022,0.243,-0.944,0.886
2024-09-23 15:22:08.339,175612.811,0.142,0.81,-0.57,-0.011,0.021,0.035,0.116,0.026,-0.026,0.244,-0.944,0.885
2024-09-23 15:22:08.349,175612.821,0.141,0.809,-0.571,-0.009,0.066,0.028,0.128,-0.008,-0.059,0.243,-0.942,0.884
2024-09-23 15:22:08.359,175612.831,0.141,0.808,-0.572,0.014,0.058,0.021,0.129,0.001,-0.043,0.241,-0.941,0.883
2024-09-23 15:22:08.369,175612.841,0.141,0.808,-0.572,0.017,0.023,0.008,0.056,0.06,-0.002,0.241,-0.94,0.882
2024-09-23 15:22:08.379,175612.851,0.141,0.808,-0.572,-0.004,-0.008,0.006,-0.019,0.113,0.065,0.242,-0.94,0.882
2024-09-23 15:22:08.389,175612.861,0.143,0.808,-0.572,-0.029,-0.026,0.0,-0.077,0.117,0.115,0.245,-0.94,0.884
2024-09-23 15:22:08.399,175612.871,0.145,0.808,-0.571,-0.036,-0.027,-0.005,-0.14,0.106,0.144,0.248,-0.941,0.887
2024-09-23 15:22:08.409,175612.881,0.146,0.809,-0.569,-0.024,-0.043,-0.003,-0.229,0.103,0.125,0.251,-0.943,0.89
2024-09-23 15:22:08.419,175612.891,0.148,0.81,-0.567,-0.023,-0.033,-0.002,-0.311,0.086,0.081,0.255,-0.945,0.892
2024-09-23 15:22:08.429,175612.901,0.148,0.812,-0.564,-0.033,-0.022,-0.009,-0.379,0.05,0.031,0.257,-0.948,0.895
2024-09-23 15:22:08.439,175612.91,0.149,0.815,-0.56,-0.04,-0.029,-0.012,-0.534,0.046,0.035,0.26,-0.953,0.897
2024-09-23 15:22:08.448,175612.92,0.15,0.818,-0.555,-0.049,-0.038,-0.013,-0.747,0.085,0.08,0.264,-0.959,0.901
2024-09-23 15:22:08.459,175612.93,0.151,0.823,-0.548,-0.064,-0.035,-0.031,-0.912,0.127,0.073,0.269,-0.966,0.906
2024-09-23 15:22:08.468,175612.94,0.152,0.828,-0.54,-0.07,-0.063,-0.059,-0.94,0.145,0.04,0.275,-0.975,0.912
2024-09-23 15:22:08.478,175612.95,0.153,0.833,-0.532,-0.089,-0.108,-0.064,-0.911,0.166,0.035,0.281,-0.984,0.917
2024-09-23 15:22:08.488,175612.96,0.155,0.837,-0.524,-0.115,-0.092,-0.027,-0.895,0.16,0.061,0.287,-0.993,0.922
2024-09-23 15:22:08.498,175612.97,0.156,0.841,-0.517,-0.118,-0.017,0.027,-0.745,0.159,0.111,0.293,-1.0,0.928
2024-09-23 15:22:08.508,175612.98,0.157,0.845,-0.511,-0.072,0.049,0.065,-0.692,0.028,0.049,0.299,-1.007,0.933
2024-09-23 15:22:08.518,175612.99,0.157,0.848,-0.507,-0.031,0.128,0.033,-0.337,-0.03,-0.001,0.301,-1.011,0.937
2024-09-23 15:22:08.528,175613.0,0.157,0.849,-0.505,-0.043,0.201,0.106,-0.159,-0.057,-0.038,0.302,-1.014,0.938
2024-09-23 15:22:08.538,175613.01,0.157,0.85,-0.504,-0.073,0.129,0.055,-0.129,-0.038,-0.002,0.301,-1.015,0.938
2024-09-23 15:22:08.548,175613.02,0.157,0.85,-0.503,-0.061,0.067,0.047,-0.044,0.037,0.067,0.302,-1.016,0.939
2024-09-23 15:22:08.559,175613.03,0.158,0.85,-0.503,-0.029,0.048,0.106,0.047,0.03,0.067,0.304,-1.016,0.94
2024-09-23 15:22:08.569,175613.04,0.158,0.849,-0.504,-0.006,0.033,0.065,0.129,0.024,0.056,0.305,-1.015,0.941
2024-09-23 15:22:08.578,175613.05,0.159,0.848,-0.505,0.027,0.03,0.035,0.199,0.053,0.058,0.305,-1.013,0.941
2024-09-23 15:22:08.589,175613.06,0.16,0.847,-0.507,0.064,0.022,0.022,0.241,0.086,0.055,0.305,-1.011,0.941
2024-09-23 15:22:08.599,175613.07,0.161,0.846,-0.509,0.086,0.001,-0.001,0.236,0.125,0.047,0.306,-1.008,0.94
2024-09-23 15:22:08.608,175613.08,0.162,0.845,-0.51,0.098,-0.026,-0.016,0.226,0.154,0.043,0.307,-1.006,0.94
2024-09-23 15:22:08.619,175613.09,0.163,0.843,-0.512,0.102,-0.047,-0.031,0.221,0.192,0.057,0.309,-1.004,0.939
2024-09-23 15:22:08.628,175613.1,0.165,0.842,-0.514,0.099,-0.058,-0.046,0.234,0.174,0.06,0.31,-1.001,0.939
2024-09-23 15:22:08.638,175613.11,0.166,0.841,-0.515,0.098,-0.063,-0.06,0.162,0.102,0.008,0.311,-0.999,0.939
2024-09-23 15:22:08.648,175613.12,0.166,0.84,-0.516,0.1,-0.057,-0.058,0.065,0.091,-0.024,0.311,-0.998,0.938
2024-09-23 15:22:08.659,175613.13,0.166,0.84,-0.516,0.089,-0.048,-0.017,0.003,0.112,-0.013,0.312,-0.998,0.937
2024-09-23 15:22:08.668,175613.14,0.167,0.84,-0.516,0.053,-0.032,0.001,0.043,0.099,0.018,0.313,-0.998,0.937
2024-09-23 15:22:08.678,175613.15,0.168,0.84,-0.516,0.018,-0.013,0.005,0.136,0.058,0.025,0.314,-0.997,0.937
2024-09-23 15:22:08.689,175613.16,0.168,0.839,-0.518,-0.005,0.012,0.009,0.238,0.015,0.008,0.314,-0.995,0.937
2024-09-23 15:22:08.697,175613.17,0.168,0.837,-0.52,-0.017,0.044,0.014,0.332,-0.016,-0.0,0.312,-0.992,0.935
2024-09-23 15:22:08.707,175613.18,0.168,0.835,-0.523,-0.016,0.06,0.019,0.394,-0.042,0.007,0.31,-0.989,0.933
2024-09-23 15:22:08.717,175613.19,0.168,0.833,-0.527,-0.006,0.049,0.02,0.398,-0.055,0.023,0.308,-0.985,0.931
2024-09-23 15:22:08.728,175613.2,0.168,0.831,-0.53,0.002,0.029,0.02,0.377,-0.053,0.024,0.306,-0.981,0.93
2024-09-23 15:22:08.738,175613.21,0.168,0.829,-0.533,-0.0,0.02,0.023,0.365,-0.042,0.017,0.305,-0.977,0.928
2024-09-23 15:22:08.748,175613.22,0.168,0.827,-0.536,-0.011,0.013,0.02,0.363,-0.038,0.002,0.303,-0.974,0.926
2024-09-23 15:22:08.758,175613.23,0.167,0.825,-0.539,-0.021,0.004,0.012,0.374,-0.037,-0.005,0.301,-0.971,0.924
2024-09-23 15:22:08.768,175613.24,0.167,0.823,-0.543,-0.025,-0.001,0.007,0.392,-0.027,0.001,0.299,-0.967,0.922
2024-09-23 15:22:08.778,175613.25,0.167,0.821,-0.546,-0.023,-0.001,0.013,0.41,-0.032,0.015,0.297,-0.963,0.92
2024-09-23 15:22:08.788,175613.26,0.167,0.818,-0.55,-0.019,0.011,0.02,0.496,-0.053,0.014,0.295,-0.959,0.918
2024-09-23 15:22:08.798,175613.27,0.167,0.816,-0.554,-0.011,0.032,0.022,0.523,-0.121,0.024,0.292,-0.954,0.916
2024-09-23 15:22:08.808,175613.28,0.167,0.813,-0.557,-0.004,0.037,0.029,0.235,-0.096,0.057,0.29,-0.95,0.915
2024-09-23 15:22:08.818,175613.29,0.166,0.812,-0.559,0.002,0.044,0.051,0.216,-0.071,-0.041,0.289,-0.948,0.914
2024-09-23 15:22:08.828,175613.3,0.165,0.811,-0.561,-0.005,0.03,0.012,0.118,-0.039,-0.038,0.287,-0.946,0.912
2024-09-23 15:22:08.838,175613.31,0.165,0.811,-0.561,-0.042,-0.088,-0.025,-0.134,0.024,0.034,0.287,-0.946,0.912
2024-09-23 15:22:08.848,175613.32,0.166,0.812,-0.559,-0.058,-0.127,-0.021,-0.14,0.054,0.065,0.289,-0.948,0.914
2024-09-23 15:22:08.858,175613.33,0.167,0.813,-0.559,-0.056,-0.041,0.03,-0.035,-0.002,0.025,0.29,-0.948,0.915
2024-09-23 15:22:08.868,175613.34,0.167,0.813,-0.559,-0.04,0.01,0.018,0.009,-0.021,0.012,0.29,-0.948,0.916
2024-09-23 15:22:08.878,175613.35,0.167,0.812,-0.559,-0.008,0.014,-0.007,0.021,0.004,0.031,0.29,-0.948,0.916
2024-09-23 15:22:08.888,175613.36,0.167,0.812,-0.559,0.014,0.013,-0.007,0.035,0.013,0.022,0.29,-0.948,0.916
2024-09-23 15:22:08.898,175613.37,0.167,0.812,-0.559,0.004,0.007,-0.006,-0.022,0.039,0.016,0.291,-0.948,0.917
2024-09-23 15:22:08.908,175613.38,0.168,0.812,-0.558,-0.016,-0.027,-0.001,-0.08,0.067,0.02,0.292,-0.948,0.917
2024-09-23 15:22:08.918,175613.39,0.168,0.813,-0.558,-0.031,-0.04,-0.0,-0.121,0.07,0.026,0.293,-0.949,0.918
2024-09-23 15:22:08.928,175613.4,0.169,0.814,-0.556,-0.029,-0.036,0.002,-0.14,0.074,0.017,0.295,-0.95,0.919
2024-09-23 15:22:08.938,175613.41,0.17,0.814,-0.555,-0.015,-0.028,0.003,-0.2,0.086,0.034,0.297,-0.952,0.92
2024-09-23 15:22:08.948,175613.42,0.17,0.816,-0.553,-0.001,-0.018,0.022,-0.178,0.06,0.008,0.298,-0.954,0.922
2024-09-23 15:22:08.957,175613.43,0.17,0.816,-0.552,0.001,0.016,0.002,-0.161,0.025,-0.005,0.299,-0.955,0.922
2024-09-23 15:22:08.968,175613.44,0.171,0.818,-0.55,0.004,0.014,-0.003,-0.364,0.063,0.017,0.301,-0.958,0.924
2024-09-23 15:22:08.977,175613.45,0.171,0.82,-0.546,0.006,-0.021,-0.002,-0.402,0.104,-0.023,0.304,-0.961,0.926
2024-09-23 15:22:08.987,175613.46,0.171,0.822,-0.543,0.001,-0.013,-0.014,-0.364,0.098,-0.033,0.306,-0.965,0.927
2024-09-23 15:22:08.997,175613.47,0.172,0.824,-0.54,-0.013,-0.048,-0.024,-0.397,0.096,0.017,0.308,-0.969,0.929
2024-09-23 15:22:09.008,175613.48,0.173,0.826,-0.537,-0.016,-0.054,-0.018,-0.302,0.073,0.031,0.311,-0.972,0.931
2024-09-23 15:22:09.017,175613.489,0.173,0.827,-0.535,-0.009,0.025,0.021,-0.129,0.025,0.014,0.313,-0.974,0.933
2024-09-23 15:22:09.027,175613.499,0.173,0.827,-0.534,-0.006,0.06,0.027,-0.01,-0.003,0.013,0.313,-0.974,0.933
2024-09-23 15:22:09.037,175613.509,0.173,0.827,-0.535,-0.002,0.054,0.015,0.087,-0.034,0.025,0.313,-0.974,0.934
2024-09-23 15:22:09.047,175613.519,0.173,0.826,-0.536,0.002,0.068,0.021,0.135,-0.058,0.031,0.313,-0.973,0.933
2024-09-23 15:22:09.058,175613.529,0.173,0.826,-0.537,0.004,0.065,0.025,0.14,-0.062,0.028,0.312,-0.971,0.933
2024-09-23 15:22:09.069,175613.539,0.173,0.825,-0.538,0.006,0.038,0.025,0.112,-0.039,0.021,0.311,-0.97,0.933
2024-09-23 15:22:09.078,175613.549,0.173,0.824,-0.539,0.003,0.011,0.024,0.095,-0.016,0.01,0.31,-0.969,0.932
2024-09-23 15:22:09.087,175613.559,0.173,0.824,-0.54,-0.007,-0.008,0.015,0.111,-0.008,0.009,0.31,-0.968,0.932
2024-09-23 15:22:09.098,175613.569,0.173,0.823,-0.541,-0.012,-0.009,0.005,0.117,-0.013,0.017,0.31,-0.967,0.932
2024-09-23 15:22:09.108,175613.579,0.173,0.822,-0.542,-0.007,-0.004,0.003,0.134,-0.02,0.017,0.309,-0.966,0.931
2024-09-23 15:22:09.118,175613.589,0.173,0.822,-0.543,0.0,0.006,0.004,0.148,-0.015,0.004,0.308,-0.964,0.931
2024-09-23 15:22:09.128,175613.599,0.173,0.821,-0.544,0.002,0.01,0.016,0.177,-0.012,-0.006,0.308,-0.963,0.93
2024-09-23 15:22:09.138,175613.609,0.173,0.82,-0.546,-0.004,0.011,0.025,0.204,-0.013,-0.0,0.307,-0.961,0.929
2024-09-23 15:22:09.147,175613.619,0.173,0.819,-0.548,-0.011,0.017,0.02,0.256,-0.021,0.006,0.306,-0.959,0.928
2024-09-23 15:22:09.158,175613.629,0.173,0.817,-0.55,-0.008,0.028,0.022,0.323,-0.029,0.002,0.304,-0.956,0.926
2024-09-23 15:22:09.167,175613.639,0.172,0.815,-0.553,-0.002,0.033,0.022,0.385,-0.033,-0.01,0.302,-0.953,0.924
2024-09-23 15:22:09.177,175613.649,0.172,0.813,-0.556,-0.001,0.031,0.025,0.455,-0.049,-0.011,0.3,-0.949,0.922
2024-09-23 15:22:09.188,175613.659,0.172,0.81,-0.56,-0.001,0.03,0.029,0.411,-0.076,0.012,0.297,-0.945,0.92
2024-09-23 15:22:09.198,175613.669,0.172,0.809,-0.563,-0.002,0.028,0.028,0.191,-0.041,0.033,0.296,-0.942,0.919
2024-09-23 15:22:09.207,175613.679,0.171,0.808,-0.564,-0.0,0.022,0.035,0.156,-0.029,-0.047,0.295,-0.941,0.918
2024-09-23 15:22:09.217,175613.689,0.171,0.808,-0.564,-0.011,-0.003,-0.002,-0.023,0.0,-0.034,0.294,-0.94,0.917
2024-09-23 15:22:09.227,175613.699,0.171,0.808,-0.563,-0.042,-0.096,-0.02,-0.203,0.057,0.013,0.295,-0.941,0.917
2024-09-23 15:22:09.237,175613.709,0.171,0.81,-0.562,-0.052,-0.102,-0.001,-0.186,0.071,0.009,0.296,-0.943,0.919
2024-09-23 15:22:09.247,175613.719,0.172,0.81,-0.56,-0.042,-0.032,0.036,-0.101,0.033,-0.029,0.297,-0.945,0.919
2024-09-23 15:22:09.258,175613.729,0.171,0.811,-0.56,-0.025,0.008,0.007,-0.082,-0.023,-0.021,0.297,-0.946,0.919
2024-09-23 15:22:09.267,175613.739,0.171,0.811,-0.559,0.009,0.022,-0.011,-0.082,-0.006,0.002,0.297,-0.947,0.919
2024-09-23 15:22:09.277,175613.749,0.171,0.812,-0.558,0.03,0.019,-0.017,-0.1,0.024,0.021,0.298,-0.947,0.92
2024-09-23 15:22:09.287,175613.759,0.172,0.813,-0.557,0.024,-0.018,0.002,-0.158,0.055,0.01,0.299,-0.949,0.921
2024-09-23 15:22:09.297,175613.769,0.172,0.813,-0.556,-0.007,-0.03,0.016,-0.119,0.038,-0.018,0.3,-0.95,0.922
2024-09-23 15:22:09.307,175613.779,0.172,0.814,-0.555,-0.031,0.003,0.007,-0.129,0.039,-0.001,0.301,-0.951,0.922
2024-09-23 15:22:09.317,175613.789,0.172,0.815,-0.554,-0.024,-0.003,0.002,-0.1,0.055,0.016,0.302,-0.952,0.923
2024-09-23 15:22:09.328,175613.799,0.173,0.815,-0.553,-0.006,0.001,-0.003,-0.054,0.061,0.029,0.303,-0.953,0.923
2024-09-23 15:22:09.337,175613.809,0.173,0.815,-0.553,0.004,0.009,0.009,0.017,0.051,0.018,0.304,-0.953,0.924
2024-09-23 15:22:09.347,175613.819,0.174,0.815,-0.553,0.005,0.018,0.006,0.08,0.044,0.01,0.304,-0.952,0.924
2024-09-23 15:22:09.357,175613.829,0.174,0.814,-0.553,-0.004,0.018,-0.004,0.027,0.064,0.014,0.305,-0.952,0.924
2024-09-23 15:22:09.367,175613.839,0.175,0.815,-0.553,-0.014,-0.006,-0.007,-0.064,0.041,0.009,0.306,-0.952,0.924
2024-09-23 15:22:09.377,175613.849,0.175,0.815,-0.552,-0.02,-0.008,-0.004,-0.223,0.013,0.027,0.307,-0.953,0.925
2024-09-23 15:22:09.387,175613.859,0.175,0.816,-0.55,-0.02,-0.014,-0.002,-0.203,0.084,0.062,0.309,-0.955,0.927
2024-09-23 15:22:09.397,175613.869,0.176,0.817,-0.549,-0.012,-0.027,0.024,-0.05,0.077,0.053,0.311,-0.956,0.928
2024-09-23 15:22:09.407,175613.879,0.177,0.817,-0.549,-0.028,-0.009,0.039,-0.007,-0.038,-0.002,0.311,-0.956,0.929
2024-09-23 15:22:09.417,175613.889,0.176,0.817,-0.549,-0.045,0.055,-0.012,0.028,-0.052,0.026,0.311,-0.956,0.929
2024-09-23 15:22:09.427,175613.899,0.177,0.817,-0.549,-0.002,0.057,-0.014,-0.0,0.003,0.06,0.311,-0.956,0.93
2024-09-23 15:22:09.437,175613.909,0.177,0.817,-0.549,0.03,0.001,0.019,0.011,0.02,0.006,0.312,-0.956,0.93
2024-09-23 15:22:09.447,175613.919,0.177,0.817,-0.549,0.01,0.004,0.014,0.05,0.021,-0.031,0.312,-0.956,0.93
2024-09-23 15:22:09.457,175613.929,0.177,0.816,-0.55,-0.005,0.002,0.013,0.025,0.025,-0.025,0.311,-0.955,0.929
2024-09-23 15:22:09.467,175613.939,0.177,0.816,-0.55,-0.008,-0.009,-0.003,-0.023,0.014,-0.002,0.311,-0.955,0.929
2024-09-23 15:22:09.477,175613.949,0.177,0.817,-0.55,-0.003,-0.007,0.005,-0.02,0.05,0.019,0.312,-0.955,0.929
2024-09-23 15:22:09.487,175613.959,0.177,0.817,-0.549,-0.004,-0.012,0.02,0.001,0.057,0.001,0.312,-0.956,0.929
2024-09-23 15:22:09.497,175613.969,0.177,0.816,-0.55,-0.014,-0.004,0.026,0.086,0.016,-0.029,0.312,-0.955,0.928
2024-09-23 15:22:09.507,175613.979,0.177,0.816,-0.55,-0.025,0.029,0.011,0.068,0.009,-0.009,0.311,-0.955,0.927
2024-09-23 15:22:09.517,175613.989,0.177,0.816,-0.55,-0.016,0.008,-0.003,0.005,0.033,0.025,0.312,-0.954,0.927
2024-09-23 15:22:09.527,175613.999,0.178,0.816,-0.55,-0.003,-0.012,0.007,0.003,0.037,0.014,0.312,-0.954,0.928
2024-09-23 15:22:09.537,175614.009,0.178,0.816,-0.55,-0.006,-0.005,0.017,0.011,0.021,0.002,0.313,-0.954,0.928
2024-09-23 15:22:09.547,175614.019,0.178,0.816,-0.55,-0.014,-0.005,0.016,0.032,0.01,0.005,0.313,-0.954,0.928
2024-09-23 15:22:09.557,175614.029,0.178,0.815,-0.551,-0.011,0.006,0.018,0.054,0.006,0.014,0.313,-0.954,0.928
2024-09-23 15:22:09.567,175614.039,0.178,0.815,-0.551,-0.003,0.017,0.019,0.073,-0.005,0.021,0.313,-0.953,0.928
2024-09-23 15:22:09.576,175614.049,0.178,0.815,-0.552,0.001,0.016,0.016,0.072,-0.008,0.019,0.313,-0.952,0.928
2024-09-23 15:22:09.587,175614.059,0.178,0.814,-0.552,-0.004,0.015,0.016,0.074,-0.01,0.012,0.312,-0.952,0.927
2024-09-23 15:22:09.596,175614.069,0.178,0.814,-0.553,-0.007,0.01,0.016,0.056,-0.024,0.007,0.312,-0.951,0.927
2024-09-23 15:22:09.607,175614.078,0.178,0.814,-0.553,-0.009,0.002,0.013,0.009,-0.013,0.005,0.312,-0.951,0.927
2024-09-23 15:22:09.616,175614.088,0.178,0.814,-0.553,-0.007,-0.003,0.01,-0.033,0.005,-0.003,0.312,-0.951,0.927
2024-09-23 15:22:09.626,175614.098,0.178,0.814,-0.553,-0.007,-0.008,0.009,-0.048,0.013,-0.018,0.312,-0.951,0.927
2024-09-23 15:22:09.637,175614.108,0.178,0.815,-0.552,-0.011,-0.015,0.006,-0.107,0.006,-0.035,0.312,-0.952,0.927
2024-09-23 15:22:09.647,175614.118,0.178,0.816,-0.551,-0.015,-0.027,-0.005,-0.182,0.054,-0.047,0.312,-0.954,0.927
2024-09-23 15:22:09.657,175614.128,0.178,0.817,-0.549,-0.017,-0.039,-0.014,-0.263,0.117,-0.047,0.314,-0.956,0.928
2024-09-23 15:22:09.667,175614.138,0.178,0.819,-0.546,-0.013,-0.059,0.009,-0.276,0.178,-0.083,0.316,-0.959,0.928
2024-09-23 15:22:09.677,175614.148,0.178,0.82,-0.544,-0.028,-0.034,-0.009,-0.233,0.178,-0.089,0.317,-0.962,0.928
2024-09-23 15:22:09.687,175614.158,0.179,0.822,-0.541,-0.043,-0.018,-0.039,-0.222,0.169,-0.066,0.319,-0.964,0.928
2024-09-23 15:22:09.697,175614.168,0.179,0.822,-0.54,-0.042,-0.017,-0.054,-0.105,0.181,-0.01,0.321,-0.966,0.928
2024-09-23 15:22:09.707,175614.178,0.18,0.823,-0.539,-0.038,0.002,-0.036,-0.101,0.111,0.026,0.323,-0.967,0.929
2024-09-23 15:22:09.717,175614.188,0.181,0.823,-0.538,-0.029,0.01,-0.01,-0.072,0.116,0.043,0.325,-0.967,0.93
2024-09-23 15:22:09.726,175614.198,0.182,0.824,-0.537,-0.009,0.029,0.033,-0.03,0.082,0.05,0.326,-0.968,0.931
2024-09-23 15:22:09.736,175614.208,0.183,0.823,-0.537,0.011,0.056,0.052,0.083,0.052,0.035,0.328,-0.967,0.932
2024-09-23 15:22:09.746,175614.218,0.183,0.823,-0.539,0.031,0.07,0.057,0.17,-0.008,0.013,0.328,-0.966,0.931
2024-09-23 15:22:09.757,175614.228,0.183,0.821,-0.54,0.036,0.074,0.037,0.202,-0.0,0.016,0.327,-0.964,0.93
2024-09-23 15:22:09.766,175614.238,0.183,0.82,-0.542,0.029,0.051,0.009,0.158,0.06,0.061,0.327,-0.962,0.93
2024-09-23 15:22:09.776,175614.248,0.184,0.82,-0.542,0.017,-0.012,0.013,0.089,0.1,0.058,0.328,-0.961,0.93
2024-09-23 15:22:09.786,175614.258,0.185,0.819,-0.543,-0.019,-0.026,0.003,0.034,0.101,0.051,0.329,-0.96,0.931
2024-09-23 15:22:09.796,175614.268,0.186,0.819,-0.542,-0.048,-0.038,-0.012,-0.094,0.115,0.071,0.331,-0.96,0.932
2024-09-23 15:22:09.806,175614.278,0.188,0.82,-0.541,-0.054,-0.053,-0.028,-0.174,0.161,0.068,0.334,-0.961,0.934
2024-09-23 15:22:09.816,175614.288,0.189,0.821,-0.539,-0.049,-0.053,-0.033,-0.241,0.145,0.042,0.337,-0.963,0.936
2024-09-23 15:22:09.826,175614.298,0.19,0.823,-0.536,-0.047,-0.062,-0.056,-0.437,0.097,0.047,0.341,-0.966,0.938
2024-09-23 15:22:09.838,175614.308,0.191,0.826,-0.53,-0.051,-0.074,-0.069,-0.881,0.18,0.094,0.346,-0.972,0.943
2024-09-23 15:22:09.847,175614.318,0.193,0.831,-0.522,-0.049,-0.086,-0.037,-1.04,0.321,0.078,0.355,-0.981,0.951
2024-09-23 15:22:09.856,175614.328,0.196,0.836,-0.513,-0.05,-0.079,-0.032,-0.854,0.333,0.047,0.364,-0.989,0.958
2024-09-23 15:22:09.866,175614.338,0.198,0.84,-0.505,-0.057,-0.112,-0.07,-1.136,0.239,0.101,0.373,-0.998,0.965
2024-09-23 15:22:09.876,175614.348,0.2,0.846,-0.495,-0.038,-0.109,-0.1,-1.066,0.136,0.201,0.384,-1.008,0.976
2024-09-23 15:22:09.886,175614.358,0.202,0.85,-0.487,-0.026,0.044,0.024,-0.701,0.049,0.124,0.393,-1.016,0.985
2024-09-23 15:22:09.896,175614.368,0.202,0.853,-0.482,-0.125,0.173,0.093,-0.59,0.046,-0.087,0.397,-1.021,0.99
2024-09-23 15:22:09.906,175614.378,0.201,0.856,-0.477,-0.239,0.147,0.008,-0.558,0.14,-0.152,0.4,-1.027,0.992
2024-09-23 15:22:09.916,175614.388,0.201,0.859,-0.471,-0.262,0.108,0.066,-0.671,0.183,-0.066,0.404,-1.033,0.995
2024-09-23 15:22:09.926,175614.398,0.202,0.862,-0.464,-0.209,0.043,0.085,-0.77,0.14,-0.007,0.41,-1.04,1.0
2024-09-23 15:22:09.936,175614.408,0.202,0.866,-0.458,-0.118,0.005,0.092,-0.679,0.139,0.005,0.416,-1.047,1.006
2024-09-23 15:22:09.946,175614.418,0.203,0.868,-0.452,-0.074,0.029,0.104,-0.518,0.146,-0.001,0.422,-1.052,1.011
2024-09-23 15:22:09.956,175614.428,0.204,0.87,-0.448,-0.074,0.049,0.086,-0.321,0.149,-0.013,0.426,-1.056,1.014
2024-09-23 15:22:09.967,175614.438,0.204,0.871,-0.446,-0.072,0.066,0.061,-0.11,0.142,0.025,0.429,-1.058,1.016
2024-09-23 15:22:09.976,175614.448,0.205,0.871,-0.446,-0.054,0.064,0.056,0.002,0.138,0.063,0.432,-1.058,1.017
2024-09-23 15:22:09.986,175614.458,0.207,0.871,-0.446,-0.024,0.048,0.04,0.094,0.146,0.08,0.434,-1.057,1.018
2024-09-23 15:22:09.996,175614.468,0.208,0.87,-0.446,0.005,0.041,0.033,0.165,0.164,0.082,0.436,-1.056,1.018
2024-09-23 15:22:10.006,175614.478,0.209,0.869,-0.448,0.023,0.019,0.03,0.172,0.181,0.078,0.438,-1.054,1.018
2024-09-23 15:22:10.016,175614.488,0.211,0.868,-0.449,0.041,-0.003,0.013,0.18,0.186,0.076,0.439,-1.052,1.018
2024-09-23 15:22:10.026,175614.498,0.212,0.867,-0.45,0.063,-0.005,0.006,0.185,0.188,0.083,0.441,-1.05,1.018
2024-09-23 15:22:10.036,175614.508,0.214,0.866,-0.451,0.079,-0.01,0.004,0.171,0.181,0.085,0.443,-1.048,1.018
2024-09-23 15:22:10.046,175614.518,0.216,0.865,-0.452,0.086,-0.014,-0.005,0.19,0.17,0.081,0.445,-1.046,1.018
2024-09-23 15:22:10.056,175614.528,0.217,0.864,-0.454,0.084,-0.013,-0.006,0.208,0.168,0.081,0.446,-1.044,1.018
2024-09-23 15:22:10.066,175614.538,0.219,0.863,-0.455,0.076,-0.023,-0.009,0.203,0.16,0.089,0.448,-1.042,1.018
2024-09-23 15:22:10.076,175614.548,0.22,0.862,-0.456,0.073,-0.031,-0.01,0.222,0.147,0.086,0.449,-1.039,1.018
2024-09-23 15:22:10.086,175614.558,0.221,0.861,-0.458,0.078,-0.029,-0.003,0.235,0.121,0.071,0.45,-1.037,1.017
2024-09-23 15:22:10.096,175614.568,0.222,0.86,-0.46,0.088,-0.029,0.003,0.257,0.099,0.09,0.45,-1.034,1.016
2024-09-23 15:22:10.106,175614.578,0.224,0.858,-0.462,0.095,-0.029,0.0,0.265,0.085,0.099,0.451,-1.032,1.016
2024-09-23 15:22:10.116,175614.588,0.225,0.857,-0.464,0.106,-0.032,-0.006,0.269,0.083,0.106,0.451,-1.029,1.015
2024-09-23 15:22:10.126,175614.598,0.226,0.855,-0.467,0.112,-0.034,-0.008,0.304,0.065,0.11,0.452,-1.026,1.015
2024-09-23 15:22:10.136,175614.608,0.227,0.853,-0.469,0.111,-0.036,-0.014,0.295,0.028,0.101,0.451,-1.023,1.014
2024-09-23 15:22:10.146,175614.618,0.228,0.852,-0.471,0.109,-0.038,-0.032,0.198,0.008,0.075,0.451,-1.02,1.013
