Date,TimeStamp,GravityX,GravityY,GravityZ,UserAccelerationX,UserAccelerationY,UserAccelerationZ,RotationRateX,RotationRateY,RotationRateZ,AttitudeRoll,AttitudePitch,AttitudeYaw
2024-09-24 16:33:36.391,214975.363,0.165,0.207,-0.964,-0.009,0.006,0.004,-0.006,0.019,0.023,0.169,-0.209,3.09
2024-09-24 16:33:36.408,214975.373,0.165,0.207,-0.964,-0.015,-0.003,0.005,0.003,0.017,0.016,0.17,-0.209,3.09
2024-09-24 16:33:36.421,214975.383,0.165,0.207,-0.964,-0.014,-0.002,0.01,-0.003,0.028,0.019,0.17,-0.209,3.09
2024-09-24 16:33:36.423,214975.393,0.166,0.207,-0.964,-0.015,0.001,0.008,0.002,0.033,0.019,0.17,-0.209,3.09
2024-09-24 16:33:36.425,214975.403,0.166,0.207,-0.964,-0.022,0.006,0.004,0.005,0.039,0.023,0.171,-0.209,3.09
2024-09-24 16:33:36.426,214975.413,0.166,0.207,-0.964,-0.021,0.003,0.003,0.005,0.042,0.026,0.171,-0.209,3.091
2024-09-24 16:33:36.427,214975.423,0.167,0.207,-0.964,-0.016,0.003,0.004,0.008,0.036,0.02,0.171,-0.209,3.091
2024-09-24 16:33:36.430,214975.433,0.167,0.207,-0.964,-0.012,0.001,0.005,0.002,0.032,0.022,0.172,-0.208,3.091
2024-09-24 16:33:36.431,214975.443,0.167,0.207,-0.964,-0.011,-0.002,0.006,0.008,0.02,0.017,0.172,-0.208,3.091
2024-09-24 16:33:36.433,214975.453,0.167,0.207,-0.964,-0.011,0.001,0.005,0.002,0.016,0.013,0.172,-0.208,3.091
2024-09-24 16:33:36.434,214975.463,0.167,0.207,-0.964,-0.011,-0.003,0.006,-0.007,0.003,0.009,0.172,-0.208,3.091
2024-09-24 16:33:36.436,214975.473,0.167,0.207,-0.964,-0.011,-0.006,0.007,-0.014,-0.004,0.004,0.172,-0.208,3.091
2024-09-24 16:33:36.438,214975.483,0.167,0.207,-0.964,-0.014,-0.005,0.009,-0.012,-0.002,0.002,0.172,-0.209,3.092
2024-09-24 16:33:36.440,214975.493,0.167,0.207,-0.964,-0.017,-0.005,0.008,-0.004,-0.002,-0.001,0.172,-0.209,3.092
2024-09-24 16:33:36.442,214975.503,0.167,0.207,-0.964,-0.019,-0.002,0.009,0.001,0.0,-0.005,0.172,-0.209,3.091
2024-09-24 16:33:36.443,214975.513,0.167,0.207,-0.964,-0.018,0.001,0.008,-0.005,0.009,-0.001,0.172,-0.209,3.091
2024-09-24 16:33:36.444,214975.523,0.168,0.207,-0.964,-0.02,0.001,0.004,-0.015,0.008,0.0,0.172,-0.209,3.091
2024-09-24 16:33:36.446,214975.533,0.168,0.208,-0.964,-0.02,-0.0,0.002,-0.024,0.02,0.001,0.172,-0.209,3.091
2024-09-24 16:33:36.448,214975.543,0.168,0.208,-0.964,-0.018,-0.002,0.002,-0.032,0.023,0.002,0.173,-0.209,3.092
2024-09-24 16:33:36.449,214975.553,0.168,0.208,-0.964,-0.018,-0.006,0.001,-0.031,0.039,-0.001,0.173,-0.21,3.092
2024-09-24 16:33:36.451,214975.563,0.168,0.208,-0.963,-0.019,-0.002,0.0,-0.034,0.04,-0.002,0.173,-0.21,3.092
2024-09-24 16:33:36.452,214975.573,0.169,0.209,-0.963,-0.017,-0.0,0.0,-0.033,0.039,-0.01,0.173,-0.21,3.092
2024-09-24 16:33:36.453,214975.583,0.169,0.209,-0.963,-0.017,-0.001,0.002,-0.044,0.041,-0.012,0.174,-0.211,3.092
2024-09-24 16:33:36.455,214975.593,0.169,0.21,-0.963,-0.015,-0.001,0.003,-0.046,0.043,-0.011,0.174,-0.211,3.092
2024-09-24 16:33:36.456,214975.603,0.17,0.21,-0.963,-0.014,0.002,0.003,-0.039,0.046,-0.011,0.174,-0.212,3.091
2024-09-24 16:33:36.458,214975.613,0.17,0.21,-0.963,-0.014,0.004,0.004,-0.034,0.039,-0.011,0.175,-0.212,3.091
2024-09-24 16:33:36.459,214975.623,0.17,0.211,-0.963,-0.013,0.006,0.007,-0.037,0.027,-0.012,0.175,-0.212,3.091
2024-09-24 16:33:36.461,214975.633,0.17,0.211,-0.962,-0.011,0.003,0.007,-0.041,0.023,-0.014,0.175,-0.213,3.091
2024-09-24 16:33:36.463,214975.643,0.171,0.212,-0.962,-0.007,-0.001,0.005,-0.048,0.028,-0.013,0.176,-0.213,3.091
2024-09-24 16:33:36.464,214975.653,0.171,0.212,-0.962,-0.009,-0.002,0.006,-0.052,0.028,-0.017,0.176,-0.214,3.091
2024-09-24 16:33:36.465,214975.663,0.171,0.213,-0.962,-0.011,0.0,0.006,-0.055,0.029,-0.019,0.176,-0.214,3.091
2024-09-24 16:33:36.467,214975.673,0.171,0.213,-0.962,-0.014,-0.002,0.004,-0.051,0.023,-0.02,0.176,-0.215,3.091
2024-09-24 16:33:36.469,214975.682,0.172,0.214,-0.962,-0.013,-0.004,0.004,-0.032,0.025,-0.019,0.177,-0.215,3.091
2024-09-24 16:33:36.470,214975.692,0.172,0.214,-0.962,-0.012,0.0,0.004,-0.015,0.019,-0.014,0.177,-0.216,3.091
2024-09-24 16:33:36.472,214975.702,0.172,0.214,-0.962,-0.014,0.004,0.005,-0.01,0.011,-0.016,0.177,-0.216,3.091
2024-09-24 16:33:36.473,214975.712,0.172,0.214,-0.962,-0.015,0.002,0.007,-0.01,0.003,-0.015,0.177,-0.216,3.09
2024-09-24 16:33:36.475,214975.722,0.172,0.214,-0.962,-0.013,-0.0,0.008,-0.01,-0.005,-0.01,0.177,-0.216,3.09
2024-09-24 16:33:36.476,214975.732,0.172,0.214,-0.962,-0.012,0.001,0.013,-0.014,-0.007,-0.012,0.177,-0.216,3.09
2024-09-24 16:33:36.478,214975.742,0.171,0.215,-0.962,-0.012,0.0,0.01,-0.023,-0.006,-0.006,0.176,-0.216,3.09
2024-09-24 16:33:36.479,214975.752,0.171,0.215,-0.962,-0.013,0.002,0.007,-0.021,0.0,-0.009,0.176,-0.216,3.09
2024-09-24 16:33:36.481,214975.762,0.171,0.215,-0.961,-0.016,0.002,0.009,-0.024,0.0,-0.007,0.176,-0.217,3.09
2024-09-24 16:33:36.482,214975.772,0.171,0.215,-0.961,-0.014,0.001,0.007,-0.038,-0.004,-0.003,0.176,-0.217,3.09
2024-09-24 16:33:36.483,214975.782,0.171,0.216,-0.961,-0.012,0.001,0.004,-0.039,-0.005,-0.009,0.176,-0.217,3.09
2024-09-24 16:33:36.484,214975.792,0.171,0.216,-0.961,-0.013,-0.003,0.006,-0.033,-0.016,-0.014,0.176,-0.218,3.09
2024-09-24 16:33:36.485,214975.802,0.171,0.216,-0.961,-0.011,-0.006,0.004,-0.026,-0.01,-0.02,0.176,-0.218,3.09
2024-09-24 16:33:36.487,214975.812,0.171,0.217,-0.961,-0.012,-0.005,0.004,-0.019,-0.005,-0.02,0.176,-0.218,3.09
2024-09-24 16:33:36.488,214975.822,0.171,0.217,-0.961,-0.012,-0.001,0.002,-0.019,-0.011,-0.021,0.176,-0.219,3.09
2024-09-24 16:33:36.490,214975.832,0.171,0.217,-0.961,-0.016,0.0,0.0,-0.011,-0.004,-0.03,0.176,-0.219,3.089
2024-09-24 16:33:36.491,214975.842,0.171,0.217,-0.961,-0.015,0.001,0.003,-0.003,0.007,-0.019,0.176,-0.219,3.089
2024-09-24 16:33:36.492,214975.852,0.171,0.217,-0.961,-0.012,0.004,0.004,-0.005,0.016,-0.018,0.176,-0.219,3.089
2024-09-24 16:33:36.493,214975.862,0.171,0.217,-0.961,-0.012,0.009,0.003,-0.017,0.003,-0.022,0.176,-0.219,3.089
2024-09-24 16:33:36.494,214975.872,0.171,0.218,-0.961,-0.01,0.004,0.003,-0.036,-0.004,-0.023,0.176,-0.219,3.088
2024-09-24 16:33:36.495,214975.882,0.17,0.218,-0.961,-0.006,-0.005,0.009,-0.035,-0.006,-0.02,0.175,-0.22,3.088
2024-09-24 16:33:36.496,214975.892,0.17,0.218,-0.961,-0.005,-0.007,0.008,-0.032,-0.007,-0.015,0.175,-0.22,3.088
2024-09-24 16:33:36.497,214975.902,0.17,0.219,-0.961,-0.009,-0.001,0.004,-0.033,0.0,-0.01,0.175,-0.221,3.088
2024-09-24 16:33:36.499,214975.912,0.17,0.219,-0.961,-0.011,0.003,0.004,-0.039,0.003,-0.006,0.175,-0.221,3.088
2024-09-24 16:33:36.500,214975.922,0.17,0.219,-0.961,-0.012,0.004,0.003,-0.044,0.009,0.006,0.175,-0.221,3.088
2024-09-24 16:33:36.501,214975.932,0.17,0.22,-0.961,-0.016,0.007,0.002,-0.045,0.007,0.013,0.175,-0.222,3.088
2024-09-24 16:33:36.502,214975.942,0.17,0.22,-0.961,-0.018,0.008,0.005,-0.04,0.0,0.017,0.175,-0.222,3.089
2024-09-24 16:33:36.508,214975.952,0.17,0.221,-0.96,-0.015,0.009,0.009,-0.028,-0.005,-0.015,0.175,-0.222,3.089
2024-09-24 16:33:36.519,214975.962,0.17,0.221,-0.96,-0.012,0.009,0.01,-0.032,-0.023,0.041,0.175,-0.223,3.089
2024-09-24 16:33:36.528,214975.972,0.17,0.221,-0.96,-0.014,0.006,0.011,-0.004,-0.04,0.008,0.175,-0.223,3.089
2024-09-24 16:33:36.538,214975.982,0.169,0.221,-0.96,-0.006,0.006,0.009,0.034,-0.048,0.0,0.175,-0.223,3.089
2024-09-24 16:33:36.549,214975.992,0.169,0.22,-0.961,-0.005,-0.0,0.009,0.067,-0.03,-0.004,0.174,-0.222,3.089
2024-09-24 16:33:36.558,214976.002,0.169,0.22,-0.961,-0.012,0.003,0.001,0.071,-0.033,-0.012,0.174,-0.222,3.089
2024-09-24 16:33:36.568,214976.012,0.168,0.219,-0.961,-0.009,0.009,0.0,0.043,-0.04,-0.025,0.173,-0.221,3.089
2024-09-24 16:33:36.579,214976.022,0.168,0.219,-0.961,-0.01,-0.006,0.002,0.013,-0.041,-0.028,0.173,-0.221,3.088
2024-09-24 16:33:36.589,214976.032,0.167,0.219,-0.961,-0.003,-0.017,0.003,0.002,-0.039,-0.032,0.172,-0.221,3.088
2024-09-24 16:33:36.599,214976.042,0.167,0.219,-0.961,-0.008,-0.017,0.003,-0.011,-0.033,-0.036,0.172,-0.221,3.088
2024-09-24 16:33:36.609,214976.052,0.167,0.219,-0.961,-0.013,-0.01,0.003,0.002,-0.023,-0.03,0.172,-0.221,3.087
2024-09-24 16:33:36.619,214976.062,0.166,0.219,-0.961,-0.014,0.0,0.006,-0.005,-0.017,-0.02,0.171,-0.221,3.087
2024-09-24 16:33:36.629,214976.072,0.166,0.219,-0.961,-0.018,0.004,0.006,-0.014,-0.019,-0.015,0.171,-0.221,3.087
2024-09-24 16:33:36.639,214976.082,0.166,0.22,-0.961,-0.018,0.006,0.007,-0.02,-0.02,-0.011,0.171,-0.221,3.087
2024-09-24 16:33:36.649,214976.092,0.165,0.22,-0.961,-0.017,0.004,0.009,-0.024,-0.02,-0.004,0.17,-0.222,3.087
2024-09-24 16:33:36.659,214976.102,0.165,0.22,-0.961,-0.017,0.003,0.008,-0.031,-0.022,-0.007,0.17,-0.222,3.087
2024-09-24 16:33:36.669,214976.112,0.165,0.22,-0.961,-0.015,0.005,0.009,-0.048,-0.027,-0.011,0.17,-0.222,3.087
2024-09-24 16:33:36.679,214976.122,0.165,0.221,-0.961,-0.015,-0.001,0.008,-0.066,-0.037,-0.017,0.17,-0.223,3.087
2024-09-24 16:33:36.689,214976.132,0.164,0.222,-0.961,-0.016,-0.005,0.008,-0.097,-0.055,-0.039,0.169,-0.224,3.087
2024-09-24 16:33:36.699,214976.142,0.164,0.223,-0.961,-0.013,-0.01,0.009,-0.106,-0.048,-0.031,0.169,-0.225,3.086
2024-09-24 16:33:36.709,214976.152,0.163,0.224,-0.961,-0.014,-0.011,0.005,-0.101,-0.038,-0.04,0.168,-0.226,3.086
2024-09-24 16:33:36.719,214976.162,0.163,0.225,-0.961,-0.018,-0.003,0.001,-0.101,-0.019,-0.04,0.168,-0.227,3.086
2024-09-24 16:33:36.729,214976.172,0.163,0.226,-0.96,-0.012,-0.012,-0.003,-0.107,-0.002,-0.029,0.168,-0.228,3.086
2024-09-24 16:33:36.739,214976.182,0.163,0.227,-0.96,-0.018,-0.021,-0.01,-0.111,0.003,-0.026,0.168,-0.229,3.086
2024-09-24 16:33:36.749,214976.192,0.163,0.228,-0.96,-0.018,-0.005,-0.007,-0.121,0.01,-0.027,0.168,-0.23,3.086
2024-09-24 16:33:36.759,214976.202,0.163,0.23,-0.96,-0.012,0.007,0.003,-0.145,0.011,-0.024,0.168,-0.232,3.086
2024-09-24 16:33:36.769,214976.212,0.163,0.231,-0.959,-0.007,0.01,0.01,-0.174,0.012,-0.017,0.168,-0.233,3.086
2024-09-24 16:33:36.779,214976.222,0.163,0.233,-0.959,-0.01,0.001,0.007,-0.206,0.009,-0.013,0.168,-0.235,3.086
2024-09-24 16:33:36.789,214976.232,0.163,0.235,-0.958,-0.014,-0.008,0.004,-0.235,0.011,-0.011,0.168,-0.237,3.086
2024-09-24 16:33:36.799,214976.242,0.163,0.237,-0.958,-0.018,-0.008,0.004,-0.275,0.016,-0.01,0.168,-0.24,3.086
2024-09-24 16:33:36.809,214976.252,0.163,0.24,-0.957,-0.023,-0.006,0.004,-0.341,0.033,-0.008,0.169,-0.243,3.087
2024-09-24 16:33:36.819,214976.262,0.163,0.244,-0.956,-0.028,-0.003,0.003,-0.419,0.041,-0.004,0.169,-0.246,3.087
2024-09-24 16:33:36.829,214976.271,0.164,0.248,-0.955,-0.031,-0.012,-0.002,-0.506,0.071,-0.01,0.17,-0.251,3.088
2024-09-24 16:33:36.839,214976.281,0.164,0.253,-0.953,-0.032,-0.035,-0.015,-0.605,0.121,-0.014,0.171,-0.256,3.089
2024-09-24 16:33:36.849,214976.291,0.166,0.26,-0.951,-0.032,-0.066,-0.037,-0.769,0.209,-0.025,0.173,-0.263,3.09
2024-09-24 16:33:36.859,214976.301,0.168,0.269,-0.948,-0.033,-0.085,-0.063,-1.042,0.293,-0.037,0.176,-0.272,3.091
2024-09-24 16:33:36.869,214976.311,0.171,0.28,-0.945,-0.04,-0.101,-0.077,-1.41,0.382,-0.045,0.18,-0.284,3.093
2024-09-24 16:33:36.879,214976.321,0.175,0.295,-0.939,-0.054,-0.127,-0.081,-1.794,0.488,-0.046,0.185,-0.3,3.096
2024-09-24 16:33:36.888,214976.331,0.181,0.314,-0.932,-0.059,-0.147,-0.08,-2.122,0.622,-0.021,0.191,-0.319,3.099
2024-09-24 16:33:36.899,214976.341,0.187,0.335,-0.924,-0.07,-0.171,-0.089,-2.399,0.771,0.046,0.2,-0.341,3.104
2024-09-24 16:33:36.909,214976.351,0.195,0.358,-0.913,-0.08,-0.19,-0.109,-2.692,0.948,0.094,0.211,-0.366,3.11
2024-09-24 16:33:36.918,214976.361,0.205,0.383,-0.901,-0.08,-0.192,-0.138,-3.0,1.069,0.108,0.223,-0.393,3.118
2024-09-24 16:33:36.929,214976.371,0.215,0.411,-0.886,-0.101,-0.198,-0.17,-3.261,1.139,0.11,0.238,-0.424,3.127
2024-09-24 16:33:36.939,214976.381,0.226,0.44,-0.869,-0.127,-0.189,-0.182,-3.408,1.196,0.063,0.254,-0.456,3.137
2024-09-24 16:33:36.949,214976.391,0.236,0.47,-0.851,-0.11,-0.181,-0.188,-3.436,1.265,0.01,0.271,-0.489,-3.136
2024-09-24 16:33:36.959,214976.401,0.247,0.498,-0.831,-0.105,-0.201,-0.206,-3.349,1.335,-0.033,0.289,-0.521,-3.126
2024-09-24 16:33:36.969,214976.411,0.258,0.525,-0.811,-0.111,-0.197,-0.222,-3.192,1.365,-0.092,0.308,-0.553,-3.115
2024-09-24 16:33:36.979,214976.421,0.268,0.55,-0.791,-0.125,-0.153,-0.227,-3.022,1.439,-0.108,0.327,-0.583,-3.105
2024-09-24 16:33:36.989,214976.431,0.279,0.573,-0.77,-0.14,-0.09,-0.223,-2.872,1.481,-0.087,0.348,-0.611,-3.094
2024-09-24 16:33:37.000,214976.441,0.29,0.595,-0.749,-0.171,-0.037,-0.214,-2.78,1.531,-0.061,0.37,-0.637,-3.083
2024-09-24 16:33:37.008,214976.451,0.302,0.616,-0.728,-0.186,-0.02,-0.199,-2.822,1.576,0.004,0.393,-0.663,-3.07
2024-09-24 16:33:37.018,214976.461,0.313,0.636,-0.705,-0.188,-0.013,-0.185,-2.897,1.561,0.068,0.418,-0.689,-3.055
2024-09-24 16:33:37.028,214976.471,0.325,0.656,-0.681,-0.193,-0.025,-0.167,-2.942,1.577,0.136,0.445,-0.715,-3.038
2024-09-24 16:33:37.038,214976.481,0.336,0.675,-0.657,-0.19,-0.043,-0.164,-2.912,1.59,0.209,0.473,-0.741,-3.019
2024-09-24 16:33:37.048,214976.491,0.348,0.693,-0.632,-0.187,-0.046,-0.167,-2.808,1.587,0.253,0.504,-0.765,-2.997
2024-09-24 16:33:37.059,214976.501,0.36,0.709,-0.607,-0.183,-0.025,-0.164,-2.651,1.577,0.278,0.535,-0.787,-2.975
2024-09-24 16:33:37.069,214976.511,0.371,0.723,-0.583,-0.173,-0.016,-0.153,-2.419,1.587,0.292,0.567,-0.808,-2.953
2024-09-24 16:33:37.079,214976.521,0.382,0.735,-0.561,-0.171,-0.03,-0.135,-2.147,1.597,0.275,0.599,-0.825,-2.931
2024-09-24 16:33:37.089,214976.531,0.393,0.745,-0.539,-0.176,-0.041,-0.117,-1.995,1.587,0.234,0.63,-0.84,-2.91
2024-09-24 16:33:37.099,214976.541,0.403,0.755,-0.518,-0.181,-0.036,-0.097,-2.0,1.556,0.186,0.661,-0.855,-2.89
2024-09-24 16:33:37.109,214976.551,0.412,0.764,-0.496,-0.182,-0.042,-0.057,-2.125,1.477,0.126,0.693,-0.87,-2.868
2024-09-24 16:33:37.119,214976.561,0.419,0.774,-0.474,-0.19,-0.098,-0.017,-2.208,1.361,0.058,0.725,-0.886,-2.845
2024-09-24 16:33:37.129,214976.571,0.426,0.784,-0.451,-0.187,-0.163,0.01,-2.136,1.254,-0.019,0.756,-0.902,-2.821
2024-09-24 16:33:37.138,214976.581,0.431,0.794,-0.43,-0.164,-0.196,0.017,-2.013,1.211,-0.051,0.787,-0.917,-2.798
2024-09-24 16:33:37.148,214976.591,0.435,0.802,-0.408,-0.136,-0.165,0.013,-2.007,1.193,-0.091,0.817,-0.931,-2.775
2024-09-24 16:33:37.158,214976.601,0.439,0.811,-0.387,-0.137,-0.1,0.028,-1.964,1.071,-0.193,0.847,-0.946,-2.752
2024-09-24 16:33:37.168,214976.611,0.441,0.819,-0.367,-0.171,-0.107,0.051,-1.945,1.023,-0.258,0.876,-0.96,-2.729
2024-09-24 16:33:37.178,214976.621,0.442,0.827,-0.347,-0.166,-0.152,0.057,-1.897,0.975,-0.317,0.905,-0.974,-2.706
2024-09-24 16:33:37.189,214976.631,0.442,0.835,-0.327,-0.14,-0.153,0.072,-1.87,0.981,-0.364,0.934,-0.988,-2.683
2024-09-24 16:33:37.199,214976.641,0.442,0.843,-0.307,-0.138,-0.149,0.084,-1.789,0.928,-0.444,0.963,-1.002,-2.659
2024-09-24 16:33:37.208,214976.651,0.441,0.85,-0.289,-0.126,-0.148,0.1,-1.703,0.866,-0.525,0.991,-1.016,-2.63
2024-09-24 16:33:37.218,214976.661,0.438,0.857,-0.271,-0.103,-0.147,0.103,-1.661,0.81,-0.602,1.018,-1.03,-2.602
2024-09-24 16:33:37.228,214976.671,0.435,0.864,-0.253,-0.061,-0.147,0.111,-1.562,0.763,-0.676,1.043,-1.044,-2.574
2024-09-24 16:33:37.238,214976.681,0.43,0.871,-0.237,-0.037,-0.162,0.126,-1.427,0.676,-0.746,1.067,-1.057,-2.548
2024-09-24 16:33:37.248,214976.691,0.425,0.877,-0.223,-0.035,-0.19,0.133,-1.28,0.597,-0.813,1.088,-1.071,-2.524
2024-09-24 16:33:37.258,214976.701,0.419,0.884,-0.209,-0.014,-0.171,0.134,-1.248,0.606,-0.882,1.108,-1.084,-2.502
2024-09-24 16:33:37.268,214976.711,0.412,0.89,-0.196,0.015,-0.121,0.148,-1.146,0.487,-0.938,1.126,-1.097,-2.48
2024-09-24 16:33:37.278,214976.721,0.404,0.896,-0.185,-0.0,-0.096,0.17,-0.982,0.37,-0.997,1.142,-1.11,-2.461
2024-09-24 16:33:37.288,214976.731,0.395,0.902,-0.176,-0.019,-0.098,0.184,-0.772,0.236,-1.053,1.153,-1.123,-2.445
2024-09-24 16:33:37.298,214976.741,0.386,0.907,-0.169,0.013,-0.086,0.194,-0.46,0.09,-1.108,1.157,-1.136,-2.435
2024-09-24 16:33:37.308,214976.751,0.376,0.912,-0.167,0.045,-0.048,0.202,-0.114,-0.048,-1.153,1.153,-1.147,-2.433
2024-09-24 16:33:37.318,214976.761,0.365,0.916,-0.168,0.068,-0.011,0.191,0.285,-0.173,-1.152,1.14,-1.157,-2.439
2024-09-24 16:33:37.328,214976.771,0.354,0.919,-0.173,0.101,0.025,0.169,0.658,-0.267,-1.15,1.116,-1.166,-2.456
2024-09-24 16:33:37.338,214976.781,0.343,0.922,-0.182,0.132,0.052,0.152,0.988,-0.369,-1.132,1.083,-1.172,-2.481
2024-09-24 16:33:37.348,214976.791,0.332,0.923,-0.193,0.154,0.073,0.151,1.208,-0.44,-1.101,1.043,-1.177,-2.513
2024-09-24 16:33:37.358,214976.801,0.321,0.924,-0.206,0.175,0.066,0.152,1.202,-0.526,-1.064,1.0,-1.179,-2.548
2024-09-24 16:33:37.368,214976.811,0.31,0.925,-0.218,0.205,0.047,0.156,1.063,-0.587,-1.031,0.957,-1.182,-2.581
2024-09-24 16:33:37.378,214976.821,0.299,0.926,-0.229,0.209,0.038,0.172,0.858,-0.659,-0.977,0.918,-1.184,-2.61
2024-09-24 16:33:37.388,214976.831,0.289,0.927,-0.238,0.199,0.015,0.168,0.694,-0.725,-0.918,0.881,-1.187,-2.635
2024-09-24 16:33:37.398,214976.841,0.279,0.928,-0.246,0.204,-0.025,0.133,0.5,-0.788,-0.864,0.848,-1.19,-2.656
2024-09-24 16:33:37.408,214976.851,0.269,0.929,-0.253,0.225,-0.041,0.089,0.49,-0.787,-0.843,0.817,-1.193,-2.674
2024-09-24 16:33:37.418,214976.86,0.259,0.93,-0.26,0.226,0.002,0.078,0.567,-0.797,-0.862,0.785,-1.195,-2.694
2024-09-24 16:33:37.428,214976.87,0.249,0.931,-0.268,0.181,0.061,0.081,0.78,-0.814,-0.891,0.749,-1.196,-2.717
2024-09-24 16:33:37.438,214976.88,0.239,0.93,-0.278,0.129,0.147,0.102,1.019,-0.841,-0.851,0.709,-1.196,-2.744
2024-09-24 16:33:37.448,214976.89,0.228,0.929,-0.291,0.107,0.191,0.106,1.225,-0.895,-0.792,0.666,-1.192,-2.774
2024-09-24 16:33:37.458,214976.9,0.219,0.927,-0.305,0.119,0.152,0.084,1.29,-0.868,-0.658,0.623,-1.186,-2.804
2024-09-24 16:33:37.468,214976.91,0.212,0.924,-0.318,0.122,0.106,0.061,1.223,-0.825,-0.402,0.588,-1.179,-2.828
2024-09-24 16:33:37.478,214976.92,0.205,0.921,-0.331,0.116,0.087,0.078,1.38,-0.796,-0.42,0.555,-1.17,-2.848
2024-09-24 16:33:37.488,214976.93,0.2,0.916,-0.346,0.115,0.104,0.07,1.566,-0.685,-0.15,0.524,-1.159,-2.867
2024-09-24 16:33:37.498,214976.94,0.197,0.911,-0.362,0.098,0.212,-0.03,1.481,-0.693,0.023,0.499,-1.146,-2.88
2024-09-24 16:33:37.508,214976.95,0.195,0.906,-0.376,0.091,0.288,-0.106,1.351,-0.651,0.054,0.479,-1.133,-2.889
2024-09-24 16:33:37.518,214976.96,0.193,0.901,-0.389,0.103,0.207,-0.104,1.238,-0.578,0.112,0.462,-1.121,-2.895
2024-09-24 16:33:37.527,214976.97,0.193,0.896,-0.401,0.095,0.078,-0.074,1.196,-0.501,0.144,0.448,-1.11,-2.898
2024-09-24 16:33:37.538,214976.98,0.192,0.891,-0.413,0.052,0.055,0.007,1.276,-0.383,0.086,0.435,-1.098,-2.901
2024-09-24 16:33:37.548,214976.99,0.191,0.885,-0.425,0.027,0.059,0.093,1.298,-0.316,0.077,0.423,-1.086,-2.905
2024-09-24 16:33:37.558,214977.0,0.19,0.879,-0.437,-0.013,-0.056,0.112,1.422,-0.362,0.044,0.41,-1.074,-2.909
2024-09-24 16:33:37.568,214977.01,0.189,0.872,-0.451,-0.028,-0.148,0.101,1.517,-0.381,-0.004,0.397,-1.06,-2.921
2024-09-24 16:33:37.578,214977.02,0.183,0.867,-0.464,-0.017,-0.144,0.078,0.931,-0.911,-0.746,0.375,-1.048,-2.931
2024-09-24 16:33:37.588,214977.03,0.172,0.864,-0.473,-0.026,-0.098,0.053,0.708,-0.91,-0.761,0.348,-1.044,-2.945
2024-09-24 16:33:37.598,214977.04,0.162,0.862,-0.48,-0.071,-0.102,0.004,0.653,-0.745,-0.475,0.326,-1.04,-2.955
2024-09-24 16:33:37.608,214977.05,0.156,0.859,-0.487,-0.046,-0.017,-0.024,0.829,-0.494,-0.241,0.31,-1.034,-2.96
2024-09-24 16:33:37.618,214977.06,0.153,0.855,-0.496,-0.035,0.264,-0.065,1.027,-0.305,-0.125,0.299,-1.025,-2.963
2024-09-24 16:33:37.628,214977.07,0.151,0.85,-0.505,-0.078,0.352,0.001,1.032,-0.211,-0.104,0.29,-1.016,-2.965
2024-09-24 16:33:37.638,214977.08,0.149,0.845,-0.514,-0.014,0.14,0.038,0.945,-0.156,-0.1,0.282,-1.007,-2.966
2024-09-24 16:33:37.648,214977.09,0.147,0.841,-0.521,-0.01,-0.036,0.059,0.772,-0.102,-0.104,0.275,-0.999,-2.966
2024-09-24 16:33:37.657,214977.1,0.146,0.837,-0.527,-0.04,-0.054,0.054,0.657,-0.065,-0.104,0.27,-0.992,-2.966
2024-09-24 16:33:37.667,214977.11,0.145,0.834,-0.532,-0.051,-0.005,0.039,0.577,-0.033,-0.121,0.265,-0.987,-2.965
2024-09-24 16:33:37.677,214977.12,0.143,0.831,-0.537,-0.069,-0.003,0.027,0.516,-0.01,-0.139,0.261,-0.982,-2.964
2024-09-24 16:33:37.687,214977.13,0.142,0.829,-0.541,-0.065,-0.004,0.014,0.495,0.017,-0.087,0.257,-0.977,-2.962
2024-09-24 16:33:37.697,214977.14,0.142,0.826,-0.545,-0.068,0.001,0.005,0.522,0.082,-0.027,0.255,-0.972,-2.96
2024-09-24 16:33:37.708,214977.15,0.143,0.823,-0.549,-0.065,0.01,0.001,0.482,0.156,0.082,0.255,-0.968,-2.956
2024-09-24 16:33:37.717,214977.16,0.145,0.821,-0.552,-0.048,0.03,0.008,0.378,0.155,0.07,0.256,-0.963,-2.95
2024-09-24 16:33:37.727,214977.17,0.146,0.819,-0.555,-0.052,0.032,-0.0,0.211,0.196,0.059,0.258,-0.96,-2.945
2024-09-24 16:33:37.737,214977.18,0.148,0.818,-0.556,-0.05,-0.007,-0.017,0.112,0.205,0.053,0.26,-0.958,-2.939
2024-09-24 16:33:37.747,214977.19,0.149,0.818,-0.556,-0.068,-0.03,-0.027,-0.014,0.205,0.04,0.262,-0.958,-2.932
2024-09-24 16:33:37.757,214977.2,0.151,0.818,-0.555,-0.057,-0.056,-0.024,-0.136,0.178,0.046,0.265,-0.958,-2.925
2024-09-24 16:33:37.768,214977.21,0.152,0.819,-0.553,-0.043,-0.056,-0.028,-0.228,0.149,0.049,0.268,-0.96,-2.918
2024-09-24 16:33:37.777,214977.22,0.153,0.82,-0.551,-0.03,-0.038,-0.033,-0.222,0.128,0.061,0.271,-0.962,-2.91
2024-09-24 16:33:37.786,214977.23,0.154,0.821,-0.549,-0.019,-0.033,-0.027,-0.118,0.139,0.059,0.274,-0.964,-2.903
2024-09-24 16:33:37.797,214977.24,0.156,0.822,-0.548,-0.013,-0.007,-0.005,-0.025,0.154,0.064,0.277,-0.964,-2.896
2024-09-24 16:33:37.806,214977.25,0.157,0.821,-0.548,-0.014,0.036,0.021,0.04,0.164,0.082,0.279,-0.964,-2.89
2024-09-24 16:33:37.816,214977.26,0.159,0.821,-0.548,-0.018,0.052,0.025,0.028,0.16,0.096,0.282,-0.963,-2.883
2024-09-24 16:33:37.827,214977.27,0.16,0.821,-0.548,-0.019,0.028,0.015,-0.006,0.143,0.118,0.285,-0.963,-2.876
2024-09-24 16:33:37.837,214977.28,0.162,0.821,-0.548,-0.022,-0.004,0.01,-0.077,0.121,0.122,0.288,-0.963,-2.868
2024-09-24 16:33:37.847,214977.29,0.164,0.821,-0.546,-0.022,-0.04,-0.0,-0.168,0.095,0.104,0.291,-0.964,-2.86
2024-09-24 16:33:37.857,214977.3,0.165,0.822,-0.545,-0.018,-0.036,-0.011,-0.22,0.067,0.087,0.294,-0.965,-2.852
2024-09-24 16:33:37.867,214977.31,0.166,0.823,-0.543,-0.014,-0.025,-0.02,-0.225,0.044,0.05,0.296,-0.967,-2.845
2024-09-24 16:33:37.877,214977.32,0.166,0.825,-0.541,-0.011,-0.034,-0.017,-0.23,0.023,0.015,0.298,-0.969,-2.838
2024-09-24 16:33:37.887,214977.33,0.166,0.826,-0.539,-0.008,-0.013,-0.008,-0.217,0.002,-0.028,0.299,-0.972,-2.832
2024-09-24 16:33:37.897,214977.34,0.166,0.827,-0.537,-0.002,0.008,-0.0,-0.194,-0.017,-0.057,0.299,-0.974,-2.827
2024-09-24 16:33:37.907,214977.35,0.165,0.828,-0.536,-0.0,0.001,-0.0,-0.183,-0.009,-0.061,0.299,-0.976,-2.822
2024-09-24 16:33:37.917,214977.36,0.165,0.829,-0.534,-0.002,-0.005,0.001,-0.184,0.015,-0.046,0.299,-0.978,-2.817
2024-09-24 16:33:37.927,214977.37,0.165,0.83,-0.533,-0.01,0.003,0.001,-0.213,0.035,-0.03,0.3,-0.979,-2.812
2024-09-24 16:33:37.937,214977.38,0.165,0.831,-0.531,-0.022,-0.0,-0.003,-0.244,0.039,-0.013,0.301,-0.982,-2.806
2024-09-24 16:33:37.947,214977.39,0.165,0.833,-0.529,-0.023,-0.014,-0.011,-0.273,0.049,0.001,0.302,-0.984,-2.8
2024-09-24 16:33:37.958,214977.4,0.165,0.834,-0.526,-0.02,-0.016,-0.014,-0.253,0.043,0.01,0.304,-0.987,-2.799
2024-09-24 16:33:37.967,214977.41,0.165,0.835,-0.524,-0.02,-0.003,-0.013,-0.22,0.028,0.005,0.305,-0.989,-2.793
2024-09-24 16:33:37.977,214977.42,0.165,0.836,-0.523,-0.019,-0.001,-0.005,-0.156,0.028,-0.014,0.306,-0.991,-2.787
2024-09-24 16:33:37.987,214977.43,0.165,0.837,-0.522,-0.013,0.007,0.001,-0.047,0.032,-0.021,0.307,-0.992,-2.783
2024-09-24 16:33:37.997,214977.44,0.165,0.837,-0.522,-0.009,0.024,0.009,0.067,0.016,-0.036,0.307,-0.992,-2.779
2024-09-24 16:33:38.007,214977.45,0.165,0.836,-0.523,-0.009,0.04,0.024,0.161,0.012,-0.047,0.305,-0.991,-2.776
2024-09-24 16:33:38.017,214977.459,0.164,0.835,-0.524,-0.007,0.051,0.03,0.239,0.013,-0.053,0.304,-0.989,-2.773
2024-09-24 16:33:38.027,214977.469,0.164,0.834,-0.527,-0.007,0.041,0.026,0.31,0.001,-0.067,0.302,-0.986,-2.772
2024-09-24 16:33:38.037,214977.479,0.163,0.832,-0.53,-0.011,0.028,0.019,0.338,-0.029,-0.091,0.299,-0.983,-2.77
2024-09-24 16:33:38.047,214977.489,0.162,0.831,-0.532,-0.009,0.024,0.017,0.328,-0.074,-0.117,0.296,-0.981,-2.769
2024-09-24 16:33:38.057,214977.499,0.161,0.829,-0.535,-0.002,0.016,0.015,0.346,-0.13,-0.135,0.291,-0.978,-2.769
2024-09-24 16:33:38.067,214977.509,0.159,0.828,-0.539,0.002,0.014,0.008,0.366,-0.16,-0.136,0.286,-0.975,-2.769
2024-09-24 16:33:38.077,214977.519,0.157,0.826,-0.542,0.006,0.008,0.014,0.343,-0.052,-0.065,0.282,-0.971,-2.768
2024-09-24 16:33:38.087,214977.529,0.157,0.824,-0.544,0.001,0.012,0.024,0.168,-0.049,-0.035,0.28,-0.969,-2.766
2024-09-24 16:33:38.097,214977.539,0.156,0.824,-0.545,-0.037,0.022,-0.002,0.082,-0.068,-0.042,0.279,-0.968,-2.763
2024-09-24 16:33:38.107,214977.549,0.155,0.824,-0.545,-0.044,0.008,-0.025,-0.078,-0.083,0.008,0.277,-0.968,-2.759
2024-09-24 16:33:38.117,214977.559,0.155,0.824,-0.544,-0.003,-0.133,-0.018,-0.139,-0.08,0.038,0.278,-0.969,-2.754
2024-09-24 16:33:38.127,214977.569,0.155,0.825,-0.543,-0.021,-0.065,-0.035,-0.139,-0.101,0.033,0.278,-0.97,-2.749
2024-09-24 16:33:38.137,214977.579,0.155,0.826,-0.542,-0.029,0.021,-0.019,-0.185,-0.129,0.037,0.278,-0.972,-2.743
2024-09-24 16:33:38.147,214977.589,0.154,0.827,-0.541,-0.014,-0.013,-0.001,-0.227,-0.172,0.058,0.278,-0.974,-2.737
2024-09-24 16:33:38.157,214977.599,0.154,0.828,-0.539,-0.009,-0.024,-0.002,-0.264,-0.187,0.068,0.278,-0.976,-2.731
2024-09-24 16:33:38.167,214977.609,0.153,0.83,-0.537,-0.004,-0.032,-0.009,-0.258,-0.182,0.108,0.278,-0.978,-2.725
2024-09-24 16:33:38.177,214977.619,0.153,0.831,-0.535,-0.008,-0.001,-0.004,-0.19,-0.096,0.091,0.279,-0.98,-2.718
2024-09-24 16:33:38.187,214977.629,0.154,0.831,-0.534,-0.021,0.011,0.004,-0.083,-0.024,0.087,0.28,-0.981,-2.712
2024-09-24 16:33:38.197,214977.639,0.155,0.831,-0.534,-0.024,0.008,0.02,-0.064,0.045,0.064,0.282,-0.982,-2.707
2024-09-24 16:33:38.207,214977.649,0.155,0.832,-0.533,-0.025,0.008,0.016,-0.013,0.07,0.042,0.284,-0.982,-2.703
2024-09-24 16:33:38.217,214977.659,0.156,0.831,-0.533,-0.028,0.016,0.004,0.046,0.107,0.018,0.285,-0.982,-2.699
2024-09-24 16:33:38.227,214977.669,0.157,0.831,-0.534,-0.021,-0.011,0.006,0.055,0.128,0.027,0.286,-0.981,-2.695
2024-09-24 16:33:38.237,214977.679,0.158,0.831,-0.534,-0.015,-0.01,0.015,0.095,0.133,0.027,0.288,-0.98,-2.692
2024-09-24 16:33:38.246,214977.689,0.159,0.83,-0.535,-0.022,0.016,0.01,0.146,0.141,0.027,0.289,-0.979,-2.688
2024-09-24 16:33:38.257,214977.699,0.16,0.829,-0.535,-0.018,0.019,0.01,0.07,0.177,0.043,0.29,-0.978,-2.685
2024-09-24 16:33:38.266,214977.709,0.161,0.829,-0.535,-0.019,0.009,0.009,-0.049,0.198,0.073,0.293,-0.977,-2.681
2024-09-24 16:33:38.277,214977.719,0.163,0.83,-0.534,-0.029,-0.005,-0.009,-0.169,0.213,0.079,0.297,-0.978,-2.676
2024-09-24 16:33:38.287,214977.729,0.165,0.831,-0.532,-0.035,-0.045,-0.032,-0.258,0.233,0.073,0.301,-0.98,-2.67
2024-09-24 16:33:38.296,214977.739,0.167,0.832,-0.529,-0.03,-0.05,-0.035,-0.297,0.222,0.061,0.305,-0.983,-2.664
2024-09-24 16:33:38.306,214977.749,0.168,0.834,-0.526,-0.023,-0.038,-0.025,-0.322,0.169,0.027,0.309,-0.986,-2.658
2024-09-24 16:33:38.316,214977.759,0.169,0.835,-0.523,-0.018,-0.02,-0.016,-0.26,0.088,-0.017,0.312,-0.989,-2.654
2024-09-24 16:33:38.327,214977.769,0.169,0.836,-0.522,-0.005,0.003,-0.011,-0.096,0.012,-0.054,0.312,-0.99,-2.65
2024-09-24 16:33:38.336,214977.779,0.168,0.836,-0.522,0.009,0.009,0.004,0.088,-0.03,-0.088,0.311,-0.991,-2.651
2024-09-24 16:33:38.346,214977.789,0.167,0.836,-0.523,0.014,0.041,0.034,0.251,-0.078,-0.119,0.308,-0.989,-2.651
2024-09-24 16:33:38.356,214977.799,0.165,0.834,-0.526,0.01,0.09,0.049,0.413,-0.114,-0.151,0.304,-0.987,-2.652
2024-09-24 16:33:38.366,214977.809,0.163,0.832,-0.53,0.009,0.079,0.046,0.539,-0.135,-0.169,0.298,-0.982,-2.654
2024-09-24 16:33:38.376,214977.819,0.161,0.829,-0.535,0.01,0.04,0.04,0.59,-0.13,-0.173,0.292,-0.978,-2.657
2024-09-24 16:33:38.386,214977.829,0.159,0.826,-0.541,0.003,0.044,0.039,0.593,-0.136,-0.176,0.286,-0.972,-2.66
2024-09-24 16:33:38.396,214977.839,0.156,0.823,-0.546,-0.008,0.045,0.03,0.547,-0.166,-0.174,0.279,-0.967,-2.662
2024-09-24 16:33:38.406,214977.849,0.154,0.821,-0.55,-0.009,0.009,0.013,0.489,-0.055,-0.131,0.274,-0.963,-2.664
2024-09-24 16:33:38.417,214977.859,0.154,0.819,-0.553,-0.005,-0.014,0.003,0.196,-0.083,-0.029,0.271,-0.96,-2.664
2024-09-24 16:33:38.426,214977.869,0.153,0.818,-0.554,-0.018,-0.026,-0.01,0.137,-0.091,-0.06,0.269,-0.958,-2.662
2024-09-24 16:33:38.436,214977.879,0.152,0.818,-0.555,-0.057,-0.002,-0.054,0.065,-0.075,-0.037,0.267,-0.958,-2.661
2024-09-24 16:33:38.446,214977.889,0.151,0.818,-0.556,-0.015,-0.107,-0.012,0.035,-0.055,-0.031,0.266,-0.957,-2.658
2024-09-24 16:33:38.456,214977.899,0.151,0.817,-0.556,-0.017,-0.091,-0.01,0.101,-0.047,-0.044,0.264,-0.957,-2.656
2024-09-24 16:33:38.466,214977.909,0.15,0.817,-0.557,-0.026,0.062,0.0,0.145,-0.036,-0.061,0.263,-0.956,-2.654
2024-09-24 16:33:38.476,214977.919,0.149,0.816,-0.559,-0.008,0.021,0.008,0.209,0.039,-0.023,0.261,-0.954,-2.653
2024-09-24 16:33:38.486,214977.929,0.15,0.814,-0.56,-0.006,0.023,0.017,0.222,0.092,0.123,0.262,-0.952,-2.65
2024-09-24 16:33:38.496,214977.939,0.152,0.813,-0.563,-0.016,0.04,0.012,0.344,0.108,0.092,0.263,-0.949,-2.647
2024-09-24 16:33:38.506,214977.949,0.153,0.811,-0.565,-0.0,0.049,0.014,0.346,0.11,0.106,0.264,-0.945,-2.644
2024-09-24 16:33:38.516,214977.959,0.155,0.808,-0.568,-0.015,0.013,0.023,0.404,0.116,0.107,0.266,-0.941,-2.641
2024-09-24 16:33:38.526,214977.969,0.156,0.806,-0.571,-0.045,0.042,0.023,0.354,0.116,0.109,0.267,-0.937,-2.637
2024-09-24 16:33:38.537,214977.979,0.158,0.804,-0.574,-0.031,-0.01,0.025,0.367,0.089,0.082,0.268,-0.934,-2.634
2024-09-24 16:33:38.546,214977.989,0.159,0.802,-0.576,-0.035,-0.011,0.006,0.264,0.108,0.073,0.269,-0.93,-2.631
2024-09-24 16:33:38.556,214977.999,0.16,0.8,-0.578,-0.031,-0.008,-0.001,0.18,0.062,0.085,0.27,-0.928,-2.628
2024-09-24 16:33:38.566,214978.009,0.161,0.8,-0.579,-0.018,-0.035,0.009,0.095,0.095,0.06,0.271,-0.926,-2.625
2024-09-24 16:33:38.576,214978.019,0.162,0.799,-0.579,-0.016,-0.063,-0.006,-0.088,0.118,0.095,0.273,-0.926,-2.62
2024-09-24 16:33:38.586,214978.029,0.164,0.8,-0.577,-0.019,-0.05,-0.009,-0.295,0.145,0.13,0.277,-0.928,-2.615
2024-09-24 16:33:38.596,214978.039,0.166,0.802,-0.573,-0.033,-0.069,-0.013,-0.496,0.18,0.178,0.282,-0.931,-2.608
2024-09-24 16:33:38.606,214978.048,0.169,0.805,-0.568,-0.045,-0.118,-0.049,-0.619,0.201,0.219,0.288,-0.936,-2.599
2024-09-24 16:33:38.616,214978.058,0.172,0.808,-0.563,-0.047,-0.084,-0.051,-0.586,0.272,0.266,0.296,-0.941,-2.59
2024-09-24 16:33:38.626,214978.068,0.176,0.811,-0.558,-0.046,-0.043,-0.04,-0.512,0.383,0.347,0.306,-0.946,-2.579
2024-09-24 16:33:38.636,214978.078,0.181,0.813,-0.553,-0.038,0.007,-0.025,-0.545,0.381,0.389,0.317,-0.949,-2.568
2024-09-24 16:33:38.646,214978.088,0.186,0.815,-0.548,-0.056,0.126,-0.015,-0.564,0.305,0.332,0.328,-0.954,-2.556
2024-09-24 16:33:38.656,214978.098,0.19,0.818,-0.543,-0.063,0.121,-0.038,-0.553,0.221,0.303,0.337,-0.958,-2.545
2024-09-24 16:33:38.666,214978.108,0.189,0.821,-0.538,-0.033,-0.022,-0.053,-0.563,-0.202,-0.388,0.338,-0.964,-2.541
2024-09-24 16:33:38.676,214978.118,0.187,0.824,-0.535,-0.045,-0.026,-0.03,-0.426,-0.165,0.002,0.337,-0.968,-2.538
2024-09-24 16:33:38.686,214978.128,0.186,0.826,-0.532,-0.195,0.01,0.008,-0.339,-0.147,-0.164,0.336,-0.972,-2.535
2024-09-24 16:33:38.696,214978.138,0.184,0.828,-0.53,-0.146,0.092,-0.001,-0.31,-0.17,-0.089,0.334,-0.976,-2.533
2024-09-24 16:33:38.706,214978.148,0.182,0.83,-0.527,-0.062,0.099,0.008,-0.32,-0.169,-0.049,0.333,-0.979,-2.53
2024-09-24 16:33:38.716,214978.158,0.181,0.832,-0.525,-0.121,0.028,0.043,-0.325,-0.129,-0.026,0.332,-0.982,-2.527
2024-09-24 16:33:38.726,214978.168,0.18,0.833,-0.522,-0.107,0.03,0.073,-0.315,-0.139,-0.061,0.332,-0.985,-2.526
2024-09-24 16:33:38.736,214978.178,0.179,0.835,-0.52,-0.075,0.018,0.069,-0.27,-0.102,-0.009,0.332,-0.988,-2.522
2024-09-24 16:33:38.746,214978.188,0.179,0.836,-0.518,-0.068,0.012,0.064,-0.198,-0.085,0.0,0.332,-0.99,-2.519
2024-09-24 16:33:38.756,214978.198,0.178,0.837,-0.517,-0.045,-0.007,0.05,-0.113,-0.071,0.039,0.332,-0.992,-2.516
2024-09-24 16:33:38.766,214978.208,0.178,0.837,-0.517,0.001,-0.031,0.029,-0.059,-0.053,0.05,0.332,-0.992,-2.512
2024-09-24 16:33:38.776,214978.218,0.179,0.838,-0.516,0.016,-0.027,0.013,-0.027,-0.041,0.059,0.333,-0.993,-2.509
2024-09-24 16:33:38.786,214978.228,0.179,0.837,-0.516,0.024,-0.007,0.008,-0.014,-0.031,0.084,0.334,-0.993,-2.506
2024-09-24 16:33:38.796,214978.238,0.18,0.837,-0.516,0.037,-0.024,0.003,0.001,-0.004,0.116,0.335,-0.992,-2.502
2024-09-24 16:33:38.806,214978.248,0.181,0.837,-0.516,0.057,-0.047,0.005,0.043,0.034,0.161,0.337,-0.992,-2.498
2024-09-24 16:33:38.816,214978.258,0.182,0.836,-0.517,0.069,-0.05,0.011,0.083,0.06,0.167,0.339,-0.991,-2.494
2024-09-24 16:33:38.825,214978.268,0.184,0.836,-0.518,0.081,-0.065,0.004,0.11,0.084,0.166,0.342,-0.989,-2.49
2024-09-24 16:33:38.836,214978.278,0.186,0.835,-0.518,0.084,-0.044,-0.007,0.142,0.106,0.174,0.345,-0.987,-2.486
2024-09-24 16:33:38.846,214978.288,0.188,0.833,-0.52,0.076,-0.004,-0.021,0.201,0.128,0.177,0.348,-0.985,-2.482
2024-09-24 16:33:38.855,214978.298,0.19,0.832,-0.521,0.088,-0.016,-0.036,0.226,0.125,0.087,0.35,-0.983,-2.479
2024-09-24 16:33:38.866,214978.308,0.191,0.831,-0.523,0.093,-0.014,-0.035,0.215,0.078,-0.015,0.35,-0.98,-2.478
2024-09-24 16:33:38.876,214978.318,0.191,0.83,-0.524,0.07,0.019,-0.023,0.172,0.011,-0.11,0.349,-0.979,-2.479
2024-09-24 16:33:38.886,214978.328,0.189,0.829,-0.526,0.027,0.018,-0.014,0.134,-0.03,-0.174,0.346,-0.978,-2.48
2024-09-24 16:33:38.896,214978.338,0.188,0.829,-0.527,0.017,-0.021,-0.014,0.113,-0.043,-0.188,0.342,-0.977,-2.482
2024-09-24 16:33:38.905,214978.348,0.186,0.829,-0.528,0.01,-0.024,-0.008,0.098,-0.052,-0.18,0.339,-0.977,-2.484
2024-09-24 16:33:38.915,214978.358,0.184,0.829,-0.529,-0.007,-0.003,-0.001,0.094,-0.061,-0.164,0.335,-0.977,-2.485
2024-09-24 16:33:38.926,214978.368,0.183,0.828,-0.53,-0.016,-0.001,-0.003,0.132,-0.063,-0.131,0.332,-0.976,-2.487
2024-09-24 16:33:38.936,214978.378,0.182,0.828,-0.531,-0.016,0.004,-0.003,0.166,-0.044,-0.094,0.329,-0.975,-2.488
2024-09-24 16:33:38.945,214978.388,0.181,0.827,-0.533,-0.019,0.016,0.005,0.212,-0.018,-0.055,0.327,-0.973,-2.488
2024-09-24 16:33:38.955,214978.398,0.181,0.826,-0.534,-0.025,0.032,0.009,0.24,0.011,-0.02,0.326,-0.971,-2.488
2024-09-24 16:33:38.965,214978.408,0.181,0.824,-0.536,-0.028,0.037,0.011,0.256,0.038,0.004,0.325,-0.969,-2.488
2024-09-24 16:33:38.975,214978.418,0.181,0.823,-0.538,-0.027,0.026,0.008,0.257,0.051,0.004,0.324,-0.967,-2.488
2024-09-24 16:33:38.986,214978.428,0.181,0.822,-0.54,-0.027,0.016,0.013,0.214,0.038,-0.02,0.323,-0.964,-2.487
2024-09-24 16:33:38.995,214978.438,0.181,0.821,-0.542,-0.023,-0.003,0.001,0.223,0.007,-0.04,0.322,-0.962,-2.487
2024-09-24 16:33:39.005,214978.448,0.18,0.819,-0.544,-0.015,0.01,-0.004,0.287,-0.035,-0.063,0.32,-0.96,-2.488
2024-09-24 16:33:39.015,214978.458,0.18,0.818,-0.547,-0.006,0.004,0.011,0.35,-0.075,-0.093,0.317,-0.957,-2.489
2024-09-24 16:33:39.025,214978.468,0.178,0.816,-0.55,0.005,-0.0,0.015,0.432,-0.112,-0.101,0.313,-0.954,-2.491
2024-09-24 16:33:39.035,214978.478,0.177,0.813,-0.554,0.004,0.052,0.025,0.466,-0.066,-0.074,0.309,-0.95,-2.493
2024-09-24 16:33:39.046,214978.488,0.176,0.811,-0.557,-0.0,0.041,0.034,0.322,-0.087,-0.059,0.306,-0.946,-2.494
2024-09-24 16:33:39.055,214978.498,0.175,0.81,-0.56,-0.011,0.011,0.012,0.269,-0.105,-0.063,0.303,-0.944,-2.495
2024-09-24 16:33:39.065,214978.508,0.174,0.809,-0.562,-0.032,0.029,-0.022,0.139,-0.106,-0.05,0.3,-0.942,-2.495
2024-09-24 16:33:39.075,214978.518,0.173,0.808,-0.563,-0.008,-0.075,-0.004,0.004,-0.114,-0.053,0.298,-0.942,-2.494
2024-09-24 16:33:39.085,214978.528,0.172,0.809,-0.563,-0.014,-0.093,-0.023,-0.072,-0.129,-0.079,0.296,-0.942,-2.494
2024-09-24 16:33:39.095,214978.538,0.17,0.81,-0.562,-0.026,-0.004,-0.024,-0.177,-0.141,-0.086,0.294,-0.943,-2.493
2024-09-24 16:33:39.105,214978.548,0.169,0.811,-0.56,-0.01,-0.037,-0.019,-0.268,-0.19,-0.061,0.293,-0.946,-2.493
2024-09-24 16:33:39.115,214978.558,0.167,0.813,-0.558,-0.007,-0.04,-0.027,-0.336,-0.212,-0.054,0.291,-0.949,-2.491
2024-09-24 16:33:39.126,214978.568,0.166,0.815,-0.556,-0.019,0.002,-0.028,-0.314,-0.242,-0.005,0.289,-0.952,-2.488
2024-09-24 16:33:39.135,214978.578,0.164,0.816,-0.554,-0.016,-0.026,-0.015,-0.246,-0.201,0.001,0.288,-0.955,-2.485
2024-09-24 16:33:39.145,214978.588,0.163,0.818,-0.552,0.003,-0.042,0.003,-0.233,-0.124,0.028,0.288,-0.957,-2.482
2024-09-24 16:33:39.155,214978.598,0.163,0.819,-0.55,-0.022,0.028,0.011,-0.204,-0.042,0.056,0.289,-0.959,-2.479
2024-09-24 16:33:39.165,214978.608,0.164,0.82,-0.549,-0.036,0.035,0.013,-0.172,0.008,0.096,0.29,-0.961,-2.475
2024-09-24 16:33:39.176,214978.618,0.165,0.82,-0.548,-0.02,-0.029,0.016,-0.144,0.045,0.102,0.293,-0.962,-2.471
2024-09-24 16:33:39.185,214978.628,0.166,0.821,-0.546,-0.03,-0.021,0.014,-0.106,0.066,0.08,0.295,-0.963,-2.468
2024-09-24 16:33:39.195,214978.637,0.167,0.822,-0.545,-0.026,-0.008,0.01,-0.155,0.142,0.036,0.297,-0.964,-2.465
2024-09-24 16:33:39.205,214978.647,0.168,0.822,-0.544,-0.013,-0.02,0.006,-0.113,0.128,0.059,0.3,-0.965,-2.462
2024-09-24 16:33:39.215,214978.657,0.169,0.823,-0.543,-0.025,-0.023,-0.001,-0.067,0.166,0.02,0.302,-0.966,-2.46
2024-09-24 16:33:39.225,214978.667,0.17,0.823,-0.542,-0.018,-0.016,0.002,-0.023,0.167,0.038,0.305,-0.966,-2.458
2024-09-24 16:33:39.235,214978.677,0.172,0.823,-0.542,-0.022,0.015,0.002,0.008,0.21,0.029,0.307,-0.966,-2.456
2024-09-24 16:33:39.245,214978.687,0.173,0.823,-0.541,-0.024,0.037,0.008,-0.065,0.227,0.042,0.31,-0.966,-2.454
2024-09-24 16:33:39.255,214978.697,0.175,0.823,-0.54,-0.028,0.016,0.001,-0.117,0.228,0.054,0.313,-0.967,-2.451
2024-09-24 16:33:39.265,214978.707,0.176,0.824,-0.539,-0.033,0.002,-0.017,-0.141,0.23,0.066,0.316,-0.968,-2.448
2024-09-24 16:33:39.275,214978.717,0.178,0.825,-0.537,-0.027,-0.027,-0.016,-0.179,0.246,0.061,0.32,-0.97,-2.445
2024-09-24 16:33:39.285,214978.727,0.18,0.826,-0.535,-0.023,-0.042,-0.01,-0.221,0.207,0.046,0.324,-0.971,-2.442
2024-09-24 16:33:39.295,214978.737,0.181,0.827,-0.533,-0.027,0.001,-0.014,-0.206,0.141,0.006,0.327,-0.973,-2.439
2024-09-24 16:33:39.305,214978.747,0.181,0.828,-0.531,-0.022,0.011,-0.018,-0.117,0.064,-0.039,0.329,-0.975,-2.437
2024-09-24 16:33:39.315,214978.757,0.181,0.828,-0.531,-0.002,-0.009,-0.015,0.012,-0.011,-0.085,0.328,-0.976,-2.437
2024-09-24 16:33:39.325,214978.767,0.18,0.828,-0.531,0.01,0.018,0.01,0.173,-0.079,-0.134,0.326,-0.975,-2.438
2024-09-24 16:33:39.335,214978.777,0.178,0.827,-0.534,0.014,0.066,0.031,0.356,-0.141,-0.171,0.321,-0.973,-2.441
2024-09-24 16:33:39.345,214978.787,0.175,0.825,-0.538,0.02,0.076,0.039,0.532,-0.19,-0.203,0.315,-0.97,-2.445
2024-09-24 16:33:39.355,214978.797,0.172,0.822,-0.543,0.02,0.076,0.048,0.667,-0.212,-0.219,0.307,-0.964,-2.45
2024-09-24 16:33:39.365,214978.807,0.169,0.818,-0.549,0.014,0.075,0.053,0.704,-0.19,-0.2,0.299,-0.958,-2.456
2024-09-24 16:33:39.375,214978.817,0.168,0.815,-0.555,0.006,0.057,0.048,0.591,-0.038,-0.117,0.293,-0.952,-2.462
2024-09-24 16:33:39.385,214978.827,0.167,0.813,-0.559,-0.006,0.031,0.042,0.271,-0.053,-0.104,0.29,-0.949,-2.464
2024-09-24 16:33:39.394,214978.837,0.166,0.811,-0.561,-0.058,0.006,-0.023,0.203,-0.044,-0.087,0.287,-0.946,-2.466
2024-09-24 16:33:39.405,214978.847,0.165,0.811,-0.562,-0.064,-0.037,-0.064,0.059,-0.034,-0.037,0.285,-0.945,-2.466
2024-09-24 16:33:39.415,214978.857,0.164,0.811,-0.562,-0.0,-0.211,-0.011,0.063,-0.022,-0.041,0.284,-0.945,-2.466
2024-09-24 16:33:39.425,214978.867,0.164,0.81,-0.563,-0.036,-0.046,-0.018,0.147,-0.024,-0.034,0.283,-0.944,-2.465
2024-09-24 16:33:39.435,214978.877,0.164,0.809,-0.565,-0.028,0.055,-0.002,0.217,-0.026,-0.017,0.282,-0.943,-2.465
2024-09-24 16:33:39.445,214978.887,0.163,0.807,-0.567,-0.01,0.008,0.016,0.335,0.002,-0.0,0.281,-0.94,-2.466
2024-09-24 16:33:39.455,214978.897,0.164,0.805,-0.57,-0.011,0.046,0.033,0.396,0.035,0.03,0.28,-0.936,-2.466
2024-09-24 16:33:39.465,214978.907,0.164,0.803,-0.573,-0.01,0.048,0.032,0.367,0.067,0.072,0.279,-0.932,-2.466
2024-09-24 16:33:39.475,214978.917,0.165,0.801,-0.575,-0.028,0.06,0.014,0.317,0.087,0.078,0.28,-0.929,-2.465
2024-09-24 16:33:39.485,214978.927,0.167,0.8,-0.577,-0.036,0.037,0.002,0.072,0.149,0.115,0.282,-0.927,-2.463
2024-09-24 16:33:39.495,214978.937,0.169,0.799,-0.577,-0.033,-0.015,-0.017,0.044,0.107,0.129,0.284,-0.926,-2.461
2024-09-24 16:33:39.505,214978.947,0.17,0.799,-0.577,-0.045,-0.034,-0.021,0.012,0.118,0.095,0.287,-0.925,-2.458
2024-09-24 16:33:39.514,214978.957,0.172,0.799,-0.577,-0.027,-0.091,-0.018,-0.06,0.115,0.123,0.29,-0.925,-2.455
2024-09-24 16:33:39.524,214978.967,0.173,0.799,-0.576,-0.031,-0.04,-0.012,-0.14,0.078,0.075,0.292,-0.926,-2.452
2024-09-24 16:33:39.534,214978.977,0.174,0.8,-0.574,-0.021,-0.038,-0.005,-0.123,0.073,0.083,0.295,-0.927,-2.449
2024-09-24 16:33:39.544,214978.987,0.176,0.8,-0.573,-0.016,-0.038,-0.019,-0.149,0.097,0.099,0.297,-0.928,-2.445
2024-09-24 16:33:39.554,214978.997,0.177,0.801,-0.572,-0.002,-0.034,0.009,-0.14,0.146,0.111,0.3,-0.929,-2.442
2024-09-24 16:33:39.565,214979.007,0.179,0.802,-0.57,-0.003,-0.031,0.025,-0.275,0.185,0.127,0.304,-0.931,-2.438
2024-09-24 16:33:39.574,214979.017,0.181,0.804,-0.567,-0.006,-0.042,0.032,-0.479,0.189,0.149,0.309,-0.934,-2.433
2024-09-24 16:33:39.584,214979.027,0.183,0.807,-0.562,-0.03,-0.066,-0.011,-0.638,0.179,0.154,0.316,-0.939,-2.426
2024-09-24 16:33:39.594,214979.037,0.186,0.81,-0.556,-0.051,-0.083,-0.057,-0.646,0.24,0.157,0.322,-0.944,-2.419
2024-09-24 16:33:39.605,214979.047,0.189,0.814,-0.55,-0.037,-0.076,-0.057,-0.708,0.35,0.203,0.331,-0.95,-2.411
2024-09-24 16:33:39.614,214979.057,0.193,0.817,-0.543,-0.039,-0.013,-0.04,-0.82,0.378,0.24,0.341,-0.957,-2.402
2024-09-24 16:33:39.624,214979.067,0.196,0.821,-0.536,-0.068,0.085,-0.054,-0.786,0.314,0.176,0.351,-0.964,-2.393
2024-09-24 16:33:39.634,214979.077,0.198,0.825,-0.529,-0.07,0.058,-0.064,-0.778,0.101,-0.055,0.359,-0.971,-2.386
2024-09-24 16:33:39.644,214979.087,0.197,0.829,-0.523,-0.037,-0.058,-0.04,-0.585,-0.056,-0.123,0.36,-0.978,-2.384
2024-09-24 16:33:39.654,214979.097,0.196,0.832,-0.519,-0.056,-0.004,0.004,-0.434,-0.036,-0.037,0.361,-0.983,-2.381
2024-09-24 16:33:39.664,214979.107,0.195,0.834,-0.516,-0.151,0.076,0.045,-0.229,-0.083,-0.054,0.361,-0.986,-2.378
2024-09-24 16:33:39.674,214979.117,0.194,0.835,-0.515,-0.072,0.138,0.021,-0.117,-0.118,-0.019,0.361,-0.988,-2.377
2024-09-24 16:33:39.684,214979.127,0.193,0.835,-0.515,-0.049,0.058,0.029,-0.045,-0.146,-0.041,0.36,-0.989,-2.376
2024-09-24 16:33:39.694,214979.137,0.193,0.835,-0.515,-0.097,0.076,0.046,0.002,-0.16,-0.026,0.358,-0.989,-2.376
2024-09-24 16:33:39.703,214979.147,0.191,0.835,-0.515,-0.087,0.072,0.038,0.025,-0.153,-0.023,0.356,-0.989,-2.375
2024-09-24 16:33:39.713,214979.157,0.19,0.835,-0.516,-0.052,0.021,0.033,0.028,-0.169,-0.057,0.354,-0.989,-2.375
2024-09-24 16:33:39.723,214979.167,0.189,0.835,-0.516,-0.041,0.025,0.032,0.0,-0.162,-0.012,0.351,-0.989,-2.376
2024-09-24 16:33:39.733,214979.177,0.188,0.835,-0.516,-0.029,0.009,0.03,-0.047,-0.172,-0.057,0.349,-0.989,-2.375
2024-09-24 16:33:39.744,214979.187,0.187,0.836,-0.516,-0.002,-0.016,0.024,-0.061,-0.172,-0.021,0.347,-0.99,-2.375
2024-09-24 16:33:39.754,214979.197,0.186,0.836,-0.516,0.021,-0.031,0.014,-0.025,-0.148,0.033,0.346,-0.99,-2.374
2024-09-24 16:33:39.764,214979.207,0.186,0.836,-0.516,0.022,-0.032,0.017,-0.019,-0.15,0.059,0.345,-0.99,-2.373
2024-09-24 16:33:39.774,214979.217,0.185,0.836,-0.516,0.034,-0.026,0.019,-0.036,-0.17,0.053,0.345,-0.99,-2.371
2024-09-24 16:33:39.784,214979.227,0.185,0.836,-0.516,0.045,-0.036,0.002,-0.023,-0.172,0.068,0.344,-0.99,-2.369
2024-09-24 16:33:39.794,214979.236,0.185,0.836,-0.517,0.04,-0.04,-0.008,0.011,-0.128,0.087,0.344,-0.99,-2.367
2024-09-24 16:33:39.804,214979.246,0.185,0.836,-0.517,0.031,-0.034,0.003,0.031,-0.107,0.087,0.344,-0.99,-2.366
2024-09-24 16:33:39.814,214979.256,0.185,0.835,-0.517,0.036,-0.031,0.009,0.05,-0.081,0.06,0.343,-0.989,-2.364
2024-09-24 16:33:39.824,214979.266,0.185,0.835,-0.518,0.043,-0.044,-0.009,0.057,-0.036,0.038,0.343,-0.988,-2.363
2024-09-24 16:33:39.834,214979.276,0.185,0.835,-0.519,0.042,-0.028,-0.024,0.06,-0.014,-0.002,0.343,-0.988,-2.363
2024-09-24 16:33:39.844,214979.286,0.185,0.835,-0.519,0.032,0.019,-0.025,0.022,-0.006,-0.042,0.342,-0.987,-2.363
2024-09-24 16:33:39.854,214979.296,0.185,0.834,-0.519,0.04,0.018,-0.026,0.031,0.013,-0.006,0.342,-0.987,-2.363
2024-09-24 16:33:39.864,214979.306,0.185,0.834,-0.519,0.035,-0.014,-0.021,0.005,-0.013,-0.102,0.341,-0.987,-2.364
2024-09-24 16:33:39.874,214979.316,0.183,0.835,-0.519,0.046,-0.018,-0.027,0.001,-0.036,-0.127,0.34,-0.987,-2.366
2024-09-24 16:33:39.884,214979.326,0.182,0.835,-0.519,0.038,-0.022,-0.014,0.004,-0.044,-0.138,0.337,-0.988,-2.367
2024-09-24 16:33:39.894,214979.336,0.181,0.835,-0.52,-0.007,-0.016,-0.0,0.032,-0.037,-0.128,0.335,-0.988,-2.369
2024-09-24 16:33:39.904,214979.346,0.18,0.835,-0.52,-0.011,-0.004,0.004,0.078,-0.028,-0.093,0.333,-0.988,-2.371
2024-09-24 16:33:39.914,214979.356,0.179,0.834,-0.521,-0.015,0.004,0.007,0.12,-0.017,-0.064,0.331,-0.987,-2.373
2024-09-24 16:33:39.924,214979.366,0.179,0.834,-0.522,-0.021,0.017,0.01,0.16,-0.004,-0.026,0.33,-0.986,-2.374
2024-09-24 16:33:39.934,214979.376,0.179,0.833,-0.524,-0.025,0.032,0.009,0.222,0.013,-0.006,0.329,-0.984,-2.375
2024-09-24 16:33:39.944,214979.386,0.179,0.831,-0.526,-0.026,0.038,0.012,0.286,0.019,0.003,0.328,-0.982,-2.376
2024-09-24 16:33:39.954,214979.396,0.179,0.83,-0.528,-0.024,0.028,0.013,0.324,0.03,0.0,0.327,-0.979,-2.377
2024-09-24 16:33:39.964,214979.406,0.179,0.828,-0.531,-0.021,0.029,0.019,0.343,0.023,-0.004,0.326,-0.976,-2.378
2024-09-24 16:33:39.974,214979.416,0.179,0.826,-0.534,-0.019,0.026,0.019,0.343,0.011,-0.021,0.324,-0.972,-2.38
2024-09-24 16:33:39.984,214979.426,0.179,0.825,-0.537,-0.019,0.013,0.011,0.324,-0.033,-0.047,0.322,-0.969,-2.382
2024-09-24 16:33:39.994,214979.436,0.178,0.823,-0.539,-0.013,0.005,0.009,0.309,-0.084,-0.074,0.319,-0.967,-2.384
2024-09-24 16:33:40.004,214979.446,0.177,0.821,-0.542,-0.003,-0.001,0.005,0.321,-0.123,-0.094,0.315,-0.964,-2.387
2024-09-24 16:33:40.014,214979.456,0.175,0.82,-0.545,0.0,-0.001,0.004,0.331,-0.154,-0.11,0.311,-0.961,-2.39
2024-09-24 16:33:40.024,214979.466,0.174,0.818,-0.548,0.002,-0.001,0.012,0.365,-0.104,-0.1,0.307,-0.958,-2.393
2024-09-24 16:33:40.034,214979.476,0.172,0.817,-0.551,0.001,0.011,0.013,0.218,-0.088,-0.074,0.303,-0.956,-2.396
2024-09-24 16:33:40.043,214979.486,0.171,0.816,-0.552,-0.009,0.01,0.014,0.123,-0.1,-0.069,0.301,-0.955,-2.397
2024-09-24 16:33:40.054,214979.496,0.17,0.816,-0.553,-0.048,0.018,-0.026,0.057,-0.113,-0.074,0.298,-0.954,-2.398
2024-09-24 16:33:40.064,214979.506,0.169,0.816,-0.553,-0.018,-0.046,-0.015,-0.008,-0.116,-0.054,0.296,-0.954,-2.399
2024-09-24 16:33:40.074,214979.516,0.168,0.816,-0.554,-0.003,-0.112,-0.013,0.004,-0.119,-0.057,0.294,-0.954,-2.399
2024-09-24 16:33:40.084,214979.526,0.166,0.816,-0.554,-0.025,0.013,-0.009,0.001,-0.122,-0.066,0.292,-0.954,-2.4
2024-09-24 16:33:40.094,214979.536,0.165,0.816,-0.554,-0.016,0.029,-0.001,-0.004,-0.123,-0.043,0.29,-0.954,-2.4
2024-09-24 16:33:40.104,214979.546,0.164,0.816,-0.554,-0.014,0.013,-0.002,-0.077,-0.154,-0.003,0.289,-0.955,-2.4
2024-09-24 16:33:40.113,214979.556,0.164,0.817,-0.553,-0.023,0.024,-0.006,-0.123,-0.177,0.006,0.287,-0.956,-2.399
2024-09-24 16:33:40.123,214979.566,0.163,0.818,-0.552,-0.02,0.006,-0.007,-0.176,-0.183,0.036,0.286,-0.957,-2.397
2024-09-24 16:33:40.133,214979.576,0.162,0.819,-0.551,-0.008,-0.068,-0.01,-0.22,-0.16,0.052,0.286,-0.959,-2.395
2024-09-24 16:33:40.144,214979.586,0.162,0.82,-0.549,-0.018,-0.049,-0.013,-0.217,-0.092,0.051,0.287,-0.961,-2.393
2024-09-24 16:33:40.153,214979.596,0.162,0.821,-0.548,-0.03,-0.003,-0.001,-0.208,-0.047,0.065,0.288,-0.963,-2.391
2024-09-24 16:33:40.164,214979.606,0.163,0.822,-0.546,-0.023,-0.013,0.006,-0.19,0.009,0.07,0.29,-0.964,-2.388
2024-09-24 16:33:40.173,214979.616,0.163,0.823,-0.545,-0.028,0.006,0.004,-0.175,0.047,0.069,0.291,-0.966,-2.386
2024-09-24 16:33:40.183,214979.626,0.164,0.823,-0.543,-0.02,-0.012,0.009,-0.116,0.096,0.066,0.294,-0.967,-2.384
2024-09-24 16:33:40.193,214979.636,0.166,0.824,-0.542,-0.018,-0.042,0.009,-0.086,0.135,0.076,0.296,-0.968,-2.382
2024-09-24 16:33:40.203,214979.646,0.167,0.824,-0.542,-0.021,-0.016,0.019,-0.029,0.162,0.073,0.299,-0.968,-2.38
2024-09-24 16:33:40.213,214979.656,0.168,0.824,-0.541,-0.027,-0.014,0.014,0.006,0.144,0.089,0.302,-0.968,-2.379
2024-09-24 16:33:40.223,214979.666,0.17,0.823,-0.541,-0.025,0.011,0.011,0.086,0.134,0.078,0.304,-0.968,-2.377
2024-09-24 16:33:40.233,214979.676,0.171,0.823,-0.542,-0.027,0.039,0.012,0.076,0.16,0.083,0.306,-0.966,-2.376
2024-09-24 16:33:40.243,214979.686,0.173,0.823,-0.542,-0.018,0.036,0.011,-0.029,0.163,0.084,0.309,-0.966,-2.375
2024-09-24 16:33:40.253,214979.696,0.174,0.823,-0.541,-0.028,0.026,-0.001,-0.126,0.149,0.071,0.312,-0.967,-2.373
2024-09-24 16:33:40.263,214979.706,0.175,0.824,-0.539,-0.033,-0.01,-0.025,-0.178,0.153,0.058,0.315,-0.968,-2.371
2024-09-24 16:33:40.273,214979.716,0.177,0.825,-0.537,-0.023,-0.053,-0.028,-0.197,0.162,0.053,0.318,-0.97,-2.369
2024-09-24 16:33:40.283,214979.726,0.178,0.826,-0.536,-0.015,-0.051,-0.014,-0.182,0.151,0.041,0.321,-0.971,-2.367
2024-09-24 16:33:40.293,214979.736,0.179,0.826,-0.534,-0.02,-0.013,-0.005,-0.157,0.115,0.02,0.323,-0.973,-2.365
2024-09-24 16:33:40.303,214979.746,0.179,0.827,-0.533,-0.017,0.007,-0.003,-0.1,0.06,-0.001,0.325,-0.974,-2.364
2024-09-24 16:33:40.313,214979.756,0.179,0.827,-0.532,-0.011,0.015,-0.001,-0.008,0.017,-0.03,0.325,-0.975,-2.364
2024-09-24 16:33:40.323,214979.766,0.179,0.827,-0.532,-0.003,0.014,0.003,0.078,-0.01,-0.048,0.324,-0.974,-2.364
2024-09-24 16:33:40.333,214979.776,0.178,0.827,-0.534,0.003,0.035,0.017,0.173,-0.046,-0.08,0.323,-0.973,-2.366
2024-09-24 16:33:40.343,214979.786,0.177,0.826,-0.535,-0.003,0.064,0.023,0.266,-0.076,-0.113,0.32,-0.972,-2.368
2024-09-24 16:33:40.353,214979.796,0.176,0.824,-0.538,-0.002,0.052,0.023,0.334,-0.103,-0.137,0.316,-0.969,-2.372
2024-09-24 16:33:40.363,214979.806,0.174,0.823,-0.541,0.003,0.028,0.026,0.378,-0.134,-0.157,0.311,-0.966,-2.376
2024-09-24 16:33:40.373,214979.816,0.172,0.821,-0.545,-0.001,0.031,0.027,0.431,-0.151,-0.158,0.305,-0.963,-2.38
2024-09-24 16:33:40.383,214979.825,0.17,0.819,-0.549,-0.004,0.028,0.018,0.472,-0.167,-0.158,0.3,-0.959,-2.385
2024-09-24 16:33:40.393,214979.835,0.168,0.816,-0.553,-0.003,0.017,0.022,0.518,-0.062,-0.134,0.294,-0.955,-2.389
2024-09-24 16:33:40.403,214979.845,0.166,0.814,-0.557,-0.008,0.021,0.023,0.312,-0.046,-0.072,0.291,-0.951,-2.393
2024-09-24 16:33:40.413,214979.855,0.166,0.813,-0.559,-0.017,0.013,0.023,0.226,-0.059,-0.063,0.288,-0.949,-2.394
2024-09-24 16:33:40.423,214979.865,0.165,0.812,-0.561,-0.064,0.019,-0.035,0.202,-0.049,-0.046,0.286,-0.947,-2.396
2024-09-24 16:33:40.433,214979.875,0.164,0.811,-0.562,-0.023,-0.054,-0.017,0.155,-0.032,-0.012,0.284,-0.945,-2.396
2024-09-24 16:33:40.443,214979.885,0.164,0.81,-0.564,-0.008,-0.123,-0.001,0.209,-0.017,-0.014,0.283,-0.944,-2.397
2024-09-24 16:33:40.453,214979.895,0.164,0.808,-0.565,-0.038,0.047,0.0,0.238,-0.02,0.001,0.282,-0.941,-2.397
2024-09-24 16:33:40.463,214979.905,0.164,0.807,-0.567,-0.026,0.046,0.008,0.252,-0.006,0.001,0.281,-0.939,-2.398
2024-09-24 16:33:40.473,214979.915,0.164,0.805,-0.569,-0.011,0.008,0.016,0.247,0.015,0.022,0.28,-0.936,-2.399
2024-09-24 16:33:40.483,214979.925,0.164,0.804,-0.571,-0.012,0.015,0.017,0.134,0.055,0.067,0.28,-0.934,-2.398
2024-09-24 16:33:40.493,214979.935,0.165,0.804,-0.572,-0.028,0.02,-0.003,0.07,0.051,0.056,0.281,-0.933,-2.397
2024-09-24 16:33:40.503,214979.945,0.166,0.803,-0.572,-0.033,0.01,-0.007,0.005,0.089,0.052,0.283,-0.933,-2.396
2024-09-24 16:33:40.513,214979.955,0.167,0.803,-0.572,-0.03,-0.049,-0.024,-0.056,0.137,0.072,0.284,-0.933,-2.395
2024-09-24 16:33:40.523,214979.965,0.168,0.803,-0.571,-0.031,-0.024,-0.026,-0.087,0.119,0.086,0.286,-0.933,-2.393
2024-09-24 16:33:40.533,214979.975,0.169,0.804,-0.57,-0.038,-0.024,0.002,-0.09,0.055,0.098,0.289,-0.934,-2.39
2024-09-24 16:33:40.543,214979.985,0.171,0.804,-0.569,-0.031,-0.08,-0.004,-0.063,0.104,0.08,0.291,-0.934,-2.388
2024-09-24 16:33:40.553,214979.995,0.172,0.804,-0.569,-0.019,-0.015,-0.005,-0.088,0.064,0.144,0.294,-0.935,-2.385
2024-09-24 16:33:40.563,214980.005,0.173,0.805,-0.568,-0.014,0.002,0.019,-0.018,0.088,0.113,0.296,-0.935,-2.382
2024-09-24 16:33:40.573,214980.015,0.175,0.804,-0.568,-0.009,-0.017,0.008,-0.035,0.149,0.127,0.299,-0.935,-2.38
2024-09-24 16:33:40.583,214980.025,0.177,0.805,-0.567,-0.003,-0.015,0.032,-0.105,0.18,0.162,0.303,-0.935,-2.377
2024-09-24 16:33:40.593,214980.035,0.18,0.805,-0.565,-0.027,-0.027,0.011,-0.157,0.196,0.207,0.308,-0.936,-2.373
2024-09-24 16:33:40.603,214980.045,0.182,0.806,-0.564,-0.053,-0.016,-0.021,-0.138,0.21,0.215,0.313,-0.937,-2.368
2024-09-24 16:33:40.612,214980.055,0.185,0.806,-0.562,-0.048,-0.004,-0.022,-0.106,0.253,0.225,0.318,-0.937,-2.364
2024-09-24 16:33:40.623,214980.065,0.189,0.806,-0.561,-0.034,0.007,0.0,-0.217,0.276,0.226,0.325,-0.938,-2.359
2024-09-24 16:33:40.633,214980.075,0.19,0.808,-0.558,-0.035,0.025,-0.005,-0.585,-0.066,-0.211,0.329,-0.941,-2.355
2024-09-24 16:33:40.643,214980.085,0.189,0.812,-0.553,-0.05,0.054,-0.039,-0.623,-0.099,-0.059,0.329,-0.947,-2.354
2024-09-24 16:33:40.653,214980.095,0.187,0.816,-0.547,-0.086,-0.031,-0.048,-0.673,-0.075,-0.09,0.33,-0.954,-2.352
2024-09-24 16:33:40.663,214980.105,0.186,0.819,-0.543,-0.127,-0.085,-0.043,-0.534,-0.085,-0.096,0.331,-0.96,-2.35
2024-09-24 16:33:40.672,214980.115,0.185,0.822,-0.539,-0.07,0.043,-0.024,-0.476,-0.073,-0.092,0.331,-0.965,-2.348
2024-09-24 16:33:40.682,214980.125,0.184,0.825,-0.535,-0.093,0.041,-0.008,-0.454,-0.116,-0.134,0.331,-0.969,-2.347
2024-09-24 16:33:40.692,214980.135,0.182,0.827,-0.532,-0.106,0.082,0.018,-0.415,-0.145,-0.109,0.33,-0.974,-2.346
2024-09-24 16:33:40.703,214980.145,0.18,0.829,-0.529,-0.103,0.051,0.035,-0.34,-0.164,-0.107,0.328,-0.978,-2.345
2024-09-24 16:33:40.713,214980.155,0.179,0.831,-0.527,-0.066,-0.013,0.049,-0.232,-0.141,-0.081,0.327,-0.981,-2.345
2024-09-24 16:33:40.723,214980.165,0.177,0.832,-0.526,-0.045,0.012,0.049,-0.144,-0.138,-0.078,0.325,-0.983,-2.345
2024-09-24 16:33:40.732,214980.175,0.176,0.833,-0.525,-0.04,0.051,0.045,-0.085,-0.128,-0.063,0.324,-0.984,-2.345
2024-09-24 16:33:40.742,214980.185,0.175,0.833,-0.524,-0.025,0.031,0.039,-0.074,-0.109,-0.051,0.322,-0.985,-2.346
2024-09-24 16:33:40.752,214980.195,0.174,0.834,-0.524,-0.002,-0.005,0.028,-0.036,-0.067,-0.012,0.321,-0.986,-2.346
2024-09-24 16:33:40.762,214980.205,0.174,0.834,-0.524,0.012,-0.019,0.016,-0.087,-0.049,-0.035,0.32,-0.986,-2.346
2024-09-24 16:33:40.772,214980.215,0.173,0.835,-0.523,0.026,-0.021,-0.002,-0.102,-0.037,-0.025,0.32,-0.987,-2.346
2024-09-24 16:33:40.782,214980.225,0.173,0.835,-0.522,0.026,-0.014,0.002,-0.132,-0.027,-0.02,0.32,-0.988,-2.345
2024-09-24 16:33:40.792,214980.235,0.173,0.836,-0.521,0.023,-0.043,0.007,-0.125,-0.026,-0.006,0.32,-0.99,-2.345
2024-09-24 16:33:40.802,214980.245,0.173,0.836,-0.52,0.035,-0.073,0.012,-0.115,-0.023,0.025,0.32,-0.991,-2.344
2024-09-24 16:33:40.812,214980.255,0.173,0.837,-0.52,0.046,-0.089,0.014,0.076,0.109,0.073,0.322,-0.991,-2.343
2024-09-24 16:33:40.822,214980.265,0.174,0.836,-0.52,0.059,-0.091,0.015,-0.001,0.035,0.003,0.323,-0.99,-2.342
2024-09-24 16:33:40.832,214980.275,0.174,0.836,-0.52,0.072,-0.072,-0.007,-0.019,0.024,-0.057,0.323,-0.991,-2.343
2024-09-24 16:33:40.842,214980.285,0.174,0.836,-0.52,0.04,0.034,-0.058,0.032,0.102,0.02,0.323,-0.991,-2.343
2024-09-24 16:33:40.852,214980.295,0.175,0.836,-0.52,0.024,0.117,-0.039,0.072,0.098,-0.008,0.324,-0.99,-2.343
2024-09-24 16:33:40.862,214980.305,0.175,0.836,-0.52,0.052,0.034,-0.032,0.053,0.101,-0.054,0.324,-0.99,-2.344
2024-09-24 16:33:40.872,214980.315,0.175,0.836,-0.521,0.056,-0.024,-0.026,0.032,0.077,-0.066,0.324,-0.989,-2.345
2024-09-24 16:33:40.882,214980.325,0.174,0.836,-0.521,0.009,-0.018,-0.012,0.043,0.067,-0.084,0.323,-0.989,-2.347
2024-09-24 16:33:40.892,214980.335,0.174,0.835,-0.521,-0.006,-0.012,-0.012,0.088,0.062,-0.086,0.322,-0.989,-2.348
2024-09-24 16:33:40.902,214980.345,0.174,0.835,-0.522,-0.002,-0.003,-0.005,0.13,0.053,-0.073,0.321,-0.988,-2.35
2024-09-24 16:33:40.912,214980.355,0.174,0.834,-0.523,-0.014,0.019,0.007,0.18,0.029,-0.054,0.32,-0.987,-2.352
2024-09-24 16:33:40.922,214980.365,0.173,0.833,-0.525,-0.016,0.027,0.008,0.24,0.003,-0.043,0.319,-0.985,-2.353
2024-09-24 16:33:40.932,214980.375,0.173,0.832,-0.527,-0.007,0.021,0.007,0.292,-0.034,-0.024,0.317,-0.983,-2.355
2024-09-24 16:33:40.942,214980.385,0.172,0.83,-0.53,-0.006,0.027,0.013,0.354,-0.064,-0.018,0.315,-0.98,-2.357
2024-09-24 16:33:40.952,214980.395,0.172,0.828,-0.533,-0.007,0.043,0.012,0.408,-0.089,-0.021,0.312,-0.976,-2.359
2024-09-24 16:33:40.962,214980.405,0.171,0.826,-0.537,-0.003,0.043,0.017,0.455,-0.12,-0.027,0.309,-0.972,-2.362
2024-09-24 16:33:40.972,214980.415,0.17,0.824,-0.541,-0.007,0.027,0.022,0.495,-0.166,-0.035,0.305,-0.968,-2.364
2024-09-24 16:33:40.982,214980.424,0.169,0.821,-0.546,-0.006,0.023,0.019,0.532,-0.213,-0.043,0.3,-0.963,-2.367
2024-09-24 16:33:40.992,214980.434,0.167,0.818,-0.55,-0.0,0.023,0.016,0.582,-0.142,-0.075,0.295,-0.958,-2.371
2024-09-24 16:33:41.002,214980.444,0.166,0.815,-0.554,0.005,0.024,0.013,0.338,-0.136,-0.01,0.291,-0.954,-2.374
2024-09-24 16:33:41.012,214980.454,0.165,0.814,-0.557,-0.009,0.025,0.025,0.257,-0.177,-0.006,0.288,-0.951,-2.375
2024-09-24 16:33:41.022,214980.464,0.164,0.813,-0.559,-0.047,0.03,-0.029,0.166,-0.164,-0.026,0.286,-0.949,-2.376
2024-09-24 16:33:41.032,214980.474,0.163,0.812,-0.56,0.01,-0.056,-0.028,0.068,-0.148,0.008,0.283,-0.948,-2.377
2024-09-24 16:33:41.042,214980.484,0.162,0.812,-0.561,-0.019,-0.114,-0.008,-0.029,-0.158,0.043,0.282,-0.948,-2.376
2024-09-24 16:33:41.052,214980.494,0.163,0.812,-0.561,-0.027,0.009,-0.019,0.08,-0.038,0.267,0.282,-0.947,-2.374
2024-09-24 16:33:41.062,214980.504,0.164,0.811,-0.561,-0.005,0.001,-0.025,-0.007,-0.068,0.135,0.284,-0.946,-2.371
2024-09-24 16:33:41.072,214980.514,0.165,0.811,-0.562,0.011,-0.029,-0.045,0.029,-0.06,0.145,0.285,-0.946,-2.368
2024-09-24 16:33:41.082,214980.524,0.165,0.811,-0.561,0.003,0.022,-0.04,-0.184,-0.128,0.087,0.286,-0.946,-2.366
2024-09-24 16:33:41.092,214980.534,0.165,0.812,-0.56,-0.038,-0.015,-0.017,-0.315,-0.126,0.094,0.287,-0.948,-2.363
2024-09-24 16:33:41.102,214980.544,0.165,0.814,-0.557,-0.027,-0.045,-0.018,-0.34,-0.106,0.084,0.288,-0.951,-2.36
2024-09-24 16:33:41.112,214980.554,0.165,0.816,-0.554,-0.026,-0.058,-0.005,-0.373,-0.014,0.052,0.29,-0.954,-2.357
2024-09-24 16:33:41.122,214980.564,0.166,0.817,-0.552,-0.03,-0.028,0.008,-0.27,0.005,0.055,0.292,-0.957,-2.355
2024-09-24 16:33:41.132,214980.574,0.166,0.819,-0.55,-0.047,0.0,0.024,-0.21,0.064,0.04,0.294,-0.959,-2.353
2024-09-24 16:33:41.142,214980.584,0.167,0.82,-0.548,-0.04,-0.036,0.028,-0.323,0.08,0.006,0.296,-0.961,-2.351
2024-09-24 16:33:41.152,214980.594,0.167,0.821,-0.545,-0.028,-0.051,0.071,-0.086,0.08,-0.068,0.297,-0.964,-2.35
2024-09-24 16:33:41.162,214980.604,0.168,0.822,-0.545,-0.045,-0.08,0.07,-0.087,0.179,0.04,0.299,-0.964,-2.351
2024-09-24 16:33:41.171,214980.614,0.169,0.822,-0.544,-0.054,-0.031,0.029,-0.046,0.183,0.086,0.302,-0.965,-2.349
2024-09-24 16:33:41.182,214980.624,0.171,0.822,-0.543,-0.071,0.147,-0.036,-0.053,0.168,0.013,0.304,-0.965,-2.348
2024-09-24 16:33:41.192,214980.634,0.172,0.823,-0.542,-0.024,0.107,-0.007,-0.202,0.187,0.01,0.307,-0.966,-2.347
2024-09-24 16:33:41.202,214980.644,0.173,0.824,-0.539,-0.011,-0.072,0.003,-0.292,0.166,0.045,0.31,-0.969,-2.346
2024-09-24 16:33:41.212,214980.654,0.174,0.826,-0.537,-0.032,-0.04,-0.021,-0.331,0.143,0.026,0.313,-0.972,-2.343
2024-09-24 16:33:41.222,214980.664,0.175,0.827,-0.534,-0.015,-0.033,-0.053,-0.308,0.139,-0.002,0.316,-0.975,-2.341
2024-09-24 16:33:41.232,214980.674,0.175,0.829,-0.531,0.009,-0.035,-0.031,-0.226,0.117,-0.026,0.319,-0.977,-2.34
2024-09-24 16:33:41.241,214980.684,0.175,0.83,-0.529,-0.008,0.006,0.001,-0.129,0.061,-0.051,0.32,-0.979,-2.34
2024-09-24 16:33:41.251,214980.694,0.175,0.83,-0.529,-0.01,0.015,0.011,-0.011,0.02,-0.058,0.32,-0.98,-2.34
2024-09-24 16:33:41.261,214980.704,0.175,0.83,-0.529,0.002,0.034,0.015,0.136,-0.014,-0.065,0.319,-0.98,-2.341
2024-09-24 16:33:41.271,214980.714,0.174,0.829,-0.531,0.005,0.057,0.02,0.305,-0.05,-0.083,0.317,-0.978,-2.344
2024-09-24 16:33:41.282,214980.724,0.173,0.827,-0.535,-0.002,0.067,0.032,0.461,-0.106,-0.116,0.313,-0.974,-2.347
2024-09-24 16:33:41.291,214980.734,0.171,0.825,-0.539,0.002,0.078,0.04,0.606,-0.161,-0.133,0.307,-0.97,-2.352
2024-09-24 16:33:41.302,214980.744,0.169,0.821,-0.545,0.01,0.075,0.044,0.723,-0.178,-0.153,0.301,-0.964,-2.358
2024-09-24 16:33:41.311,214980.754,0.167,0.817,-0.552,0.012,0.063,0.043,0.833,-0.049,-0.172,0.294,-0.957,-2.365
2024-09-24 16:33:41.321,214980.764,0.166,0.814,-0.557,0.002,0.053,0.044,0.486,-0.009,-0.076,0.289,-0.951,-2.37
2024-09-24 16:33:41.331,214980.774,0.165,0.812,-0.56,-0.026,0.04,0.048,0.34,-0.021,-0.029,0.287,-0.947,-2.372
2024-09-24 16:33:41.341,214980.784,0.165,0.81,-0.563,-0.076,0.027,-0.041,0.189,0.005,-0.026,0.285,-0.944,-2.374
2024-09-24 16:33:41.352,214980.794,0.165,0.809,-0.564,-0.008,-0.111,-0.048,0.063,0.021,0.036,0.285,-0.943,-2.374
2024-09-24 16:33:41.361,214980.804,0.165,0.809,-0.564,-0.04,-0.178,-0.017,0.048,0.017,0.039,0.285,-0.943,-2.373
2024-09-24 16:33:41.370,214980.814,0.166,0.809,-0.564,-0.038,0.022,-0.02,0.01,-0.003,0.027,0.286,-0.942,-2.373
2024-09-24 16:33:41.380,214980.824,0.166,0.809,-0.564,-0.013,0.01,-0.016,0.023,-0.013,0.028,0.286,-0.942,-2.372
2024-09-24 16:33:41.391,214980.834,0.166,0.808,-0.565,-0.01,-0.022,-0.006,0.077,0.06,0.062,0.286,-0.941,-2.371
2024-09-24 16:33:41.401,214980.844,0.167,0.808,-0.565,-0.011,0.001,0.006,0.102,0.091,0.123,0.288,-0.94,-2.37
2024-09-24 16:33:41.411,214980.854,0.169,0.807,-0.566,-0.007,0.02,-0.001,0.094,0.05,0.086,0.29,-0.939,-2.368
2024-09-24 16:33:41.421,214980.864,0.169,0.807,-0.566,0.003,0.043,-0.021,0.012,0.025,0.051,0.291,-0.938,-2.367
2024-09-24 16:33:41.431,214980.874,0.17,0.806,-0.566,-0.001,0.024,-0.023,0.012,-0.003,0.04,0.292,-0.938,-2.366
2024-09-24 16:33:41.441,214980.884,0.17,0.806,-0.566,-0.014,-0.017,-0.0,0.029,0.066,0.044,0.292,-0.938,-2.365
2024-09-24 16:33:41.451,214980.894,0.171,0.806,-0.567,-0.002,-0.015,0.021,0.088,-0.014,0.025,0.293,-0.937,-2.365
2024-09-24 16:33:41.461,214980.904,0.171,0.806,-0.567,-0.006,-0.015,0.02,-0.033,0.078,0.018,0.293,-0.937,-2.365
2024-09-24 16:33:41.471,214980.914,0.172,0.806,-0.567,-0.015,-0.026,0.009,-0.014,0.01,0.046,0.294,-0.937,-2.363
2024-09-24 16:33:41.482,214980.924,0.172,0.806,-0.566,-0.034,-0.023,0.05,-0.158,0.049,0.037,0.295,-0.938,-2.362
2024-09-24 16:33:41.491,214980.934,0.172,0.807,-0.565,-0.04,-0.092,0.026,-0.087,0.082,-0.002,0.296,-0.938,-2.362
2024-09-24 16:33:41.500,214980.944,0.174,0.808,-0.564,-0.051,-0.079,0.05,-0.305,0.1,0.219,0.299,-0.94,-2.358
2024-09-24 16:33:41.510,214980.954,0.175,0.809,-0.56,-0.137,-0.102,-0.023,-0.444,0.008,0.04,0.303,-0.943,-2.354
2024-09-24 16:33:41.521,214980.964,0.176,0.812,-0.557,-0.077,0.045,-0.084,-0.395,0.077,0.129,0.306,-0.947,-2.35
2024-09-24 16:33:41.530,214980.974,0.178,0.814,-0.553,-0.068,0.027,-0.031,-0.47,0.163,0.156,0.311,-0.951,-2.345
2024-09-24 16:33:41.541,214980.984,0.18,0.816,-0.549,-0.117,-0.041,0.003,-0.6,0.179,0.074,0.317,-0.955,-2.34
2024-09-24 16:33:41.551,214980.994,0.182,0.82,-0.543,-0.071,0.06,-0.019,-0.618,0.121,0.095,0.323,-0.961,-2.335
2024-09-24 16:33:41.561,214981.004,0.182,0.823,-0.538,-0.084,0.039,-0.052,-0.664,-0.026,-0.026,0.326,-0.967,-2.331
2024-09-24 16:33:41.571,214981.013,0.183,0.826,-0.534,-0.094,-0.061,-0.032,-0.385,-0.003,-0.007,0.33,-0.972,-2.327
2024-09-24 16:33:41.581,214981.023,0.183,0.827,-0.531,-0.078,-0.002,-0.003,-0.178,-0.043,0.035,0.331,-0.974,-2.326
2024-09-24 16:33:41.591,214981.033,0.182,0.828,-0.53,-0.082,0.094,0.026,-0.056,-0.065,-0.053,0.331,-0.975,-2.325
2024-09-24 16:33:41.601,214981.043,0.181,0.828,-0.53,-0.083,0.073,0.007,0.002,-0.076,-0.048,0.329,-0.976,-2.326
2024-09-24 16:33:41.611,214981.053,0.18,0.828,-0.53,-0.072,0.167,0.016,-0.023,-0.112,-0.071,0.328,-0.976,-2.327
2024-09-24 16:33:41.621,214981.063,0.179,0.829,-0.53,-0.07,0.125,0.02,-0.089,-0.122,-0.072,0.326,-0.977,-2.328
2024-09-24 16:33:41.631,214981.073,0.178,0.829,-0.529,-0.047,0.052,0.043,-0.12,-0.125,-0.065,0.324,-0.978,-2.328
2024-09-24 16:33:41.641,214981.083,0.177,0.83,-0.529,-0.041,0.018,0.06,-0.117,-0.124,-0.05,0.323,-0.979,-2.328
2024-09-24 16:33:41.651,214981.093,0.176,0.831,-0.528,-0.024,-0.011,0.06,-0.079,-0.122,-0.044,0.321,-0.98,-2.329
2024-09-24 16:33:41.661,214981.103,0.175,0.831,-0.528,-0.009,-0.022,0.042,-0.064,-0.126,-0.053,0.32,-0.981,-2.329
2024-09-24 16:33:41.671,214981.113,0.174,0.832,-0.528,0.002,-0.023,0.028,-0.027,-0.122,-0.056,0.318,-0.982,-2.33
2024-09-24 16:33:41.681,214981.123,0.172,0.832,-0.528,0.01,-0.029,0.03,-0.002,-0.107,-0.059,0.316,-0.982,-2.331
2024-09-24 16:33:41.691,214981.133,0.171,0.832,-0.528,0.021,-0.039,0.034,-0.006,-0.091,-0.061,0.314,-0.982,-2.332
2024-09-24 16:33:41.701,214981.143,0.17,0.832,-0.528,0.027,-0.046,0.032,-0.009,-0.079,-0.065,0.312,-0.983,-2.333
2024-09-24 16:33:41.711,214981.153,0.17,0.832,-0.528,0.031,-0.058,0.024,0.018,-0.059,-0.052,0.311,-0.983,-2.334
2024-09-24 16:33:41.721,214981.163,0.169,0.832,-0.529,0.04,-0.065,0.013,0.094,-0.018,-0.028,0.309,-0.983,-2.335
2024-09-24 16:33:41.731,214981.173,0.169,0.831,-0.529,0.049,-0.053,-0.009,0.104,0.035,0.021,0.309,-0.982,-2.336
2024-09-24 16:33:41.741,214981.183,0.17,0.831,-0.53,0.052,-0.03,-0.03,0.13,0.063,0.056,0.31,-0.98,-2.336
2024-09-24 16:33:41.751,214981.193,0.171,0.83,-0.531,0.056,-0.007,-0.031,0.11,0.088,0.056,0.311,-0.979,-2.336
2024-09-24 16:33:41.761,214981.203,0.171,0.83,-0.532,0.07,-0.019,-0.035,0.014,0.093,0.0,0.312,-0.978,-2.335
2024-09-24 16:33:41.771,214981.213,0.172,0.83,-0.531,0.077,-0.045,-0.031,-0.017,0.087,-0.025,0.312,-0.978,-2.335
2024-09-24 16:33:41.781,214981.223,0.172,0.83,-0.531,0.051,-0.045,-0.017,-0.008,0.097,-0.036,0.313,-0.979,-2.336
2024-09-24 16:33:41.791,214981.233,0.172,0.83,-0.531,0.038,-0.03,-0.029,-0.018,0.104,-0.045,0.314,-0.979,-2.336
2024-09-24 16:33:41.801,214981.243,0.172,0.83,-0.53,0.034,0.007,-0.032,-0.018,0.105,-0.054,0.314,-0.979,-2.337
2024-09-24 16:33:41.811,214981.253,0.172,0.83,-0.53,0.012,0.016,-0.019,-0.011,0.087,-0.054,0.314,-0.979,-2.338
2024-09-24 16:33:41.821,214981.263,0.172,0.83,-0.53,-0.003,0.005,-0.012,0.026,0.066,-0.049,0.314,-0.979,-2.339
2024-09-24 16:33:41.831,214981.273,0.172,0.83,-0.531,-0.011,0.005,-0.002,0.086,0.032,-0.05,0.314,-0.979,-2.34
2024-09-24 16:33:41.841,214981.283,0.172,0.829,-0.532,-0.023,0.014,0.004,0.184,-0.009,-0.055,0.313,-0.978,-2.341
2024-09-24 16:33:41.851,214981.293,0.172,0.828,-0.534,-0.028,0.028,0.007,0.3,-0.029,-0.051,0.311,-0.976,-2.343
2024-09-24 16:33:41.860,214981.303,0.171,0.826,-0.537,-0.024,0.051,0.005,0.398,-0.049,-0.037,0.309,-0.972,-2.345
2024-09-24 16:33:41.870,214981.313,0.171,0.824,-0.54,-0.024,0.071,0.007,0.466,-0.061,-0.035,0.306,-0.968,-2.348
2024-09-24 16:33:41.880,214981.323,0.17,0.821,-0.545,-0.028,0.068,0.015,0.524,-0.072,-0.029,0.303,-0.964,-2.351
2024-09-24 16:33:41.889,214981.333,0.17,0.819,-0.549,-0.022,0.052,0.019,0.499,0.01,0.027,0.3,-0.959,-2.354
2024-09-24 16:33:41.900,214981.343,0.17,0.816,-0.552,-0.022,0.029,0.021,0.375,-0.049,-0.009,0.298,-0.955,-2.355
2024-09-24 16:33:41.910,214981.353,0.169,0.814,-0.556,-0.024,0.013,0.029,0.401,-0.054,0.024,0.296,-0.951,-2.357
2024-09-24 16:33:41.920,214981.363,0.169,0.812,-0.559,-0.041,0.006,-0.022,0.343,-0.083,0.023,0.294,-0.947,-2.358
2024-09-24 16:33:41.930,214981.373,0.169,0.81,-0.562,-0.005,-0.029,-0.036,0.331,-0.093,0.031,0.292,-0.944,-2.359
2024-09-24 16:33:41.940,214981.383,0.169,0.808,-0.564,-0.006,-0.046,0.003,0.31,-0.103,0.047,0.29,-0.941,-2.359
2024-09-24 16:33:41.950,214981.393,0.168,0.806,-0.567,-0.016,-0.001,0.004,0.234,-0.121,0.056,0.289,-0.938,-2.359
2024-09-24 16:33:41.960,214981.403,0.168,0.805,-0.569,-0.009,0.024,-0.015,0.182,-0.154,0.048,0.287,-0.936,-2.359
2024-09-24 16:33:41.970,214981.413,0.168,0.805,-0.57,-0.002,-0.007,-0.021,0.045,-0.114,0.031,0.286,-0.935,-2.359
2024-09-24 16:33:41.981,214981.423,0.167,0.805,-0.57,0.004,-0.009,-0.027,-0.067,-0.141,0.05,0.286,-0.935,-2.357
2024-09-24 16:33:41.990,214981.433,0.167,0.805,-0.569,-0.01,0.014,-0.049,-0.2,-0.131,0.023,0.285,-0.936,-2.356
2024-09-24 16:33:42.000,214981.443,0.166,0.807,-0.567,-0.018,-0.029,-0.052,-0.278,-0.168,0.02,0.285,-0.939,-2.354
2024-09-24 16:33:42.010,214981.453,0.166,0.808,-0.566,-0.005,-0.03,-0.008,-0.14,-0.135,0.064,0.285,-0.941,-2.352
2024-09-24 16:33:42.020,214981.463,0.165,0.809,-0.564,-0.034,-0.048,0.032,-0.244,-0.143,0.015,0.285,-0.942,-2.351
2024-09-24 16:33:42.030,214981.473,0.165,0.81,-0.562,-0.024,-0.073,0.029,-0.307,-0.107,0.023,0.285,-0.945,-2.349
2024-09-24 16:33:42.040,214981.483,0.164,0.812,-0.559,-0.023,-0.074,0.043,-0.391,-0.111,0.013,0.285,-0.948,-2.347
2024-09-24 16:33:42.050,214981.493,0.164,0.815,-0.557,-0.028,-0.079,0.029,-0.395,-0.064,0.02,0.286,-0.952,-2.345
2024-09-24 16:33:42.060,214981.503,0.164,0.816,-0.554,-0.028,-0.056,-0.003,-0.252,-0.012,0.042,0.288,-0.955,-2.343
2024-09-24 16:33:42.070,214981.513,0.164,0.817,-0.552,-0.036,-0.018,-0.007,-0.151,0.048,0.046,0.289,-0.957,-2.341
2024-09-24 16:33:42.080,214981.523,0.165,0.818,-0.551,-0.04,0.05,0.017,-0.152,0.101,0.054,0.291,-0.958,-2.34
2024-09-24 16:33:42.090,214981.533,0.166,0.819,-0.549,-0.041,0.052,0.017,-0.179,0.146,0.04,0.294,-0.959,-2.338
2024-09-24 16:33:42.100,214981.543,0.167,0.82,-0.548,-0.044,-0.0,0.026,-0.21,0.161,0.042,0.297,-0.961,-2.337
2024-09-24 16:33:42.110,214981.553,0.169,0.821,-0.545,-0.046,-0.014,0.014,-0.241,0.165,0.037,0.3,-0.963,-2.335
2024-09-24 16:33:42.121,214981.563,0.17,0.822,-0.543,-0.046,-0.029,-0.01,-0.279,0.167,0.039,0.303,-0.966,-2.333
2024-09-24 16:33:42.130,214981.573,0.171,0.824,-0.541,-0.035,-0.034,-0.018,-0.248,0.176,0.049,0.306,-0.968,-2.331
2024-09-24 16:33:42.140,214981.583,0.172,0.825,-0.538,-0.026,-0.01,-0.018,-0.23,0.166,0.027,0.31,-0.97,-2.329
2024-09-24 16:33:42.150,214981.593,0.173,0.826,-0.536,-0.022,0.01,-0.018,-0.176,0.114,-0.007,0.312,-0.972,-2.328
2024-09-24 16:33:42.160,214981.602,0.173,0.827,-0.535,-0.011,0.028,-0.009,-0.071,0.076,-0.019,0.313,-0.973,-2.327
2024-09-24 16:33:42.170,214981.612,0.174,0.827,-0.535,-0.003,0.033,-0.008,0.063,0.049,-0.044,0.314,-0.973,-2.328
2024-09-24 16:33:42.180,214981.622,0.173,0.826,-0.536,0.011,0.045,0.004,0.236,0.038,-0.064,0.313,-0.972,-2.329
2024-09-24 16:33:42.190,214981.632,0.173,0.825,-0.539,0.01,0.074,0.04,0.367,0.011,-0.097,0.31,-0.97,-2.332
2024-09-24 16:33:42.200,214981.642,0.172,0.823,-0.542,0.009,0.081,0.055,0.472,-0.036,-0.108,0.307,-0.966,-2.336
2024-09-24 16:33:42.210,214981.652,0.171,0.82,-0.546,0.013,0.069,0.051,0.56,-0.071,-0.103,0.303,-0.961,-2.341
2024-09-24 16:33:42.220,214981.662,0.169,0.817,-0.551,0.013,0.049,0.037,0.608,-0.106,-0.094,0.298,-0.956,-2.346
2024-09-24 16:33:42.230,214981.672,0.168,0.814,-0.557,0.014,0.041,0.018,0.635,-0.138,-0.09,0.293,-0.95,-2.35
2024-09-24 16:33:42.240,214981.682,0.166,0.81,-0.562,0.002,0.028,0.01,0.657,-0.148,-0.079,0.288,-0.944,-2.355
2024-09-24 16:33:42.250,214981.692,0.166,0.807,-0.567,-0.011,0.016,0.011,0.505,-0.038,0.02,0.285,-0.939,-2.358
2024-09-24 16:33:42.260,214981.702,0.165,0.804,-0.571,-0.019,0.02,0.011,0.372,-0.059,-0.077,0.282,-0.935,-2.36
2024-09-24 16:33:42.270,214981.712,0.165,0.803,-0.573,-0.049,0.01,-0.006,0.26,-0.05,0.016,0.28,-0.932,-2.362
2024-09-24 16:33:42.280,214981.722,0.164,0.802,-0.575,-0.067,-0.029,-0.088,0.151,-0.041,-0.027,0.279,-0.93,-2.363
2024-09-24 16:33:42.290,214981.732,0.164,0.801,-0.576,-0.018,-0.106,-0.04,0.193,-0.011,-0.009,0.277,-0.928,-2.363
2024-09-24 16:33:42.300,214981.742,0.164,0.799,-0.578,-0.031,-0.042,0.005,0.209,-0.015,0.008,0.277,-0.926,-2.364
2024-09-24 16:33:42.310,214981.752,0.164,0.798,-0.58,-0.028,0.033,0.001,0.302,-0.001,0.024,0.276,-0.924,-2.365
2024-09-24 16:33:42.320,214981.762,0.164,0.796,-0.583,-0.016,0.041,0.009,0.394,0.007,0.039,0.275,-0.92,-2.366
2024-09-24 16:33:42.330,214981.772,0.165,0.794,-0.585,-0.007,0.036,0.019,0.28,0.032,0.06,0.274,-0.917,-2.366
2024-09-24 16:33:42.340,214981.782,0.166,0.793,-0.587,-0.008,0.044,-0.0,0.132,-0.016,0.086,0.275,-0.915,-2.365
2024-09-24 16:33:42.350,214981.792,0.166,0.792,-0.588,-0.021,0.031,0.016,0.071,-0.014,0.052,0.275,-0.914,-2.364
2024-09-24 16:33:42.360,214981.802,0.166,0.792,-0.588,-0.016,-0.05,0.006,0.015,0.1,0.05,0.276,-0.913,-2.364
2024-09-24 16:33:42.370,214981.812,0.167,0.792,-0.588,-0.02,-0.002,-0.027,-0.061,-0.001,0.08,0.277,-0.913,-2.362
2024-09-24 16:33:42.380,214981.822,0.167,0.792,-0.587,-0.068,-0.026,-0.012,-0.071,0.003,-0.034,0.278,-0.914,-2.361
2024-09-24 16:33:42.389,214981.832,0.168,0.792,-0.587,-0.038,-0.124,-0.005,-0.028,0.002,0.038,0.278,-0.915,-2.361
2024-09-24 16:33:42.399,214981.842,0.168,0.792,-0.586,-0.021,-0.059,0.002,-0.024,-0.015,-0.018,0.278,-0.915,-2.36
2024-09-24 16:33:42.410,214981.852,0.167,0.792,-0.587,-0.043,0.017,0.007,-0.0,-0.006,-0.024,0.278,-0.915,-2.36
2024-09-24 16:33:42.419,214981.862,0.167,0.793,-0.586,-0.018,0.003,0.012,-0.068,0.019,0.002,0.278,-0.915,-2.36
2024-09-24 16:33:42.429,214981.872,0.167,0.793,-0.585,-0.028,-0.007,0.053,-0.159,0.054,-0.02,0.279,-0.916,-2.36
2024-09-24 16:33:42.440,214981.882,0.168,0.795,-0.583,-0.039,-0.056,0.085,-0.266,0.093,0.022,0.28,-0.918,-2.359
2024-09-24 16:33:42.449,214981.892,0.169,0.796,-0.581,-0.033,-0.061,0.056,-0.419,0.096,0.071,0.283,-0.921,-2.356
2024-09-24 16:33:42.460,214981.902,0.17,0.799,-0.577,-0.065,-0.046,0.01,-0.517,0.091,0.072,0.287,-0.926,-2.353
2024-09-24 16:33:42.470,214981.912,0.171,0.802,-0.572,-0.061,-0.08,-0.022,-0.508,0.137,0.094,0.29,-0.931,-2.349
2024-09-24 16:33:42.480,214981.922,0.173,0.805,-0.568,-0.053,-0.062,-0.027,-0.605,0.257,0.134,0.296,-0.935,-2.344
2024-09-24 16:33:42.489,214981.932,0.176,0.809,-0.562,-0.056,0.01,-0.033,-0.791,0.29,0.124,0.303,-0.942,-2.339
2024-09-24 16:33:42.499,214981.942,0.178,0.813,-0.554,-0.065,0.055,-0.05,-0.897,0.295,0.115,0.311,-0.949,-2.332
2024-09-24 16:33:42.510,214981.952,0.18,0.818,-0.546,-0.076,0.019,-0.095,-0.99,0.252,0.03,0.319,-0.958,-2.326
2024-09-24 16:33:42.520,214981.962,0.181,0.823,-0.539,-0.05,-0.03,-0.099,-0.68,0.12,-0.21,0.325,-0.966,-2.322
2024-09-24 16:33:42.529,214981.972,0.182,0.827,-0.533,-0.053,-0.011,-0.05,-0.675,0.242,0.177,0.329,-0.973,-2.319
2024-09-24 16:33:42.539,214981.982,0.183,0.829,-0.528,-0.092,0.056,-0.015,-0.38,0.072,-0.062,0.333,-0.977,-2.315
2024-09-24 16:33:42.549,214981.992,0.183,0.831,-0.525,-0.094,0.14,0.009,-0.361,0.103,0.022,0.336,-0.982,-2.313
2024-09-24 16:33:42.559,214982.002,0.184,0.833,-0.522,-0.002,0.029,0.01,-0.293,0.031,-0.001,0.338,-0.984,-2.311
2024-09-24 16:33:42.569,214982.012,0.184,0.834,-0.52,-0.096,0.088,0.061,-0.225,0.009,-0.009,0.34,-0.987,-2.309
2024-09-24 16:33:42.579,214982.022,0.184,0.835,-0.518,-0.067,0.073,0.041,-0.192,-0.01,-0.006,0.341,-0.989,-2.308
2024-09-24 16:33:42.589,214982.032,0.184,0.836,-0.516,-0.057,0.056,0.053,-0.148,-0.047,-0.01,0.341,-0.991,-2.307
2024-09-24 16:33:42.599,214982.042,0.183,0.837,-0.516,-0.056,0.048,0.057,-0.096,-0.067,0.006,0.342,-0.992,-2.307
2024-09-24 16:33:42.609,214982.052,0.183,0.837,-0.515,-0.041,0.024,0.046,-0.064,-0.086,-0.001,0.341,-0.993,-2.306
2024-09-24 16:33:42.619,214982.062,0.182,0.838,-0.515,-0.022,-0.003,0.043,-0.006,-0.096,-0.013,0.34,-0.993,-2.306
2024-09-24 16:33:42.629,214982.072,0.182,0.838,-0.515,-0.014,-0.003,0.048,0.052,-0.11,-0.021,0.339,-0.993,-2.307
2024-09-24 16:33:42.639,214982.082,0.181,0.837,-0.516,0.0,-0.001,0.026,0.092,-0.117,-0.042,0.337,-0.992,-2.308
2024-09-24 16:33:42.649,214982.092,0.18,0.837,-0.517,0.015,-0.005,0.003,0.118,-0.123,-0.061,0.335,-0.991,-2.31
2024-09-24 16:33:42.659,214982.102,0.179,0.836,-0.518,0.021,-0.013,-0.001,0.111,-0.109,-0.07,0.332,-0.99,-2.312
2024-09-24 16:33:42.669,214982.112,0.177,0.836,-0.519,0.025,-0.035,0.01,0.058,-0.108,-0.079,0.329,-0.99,-2.314
2024-09-24 16:33:42.679,214982.122,0.176,0.836,-0.52,0.029,-0.053,0.015,-0.016,-0.114,-0.084,0.327,-0.99,-2.315
2024-09-24 16:33:42.689,214982.132,0.175,0.836,-0.52,0.027,-0.074,0.012,0.04,-0.054,-0.008,0.325,-0.99,-2.316
2024-09-24 16:33:42.699,214982.142,0.175,0.836,-0.52,0.033,-0.095,0.005,0.059,-0.049,-0.038,0.324,-0.99,-2.317
2024-09-24 16:33:42.709,214982.152,0.174,0.836,-0.521,0.056,-0.097,-0.017,0.053,-0.039,-0.086,0.323,-0.989,-2.318
2024-09-24 16:33:42.719,214982.162,0.174,0.835,-0.521,0.067,-0.048,-0.026,0.066,0.014,-0.005,0.321,-0.989,-2.32
2024-09-24 16:33:42.729,214982.172,0.174,0.835,-0.522,0.034,0.02,-0.025,0.127,-0.001,0.024,0.322,-0.988,-2.32
2024-09-24 16:33:42.739,214982.182,0.174,0.834,-0.523,0.042,0.034,-0.045,0.1,0.018,-0.01,0.321,-0.987,-2.321
2024-09-24 16:33:42.749,214982.192,0.174,0.834,-0.524,0.085,0.027,-0.048,0.056,0.003,-0.011,0.321,-0.986,-2.322
2024-09-24 16:33:42.760,214982.201,0.174,0.834,-0.524,0.033,0.039,-0.019,0.047,-0.008,-0.019,0.32,-0.986,-2.322
2024-09-24 16:33:42.769,214982.211,0.174,0.833,-0.525,0.01,0.002,0.0,0.059,0.012,-0.017,0.32,-0.985,-2.323
2024-09-24 16:33:42.779,214982.221,0.174,0.833,-0.525,0.019,-0.037,0.013,0.101,0.018,-0.015,0.319,-0.984,-2.324
2024-09-24 16:33:42.789,214982.231,0.174,0.832,-0.526,-0.007,-0.013,0.021,0.133,0.014,-0.012,0.319,-0.983,-2.325
2024-09-24 16:33:42.799,214982.241,0.174,0.831,-0.528,-0.032,0.001,0.015,0.195,0.007,-0.003,0.318,-0.982,-2.326
2024-09-24 16:33:42.809,214982.251,0.174,0.83,-0.53,-0.035,0.007,0.012,0.278,0.003,0.012,0.317,-0.979,-2.327
2024-09-24 16:33:42.819,214982.261,0.174,0.829,-0.532,-0.037,0.015,0.006,0.327,-0.003,0.008,0.316,-0.977,-2.329
2024-09-24 16:33:42.829,214982.271,0.174,0.827,-0.535,-0.042,0.031,0.003,0.37,-0.025,-0.005,0.314,-0.973,-2.331
2024-09-24 16:33:42.839,214982.281,0.174,0.825,-0.538,-0.043,0.04,0.001,0.403,-0.041,-0.012,0.312,-0.97,-2.333
2024-09-24 16:33:42.849,214982.291,0.173,0.822,-0.542,-0.045,0.03,0.001,0.487,-0.055,-0.018,0.31,-0.965,-2.335
2024-09-24 16:33:42.859,214982.301,0.173,0.819,-0.546,-0.035,0.037,0.004,0.584,-0.086,-0.021,0.306,-0.96,-2.338
2024-09-24 16:33:42.869,214982.311,0.172,0.816,-0.552,-0.027,0.055,0.002,0.683,-0.115,-0.035,0.302,-0.954,-2.342
2024-09-24 16:33:42.879,214982.321,0.171,0.812,-0.558,-0.016,0.059,0.008,0.726,-0.029,0.039,0.298,-0.948,-2.345
2024-09-24 16:33:42.889,214982.331,0.172,0.809,-0.563,-0.009,0.048,0.018,0.486,-0.097,0.022,0.296,-0.942,-2.347
2024-09-24 16:33:42.899,214982.341,0.171,0.806,-0.567,-0.001,0.035,0.047,0.555,-0.071,0.002,0.293,-0.937,-2.35
2024-09-24 16:33:42.909,214982.351,0.171,0.803,-0.571,-0.021,0.033,0.016,0.435,-0.088,0.037,0.29,-0.932,-2.351
2024-09-24 16:33:42.919,214982.361,0.17,0.801,-0.574,-0.021,-0.012,-0.034,0.324,-0.09,0.01,0.288,-0.928,-2.353
2024-09-24 16:33:42.929,214982.371,0.17,0.799,-0.577,0.005,-0.041,-0.006,0.193,-0.068,0.027,0.287,-0.926,-2.353
2024-09-24 16:33:42.939,214982.381,0.17,0.798,-0.578,-0.018,-0.04,-0.009,0.064,-0.114,0.025,0.286,-0.925,-2.353
2024-09-24 16:33:42.949,214982.391,0.169,0.798,-0.578,-0.017,-0.034,-0.032,-0.069,-0.186,0.014,0.285,-0.925,-2.353
2024-09-24 16:33:42.959,214982.401,0.168,0.799,-0.577,-0.023,-0.036,-0.057,-0.106,-0.153,0.05,0.284,-0.926,-2.352
2024-09-24 16:33:42.968,214982.411,0.168,0.8,-0.576,-0.019,-0.025,-0.066,-0.225,-0.176,0.046,0.283,-0.927,-2.35
2024-09-24 16:33:42.979,214982.421,0.167,0.801,-0.575,-0.008,-0.022,-0.072,-0.243,-0.162,0.064,0.283,-0.929,-2.348
2024-09-24 16:33:42.988,214982.431,0.167,0.803,-0.573,-0.03,0.019,-0.063,-0.358,-0.119,0.033,0.284,-0.932,-2.346
2024-09-24 16:33:42.999,214982.441,0.167,0.804,-0.571,-0.042,-0.018,-0.002,-0.199,-0.091,0.05,0.284,-0.934,-2.344
2024-09-24 16:33:43.009,214982.451,0.167,0.805,-0.569,-0.028,-0.041,0.033,-0.198,-0.033,0.036,0.285,-0.936,-2.342
2024-09-24 16:33:43.019,214982.461,0.167,0.806,-0.568,-0.036,-0.02,0.043,-0.172,-0.014,0.068,0.286,-0.938,-2.34
2024-09-24 16:33:43.029,214982.471,0.167,0.807,-0.566,-0.031,-0.011,0.052,-0.233,0.05,0.04,0.288,-0.939,-2.338
2024-09-24 16:33:43.039,214982.481,0.168,0.809,-0.564,-0.026,-0.062,0.083,-0.308,0.043,0.031,0.29,-0.942,-2.337
2024-09-24 16:33:43.049,214982.491,0.169,0.81,-0.561,-0.017,-0.08,0.071,-0.287,0.098,0.067,0.292,-0.945,-2.334
2024-09-24 16:33:43.058,214982.501,0.17,0.812,-0.559,-0.042,-0.081,0.043,-0.312,0.082,0.044,0.295,-0.947,-2.332
2024-09-24 16:33:43.068,214982.511,0.171,0.813,-0.556,-0.027,-0.031,-0.006,-0.294,0.121,0.062,0.298,-0.95,-2.33
2024-09-24 16:33:43.079,214982.521,0.172,0.815,-0.553,-0.033,0.033,-0.034,-0.383,0.137,0.028,0.301,-0.953,-2.328
2024-09-24 16:33:43.088,214982.531,0.173,0.817,-0.55,-0.025,0.043,-0.047,-0.396,0.129,0.027,0.305,-0.957,-2.325
2024-09-24 16:33:43.099,214982.541,0.174,0.82,-0.546,-0.031,0.043,-0.057,-0.394,0.14,0.021,0.308,-0.961,-2.323
2024-09-24 16:33:43.108,214982.551,0.175,0.821,-0.543,-0.024,-0.031,-0.047,-0.334,0.153,0.014,0.311,-0.964,-2.321
2024-09-24 16:33:43.118,214982.561,0.176,0.823,-0.54,-0.006,-0.039,-0.002,-0.289,0.158,0.022,0.314,-0.967,-2.319
2024-09-24 16:33:43.128,214982.571,0.177,0.824,-0.538,-0.018,-0.011,0.021,-0.211,0.144,0.017,0.317,-0.969,-2.317
2024-09-24 16:33:43.138,214982.581,0.177,0.825,-0.536,-0.021,-0.001,0.036,-0.11,0.12,0.015,0.32,-0.971,-2.316
2024-09-24 16:33:43.149,214982.591,0.178,0.826,-0.536,-0.019,0.004,0.043,0.004,0.081,0.005,0.321,-0.971,-2.316
2024-09-24 16:33:43.158,214982.601,0.178,0.825,-0.536,-0.02,0.017,0.023,0.123,0.048,-0.012,0.321,-0.971,-2.316
2024-09-24 16:33:43.168,214982.611,0.178,0.824,-0.538,-0.018,0.044,0.001,0.269,0.008,-0.03,0.32,-0.969,-2.318
2024-09-24 16:33:43.178,214982.621,0.178,0.822,-0.54,-0.012,0.08,-0.004,0.386,-0.027,-0.053,0.318,-0.966,-2.321
2024-09-24 16:33:43.188,214982.631,0.177,0.82,-0.544,-0.003,0.1,0.006,0.491,-0.055,-0.072,0.315,-0.962,-2.324
2024-09-24 16:33:43.198,214982.641,0.176,0.817,-0.548,0.005,0.095,0.033,0.558,-0.071,-0.091,0.311,-0.957,-2.328
2024-09-24 16:33:43.208,214982.651,0.175,0.814,-0.553,0.011,0.064,0.047,0.614,-0.091,-0.089,0.306,-0.952,-2.333
2024-09-24 16:33:43.218,214982.661,0.174,0.811,-0.559,0.011,0.035,0.041,0.683,-0.102,-0.092,0.301,-0.946,-2.337
2024-09-24 16:33:43.228,214982.671,0.173,0.807,-0.564,0.008,0.024,0.035,0.662,0.031,-0.016,0.297,-0.939,-2.342
2024-09-24 16:33:43.238,214982.681,0.173,0.804,-0.568,0.001,0.026,0.032,0.316,-0.069,-0.038,0.295,-0.935,-2.344
2024-09-24 16:33:43.248,214982.691,0.172,0.803,-0.571,-0.01,0.003,0.031,0.343,-0.008,-0.052,0.293,-0.932,-2.346
2024-09-24 16:33:43.258,214982.701,0.172,0.801,-0.573,-0.053,-0.037,-0.036,0.233,-0.026,-0.017,0.291,-0.929,-2.348
2024-09-24 16:33:43.268,214982.711,0.171,0.8,-0.575,-0.061,-0.067,-0.091,0.202,-0.039,-0.032,0.29,-0.927,-2.349
2024-09-24 16:33:43.278,214982.721,0.171,0.799,-0.577,-0.038,-0.068,-0.035,0.24,-0.033,-0.014,0.288,-0.925,-2.351
2024-09-24 16:33:43.288,214982.731,0.171,0.797,-0.579,-0.037,-0.025,-0.002,0.272,-0.06,0.001,0.287,-0.923,-2.352
2024-09-24 16:33:43.298,214982.741,0.17,0.796,-0.581,-0.023,0.019,-0.008,0.31,-0.07,0.004,0.285,-0.92,-2.353
2024-09-24 16:33:43.308,214982.751,0.17,0.794,-0.584,-0.016,0.03,0.005,0.295,-0.053,0.018,0.283,-0.917,-2.354
2024-09-24 16:33:43.318,214982.761,0.17,0.792,-0.586,-0.004,0.024,0.019,0.206,-0.069,0.031,0.282,-0.915,-2.355
2024-09-24 16:33:43.328,214982.771,0.17,0.791,-0.587,-0.004,0.018,0.015,0.102,-0.035,0.02,0.281,-0.913,-2.355
2024-09-24 16:33:43.338,214982.781,0.169,0.791,-0.587,-0.006,0.008,0.007,-0.073,-0.057,-0.01,0.281,-0.913,-2.355
2024-09-24 16:33:43.348,214982.79,0.169,0.792,-0.586,-0.007,0.005,-0.036,-0.181,-0.066,-0.019,0.281,-0.915,-2.354
2024-09-24 16:33:43.358,214982.8,0.168,0.793,-0.585,-0.027,-0.011,-0.064,-0.124,-0.06,-0.051,0.28,-0.916,-2.353
2024-09-24 16:33:43.368,214982.81,0.168,0.794,-0.584,-0.017,-0.038,-0.054,-0.165,-0.016,0.002,0.28,-0.917,-2.353
2024-09-24 16:33:43.378,214982.82,0.168,0.795,-0.583,-0.006,-0.017,-0.026,-0.04,-0.081,-0.032,0.28,-0.919,-2.352
2024-09-24 16:33:43.388,214982.83,0.167,0.795,-0.583,-0.014,-0.042,0.031,0.017,0.032,-0.015,0.279,-0.919,-2.352
2024-09-24 16:33:43.399,214982.84,0.167,0.794,-0.584,-0.007,-0.06,0.039,0.089,-0.033,-0.038,0.279,-0.918,-2.353
2024-09-24 16:33:43.408,214982.85,0.167,0.794,-0.585,-0.022,0.032,0.069,0.148,0.031,-0.016,0.278,-0.917,-2.354
2024-09-24 16:33:43.418,214982.86,0.167,0.793,-0.586,-0.042,0.016,0.06,0.127,0.024,-0.049,0.277,-0.916,-2.355
2024-09-24 16:33:43.428,214982.87,0.167,0.793,-0.586,-0.033,-0.005,0.093,0.042,0.033,0.002,0.277,-0.915,-2.355
2024-09-24 16:33:43.438,214982.88,0.167,0.793,-0.586,-0.044,-0.027,0.04,-0.132,0.041,0.01,0.278,-0.916,-2.355
2024-09-24 16:33:43.448,214982.89,0.167,0.794,-0.584,-0.067,-0.029,0.005,-0.341,0.054,0.009,0.279,-0.918,-2.353
2024-09-24 16:33:43.458,214982.9,0.168,0.797,-0.58,-0.074,-0.054,-0.035,-0.597,0.08,0.014,0.281,-0.922,-2.351
2024-09-24 16:33:43.468,214982.91,0.168,0.801,-0.575,-0.076,-0.058,-0.047,-0.79,0.089,-0.007,0.285,-0.929,-2.347
2024-09-24 16:33:43.478,214982.92,0.169,0.806,-0.568,-0.078,-0.097,-0.05,-0.902,0.117,-0.028,0.289,-0.937,-2.343
2024-09-24 16:33:43.488,214982.93,0.169,0.811,-0.56,-0.058,-0.118,-0.064,-0.917,0.197,-0.005,0.294,-0.946,-2.339
2024-09-24 16:33:43.498,214982.94,0.171,0.817,-0.552,-0.035,-0.059,-0.055,-1.07,0.275,-0.036,0.3,-0.955,-2.334
2024-09-24 16:33:43.508,214982.95,0.172,0.823,-0.542,-0.022,0.011,-0.046,-1.143,0.262,-0.073,0.307,-0.966,-2.329
2024-09-24 16:33:43.518,214982.96,0.172,0.829,-0.532,-0.022,0.044,-0.069,-1.192,0.25,-0.086,0.313,-0.977,-2.324
2024-09-24 16:33:43.528,214982.97,0.173,0.836,-0.521,-0.017,-0.019,-0.095,-1.252,0.251,-0.088,0.32,-0.989,-2.319
2024-09-24 16:33:43.538,214982.98,0.173,0.842,-0.51,0.025,-0.039,-0.069,-1.272,0.23,-0.062,0.328,-1.002,-2.313
2024-09-24 16:33:43.548,214982.99,0.174,0.849,-0.499,0.035,-0.008,-0.038,-1.212,0.198,-0.088,0.335,-1.014,-2.307
2024-09-24 16:33:43.558,214983.0,0.174,0.855,-0.489,0.055,0.014,-0.06,-1.197,0.176,-0.118,0.342,-1.025,-2.301
2024-09-24 16:33:43.567,214983.01,0.174,0.861,-0.478,0.07,0.054,-0.116,-1.203,0.137,-0.159,0.348,-1.037,-2.296
2024-09-24 16:33:43.577,214983.02,0.173,0.867,-0.468,0.051,0.099,-0.111,-1.183,0.089,-0.192,0.353,-1.049,-2.291
2024-09-24 16:33:43.587,214983.03,0.171,0.873,-0.458,0.044,0.116,-0.085,-1.134,0.041,-0.207,0.358,-1.06,-2.287
2024-09-24 16:33:43.598,214983.04,0.169,0.878,-0.448,0.063,0.098,-0.08,-1.108,0.025,-0.237,0.362,-1.072,-2.284
2024-09-24 16:33:43.608,214983.05,0.167,0.883,-0.438,0.097,0.086,-0.067,-1.158,0.01,-0.191,0.365,-1.083,-2.28
2024-09-24 16:33:43.617,214983.06,0.166,0.889,-0.427,0.121,0.069,-0.042,-1.197,0.023,-0.17,0.371,-1.094,-2.275
2024-09-24 16:33:43.627,214983.07,0.165,0.894,-0.416,0.141,0.021,-0.019,-1.278,0.071,-0.117,0.377,-1.106,-2.269
2024-09-24 16:33:43.638,214983.08,0.164,0.899,-0.405,0.149,-0.02,-0.018,-1.25,0.139,-0.088,0.386,-1.119,-2.261
2024-09-24 16:33:43.647,214983.09,0.165,0.904,-0.394,0.112,-0.036,-0.003,-1.132,0.224,-0.004,0.396,-1.13,-2.252
2024-09-24 16:33:43.658,214983.1,0.166,0.908,-0.384,0.089,-0.045,0.01,-0.952,0.26,0.048,0.408,-1.139,-2.243
2024-09-24 16:33:43.667,214983.11,0.168,0.912,-0.376,0.083,-0.057,0.014,-0.807,0.27,0.083,0.42,-1.147,-2.234
2024-09-24 16:33:43.678,214983.12,0.17,0.914,-0.369,0.096,-0.071,0.025,-0.606,0.299,0.133,0.431,-1.153,-2.225
2024-09-24 16:33:43.687,214983.13,0.172,0.915,-0.364,0.071,-0.031,0.049,-0.362,0.276,0.175,0.442,-1.157,-2.217
2024-09-24 16:33:43.698,214983.14,0.175,0.916,-0.362,0.055,0.017,0.051,-0.01,0.257,0.218,0.45,-1.158,-2.212
2024-09-24 16:33:43.707,214983.15,0.178,0.915,-0.363,0.033,0.054,0.055,0.3,0.224,0.281,0.456,-1.155,-2.209
2024-09-24 16:33:43.717,214983.16,0.182,0.913,-0.366,0.018,0.104,0.041,0.516,0.203,0.323,0.461,-1.15,-2.207
2024-09-24 16:33:43.727,214983.17,0.185,0.91,-0.371,0.001,0.133,0.046,0.641,0.167,0.34,0.463,-1.143,-2.207
2024-09-24 16:33:43.737,214983.18,0.189,0.907,-0.377,-0.008,0.116,0.06,0.748,0.136,0.35,0.465,-1.136,-2.207
2024-09-24 16:33:43.747,214983.19,0.193,0.903,-0.383,-0.011,0.083,0.066,0.747,0.138,0.371,0.466,-1.127,-2.209
2024-09-24 16:33:43.757,214983.2,0.197,0.9,-0.389,-0.016,0.045,0.071,0.635,0.09,0.386,0.467,-1.119,-2.209
2024-09-24 16:33:43.767,214983.21,0.2,0.897,-0.395,-0.009,0.016,0.083,0.538,0.036,0.367,0.47,-1.112,-2.208
2024-09-24 16:33:43.777,214983.22,0.203,0.894,-0.399,-0.01,-0.035,0.095,0.466,0.024,0.32,0.471,-1.106,-2.207
2024-09-24 16:33:43.787,214983.23,0.206,0.892,-0.403,-0.011,-0.071,0.098,0.432,-0.006,0.27,0.473,-1.101,-2.206
2024-09-24 16:33:43.797,214983.24,0.208,0.889,-0.407,-0.021,-0.076,0.088,0.429,-0.038,0.202,0.473,-1.096,-2.206
2024-09-24 16:33:43.807,214983.25,0.209,0.887,-0.411,-0.029,-0.094,0.069,0.468,-0.084,0.144,0.471,-1.091,-2.208
2024-09-24 16:33:43.817,214983.26,0.21,0.885,-0.415,-0.036,-0.108,0.051,0.499,-0.144,0.072,0.468,-1.087,-2.211
2024-09-24 16:33:43.827,214983.27,0.21,0.883,-0.42,-0.042,-0.105,0.037,0.564,-0.191,0.007,0.462,-1.082,-2.216
2024-09-24 16:33:43.837,214983.28,0.208,0.88,-0.426,-0.044,-0.101,0.034,0.67,-0.237,-0.03,0.455,-1.076,-2.223
2024-09-24 16:33:43.847,214983.29,0.207,0.877,-0.433,-0.049,-0.1,0.031,0.783,-0.278,-0.078,0.446,-1.07,-2.231
2024-09-24 16:33:43.857,214983.3,0.205,0.874,-0.441,-0.044,-0.095,0.029,0.904,-0.318,-0.099,0.435,-1.063,-2.241
2024-09-24 16:33:43.867,214983.31,0.202,0.87,-0.45,-0.047,-0.094,0.031,0.981,-0.375,-0.121,0.423,-1.055,-2.252
2024-09-24 16:33:43.877,214983.32,0.199,0.866,-0.459,-0.049,-0.09,0.04,0.984,-0.412,-0.135,0.409,-1.046,-2.262
2024-09-24 16:33:43.887,214983.33,0.196,0.861,-0.468,-0.052,-0.078,0.054,0.893,-0.476,-0.144,0.397,-1.038,-2.273
2024-09-24 16:33:43.897,214983.34,0.192,0.858,-0.476,-0.066,-0.076,0.057,0.704,-0.577,-0.143,0.384,-1.031,-2.282
2024-09-24 16:33:43.907,214983.35,0.188,0.855,-0.483,-0.076,-0.086,0.046,0.477,-0.675,-0.144,0.372,-1.026,-2.289
2024-09-24 16:33:43.918,214983.36,0.184,0.854,-0.487,-0.08,-0.08,0.035,0.299,-0.685,-0.118,0.361,-1.023,-2.295
2024-09-24 16:33:43.927,214983.37,0.18,0.853,-0.491,-0.085,-0.062,0.021,0.234,-0.64,-0.087,0.351,-1.021,-2.299
2024-09-24 16:33:43.937,214983.38,0.176,0.852,-0.494,-0.1,-0.045,0.019,0.238,-0.564,-0.127,0.342,-1.019,-2.304
2024-09-24 16:33:43.947,214983.389,0.172,0.851,-0.497,-0.121,-0.008,0.037,0.263,-0.471,-0.145,0.333,-1.017,-2.308
2024-09-24 16:33:43.957,214983.399,0.169,0.849,-0.5,-0.126,0.068,0.05,0.361,-0.426,-0.162,0.325,-1.015,-2.314
2024-09-24 16:33:43.967,214983.409,0.166,0.848,-0.504,-0.117,0.098,0.064,0.447,-0.289,-0.098,0.317,-1.011,-2.32
2024-09-24 16:33:43.977,214983.419,0.164,0.845,-0.509,-0.099,0.052,0.066,0.526,-0.172,-0.018,0.312,-1.007,-2.324
2024-09-24 16:33:43.987,214983.429,0.163,0.842,-0.514,-0.078,0.014,0.059,0.65,-0.041,-0.004,0.308,-1.002,-2.329
2024-09-24 16:33:43.997,214983.439,0.164,0.839,-0.519,-0.088,0.063,0.012,0.675,0.097,0.081,0.305,-0.995,-2.333
2024-09-24 16:33:44.007,214983.449,0.165,0.835,-0.524,-0.107,0.136,-0.035,0.514,0.162,0.136,0.306,-0.989,-2.335
2024-09-24 16:33:44.017,214983.459,0.167,0.833,-0.527,-0.128,0.123,-0.054,0.345,0.146,0.115,0.307,-0.984,-2.336
2024-09-24 16:33:44.027,214983.469,0.169,0.831,-0.529,-0.112,0.067,-0.048,0.207,0.142,0.072,0.309,-0.982,-2.337
2024-09-24 16:33:44.037,214983.479,0.17,0.83,-0.531,-0.097,0.029,-0.05,0.154,0.176,0.05,0.31,-0.98,-2.337
2024-09-24 16:33:44.047,214983.489,0.171,0.829,-0.532,-0.098,0.023,-0.039,0.185,0.22,0.035,0.312,-0.978,-2.338
2024-09-24 16:33:44.057,214983.499,0.173,0.828,-0.533,-0.102,-0.003,-0.018,0.261,0.268,0.021,0.314,-0.976,-2.34
2024-09-24 16:33:44.067,214983.509,0.174,0.827,-0.535,-0.073,-0.047,0.009,0.338,0.254,-0.026,0.315,-0.973,-2.342
2024-09-24 16:33:44.077,214983.519,0.175,0.825,-0.538,-0.046,-0.075,0.025,0.377,0.265,-0.088,0.315,-0.97,-2.345
2024-09-24 16:33:44.087,214983.529,0.176,0.823,-0.54,-0.039,-0.063,0.034,0.343,0.261,-0.118,0.315,-0.967,-2.349
2024-09-24 16:33:44.097,214983.539,0.176,0.822,-0.542,-0.047,-0.061,0.031,0.21,0.235,-0.146,0.314,-0.964,-2.353
2024-09-24 16:33:44.107,214983.549,0.176,0.821,-0.543,-0.053,-0.079,0.05,0.112,0.223,-0.134,0.314,-0.963,-2.357
2024-09-24 16:33:44.117,214983.559,0.176,0.821,-0.543,-0.05,-0.093,0.075,0.09,0.22,-0.101,0.314,-0.963,-2.359
2024-09-24 16:33:44.126,214983.569,0.178,0.82,-0.545,-0.047,-0.088,0.061,0.476,0.354,0.303,0.316,-0.961,-2.361
2024-09-24 16:33:44.137,214983.579,0.18,0.816,-0.549,-0.052,-0.024,0.026,0.409,0.248,-0.178,0.318,-0.955,-2.362
2024-09-24 16:33:44.147,214983.589,0.18,0.815,-0.551,-0.026,0.077,-0.066,0.202,0.087,-0.158,0.315,-0.952,-2.367
2024-09-24 16:33:44.157,214983.599,0.179,0.814,-0.552,0.05,0.217,-0.279,0.123,0.069,-0.048,0.314,-0.951,-2.369
2024-09-24 16:33:44.168,214983.609,0.179,0.814,-0.553,-0.14,0.381,-0.208,0.105,0.167,-0.095,0.314,-0.95,-2.371
2024-09-24 16:33:44.177,214983.619,0.181,0.814,-0.552,-0.107,0.232,-0.085,-0.103,0.215,0.09,0.317,-0.951,-2.37
2024-09-24 16:33:44.186,214983.629,0.182,0.814,-0.552,0.009,-0.044,0.013,-0.017,0.143,-0.091,0.318,-0.951,-2.37
2024-09-24 16:33:44.197,214983.639,0.181,0.814,-0.551,0.053,-0.148,0.063,-0.018,0.083,-0.173,0.318,-0.952,-2.372
2024-09-24 16:33:44.207,214983.649,0.18,0.815,-0.551,0.013,-0.143,0.019,-0.047,0.045,-0.19,0.316,-0.953,-2.375
2024-09-24 16:33:44.217,214983.659,0.179,0.816,-0.55,-0.062,-0.05,-0.037,-0.079,0.061,-0.18,0.314,-0.954,-2.378
2024-09-24 16:33:44.226,214983.669,0.178,0.816,-0.549,-0.038,0.005,-0.029,-0.116,0.083,-0.127,0.314,-0.955,-2.379
2024-09-24 16:33:44.237,214983.679,0.178,0.817,-0.548,-0.033,0.037,-0.02,-0.144,0.092,-0.066,0.314,-0.957,-2.38
2024-09-24 16:33:44.246,214983.689,0.178,0.818,-0.547,-0.034,0.047,-0.018,-0.116,0.066,-0.029,0.315,-0.958,-2.38
2024-09-24 16:33:44.256,214983.699,0.178,0.819,-0.546,-0.023,0.024,-0.009,-0.065,0.051,-0.026,0.315,-0.959,-2.38
2024-09-24 16:33:44.266,214983.709,0.178,0.819,-0.546,-0.025,0.005,-0.003,0.016,0.042,-0.016,0.315,-0.959,-2.38
2024-09-24 16:33:44.276,214983.719,0.178,0.818,-0.546,-0.036,0.016,0.004,0.118,0.047,-0.002,0.315,-0.959,-2.38
2024-09-24 16:33:44.286,214983.729,0.178,0.818,-0.547,-0.035,0.027,0.015,0.195,0.037,0.007,0.315,-0.957,-2.381
2024-09-24 16:33:44.297,214983.739,0.179,0.816,-0.549,-0.022,0.036,0.029,0.237,0.014,0.018,0.315,-0.955,-2.381
2024-09-24 16:33:44.307,214983.749,0.179,0.815,-0.551,-0.019,0.032,0.027,0.242,0.008,0.047,0.314,-0.953,-2.382
2024-09-24 16:33:44.316,214983.759,0.18,0.814,-0.553,-0.016,0.022,0.018,0.221,0.016,0.055,0.314,-0.95,-2.382
2024-09-24 16:33:44.326,214983.769,0.18,0.812,-0.555,-0.014,0.013,0.013,0.185,0.04,0.043,0.314,-0.948,-2.382
2024-09-24 16:33:44.336,214983.779,0.181,0.812,-0.556,-0.023,0.003,0.001,0.099,0.066,0.027,0.314,-0.947,-2.382
2024-09-24 16:33:44.346,214983.789,0.181,0.811,-0.556,-0.035,-0.004,-0.013,-0.015,0.089,0.018,0.315,-0.946,-2.381
2024-09-24 16:33:44.356,214983.799,0.182,0.812,-0.555,-0.042,-0.019,-0.023,-0.102,0.059,0.012,0.316,-0.947,-2.38
2024-09-24 16:33:44.366,214983.809,0.182,0.812,-0.554,-0.039,-0.047,-0.026,-0.158,0.043,0.006,0.317,-0.948,-2.379
2024-09-24 16:33:44.376,214983.819,0.182,0.813,-0.553,-0.028,-0.061,-0.022,-0.181,0.044,0.01,0.319,-0.95,-2.378
2024-09-24 16:33:44.386,214983.829,0.183,0.814,-0.551,-0.02,-0.032,-0.012,-0.164,0.024,0.013,0.32,-0.952,-2.377
2024-09-24 16:33:44.396,214983.839,0.183,0.815,-0.55,-0.023,0.009,-0.003,-0.124,0.008,0.02,0.321,-0.953,-2.375
2024-09-24 16:33:44.406,214983.849,0.183,0.816,-0.549,-0.021,0.016,0.001,-0.05,0.011,0.016,0.322,-0.954,-2.374
2024-09-24 16:33:44.416,214983.859,0.183,0.816,-0.549,-0.016,0.022,0.004,0.008,0.003,0.008,0.322,-0.954,-2.373
2024-09-24 16:33:44.426,214983.869,0.183,0.815,-0.549,-0.022,0.037,0.013,0.037,-0.01,0.0,0.322,-0.954,-2.373
2024-09-24 16:33:44.436,214983.879,0.183,0.815,-0.55,-0.019,0.019,0.016,0.049,-0.005,-0.007,0.321,-0.953,-2.373
2024-09-24 16:33:44.446,214983.889,0.183,0.815,-0.55,-0.015,-0.005,0.012,0.059,-0.001,-0.012,0.321,-0.953,-2.374
2024-09-24 16:33:44.456,214983.899,0.183,0.815,-0.55,-0.018,-0.007,0.009,0.031,-0.013,-0.031,0.32,-0.952,-2.374
2024-09-24 16:33:44.466,214983.909,0.182,0.815,-0.551,-0.021,0.002,0.003,0.033,-0.03,-0.053,0.319,-0.952,-2.374
2024-09-24 16:33:44.476,214983.919,0.181,0.814,-0.551,-0.022,0.011,-0.009,0.041,-0.064,-0.069,0.318,-0.952,-2.376
2024-09-24 16:33:44.486,214983.929,0.18,0.814,-0.552,-0.015,0.005,-0.006,0.09,-0.091,-0.082,0.316,-0.952,-2.377
2024-09-24 16:33:44.496,214983.939,0.179,0.814,-0.553,-0.009,0.007,0.004,0.16,-0.102,-0.082,0.313,-0.951,-2.379
2024-09-24 16:33:44.506,214983.949,0.178,0.813,-0.555,-0.011,0.022,0.009,0.252,-0.039,-0.062,0.31,-0.949,-2.381
2024-09-24 16:33:44.516,214983.959,0.177,0.812,-0.557,-0.013,0.041,0.021,0.195,-0.01,-0.051,0.308,-0.947,-2.382
2024-09-24 16:33:44.526,214983.969,0.177,0.811,-0.558,-0.032,0.052,0.016,0.211,0.002,-0.038,0.307,-0.945,-2.384
2024-09-24 16:33:44.536,214983.978,0.177,0.81,-0.56,-0.051,0.051,-0.011,0.167,0.037,-0.023,0.306,-0.944,-2.385
2024-09-24 16:33:44.546,214983.988,0.177,0.809,-0.561,-0.018,-0.027,0.01,0.145,0.069,-0.0,0.306,-0.942,-2.386
2024-09-24 16:33:44.557,214983.998,0.177,0.808,-0.562,-0.031,-0.029,-0.004,0.11,0.101,0.023,0.306,-0.941,-2.386
2024-09-24 16:33:44.566,214984.008,0.178,0.807,-0.563,-0.044,0.025,-0.009,0.128,0.134,0.038,0.307,-0.94,-2.386
2024-09-24 16:33:44.576,214984.018,0.18,0.807,-0.563,-0.044,0.02,-0.007,0.064,0.151,0.072,0.309,-0.938,-2.385
2024-09-24 16:33:44.586,214984.028,0.181,0.806,-0.563,-0.039,-0.005,-0.003,0.021,0.143,0.122,0.311,-0.938,-2.383
2024-09-24 16:33:44.596,214984.038,0.183,0.806,-0.563,-0.037,-0.022,0.001,-0.067,0.158,0.148,0.314,-0.938,-2.381
2024-09-24 16:33:44.606,214984.048,0.185,0.806,-0.562,-0.025,-0.057,0.007,-0.139,0.143,0.185,0.318,-0.938,-2.377
2024-09-24 16:33:44.616,214984.058,0.187,0.807,-0.56,-0.02,-0.079,0.008,-0.241,0.133,0.162,0.323,-0.939,-2.373
2024-09-24 16:33:44.626,214984.068,0.189,0.808,-0.557,-0.014,-0.061,0.008,-0.333,0.116,0.14,0.327,-0.942,-2.369
2024-09-24 16:33:44.636,214984.078,0.191,0.81,-0.554,-0.021,-0.072,-0.013,-0.417,0.104,0.119,0.332,-0.945,-2.364
2024-09-24 16:33:44.646,214984.088,0.192,0.812,-0.55,-0.026,-0.068,-0.028,-0.443,0.087,0.115,0.336,-0.948,-2.359
2024-09-24 16:33:44.656,214984.098,0.194,0.815,-0.546,-0.031,-0.024,-0.032,-0.474,0.081,0.093,0.34,-0.952,-2.355
2024-09-24 16:33:44.666,214984.108,0.195,0.817,-0.542,-0.028,-0.0,-0.026,-0.51,0.051,0.07,0.345,-0.957,-2.35
2024-09-24 16:33:44.676,214984.118,0.195,0.82,-0.538,-0.031,0.027,-0.035,-0.485,-0.008,0.036,0.348,-0.961,-2.346
2024-09-24 16:33:44.686,214984.128,0.195,0.822,-0.535,-0.029,0.028,-0.027,-0.415,-0.07,0.011,0.35,-0.965,-2.343
2024-09-24 16:33:44.696,214984.138,0.195,0.824,-0.532,-0.001,-0.031,-0.001,-0.298,-0.105,-0.003,0.351,-0.969,-2.341
2024-09-24 16:33:44.706,214984.148,0.194,0.825,-0.53,0.007,-0.018,0.013,-0.14,-0.106,-0.016,0.351,-0.971,-2.339
2024-09-24 16:33:44.716,214984.158,0.193,0.826,-0.53,0.002,0.051,0.027,-0.001,-0.108,-0.018,0.35,-0.972,-2.339
2024-09-24 16:33:44.726,214984.168,0.193,0.826,-0.53,-0.007,0.076,0.033,0.089,-0.101,-0.025,0.348,-0.971,-2.339
2024-09-24 16:33:44.736,214984.178,0.192,0.825,-0.531,-0.01,0.071,0.036,0.131,-0.084,-0.02,0.347,-0.97,-2.34
2024-09-24 16:33:44.746,214984.188,0.191,0.824,-0.533,-0.013,0.036,0.026,0.14,-0.058,-0.011,0.345,-0.969,-2.341
2024-09-24 16:33:44.755,214984.198,0.191,0.824,-0.534,-0.021,0.01,0.011,0.108,-0.028,-0.008,0.344,-0.968,-2.342
2024-09-24 16:33:44.766,214984.208,0.191,0.823,-0.535,-0.032,0.01,0.004,0.038,-0.036,-0.015,0.343,-0.967,-2.342
2024-09-24 16:33:44.775,214984.218,0.191,0.823,-0.535,-0.036,-0.008,-0.007,-0.016,-0.063,-0.013,0.342,-0.967,-2.342
2024-09-24 16:33:44.785,214984.228,0.19,0.823,-0.535,-0.03,-0.032,-0.019,-0.011,-0.081,-0.016,0.341,-0.967,-2.342
2024-09-24 16:33:44.796,214984.238,0.189,0.823,-0.535,-0.02,-0.029,-0.016,0.031,-0.112,-0.012,0.34,-0.967,-2.343
2024-09-24 16:33:44.806,214984.248,0.189,0.823,-0.536,-0.018,-0.001,-0.001,0.134,-0.133,-0.007,0.338,-0.967,-2.343
2024-09-24 16:33:44.816,214984.258,0.188,0.822,-0.538,-0.015,0.028,0.01,0.279,-0.131,-0.004,0.336,-0.965,-2.344
2024-09-24 16:33:44.825,214984.268,0.187,0.82,-0.541,-0.012,0.046,0.023,0.414,-0.115,-0.004,0.333,-0.962,-2.346
2024-09-24 16:33:44.835,214984.278,0.186,0.818,-0.545,-0.009,0.058,0.04,0.511,-0.11,-0.015,0.33,-0.957,-2.349
2024-09-24 16:33:44.845,214984.288,0.186,0.815,-0.549,-0.014,0.06,0.041,0.589,0.006,0.002,0.326,-0.952,-2.352
2024-09-24 16:33:44.855,214984.298,0.186,0.812,-0.553,-0.017,0.049,0.03,0.402,0.06,0.042,0.325,-0.947,-2.355
2024-09-24 16:33:44.865,214984.308,0.187,0.81,-0.556,-0.027,0.022,0.025,0.249,0.102,0.014,0.324,-0.944,-2.356
2024-09-24 16:33:44.876,214984.318,0.188,0.809,-0.557,-0.071,0.017,-0.03,0.177,0.122,0.013,0.325,-0.942,-2.357
2024-09-24 16:33:44.885,214984.328,0.188,0.808,-0.558,-0.038,-0.055,-0.024,0.03,0.138,-0.003,0.326,-0.941,-2.357
2024-09-24 16:33:44.896,214984.338,0.189,0.808,-0.557,-0.025,-0.135,-0.02,-0.05,0.134,-0.026,0.327,-0.942,-2.357
2024-09-24 16:33:44.905,214984.348,0.19,0.809,-0.556,-0.051,-0.007,-0.033,-0.101,0.129,-0.036,0.328,-0.942,-2.357
2024-09-24 16:33:44.915,214984.358,0.19,0.81,-0.555,-0.035,-0.014,-0.024,-0.123,0.143,-0.053,0.33,-0.944,-2.356
2024-09-24 16:33:44.925,214984.368,0.19,0.81,-0.554,-0.016,-0.056,-0.013,-0.077,0.118,-0.045,0.331,-0.945,-2.356
2024-09-24 16:33:44.936,214984.378,0.191,0.811,-0.554,-0.024,-0.003,-0.007,0.027,0.105,-0.032,0.332,-0.945,-2.357
2024-09-24 16:33:44.946,214984.388,0.191,0.81,-0.554,-0.016,0.035,0.012,0.163,0.08,-0.05,0.332,-0.945,-2.358
2024-09-24 16:33:44.955,214984.398,0.191,0.809,-0.555,-0.002,0.035,0.037,0.187,0.05,-0.022,0.331,-0.943,-2.359
2024-09-24 16:33:44.965,214984.408,0.191,0.808,-0.557,-0.009,0.041,0.029,0.207,0.007,-0.026,0.33,-0.941,-2.36
2024-09-24 16:33:44.975,214984.418,0.191,0.807,-0.559,-0.009,0.031,0.024,0.173,-0.019,-0.011,0.329,-0.94,-2.361
2024-09-24 16:33:44.985,214984.428,0.19,0.806,-0.56,-0.007,-0.005,0.005,0.123,-0.035,-0.01,0.328,-0.938,-2.362
2024-09-24 16:33:44.995,214984.438,0.19,0.806,-0.56,-0.024,0.009,-0.003,-0.014,-0.1,-0.021,0.327,-0.938,-2.362
2024-09-24 16:33:45.005,214984.448,0.189,0.807,-0.56,-0.021,-0.022,-0.006,-0.137,-0.174,-0.029,0.325,-0.939,-2.362
2024-09-24 16:33:45.015,214984.458,0.187,0.808,-0.559,-0.018,-0.055,-0.024,-0.257,-0.203,-0.039,0.324,-0.94,-2.361
2024-09-24 16:33:45.025,214984.468,0.186,0.81,-0.557,-0.007,-0.068,-0.032,-0.343,-0.188,0.013,0.323,-0.944,-2.359
2024-09-24 16:33:45.035,214984.478,0.185,0.812,-0.554,-0.014,-0.044,-0.025,-0.361,-0.15,0.04,0.323,-0.947,-2.356
2024-09-24 16:33:45.045,214984.488,0.185,0.813,-0.551,-0.025,-0.024,-0.015,-0.325,-0.073,0.035,0.324,-0.95,-2.354
2024-09-24 16:33:45.055,214984.498,0.185,0.815,-0.549,-0.032,-0.008,0.001,-0.351,-0.024,0.046,0.326,-0.953,-2.351
2024-09-24 16:33:45.065,214984.508,0.186,0.817,-0.546,-0.038,-0.025,0.002,-0.33,0.015,0.053,0.328,-0.956,-2.348
2024-09-24 16:33:45.075,214984.518,0.186,0.818,-0.544,-0.04,-0.017,-0.013,-0.227,0.063,0.077,0.33,-0.959,-2.345
2024-09-24 16:33:45.085,214984.528,0.188,0.819,-0.542,-0.036,0.002,-0.002,-0.124,0.097,0.094,0.333,-0.96,-2.343
2024-09-24 16:33:45.095,214984.538,0.189,0.819,-0.541,-0.023,0.006,0.023,-0.075,0.138,0.115,0.336,-0.96,-2.341
2024-09-24 16:33:45.105,214984.548,0.191,0.82,-0.54,-0.034,0.044,0.027,-0.11,0.142,0.123,0.34,-0.961,-2.338
2024-09-24 16:33:45.115,214984.558,0.193,0.82,-0.539,-0.032,0.031,0.01,-0.159,0.131,0.116,0.343,-0.962,-2.335
2024-09-24 16:33:45.125,214984.568,0.194,0.821,-0.537,-0.04,0.021,-0.018,-0.16,0.115,0.1,0.347,-0.963,-2.333
2024-09-24 16:33:45.135,214984.577,0.195,0.821,-0.536,-0.03,-0.005,-0.022,-0.175,0.083,0.066,0.349,-0.964,-2.33
2024-09-24 16:33:45.145,214984.587,0.196,0.822,-0.534,-0.018,-0.031,-0.009,-0.146,0.057,0.044,0.352,-0.965,-2.328
2024-09-24 16:33:45.155,214984.597,0.197,0.823,-0.533,-0.018,-0.008,-0.005,-0.095,0.041,0.032,0.353,-0.966,-2.327
2024-09-24 16:33:45.165,214984.607,0.197,0.823,-0.533,-0.012,0.005,0.002,-0.067,0.019,0.011,0.354,-0.967,-2.326
2024-09-24 16:33:45.175,214984.617,0.197,0.823,-0.532,-0.012,0.016,0.011,-0.031,-0.02,-0.009,0.354,-0.967,-2.326
2024-09-24 16:33:45.185,214984.627,0.196,0.824,-0.532,-0.013,0.028,0.008,-0.01,-0.049,-0.028,0.354,-0.968,-2.326
2024-09-24 16:33:45.195,214984.637,0.196,0.824,-0.532,-0.008,0.013,0.004,0.006,-0.067,-0.039,0.352,-0.968,-2.327
2024-09-24 16:33:45.205,214984.647,0.195,0.824,-0.532,-0.008,0.005,0.007,0.03,-0.063,-0.039,0.351,-0.968,-2.328
2024-09-24 16:33:45.215,214984.657,0.194,0.824,-0.533,-0.013,0.007,0.006,0.011,-0.074,-0.042,0.349,-0.968,-2.328
2024-09-24 16:33:45.225,214984.667,0.193,0.824,-0.533,-0.017,0.01,0.007,-0.014,-0.094,-0.045,0.348,-0.968,-2.329
2024-09-24 16:33:45.234,214984.677,0.192,0.824,-0.533,-0.022,0.005,-0.001,-0.011,-0.101,-0.04,0.346,-0.968,-2.33
2024-09-24 16:33:45.245,214984.687,0.192,0.824,-0.533,-0.018,-0.017,-0.007,0.013,-0.104,-0.032,0.345,-0.968,-2.33
2024-09-24 16:33:45.255,214984.697,0.191,0.824,-0.534,-0.02,-0.005,-0.0,0.063,-0.112,-0.037,0.343,-0.968,-2.331
2024-09-24 16:33:45.265,214984.707,0.19,0.823,-0.535,-0.021,0.023,0.007,0.119,-0.125,-0.04,0.341,-0.968,-2.332
2024-09-24 16:33:45.275,214984.717,0.189,0.823,-0.536,-0.018,0.017,0.012,0.16,-0.134,-0.051,0.339,-0.966,-2.333
2024-09-24 16:33:45.284,214984.727,0.188,0.822,-0.538,-0.013,0.019,0.013,0.209,-0.144,-0.058,0.336,-0.965,-2.335
2024-09-24 16:33:45.295,214984.737,0.186,0.821,-0.54,-0.013,0.029,0.015,0.266,-0.145,-0.063,0.332,-0.963,-2.338
2024-09-24 16:33:45.304,214984.747,0.185,0.819,-0.543,-0.014,0.019,0.015,0.313,-0.149,-0.072,0.328,-0.96,-2.34
2024-09-24 16:33:45.315,214984.757,0.184,0.818,-0.546,-0.012,0.019,0.018,0.366,-0.109,-0.06,0.325,-0.957,-2.343
2024-09-24 16:33:45.325,214984.767,0.183,0.816,-0.549,-0.015,0.034,0.017,0.33,-0.001,-0.017,0.322,-0.954,-2.346
2024-09-24 16:33:45.334,214984.777,0.183,0.814,-0.551,-0.017,0.027,0.024,0.175,0.006,-0.021,0.321,-0.952,-2.348
2024-09-24 16:33:45.344,214984.787,0.183,0.814,-0.552,-0.056,0.035,-0.008,0.174,0.058,-0.004,0.32,-0.95,-2.349
2024-09-24 16:33:45.354,214984.797,0.183,0.813,-0.553,-0.053,0.004,-0.027,0.117,0.112,0.032,0.32,-0.949,-2.349
2024-09-24 16:33:45.364,214984.807,0.184,0.812,-0.554,-0.013,-0.121,0.004,0.141,0.152,0.045,0.322,-0.948,-2.349
2024-09-24 16:33:45.374,214984.817,0.186,0.811,-0.555,-0.045,-0.008,0.004,0.16,0.184,0.05,0.323,-0.946,-2.35
2024-09-24 16:33:45.384,214984.827,0.187,0.81,-0.556,-0.045,0.043,0.005,0.147,0.167,0.055,0.325,-0.944,-2.35
2024-09-24 16:33:45.395,214984.837,0.188,0.81,-0.556,-0.033,0.003,0.003,0.072,0.163,0.044,0.327,-0.943,-2.349
2024-09-24 16:33:45.405,214984.847,0.19,0.809,-0.556,-0.032,-0.005,-0.003,-0.014,0.124,0.02,0.329,-0.943,-2.349
2024-09-24 16:33:45.415,214984.857,0.19,0.809,-0.556,-0.026,-0.026,-0.013,-0.014,0.074,0.021,0.33,-0.943,-2.348
2024-09-24 16:33:45.425,214984.867,0.191,0.809,-0.556,-0.022,-0.044,-0.023,0.003,0.049,-0.015,0.33,-0.943,-2.348
2024-09-24 16:33:45.434,214984.877,0.19,0.809,-0.556,-0.005,-0.014,-0.001,0.021,-0.01,-0.035,0.33,-0.943,-2.349
2024-09-24 16:33:45.444,214984.887,0.19,0.809,-0.556,-0.01,0.024,0.009,0.062,-0.053,-0.074,0.329,-0.943,-2.349
2024-09-24 16:33:45.455,214984.897,0.189,0.809,-0.557,0.001,0.013,0.01,0.064,-0.075,-0.091,0.327,-0.942,-2.351
2024-09-24 16:33:45.464,214984.907,0.187,0.809,-0.557,0.004,0.004,0.008,0.058,-0.085,-0.116,0.324,-0.942,-2.353
2024-09-24 16:33:45.474,214984.917,0.186,0.809,-0.558,-0.009,0.021,0.004,0.008,-0.094,-0.107,0.322,-0.942,-2.355
2024-09-24 16:33:45.484,214984.927,0.185,0.809,-0.558,-0.017,0.003,-0.008,-0.0,-0.091,-0.092,0.32,-0.943,-2.356
2024-09-24 16:33:45.494,214984.937,0.184,0.809,-0.558,-0.017,-0.01,-0.008,0.047,-0.002,-0.087,0.318,-0.943,-2.358
2024-09-24 16:33:45.504,214984.947,0.183,0.809,-0.558,-0.018,-0.008,0.002,-0.026,0.007,0.009,0.318,-0.943,-2.358
2024-09-24 16:33:45.514,214984.957,0.184,0.809,-0.558,-0.033,0.009,0.003,-0.003,0.016,0.044,0.318,-0.943,-2.358
2024-09-24 16:33:45.524,214984.967,0.184,0.809,-0.558,-0.065,0.008,-0.005,-0.024,0.07,0.045,0.319,-0.943,-2.357
2024-09-24 16:33:45.534,214984.977,0.185,0.809,-0.557,-0.024,-0.057,-0.001,-0.003,0.064,0.082,0.321,-0.943,-2.355
2024-09-24 16:33:45.544,214984.987,0.186,0.809,-0.557,-0.031,0.01,0.006,0.004,0.066,0.103,0.323,-0.943,-2.354
2024-09-24 16:33:45.554,214984.997,0.187,0.809,-0.558,-0.059,0.034,-0.003,0.089,0.095,0.092,0.324,-0.942,-2.352
2024-09-24 16:33:45.564,214985.007,0.189,0.808,-0.558,-0.023,-0.004,0.002,0.097,0.059,0.119,0.327,-0.941,-2.35
2024-09-24 16:33:45.575,214985.017,0.19,0.807,-0.559,-0.023,0.024,0.014,0.084,0.059,0.035,0.328,-0.94,-2.35
2024-09-24 16:33:45.584,214985.027,0.191,0.807,-0.559,-0.021,0.017,0.002,0.049,0.031,0.066,0.329,-0.939,-2.349
2024-09-24 16:33:45.594,214985.037,0.191,0.807,-0.559,-0.042,0.013,-0.023,0.064,0.015,0.042,0.329,-0.939,-2.348
2024-09-24 16:33:45.604,214985.047,0.191,0.806,-0.56,-0.012,0.007,0.007,0.067,0.015,0.022,0.329,-0.938,-2.348
2024-09-24 16:33:45.614,214985.057,0.191,0.806,-0.56,0.0,-0.049,0.014,0.093,-0.006,-0.001,0.329,-0.937,-2.348
2024-09-24 16:33:45.624,214985.067,0.191,0.805,-0.561,-0.005,-0.028,0.024,0.096,0.022,-0.014,0.329,-0.936,-2.349
2024-09-24 16:33:45.634,214985.077,0.191,0.805,-0.562,-0.005,-0.026,0.015,0.085,0.025,0.03,0.328,-0.935,-2.35
2024-09-24 16:33:45.644,214985.087,0.192,0.805,-0.562,-0.01,0.014,0.015,0.007,0.029,0.067,0.329,-0.935,-2.349
2024-09-24 16:33:45.654,214985.097,0.193,0.805,-0.562,-0.033,0.003,0.008,-0.123,0.034,0.104,0.331,-0.935,-2.347
2024-09-24 16:33:45.664,214985.107,0.194,0.806,-0.56,-0.025,-0.052,-0.002,-0.325,0.055,0.13,0.333,-0.937,-2.344
2024-09-24 16:33:45.674,214985.117,0.195,0.808,-0.556,-0.034,-0.08,-0.016,-0.579,0.063,0.136,0.338,-0.941,-2.339
2024-09-24 16:33:45.684,214985.127,0.197,0.811,-0.55,-0.037,-0.097,-0.032,-0.737,0.103,0.134,0.343,-0.947,-2.333
2024-09-24 16:33:45.694,214985.137,0.199,0.815,-0.544,-0.034,-0.12,-0.048,-0.736,0.244,0.124,0.35,-0.953,-2.327
2024-09-24 16:33:45.704,214985.147,0.202,0.819,-0.537,-0.024,-0.108,-0.037,-0.83,0.366,0.179,0.359,-0.96,-2.32
2024-09-24 16:33:45.714,214985.157,0.205,0.824,-0.529,-0.045,-0.01,-0.026,-1.005,0.383,0.204,0.37,-0.968,-2.311
2024-09-24 16:33:45.724,214985.166,0.209,0.829,-0.519,-0.097,0.08,-0.067,-1.079,0.336,0.172,0.382,-0.977,-2.301
2024-09-24 16:33:45.734,214985.176,0.211,0.834,-0.51,-0.073,-0.004,-0.085,-1.088,0.268,0.146,0.393,-0.986,-2.291
2024-09-24 16:33:45.744,214985.186,0.214,0.839,-0.5,-0.025,-0.131,-0.06,-0.997,0.199,0.094,0.404,-0.995,-2.282
2024-09-24 16:33:45.754,214985.196,0.215,0.843,-0.493,-0.021,-0.039,-0.035,-0.736,0.13,0.016,0.412,-1.003,-2.274
2024-09-24 16:33:45.764,214985.206,0.215,0.846,-0.488,-0.025,0.075,-0.013,-0.423,0.027,0.028,0.416,-1.008,-2.271
2024-09-24 16:33:45.774,214985.216,0.216,0.847,-0.485,-0.033,0.094,0.006,-0.163,-0.037,0.081,0.419,-1.011,-2.267
2024-09-24 16:33:45.784,214985.226,0.216,0.847,-0.485,-0.06,0.124,0.023,0.105,-0.118,0.055,0.419,-1.011,-2.266
2024-09-24 16:33:45.794,214985.236,0.216,0.846,-0.487,-0.045,0.13,0.044,0.351,-0.143,0.018,0.417,-1.009,-2.268
2024-09-24 16:33:45.804,214985.246,0.214,0.844,-0.491,-0.062,0.133,0.028,0.398,-0.212,-0.14,0.412,-1.005,-2.272
2024-09-24 16:33:45.814,214985.256,0.212,0.843,-0.495,-0.126,0.195,0.021,0.327,-0.243,-0.151,0.405,-1.003,-2.278
2024-09-24 16:33:45.824,214985.266,0.21,0.842,-0.497,-0.171,0.178,0.03,0.188,-0.236,-0.124,0.399,-1.001,-2.282
2024-09-24 16:33:45.834,214985.276,0.207,0.841,-0.499,-0.141,0.026,0.024,0.122,-0.205,-0.144,0.394,-1.0,-2.286
2024-09-24 16:33:45.844,214985.286,0.205,0.841,-0.5,-0.045,-0.092,0.032,0.044,-0.185,-0.166,0.389,-1.0,-2.289
2024-09-24 16:33:45.854,214985.296,0.203,0.842,-0.501,-0.04,-0.056,0.032,-0.005,-0.195,-0.193,0.384,-1.0,-2.293
2024-09-24 16:33:45.864,214985.306,0.2,0.842,-0.501,-0.052,0.009,0.027,-0.006,-0.151,-0.119,0.38,-1.001,-2.296
2024-09-24 16:33:45.874,214985.316,0.199,0.842,-0.501,-0.034,0.015,0.019,-0.013,-0.101,-0.021,0.378,-1.001,-2.297
2024-09-24 16:33:45.884,214985.326,0.199,0.842,-0.501,-0.002,-0.028,0.022,-0.016,-0.077,-0.005,0.377,-1.001,-2.297
2024-09-24 16:33:45.894,214985.336,0.198,0.842,-0.501,0.026,-0.063,0.028,0.006,-0.038,0.025,0.377,-1.002,-2.298
2024-09-24 16:33:45.904,214985.346,0.198,0.842,-0.502,0.023,-0.043,0.032,0.052,-0.033,0.035,0.377,-1.001,-2.298
2024-09-24 16:33:45.922,214985.356,0.198,0.842,-0.502,0.018,-0.032,0.026,0.088,-0.053,0.024,0.376,-1.0,-2.298
2024-09-24 16:33:45.926,214985.366,0.199,0.841,-0.503,0.041,-0.066,0.013,0.164,-0.032,0.068,0.376,-0.999,-2.298
2024-09-24 16:33:45.934,214985.376,0.199,0.84,-0.505,0.058,-0.068,0.005,0.19,-0.023,0.088,0.376,-0.997,-2.298
2024-09-24 16:33:45.944,214985.386,0.2,0.839,-0.507,0.068,-0.032,0.006,0.183,-0.03,0.115,0.376,-0.995,-2.298
2024-09-24 16:33:45.954,214985.396,0.201,0.838,-0.508,0.075,-0.023,0.006,0.153,-0.034,0.093,0.376,-0.993,-2.298
2024-09-24 16:33:45.964,214985.406,0.201,0.837,-0.509,0.082,-0.034,-0.002,0.142,-0.016,0.078,0.376,-0.991,-2.297
2024-09-24 16:33:45.974,214985.416,0.202,0.836,-0.51,0.073,-0.027,-0.009,0.119,-0.012,0.01,0.376,-0.99,-2.298
2024-09-24 16:33:45.983,214985.426,0.201,0.836,-0.511,0.049,-0.001,-0.012,0.061,-0.048,-0.078,0.375,-0.989,-2.299
2024-09-24 16:33:45.994,214985.436,0.2,0.836,-0.512,0.031,0.014,-0.01,-0.036,-0.124,-0.146,0.372,-0.989,-2.301
2024-09-24 16:33:46.003,214985.446,0.198,0.836,-0.511,0.013,-0.022,-0.02,-0.089,-0.159,-0.19,0.369,-0.991,-2.304
2024-09-24 16:33:46.014,214985.456,0.195,0.837,-0.511,0.004,-0.031,-0.032,-0.049,-0.161,-0.167,0.365,-0.992,-2.306
2024-09-24 16:33:46.024,214985.466,0.193,0.837,-0.511,-0.003,-0.009,-0.016,0.021,-0.151,-0.134,0.362,-0.993,-2.309
2024-09-24 16:33:46.034,214985.476,0.192,0.837,-0.512,-0.008,0.001,0.01,0.09,-0.139,-0.089,0.358,-0.992,-2.311
2024-09-24 16:33:46.044,214985.486,0.191,0.837,-0.513,-0.018,0.028,0.021,0.16,-0.106,-0.037,0.356,-0.992,-2.313
2024-09-24 16:33:46.053,214985.496,0.19,0.836,-0.515,-0.028,0.043,0.019,0.213,-0.048,0.009,0.354,-0.99,-2.315
2024-09-24 16:33:46.063,214985.506,0.19,0.835,-0.517,-0.037,0.041,0.015,0.214,0.007,0.041,0.353,-0.988,-2.316
2024-09-24 16:33:46.073,214985.516,0.191,0.834,-0.518,-0.046,0.042,0.011,0.142,0.039,0.057,0.353,-0.986,-2.317
2024-09-24 16:33:46.083,214985.526,0.192,0.833,-0.519,-0.051,0.018,0.002,0.05,0.061,0.069,0.354,-0.985,-2.316
2024-09-24 16:33:46.093,214985.536,0.193,0.833,-0.519,-0.047,-0.023,-0.014,-0.044,0.064,0.068,0.355,-0.984,-2.316
2024-09-24 16:33:46.103,214985.546,0.193,0.833,-0.518,-0.041,-0.043,-0.023,-0.096,0.06,0.058,0.357,-0.985,-2.314
2024-09-24 16:33:46.113,214985.556,0.194,0.834,-0.517,-0.034,-0.035,-0.025,-0.086,0.059,0.047,0.359,-0.986,-2.313
2024-09-24 16:33:46.123,214985.566,0.195,0.834,-0.516,-0.025,-0.019,-0.02,-0.036,0.062,0.041,0.361,-0.986,-2.312
2024-09-24 16:33:46.133,214985.576,0.195,0.834,-0.516,-0.02,0.003,-0.001,0.015,0.047,0.03,0.362,-0.986,-2.312
2024-09-24 16:33:46.143,214985.586,0.196,0.834,-0.516,-0.016,0.022,0.012,0.065,0.036,0.029,0.362,-0.986,-2.312
2024-09-24 16:33:46.154,214985.596,0.196,0.833,-0.517,-0.013,0.022,0.014,0.099,0.026,0.028,0.362,-0.985,-2.312
2024-09-24 16:33:46.163,214985.606,0.196,0.833,-0.518,-0.011,0.015,0.014,0.115,0.025,0.022,0.362,-0.984,-2.313
2024-09-24 16:33:46.173,214985.616,0.196,0.832,-0.519,-0.019,0.019,0.012,0.108,0.017,0.008,0.362,-0.983,-2.313
2024-09-24 16:33:46.183,214985.626,0.196,0.831,-0.52,-0.021,0.014,0.004,0.101,-0.007,-0.016,0.361,-0.982,-2.314
2024-09-24 16:33:46.195,214985.636,0.196,0.831,-0.521,-0.023,0.004,-0.003,0.099,-0.026,-0.043,0.36,-0.981,-2.316
2024-09-24 16:33:46.203,214985.646,0.195,0.83,-0.522,-0.018,0.0,-0.004,0.114,-0.037,-0.059,0.358,-0.98,-2.318
2024-09-24 16:33:46.214,214985.656,0.195,0.83,-0.523,-0.016,0.003,-0.004,0.15,-0.051,-0.059,0.356,-0.979,-2.32
2024-09-24 16:33:46.223,214985.666,0.194,0.829,-0.524,-0.019,0.008,0.004,0.186,-0.071,-0.077,0.354,-0.978,-2.322
2024-09-24 16:33:46.233,214985.676,0.193,0.828,-0.526,-0.016,0.019,0.013,0.239,-0.088,-0.089,0.351,-0.976,-2.325
2024-09-24 16:33:46.243,214985.686,0.191,0.827,-0.529,-0.014,0.027,0.011,0.309,-0.101,-0.095,0.347,-0.974,-2.328
2024-09-24 16:33:46.253,214985.696,0.191,0.825,-0.532,-0.014,0.028,0.015,0.359,0.012,-0.032,0.344,-0.971,-2.331
2024-09-24 16:33:46.263,214985.706,0.191,0.824,-0.534,-0.016,0.037,0.022,0.2,0.018,-0.015,0.343,-0.968,-2.333
2024-09-24 16:33:46.273,214985.716,0.19,0.823,-0.535,-0.039,0.052,0.005,0.219,0.029,-0.026,0.342,-0.966,-2.335
2024-09-24 16:33:46.283,214985.726,0.191,0.822,-0.537,-0.068,0.07,-0.045,0.197,0.067,-0.0,0.341,-0.964,-2.337
2024-09-24 16:33:46.293,214985.736,0.191,0.821,-0.538,-0.004,-0.064,0.005,0.171,0.113,0.03,0.341,-0.963,-2.338
2024-09-24 16:33:46.303,214985.746,0.192,0.82,-0.54,-0.024,-0.046,0.003,0.143,0.169,0.031,0.342,-0.961,-2.338
2024-09-24 16:33:46.313,214985.756,0.193,0.819,-0.54,-0.039,0.051,0.008,0.054,0.164,0.061,0.344,-0.96,-2.338
2024-09-24 16:33:46.323,214985.765,0.195,0.819,-0.54,-0.038,-0.009,-0.002,-0.015,0.154,0.084,0.346,-0.959,-2.337
2024-09-24 16:33:46.333,214985.775,0.196,0.819,-0.539,-0.038,-0.076,0.0,-0.17,0.124,0.101,0.349,-0.96,-2.335
2024-09-24 16:33:46.344,214985.785,0.198,0.82,-0.537,-0.011,-0.149,0.006,-0.324,0.074,0.071,0.353,-0.962,-2.332
2024-09-24 16:33:46.353,214985.795,0.198,0.822,-0.533,-0.013,-0.104,-0.005,-0.49,0.033,0.063,0.356,-0.965,-2.328
2024-09-24 16:33:46.363,214985.805,0.199,0.825,-0.529,-0.026,-0.055,-0.04,-0.527,0.003,0.056,0.36,-0.97,-2.324
2024-09-24 16:33:46.373,214985.815,0.199,0.827,-0.525,-0.028,-0.051,-0.043,-0.473,0.045,0.054,0.363,-0.975,-2.32
2024-09-24 16:33:46.383,214985.825,0.2,0.83,-0.521,-0.01,-0.057,-0.022,-0.366,0.119,0.083,0.367,-0.978,-2.316
2024-09-24 16:33:46.393,214985.835,0.202,0.831,-0.518,-0.024,0.025,-0.002,-0.297,0.109,0.075,0.371,-0.981,-2.312
2024-09-24 16:33:46.403,214985.845,0.203,0.832,-0.516,-0.046,0.112,0.008,-0.218,0.053,0.033,0.374,-0.983,-2.31
2024-09-24 16:33:46.413,214985.855,0.203,0.833,-0.515,-0.031,0.069,-0.011,-0.053,0.008,0.021,0.376,-0.984,-2.308
2024-09-24 16:33:46.423,214985.865,0.203,0.833,-0.515,-0.001,0.009,0.006,0.096,-0.006,-0.002,0.376,-0.984,-2.308
2024-09-24 16:33:46.433,214985.875,0.203,0.832,-0.516,0.001,0.003,0.031,0.225,-0.028,-0.016,0.375,-0.983,-2.309
2024-09-24 16:33:46.443,214985.885,0.203,0.831,-0.519,-0.002,0.074,0.033,0.342,-0.067,-0.034,0.372,-0.98,-2.312
2024-09-24 16:33:46.452,214985.895,0.202,0.829,-0.522,-0.015,0.11,0.03,0.405,-0.117,-0.066,0.369,-0.977,-2.315
2024-09-24 16:33:46.462,214985.905,0.2,0.827,-0.526,-0.009,0.05,0.034,0.432,-0.127,-0.08,0.364,-0.973,-2.319
2024-09-24 16:33:46.472,214985.915,0.199,0.825,-0.53,0.003,0.002,0.024,0.446,-0.12,-0.08,0.359,-0.969,-2.323
2024-09-24 16:33:46.483,214985.925,0.198,0.822,-0.533,-0.008,0.02,0.019,0.451,-0.045,-0.078,0.355,-0.966,-2.327
2024-09-24 16:33:46.492,214985.935,0.197,0.821,-0.536,-0.023,0.031,0.014,0.246,0.003,-0.059,0.352,-0.962,-2.33
2024-09-24 16:33:46.502,214985.945,0.197,0.82,-0.538,-0.026,0.011,0.003,0.096,0.024,-0.048,0.351,-0.961,-2.332
2024-09-24 16:33:46.512,214985.955,0.197,0.82,-0.538,-0.067,0.004,-0.047,0.056,0.048,-0.04,0.35,-0.961,-2.333
2024-09-24 16:33:46.522,214985.965,0.197,0.819,-0.538,-0.037,-0.065,-0.025,0.005,0.101,-0.026,0.35,-0.96,-2.333
2024-09-24 16:33:46.532,214985.975,0.197,0.819,-0.538,-0.01,-0.124,-0.007,-0.01,0.133,-0.001,0.351,-0.961,-2.333
2024-09-24 16:33:46.542,214985.985,0.198,0.819,-0.538,-0.051,0.024,-0.013,0.026,0.132,0.028,0.353,-0.96,-2.333
2024-09-24 16:33:46.552,214985.995,0.199,0.819,-0.538,-0.04,0.008,-0.002,-0.001,0.162,0.036,0.355,-0.96,-2.332
2024-09-24 16:33:46.563,214986.005,0.2,0.819,-0.537,-0.016,-0.028,0.003,0.0,0.109,0.076,0.357,-0.96,-2.331
2024-09-24 16:33:46.573,214986.015,0.201,0.819,-0.537,-0.041,0.018,-0.003,0.02,0.066,0.047,0.359,-0.96,-2.33
2024-09-24 16:33:46.585,214986.025,0.202,0.819,-0.537,-0.021,-0.026,-0.002,0.04,0.013,0.043,0.36,-0.96,-2.329
2024-09-24 16:33:46.593,214986.035,0.202,0.818,-0.538,-0.003,-0.004,0.005,0.093,-0.028,0.022,0.36,-0.959,-2.328
2024-09-24 16:33:46.603,214986.045,0.202,0.818,-0.539,-0.01,0.037,0.017,0.087,-0.059,0.004,0.359,-0.958,-2.329
2024-09-24 16:33:46.613,214986.055,0.202,0.818,-0.539,-0.001,0.015,0.017,0.049,-0.097,-0.021,0.358,-0.957,-2.329
