Date,TimeStamp,GravityX,GravityY,GravityZ,UserAccelerationX,UserAccelerationY,UserAccelerationZ,RotationRateX,RotationRateY,RotationRateZ,AttitudeRoll,AttitudePitch,AttitudeYaw
2024-10-01 16:13:43.194,34490.294,0.015,-0.249,-0.969,-0.034,-0.024,0.013,-0.075,0.054,-0.052,0.015,0.251,1.382
2024-10-01 16:13:43.213,34490.304,0.015,-0.248,-0.969,-0.023,-0.024,0.016,-0.095,0.043,-0.087,0.016,0.25,1.381
2024-10-01 16:13:43.216,34490.314,0.016,-0.247,-0.969,-0.009,-0.04,0.022,-0.104,0.024,-0.108,0.016,0.249,1.38
2024-10-01 16:13:43.221,34490.324,0.016,-0.246,-0.969,-0.005,-0.042,0.027,-0.097,0.027,-0.124,0.017,0.248,1.379
2024-10-01 16:13:43.223,34490.334,0.017,-0.245,-0.969,-0.004,-0.036,0.03,-0.082,0.032,-0.13,0.017,0.247,1.378
2024-10-01 16:13:43.225,34490.344,0.017,-0.244,-0.97,-0.006,-0.027,0.033,-0.079,0.025,-0.139,0.018,0.246,1.376
2024-10-01 16:13:43.226,34490.354,0.018,-0.243,-0.97,-0.006,-0.023,0.032,-0.078,0.028,-0.153,0.018,0.246,1.375
2024-10-01 16:13:43.228,34490.364,0.019,-0.243,-0.97,-0.008,-0.021,0.027,-0.078,0.032,-0.155,0.019,0.245,1.373
2024-10-01 16:13:43.229,34490.374,0.019,-0.242,-0.97,-0.014,-0.016,0.02,-0.082,0.039,-0.151,0.02,0.244,1.372
2024-10-01 16:13:43.231,34490.384,0.02,-0.241,-0.97,-0.016,-0.007,0.013,-0.072,0.037,-0.152,0.021,0.244,1.37
2024-10-01 16:13:43.234,34490.394,0.021,-0.241,-0.97,-0.018,-0.0,0.008,-0.079,0.045,-0.146,0.021,0.243,1.369
2024-10-01 16:13:43.236,34490.404,0.021,-0.24,-0.971,-0.018,0.001,0.004,-0.093,0.051,-0.138,0.022,0.242,1.367
2024-10-01 16:13:43.237,34490.414,0.022,-0.239,-0.971,-0.019,-0.002,0.002,-0.098,0.038,-0.137,0.023,0.241,1.366
2024-10-01 16:13:43.238,34490.424,0.023,-0.238,-0.971,-0.014,-0.001,0.004,-0.101,0.034,-0.137,0.023,0.24,1.365
2024-10-01 16:13:43.239,34490.434,0.023,-0.237,-0.971,-0.007,0.003,0.005,-0.1,0.027,-0.14,0.024,0.239,1.363
2024-10-01 16:13:43.240,34490.444,0.024,-0.236,-0.971,-0.006,0.004,0.007,-0.09,0.02,-0.14,0.025,0.239,1.362
2024-10-01 16:13:43.241,34490.454,0.024,-0.235,-0.972,-0.004,0.004,0.007,-0.086,0.02,-0.145,0.025,0.238,1.36
2024-10-01 16:13:43.242,34490.464,0.025,-0.235,-0.972,-0.002,0.004,0.008,-0.088,0.018,-0.137,0.026,0.237,1.359
2024-10-01 16:13:43.244,34490.474,0.025,-0.234,-0.972,-0.002,-0.001,0.012,-0.106,0.023,-0.134,0.026,0.236,1.358
2024-10-01 16:13:43.245,34490.484,0.026,-0.233,-0.972,-0.003,-0.006,0.012,-0.126,0.017,-0.131,0.027,0.235,1.356
2024-10-01 16:13:43.247,34490.494,0.026,-0.231,-0.973,-0.003,-0.009,0.011,-0.135,0.016,-0.127,0.027,0.233,1.355
2024-10-01 16:13:43.249,34490.504,0.027,-0.23,-0.973,-0.005,-0.006,0.011,-0.124,0.011,-0.121,0.027,0.232,1.354
2024-10-01 16:13:43.250,34490.514,0.027,-0.229,-0.973,-0.006,-0.002,0.01,-0.104,0.015,-0.124,0.028,0.231,1.353
2024-10-01 16:13:43.252,34490.524,0.027,-0.228,-0.973,-0.005,0.001,0.007,-0.093,0.012,-0.123,0.028,0.23,1.351
2024-10-01 16:13:43.253,34490.534,0.028,-0.227,-0.974,-0.005,0.002,0.002,-0.086,0.021,-0.129,0.028,0.229,1.35
2024-10-01 16:13:43.263,34490.544,0.028,-0.226,-0.974,-0.011,-0.001,-0.005,-0.081,0.031,-0.129,0.029,0.228,1.349
2024-10-01 16:13:43.273,34490.554,0.029,-0.225,-0.974,-0.014,-0.0,-0.009,-0.072,0.042,-0.121,0.03,0.227,1.348
2024-10-01 16:13:43.284,34490.564,0.03,-0.225,-0.974,-0.013,0.004,-0.005,-0.072,0.054,-0.133,0.03,0.227,1.346
2024-10-01 16:13:43.293,34490.574,0.03,-0.224,-0.974,-0.009,-0.002,0.002,-0.08,0.055,-0.134,0.031,0.226,1.345
2024-10-01 16:13:43.303,34490.584,0.031,-0.223,-0.974,-0.006,-0.009,0.006,-0.092,0.051,-0.136,0.032,0.225,1.344
2024-10-01 16:13:43.313,34490.594,0.032,-0.222,-0.974,-0.002,-0.012,0.011,-0.1,0.051,-0.143,0.033,0.224,1.342
2024-10-01 16:13:43.324,34490.604,0.033,-0.221,-0.975,-0.002,-0.014,0.014,-0.105,0.053,-0.148,0.034,0.223,1.341
2024-10-01 16:13:43.334,34490.614,0.034,-0.22,-0.975,-0.001,-0.012,0.014,-0.12,0.052,-0.145,0.034,0.222,1.339
2024-10-01 16:13:43.358,34490.624,0.034,-0.219,-0.975,-0.003,-0.007,0.007,-0.135,0.051,-0.141,0.035,0.221,1.338
2024-10-01 16:13:43.373,34490.634,0.035,-0.217,-0.975,-0.003,-0.008,-0.001,-0.152,0.058,-0.149,0.036,0.219,1.336
2024-10-01 16:13:43.377,34490.644,0.036,-0.216,-0.976,-0.005,-0.009,-0.009,-0.157,0.08,-0.161,0.037,0.218,1.335
2024-10-01 16:13:43.380,34490.654,0.037,-0.214,-0.976,-0.01,-0.006,-0.013,-0.151,0.101,-0.171,0.038,0.216,1.333
2024-10-01 16:13:43.382,34490.664,0.039,-0.213,-0.976,-0.012,-0.004,-0.008,-0.149,0.135,-0.185,0.04,0.214,1.332
2024-10-01 16:13:43.392,34490.674,0.041,-0.211,-0.977,-0.011,-0.007,0.001,-0.163,0.153,-0.191,0.042,0.213,1.33
2024-10-01 16:13:43.403,34490.684,0.042,-0.21,-0.977,-0.01,-0.016,0.009,-0.178,0.153,-0.195,0.043,0.211,1.328
2024-10-01 16:13:43.413,34490.694,0.044,-0.208,-0.977,-0.0,-0.014,0.017,-0.192,0.153,-0.198,0.045,0.209,1.326
2024-10-01 16:13:43.423,34490.704,0.046,-0.206,-0.977,0.011,-0.009,0.014,-0.187,0.161,-0.198,0.047,0.207,1.324
2024-10-01 16:13:43.433,34490.714,0.048,-0.204,-0.978,0.012,-0.006,0.007,-0.191,0.163,-0.202,0.049,0.206,1.322
2024-10-01 16:13:43.443,34490.724,0.05,-0.202,-0.978,0.012,0.0,-0.0,-0.184,0.152,-0.202,0.051,0.204,1.32
2024-10-01 16:13:43.453,34490.734,0.052,-0.2,-0.978,0.009,0.005,-0.008,-0.167,0.145,-0.206,0.053,0.202,1.318
2024-10-01 16:13:43.463,34490.744,0.054,-0.199,-0.979,0.009,0.014,-0.01,-0.147,0.156,-0.205,0.055,0.2,1.316
2024-10-01 16:13:43.473,34490.754,0.056,-0.197,-0.979,0.0,0.016,-0.011,-0.124,0.166,-0.204,0.057,0.199,1.314
2024-10-01 16:13:43.484,34490.764,0.058,-0.196,-0.979,-0.005,0.017,-0.013,-0.104,0.188,-0.205,0.059,0.197,1.312
2024-10-01 16:13:43.494,34490.773,0.06,-0.195,-0.979,-0.009,0.017,-0.01,-0.096,0.204,-0.202,0.061,0.196,1.31
2024-10-01 16:13:43.518,34490.783,0.062,-0.194,-0.979,-0.011,0.012,-0.006,-0.087,0.213,-0.203,0.064,0.195,1.308
2024-10-01 16:13:43.523,34490.793,0.065,-0.193,-0.979,-0.007,0.009,-0.0,-0.099,0.214,-0.198,0.066,0.194,1.306
2024-10-01 16:13:43.526,34490.803,0.067,-0.192,-0.979,0.002,0.006,0.006,-0.116,0.2,-0.185,0.069,0.193,1.304
2024-10-01 16:13:43.533,34490.813,0.07,-0.191,-0.979,0.008,0.007,0.004,-0.131,0.2,-0.177,0.071,0.192,1.303
2024-10-01 16:13:43.543,34490.823,0.072,-0.189,-0.979,0.014,0.009,-0.001,-0.137,0.184,-0.169,0.073,0.19,1.301
2024-10-01 16:13:43.553,34490.833,0.074,-0.188,-0.979,0.013,0.01,-0.011,-0.137,0.184,-0.165,0.075,0.189,1.299
2024-10-01 16:13:43.563,34490.843,0.076,-0.186,-0.98,0.009,0.014,-0.017,-0.113,0.187,-0.164,0.077,0.187,1.298
2024-10-01 16:13:43.573,34490.853,0.078,-0.185,-0.98,0.003,0.021,-0.021,-0.078,0.196,-0.157,0.08,0.186,1.296
2024-10-01 16:13:43.583,34490.863,0.08,-0.184,-0.98,-0.001,0.03,-0.022,-0.062,0.203,-0.149,0.082,0.185,1.295
2024-10-01 16:13:43.593,34490.873,0.083,-0.184,-0.98,-0.007,0.027,-0.02,-0.069,0.216,-0.137,0.084,0.185,1.293
2024-10-01 16:13:43.603,34490.883,0.085,-0.183,-0.979,-0.011,0.018,-0.014,-0.092,0.224,-0.126,0.087,0.184,1.292
2024-10-01 16:13:43.613,34490.893,0.088,-0.182,-0.979,-0.012,0.009,-0.004,-0.128,0.226,-0.127,0.089,0.183,1.291
2024-10-01 16:13:43.623,34490.903,0.09,-0.18,-0.98,-0.011,-0.0,0.007,-0.165,0.226,-0.132,0.092,0.181,1.29
2024-10-01 16:13:43.633,34490.913,0.093,-0.178,-0.98,-0.013,-0.005,0.012,-0.198,0.234,-0.136,0.094,0.179,1.289
2024-10-01 16:13:43.643,34490.923,0.095,-0.176,-0.98,-0.018,-0.011,0.011,-0.215,0.256,-0.141,0.097,0.177,1.287
2024-10-01 16:13:43.653,34490.933,0.098,-0.174,-0.98,-0.028,-0.013,0.008,-0.233,0.275,-0.148,0.1,0.175,1.286
2024-10-01 16:13:43.663,34490.943,0.101,-0.171,-0.98,-0.033,-0.014,0.005,-0.278,0.301,-0.154,0.103,0.172,1.285
2024-10-01 16:13:43.673,34490.953,0.105,-0.168,-0.98,-0.035,-0.022,0.003,-0.366,0.334,-0.152,0.106,0.169,1.284
2024-10-01 16:13:43.683,34490.963,0.108,-0.163,-0.981,-0.042,-0.038,0.009,-0.513,0.37,-0.135,0.11,0.164,1.283
2024-10-01 16:13:43.693,34490.973,0.112,-0.157,-0.981,-0.051,-0.055,0.023,-0.691,0.368,-0.121,0.114,0.158,1.282
2024-10-01 16:13:43.703,34490.983,0.116,-0.15,-0.982,-0.052,-0.071,0.034,-0.849,0.368,-0.125,0.117,0.15,1.282
2024-10-01 16:13:43.713,34490.993,0.12,-0.14,-0.983,-0.045,-0.086,0.042,-0.974,0.38,-0.138,0.121,0.141,1.281
2024-10-01 16:13:43.723,34491.003,0.124,-0.13,-0.984,-0.05,-0.093,0.042,-1.049,0.42,-0.148,0.125,0.131,1.281
2024-10-01 16:13:43.733,34491.013,0.128,-0.12,-0.984,-0.062,-0.085,0.038,-1.08,0.475,-0.169,0.13,0.12,1.281
2024-10-01 16:13:43.743,34491.023,0.133,-0.109,-0.985,-0.075,-0.078,0.035,-1.121,0.523,-0.181,0.135,0.109,1.281
2024-10-01 16:13:43.753,34491.033,0.139,-0.097,-0.986,-0.079,-0.072,0.036,-1.159,0.558,-0.205,0.14,0.097,1.28
2024-10-01 16:13:43.763,34491.043,0.145,-0.085,-0.986,-0.074,-0.078,0.038,-1.228,0.623,-0.236,0.146,0.085,1.28
2024-10-01 16:13:43.773,34491.053,0.152,-0.072,-0.986,-0.071,-0.098,0.042,-1.371,0.704,-0.237,0.153,0.072,1.28
2024-10-01 16:13:43.783,34491.063,0.159,-0.057,-0.986,-0.074,-0.111,0.056,-1.617,0.791,-0.223,0.16,0.057,1.28
2024-10-01 16:13:43.793,34491.073,0.168,-0.039,-0.985,-0.075,-0.128,0.074,-2.071,0.941,-0.146,0.169,0.039,1.281
2024-10-01 16:13:43.803,34491.083,0.177,-0.016,-0.984,-0.076,-0.161,0.104,-2.6,0.976,-0.092,0.178,0.016,1.284
2024-10-01 16:13:43.813,34491.093,0.187,0.012,-0.982,-0.081,-0.204,0.115,-3.037,0.922,-0.101,0.188,-0.012,1.288
2024-10-01 16:13:43.823,34491.103,0.196,0.044,-0.98,-0.048,-0.221,0.121,-3.337,0.897,-0.135,0.197,-0.044,1.293
2024-10-01 16:13:43.833,34491.113,0.204,0.078,-0.976,-0.023,-0.203,0.112,-3.492,0.947,-0.16,0.206,-0.078,1.298
2024-10-01 16:13:43.842,34491.123,0.214,0.112,-0.97,-0.045,-0.166,0.085,-3.589,1.081,-0.124,0.217,-0.113,1.304
2024-10-01 16:13:43.852,34491.133,0.225,0.148,-0.963,-0.08,-0.134,0.071,-3.709,1.242,-0.086,0.23,-0.148,1.311
2024-10-01 16:13:43.862,34491.143,0.238,0.184,-0.954,-0.104,-0.12,0.055,-3.91,1.419,-0.043,0.244,-0.185,1.32
2024-10-01 16:13:43.873,34491.153,0.252,0.223,-0.942,-0.122,-0.127,0.051,-4.178,1.537,-0.022,0.261,-0.225,1.33
2024-10-01 16:13:43.882,34491.163,0.266,0.263,-0.927,-0.136,-0.144,0.053,-4.395,1.601,-0.026,0.28,-0.266,1.341
2024-10-01 16:13:43.892,34491.173,0.281,0.304,-0.91,-0.131,-0.154,0.053,-4.493,1.628,-0.036,0.299,-0.309,1.354
2024-10-01 16:13:43.902,34491.183,0.296,0.344,-0.891,-0.122,-0.138,0.055,-4.521,1.686,-0.047,0.321,-0.352,1.368
2024-10-01 16:13:43.912,34491.193,0.311,0.384,-0.869,-0.117,-0.093,0.071,-4.579,1.854,-0.042,0.344,-0.395,1.384
2024-10-01 16:13:43.922,34491.203,0.327,0.424,-0.844,-0.12,-0.066,0.086,-4.682,1.987,-0.038,0.37,-0.438,1.401
2024-10-01 16:13:43.933,34491.213,0.344,0.464,-0.817,-0.125,-0.084,0.09,-4.794,2.035,-0.058,0.399,-0.482,1.42
2024-10-01 16:13:43.943,34491.223,0.36,0.503,-0.786,-0.108,-0.103,0.088,-4.927,2.044,-0.081,0.429,-0.527,1.442
2024-10-01 16:13:43.953,34491.233,0.375,0.541,-0.753,-0.083,-0.096,0.086,-5.031,2.021,-0.122,0.462,-0.572,1.466
2024-10-01 16:13:43.963,34491.243,0.389,0.579,-0.717,-0.075,-0.088,0.052,-5.097,1.985,-0.181,0.497,-0.618,1.493
2024-10-01 16:13:43.973,34491.253,0.401,0.615,-0.679,-0.074,-0.086,0.027,-5.082,1.925,-0.229,0.534,-0.663,1.522
2024-10-01 16:13:43.983,34491.263,0.412,0.65,-0.639,-0.076,-0.079,0.001,-5.064,1.908,-0.249,0.573,-0.707,1.553
2024-10-01 16:13:43.994,34491.273,0.423,0.682,-0.597,-0.072,-0.066,-0.014,-5.126,1.968,-0.26,0.616,-0.751,1.589
2024-10-01 16:13:44.003,34491.283,0.432,0.713,-0.552,-0.082,-0.058,-0.02,-5.272,2.024,-0.268,0.664,-0.794,1.629
2024-10-01 16:13:44.012,34491.293,0.441,0.743,-0.504,-0.091,-0.074,-0.017,-5.547,1.994,-0.369,0.718,-0.837,1.676
2024-10-01 16:13:44.022,34491.303,0.447,0.77,-0.454,-0.079,-0.102,-0.001,-5.351,1.846,-0.34,0.777,-0.879,1.728
2024-10-01 16:13:44.033,34491.313,0.452,0.795,-0.405,-0.028,-0.11,0.023,-5.195,1.73,-0.379,0.84,-0.918,1.786
2024-10-01 16:13:44.042,34491.323,0.455,0.816,-0.357,0.026,-0.088,0.019,-4.913,1.698,-0.417,0.906,-0.954,1.846
2024-10-01 16:13:44.052,34491.333,0.458,0.833,-0.31,0.029,-0.026,0.043,-4.62,1.651,-0.403,0.976,-0.985,1.91
2024-10-01 16:13:44.062,34491.342,0.459,0.848,-0.265,0.028,0.026,0.026,-4.299,1.609,-0.386,1.047,-1.012,1.976
2024-10-01 16:13:44.072,34491.352,0.46,0.86,-0.222,0.022,0.061,0.003,-3.975,1.554,-0.372,1.12,-1.035,2.043
2024-10-01 16:13:44.082,34491.362,0.46,0.869,-0.182,0.01,0.079,-0.012,-3.707,1.546,-0.345,1.193,-1.054,2.109
2024-10-01 16:13:44.092,34491.372,0.459,0.877,-0.144,-0.005,0.098,-0.034,-3.469,1.495,-0.3,1.267,-1.069,2.176
2024-10-01 16:13:44.102,34491.382,0.459,0.882,-0.108,-0.018,0.107,-0.053,-3.245,1.423,-0.268,1.34,-1.08,2.243
2024-10-01 16:13:44.112,34491.392,0.458,0.886,-0.074,-0.017,0.107,-0.07,-3.078,1.375,-0.222,1.411,-1.089,2.308
2024-10-01 16:13:44.122,34491.402,0.457,0.889,-0.041,-0.007,0.108,-0.058,-2.94,1.333,-0.161,1.482,-1.094,2.372
2024-10-01 16:13:44.132,34491.412,0.456,0.89,-0.009,0.007,0.11,-0.043,-2.8,1.284,-0.119,1.55,-1.097,2.434
2024-10-01 16:13:44.142,34491.422,0.455,0.89,0.021,0.022,0.09,-0.024,-2.668,1.231,-0.071,1.616,-1.098,2.494
2024-10-01 16:13:44.152,34491.432,0.454,0.89,0.05,0.026,0.07,-0.005,-2.591,1.223,-0.028,1.679,-1.096,2.552
2024-10-01 16:13:44.162,34491.442,0.453,0.888,0.078,0.026,0.06,0.029,-2.517,1.239,-0.007,1.741,-1.093,2.607
2024-10-01 16:13:44.172,34491.452,0.452,0.886,0.106,0.025,0.034,0.04,-2.534,1.243,0.018,1.8,-1.088,2.66
2024-10-01 16:13:44.182,34491.462,0.451,0.883,0.134,0.033,0.018,0.042,-2.54,1.175,0.03,1.859,-1.081,2.713
2024-10-01 16:13:44.193,34491.472,0.449,0.879,0.16,0.042,0.02,0.028,-2.284,1.062,0.008,1.913,-1.074,2.761
2024-10-01 16:13:44.202,34491.482,0.448,0.875,0.183,0.036,0.033,-0.004,-1.899,1.019,0.004,1.959,-1.066,2.802
2024-10-01 16:13:44.212,34491.492,0.446,0.872,0.202,0.028,0.104,-0.017,-1.47,0.995,0.027,1.996,-1.059,2.833
2024-10-01 16:13:44.222,34491.502,0.444,0.869,0.217,0.03,0.175,-0.024,-1.056,0.951,0.05,2.026,-1.054,2.856
2024-10-01 16:13:44.232,34491.512,0.443,0.867,0.229,0.033,0.158,-0.023,-0.642,0.914,0.066,2.048,-1.049,2.871
2024-10-01 16:13:44.242,34491.522,0.441,0.866,0.237,0.029,0.106,-0.01,-0.335,0.905,0.091,2.064,-1.046,2.879
2024-10-01 16:13:44.252,34491.532,0.44,0.864,0.243,0.027,0.086,0.014,-0.177,0.882,0.117,2.076,-1.044,2.882
2024-10-01 16:13:44.262,34491.542,0.439,0.864,0.248,0.033,0.075,0.06,-0.133,0.852,0.112,2.085,-1.042,2.883
2024-10-01 16:13:44.272,34491.552,0.438,0.863,0.253,0.037,0.031,0.093,-0.183,0.826,0.097,2.095,-1.041,2.885
2024-10-01 16:13:44.282,34491.562,0.436,0.862,0.259,0.035,-0.019,0.105,-0.311,0.773,0.08,2.106,-1.039,2.888
2024-10-01 16:13:44.292,34491.572,0.435,0.861,0.265,0.038,-0.059,0.109,-0.446,0.688,0.043,2.118,-1.036,2.894
2024-10-01 16:13:44.302,34491.582,0.433,0.859,0.272,0.047,-0.092,0.106,-0.601,0.577,0.004,2.132,-1.033,2.902
2024-10-01 16:13:44.312,34491.592,0.432,0.857,0.28,0.049,-0.107,0.103,-0.677,0.488,-0.034,2.146,-1.03,2.913
2024-10-01 16:13:44.322,34491.602,0.43,0.856,0.288,0.041,-0.101,0.105,-0.672,0.445,-0.073,2.161,-1.027,2.925
2024-10-01 16:13:44.332,34491.612,0.428,0.854,0.295,0.027,-0.082,0.094,-0.622,0.383,-0.105,2.175,-1.024,2.936
2024-10-01 16:13:44.342,34491.622,0.426,0.853,0.301,0.028,-0.055,0.076,-0.423,0.276,-0.18,2.186,-1.022,2.946
2024-10-01 16:13:44.352,34491.632,0.423,0.853,0.305,0.035,-0.033,0.059,-0.118,0.173,-0.264,2.195,-1.022,2.953
2024-10-01 16:13:44.362,34491.642,0.421,0.855,0.305,0.029,-0.009,0.04,0.206,0.109,-0.309,2.198,-1.025,2.955
2024-10-01 16:13:44.372,34491.652,0.417,0.857,0.302,0.018,0.017,0.041,0.593,0.04,-0.362,2.197,-1.03,2.953
2024-10-01 16:13:44.382,34491.662,0.414,0.861,0.295,0.008,0.012,0.057,1.024,-0.001,-0.411,2.19,-1.038,2.944
2024-10-01 16:13:44.391,34491.672,0.41,0.866,0.285,0.013,-0.026,0.06,1.324,-0.021,-0.425,2.177,-1.048,2.93
2024-10-01 16:13:44.402,34491.682,0.407,0.872,0.273,0.035,-0.042,0.082,1.366,-0.023,-0.382,2.161,-1.059,2.912
2024-10-01 16:13:44.411,34491.692,0.404,0.877,0.261,0.052,-0.047,0.137,1.265,-0.047,-0.414,2.145,-1.069,2.894
2024-10-01 16:13:44.421,34491.702,0.4,0.882,0.251,0.043,-0.074,0.175,1.07,-0.058,-0.462,2.13,-1.079,2.878
2024-10-01 16:13:44.432,34491.712,0.396,0.886,0.242,0.025,-0.109,0.205,0.815,-0.096,-0.499,2.119,-1.088,2.866
2024-10-01 16:13:44.442,34491.722,0.392,0.889,0.236,0.03,-0.13,0.213,0.484,-0.158,-0.567,2.113,-1.096,2.86
2024-10-01 16:13:44.452,34491.732,0.387,0.893,0.232,0.047,-0.137,0.185,0.19,-0.201,-0.623,2.111,-1.103,2.86
2024-10-01 16:13:44.461,34491.742,0.382,0.895,0.23,0.055,-0.122,0.125,0.032,-0.266,-0.628,2.114,-1.109,2.866
2024-10-01 16:13:44.472,34491.752,0.377,0.898,0.229,0.064,-0.088,0.077,-0.045,-0.312,-0.614,2.117,-1.114,2.873
2024-10-01 16:13:44.482,34491.762,0.372,0.9,0.228,0.073,-0.037,0.065,-0.049,-0.376,-0.623,2.121,-1.119,2.881
2024-10-01 16:13:44.492,34491.772,0.367,0.902,0.227,0.064,0.012,0.076,0.035,-0.421,-0.599,2.124,-1.124,2.889
2024-10-01 16:13:44.501,34491.782,0.363,0.904,0.225,0.05,0.027,0.089,0.162,-0.429,-0.579,2.125,-1.13,2.894
2024-10-01 16:13:44.512,34491.792,0.359,0.907,0.221,0.032,0.012,0.098,0.348,-0.425,-0.553,2.122,-1.136,2.896
2024-10-01 16:13:44.521,34491.802,0.355,0.91,0.215,0.023,-0.002,0.096,0.561,-0.437,-0.536,2.116,-1.143,2.894
2024-10-01 16:13:44.531,34491.812,0.351,0.913,0.207,0.026,0.009,0.076,0.806,-0.426,-0.52,2.105,-1.151,2.886
2024-10-01 16:13:44.541,34491.822,0.347,0.917,0.197,0.03,0.043,0.051,1.072,-0.383,-0.484,2.088,-1.16,2.872
2024-10-01 16:13:44.551,34491.832,0.343,0.921,0.185,0.03,0.089,0.025,1.235,-0.371,-0.475,2.066,-1.17,2.853
2024-10-01 16:13:44.561,34491.842,0.34,0.925,0.172,0.031,0.141,0.038,1.357,-0.345,-0.505,2.04,-1.18,2.829
2024-10-01 16:13:44.572,34491.852,0.335,0.929,0.158,0.03,0.16,0.056,1.434,-0.335,-0.519,2.012,-1.191,2.801
2024-10-01 16:13:44.582,34491.862,0.331,0.933,0.144,0.029,0.129,0.049,1.42,-0.341,-0.49,1.98,-1.201,2.771
2024-10-01 16:13:44.591,34491.872,0.327,0.936,0.13,0.037,0.05,0.042,1.333,-0.385,-0.456,1.948,-1.211,2.741
2024-10-01 16:13:44.602,34491.882,0.324,0.939,0.116,0.044,-0.04,0.046,1.247,-0.438,-0.42,1.916,-1.22,2.711
2024-10-01 16:13:44.611,34491.892,0.321,0.942,0.104,0.045,-0.079,0.049,1.111,-0.454,-0.34,1.884,-1.227,2.682
2024-10-01 16:13:44.621,34491.902,0.318,0.943,0.092,0.042,-0.034,0.063,0.991,-0.464,-0.256,1.854,-1.233,2.654
2024-10-01 16:13:44.632,34491.911,0.317,0.945,0.082,0.033,0.046,0.087,0.925,-0.462,-0.2,1.824,-1.238,2.628
2024-10-01 16:13:44.642,34491.921,0.315,0.946,0.072,0.018,0.1,0.096,0.918,-0.477,-0.143,1.795,-1.242,2.602
2024-10-01 16:13:44.651,34491.931,0.315,0.947,0.062,0.022,0.131,0.11,0.887,-0.522,-0.073,1.765,-1.244,2.575
2024-10-01 16:13:44.661,34491.941,0.314,0.948,0.052,0.028,0.178,0.126,0.933,-0.544,-0.015,1.733,-1.246,2.548
2024-10-01 16:13:44.671,34491.951,0.315,0.948,0.041,0.019,0.203,0.103,0.999,-0.581,0.052,1.699,-1.248,2.518
2024-10-01 16:13:44.681,34491.961,0.316,0.948,0.029,0.022,0.195,0.044,1.076,-0.629,0.151,1.662,-1.248,2.485
2024-10-01 16:13:44.691,34491.971,0.318,0.948,0.016,0.045,0.183,-0.002,1.179,-0.693,0.263,1.621,-1.247,2.449
2024-10-01 16:13:44.701,34491.981,0.321,0.947,0.002,0.07,0.153,-0.021,1.292,-0.74,0.378,1.577,-1.244,2.41
2024-10-01 16:13:44.711,34491.991,0.325,0.946,-0.013,0.083,0.117,-0.024,1.366,-0.755,0.473,1.531,-1.239,2.369
2024-10-01 16:13:44.721,34492.001,0.33,0.944,-0.028,0.082,0.097,-0.014,1.403,-0.744,0.527,1.485,-1.233,2.328
2024-10-01 16:13:44.731,34492.011,0.335,0.941,-0.044,0.069,0.078,-0.009,1.43,-0.712,0.533,1.44,-1.227,2.288
2024-10-01 16:13:44.741,34492.021,0.339,0.939,-0.06,0.053,0.046,-0.011,1.494,-0.673,0.506,1.395,-1.219,2.248
2024-10-01 16:13:44.751,34492.031,0.343,0.936,-0.077,0.045,0.002,-0.019,1.57,-0.655,0.457,1.351,-1.211,2.208
2024-10-01 16:13:44.762,34492.041,0.347,0.933,-0.094,0.04,-0.04,-0.03,1.646,-0.649,0.402,1.306,-1.203,2.167
2024-10-01 16:13:44.771,34492.051,0.349,0.93,-0.112,0.031,-0.064,-0.043,1.802,-0.633,0.329,1.26,-1.195,2.124
2024-10-01 16:13:44.780,34492.061,0.351,0.927,-0.132,0.018,-0.094,-0.058,1.986,-0.633,0.251,1.211,-1.186,2.079
2024-10-01 16:13:44.790,34492.071,0.352,0.923,-0.154,0.016,-0.119,-0.074,2.207,-0.659,0.182,1.16,-1.176,2.03
2024-10-01 16:13:44.801,34492.081,0.353,0.919,-0.177,0.025,-0.136,-0.09,2.459,-0.673,0.126,1.105,-1.165,1.977
2024-10-01 16:13:44.811,34492.091,0.352,0.914,-0.204,0.03,-0.16,-0.092,2.751,-0.701,0.055,1.047,-1.152,1.921
2024-10-01 16:13:44.821,34492.101,0.351,0.907,-0.232,0.033,-0.194,-0.082,2.98,-0.709,-0.033,0.986,-1.137,1.863
2024-10-01 16:13:44.831,34492.111,0.348,0.9,-0.262,0.031,-0.227,-0.058,3.038,-0.621,-0.102,0.927,-1.12,1.804
2024-10-01 16:13:44.841,34492.121,0.346,0.892,-0.29,0.016,-0.252,-0.009,2.869,-0.517,-0.196,0.872,-1.103,1.75
2024-10-01 16:13:44.851,34492.131,0.342,0.885,-0.316,-0.016,-0.266,0.033,2.555,-0.452,-0.332,0.825,-1.087,1.702
2024-10-01 16:13:44.861,34492.141,0.337,0.879,-0.339,-0.037,-0.258,0.062,2.224,-0.445,-0.485,0.783,-1.073,1.659
2024-10-01 16:13:44.871,34492.151,0.33,0.873,-0.358,-0.032,-0.258,0.073,1.908,-0.46,-0.628,0.745,-1.062,1.621
2024-10-01 16:13:44.881,34492.161,0.322,0.869,-0.375,-0.02,-0.267,0.058,1.583,-0.524,-0.761,0.71,-1.054,1.587
2024-10-01 16:13:44.891,34492.171,0.313,0.866,-0.389,-0.022,-0.252,0.032,1.338,-0.562,-0.858,0.678,-1.048,1.556
2024-10-01 16:13:44.901,34492.181,0.303,0.864,-0.402,-0.045,-0.217,0.019,1.163,-0.573,-0.91,0.647,-1.043,1.527
2024-10-01 16:13:44.911,34492.191,0.293,0.862,-0.413,-0.071,-0.159,0.02,0.982,-0.548,-0.901,0.618,-1.04,1.499
2024-10-01 16:13:44.921,34492.201,0.283,0.861,-0.422,-0.087,-0.086,0.047,0.767,-0.516,-0.888,0.592,-1.038,1.475
2024-10-01 16:13:44.931,34492.211,0.274,0.861,-0.429,-0.093,-0.051,0.072,0.543,-0.518,-0.882,0.568,-1.037,1.454
2024-10-01 16:13:44.941,34492.221,0.264,0.861,-0.434,-0.092,-0.05,0.077,0.321,-0.552,-0.878,0.546,-1.038,1.435
2024-10-01 16:13:44.951,34492.231,0.254,0.863,-0.438,-0.079,-0.044,0.068,0.187,-0.574,-0.868,0.526,-1.04,1.417
2024-10-01 16:13:44.961,34492.241,0.244,0.864,-0.44,-0.074,-0.029,0.033,0.103,-0.572,-0.851,0.506,-1.043,1.401
2024-10-01 16:13:44.971,34492.251,0.234,0.866,-0.442,-0.083,0.024,0.016,0.109,-0.557,-0.845,0.487,-1.047,1.385
2024-10-01 16:13:44.981,34492.261,0.224,0.867,-0.445,-0.094,0.109,0.015,0.238,-0.55,-0.835,0.467,-1.049,1.369
2024-10-01 16:13:44.991,34492.271,0.215,0.867,-0.45,-0.096,0.158,0.008,0.512,-0.56,-0.84,0.445,-1.049,1.351
2024-10-01 16:13:45.002,34492.281,0.205,0.866,-0.456,-0.094,0.143,-0.004,0.763,-0.551,-0.784,0.422,-1.047,1.33
2024-10-01 16:13:45.011,34492.291,0.196,0.864,-0.465,-0.079,0.115,-0.003,0.91,-0.533,-0.718,0.399,-1.042,1.31
2024-10-01 16:13:45.021,34492.301,0.188,0.861,-0.474,-0.059,0.099,0.022,0.947,-0.506,-0.685,0.377,-1.036,1.29
2024-10-01 16:13:45.031,34492.311,0.18,0.857,-0.482,-0.057,0.079,0.042,0.875,-0.455,-0.637,0.356,-1.03,1.272
2024-10-01 16:13:45.041,34492.321,0.172,0.855,-0.49,-0.053,0.074,0.055,0.668,-0.387,-0.577,0.338,-1.025,1.256
2024-10-01 16:13:45.051,34492.331,0.166,0.853,-0.495,-0.055,0.068,0.066,0.378,-0.342,-0.506,0.324,-1.022,1.243
2024-10-01 16:13:45.061,34492.341,0.16,0.853,-0.497,-0.063,0.051,0.066,0.139,-0.343,-0.444,0.312,-1.021,1.233
2024-10-01 16:13:45.071,34492.351,0.155,0.853,-0.498,-0.054,0.02,0.056,-0.054,-0.429,-0.447,0.301,-1.022,1.224
2024-10-01 16:13:45.080,34492.361,0.149,0.854,-0.498,-0.027,0.008,0.059,-0.087,-0.361,-0.381,0.29,-1.024,1.217
2024-10-01 16:13:45.090,34492.371,0.145,0.855,-0.499,-0.026,0.021,0.097,0.107,-0.342,-0.237,0.282,-1.025,1.211
2024-10-01 16:13:45.101,34492.381,0.141,0.854,-0.502,-0.013,0.093,0.043,0.46,-0.324,-0.275,0.274,-1.023,1.205
2024-10-01 16:13:45.111,34492.391,0.138,0.851,-0.507,0.011,0.198,-0.039,0.75,-0.139,-0.165,0.265,-1.017,1.198
2024-10-01 16:13:45.121,34492.401,0.136,0.847,-0.514,-0.034,0.211,-0.06,0.82,-0.088,-0.116,0.259,-1.01,1.192
2024-10-01 16:13:45.131,34492.411,0.134,0.843,-0.521,-0.053,0.163,-0.023,0.888,-0.112,-0.183,0.252,-1.002,1.185
2024-10-01 16:13:45.141,34492.421,0.132,0.838,-0.529,-0.036,0.083,0.024,0.959,-0.159,-0.241,0.244,-0.994,1.177
2024-10-01 16:13:45.151,34492.431,0.129,0.833,-0.538,-0.005,0.027,0.035,1.105,-0.181,-0.308,0.234,-0.985,1.168
2024-10-01 16:13:45.160,34492.441,0.125,0.827,-0.548,0.01,0.009,0.026,1.24,-0.103,-0.266,0.225,-0.974,1.158
2024-10-01 16:13:45.170,34492.451,0.123,0.82,-0.559,-0.002,0.006,0.01,1.302,-0.064,-0.191,0.217,-0.962,1.149
2024-10-01 16:13:45.180,34492.461,0.121,0.813,-0.569,0.023,0.033,0.006,1.263,-0.036,-0.15,0.21,-0.95,1.141
2024-10-01 16:13:45.190,34492.471,0.12,0.807,-0.579,0.052,0.071,-0.004,1.08,-0.021,-0.132,0.204,-0.938,1.135
2024-10-01 16:13:45.200,34492.48,0.12,0.801,-0.587,0.06,0.079,-0.001,0.759,0.091,0.08,0.202,-0.928,1.132
2024-10-01 16:13:45.211,34492.49,0.121,0.797,-0.592,0.092,0.08,-0.06,0.536,0.084,-0.073,0.201,-0.922,1.13
2024-10-01 16:13:45.220,34492.5,0.121,0.794,-0.595,0.124,0.099,-0.094,0.483,0.179,-0.014,0.2,-0.918,1.127
2024-10-01 16:13:45.230,34492.51,0.122,0.791,-0.599,-0.044,0.163,-0.045,0.545,0.236,0.049,0.202,-0.913,1.126
2024-10-01 16:13:45.240,34492.52,0.124,0.788,-0.604,-0.1,0.118,-0.001,0.634,0.269,0.015,0.203,-0.907,1.125
2024-10-01 16:13:45.250,34492.53,0.126,0.784,-0.608,0.015,0.036,0.063,0.648,0.285,-0.068,0.204,-0.9,1.122
2024-10-01 16:13:45.260,34492.54,0.127,0.78,-0.613,0.048,-0.058,0.081,0.635,0.269,-0.074,0.204,-0.894,1.119
2024-10-01 16:13:45.270,34492.55,0.128,0.776,-0.618,0.028,-0.132,0.065,0.658,0.242,-0.04,0.204,-0.888,1.116
2024-10-01 16:13:45.281,34492.56,0.129,0.772,-0.622,0.018,-0.102,0.028,0.607,0.268,-0.014,0.205,-0.882,1.113
2024-10-01 16:13:45.290,34492.57,0.131,0.768,-0.626,0.002,-0.014,0.013,0.551,0.242,0.007,0.206,-0.876,1.111
2024-10-01 16:13:45.300,34492.58,0.132,0.765,-0.63,-0.019,-0.001,0.01,0.487,0.233,0.006,0.207,-0.871,1.11
2024-10-01 16:13:45.310,34492.59,0.134,0.762,-0.633,-0.011,-0.025,-0.0,0.428,0.307,0.062,0.209,-0.867,1.109
2024-10-01 16:13:45.320,34492.6,0.137,0.759,-0.636,0.0,-0.005,0.008,0.408,0.363,0.134,0.213,-0.862,1.109
2024-10-01 16:13:45.330,34492.61,0.141,0.757,-0.638,-0.025,0.05,0.004,0.362,0.383,0.155,0.217,-0.858,1.11
2024-10-01 16:13:45.340,34492.62,0.144,0.755,-0.64,-0.032,0.072,-0.001,0.29,0.396,0.127,0.222,-0.855,1.111
2024-10-01 16:13:45.350,34492.63,0.148,0.753,-0.641,-0.008,0.01,0.002,0.166,0.349,0.105,0.226,-0.852,1.112
2024-10-01 16:13:45.360,34492.64,0.15,0.752,-0.642,0.001,-0.066,-0.003,0.0,0.268,0.082,0.23,-0.851,1.113
2024-10-01 16:13:45.370,34492.65,0.152,0.752,-0.641,0.004,-0.099,-0.015,-0.112,0.178,0.055,0.233,-0.852,1.114
2024-10-01 16:13:45.380,34492.66,0.154,0.753,-0.64,0.005,-0.104,-0.025,-0.146,0.154,0.045,0.236,-0.853,1.115
2024-10-01 16:13:45.390,34492.67,0.155,0.754,-0.638,0.006,-0.03,-0.022,-0.151,0.184,0.049,0.238,-0.854,1.117
2024-10-01 16:13:45.400,34492.68,0.157,0.755,-0.637,-0.008,0.062,-0.008,-0.164,0.229,0.048,0.242,-0.856,1.118
2024-10-01 16:13:45.410,34492.69,0.159,0.756,-0.635,-0.017,0.058,0.001,-0.186,0.225,0.023,0.245,-0.857,1.119
2024-10-01 16:13:45.420,34492.7,0.16,0.757,-0.633,-0.001,-0.009,0.005,-0.192,0.215,-0.016,0.247,-0.859,1.12
2024-10-01 16:13:45.429,34492.71,0.161,0.759,-0.631,0.015,-0.038,0.01,-0.21,0.187,-0.04,0.25,-0.861,1.12
2024-10-01 16:13:45.439,34492.72,0.162,0.76,-0.629,0.012,0.0,0.004,-0.203,0.165,-0.014,0.252,-0.863,1.121
2024-10-01 16:13:45.449,34492.73,0.163,0.761,-0.628,0.002,0.03,0.004,-0.201,0.153,0.006,0.254,-0.865,1.121
2024-10-01 16:13:45.459,34492.74,0.164,0.762,-0.626,-0.002,0.032,0.018,-0.147,0.125,0.022,0.256,-0.867,1.122
2024-10-01 16:13:45.470,34492.75,0.165,0.763,-0.625,-0.0,0.021,0.017,-0.074,0.104,0.039,0.258,-0.868,1.123
2024-10-01 16:13:45.480,34492.76,0.166,0.763,-0.625,0.006,0.023,0.015,-0.05,0.085,0.038,0.259,-0.868,1.124
2024-10-01 16:13:45.490,34492.77,0.166,0.764,-0.624,-0.007,0.051,0.006,-0.082,0.071,0.026,0.261,-0.869,1.125
2024-10-01 16:13:45.500,34492.78,0.167,0.764,-0.623,-0.011,0.011,-0.005,-0.164,0.015,0.0,0.262,-0.87,1.125
2024-10-01 16:13:45.510,34492.79,0.167,0.765,-0.622,-0.002,-0.051,-0.015,-0.191,-0.063,-0.04,0.262,-0.872,1.126
2024-10-01 16:13:45.520,34492.8,0.165,0.767,-0.62,0.015,-0.058,-0.012,-0.167,-0.131,-0.071,0.261,-0.874,1.126
2024-10-01 16:13:45.530,34492.81,0.164,0.768,-0.62,0.031,-0.011,0.014,-0.065,-0.168,-0.086,0.259,-0.875,1.125
2024-10-01 16:13:45.539,34492.82,0.162,0.768,-0.62,0.028,0.023,0.042,0.106,-0.205,-0.088,0.256,-0.875,1.124
2024-10-01 16:13:45.550,34492.83,0.16,0.767,-0.622,0.025,0.025,0.053,0.231,-0.165,-0.07,0.252,-0.874,1.122
2024-10-01 16:13:45.560,34492.84,0.159,0.765,-0.624,0.009,0.056,0.046,0.291,-0.093,-0.021,0.25,-0.871,1.12
2024-10-01 16:13:45.569,34492.85,0.159,0.763,-0.626,-0.029,0.063,0.026,0.252,-0.037,0.032,0.248,-0.869,1.119
2024-10-01 16:13:45.580,34492.86,0.159,0.762,-0.628,-0.042,0.027,-0.002,0.161,0.007,0.061,0.248,-0.866,1.119
2024-10-01 16:13:45.590,34492.87,0.16,0.761,-0.629,-0.036,-0.02,-0.019,0.056,0.024,0.074,0.249,-0.865,1.119
2024-10-01 16:13:45.600,34492.88,0.16,0.761,-0.629,-0.028,-0.045,-0.018,-0.044,0.007,0.068,0.25,-0.865,1.121
2024-10-01 16:13:45.610,34492.89,0.161,0.761,-0.628,-0.014,-0.053,-0.016,-0.069,-0.026,0.043,0.251,-0.865,1.122
2024-10-01 16:13:45.620,34492.9,0.161,0.762,-0.628,0.002,-0.039,-0.009,-0.037,-0.062,0.006,0.251,-0.866,1.122
2024-10-01 16:13:45.630,34492.91,0.16,0.762,-0.628,0.016,-0.002,0.013,0.038,-0.073,-0.019,0.25,-0.866,1.122
2024-10-01 16:13:45.640,34492.92,0.16,0.761,-0.629,0.018,0.028,0.028,0.15,-0.095,-0.04,0.249,-0.865,1.122
2024-10-01 16:13:45.649,34492.93,0.159,0.76,-0.63,0.011,0.038,0.03,0.217,-0.082,-0.043,0.247,-0.864,1.12
2024-10-01 16:13:45.660,34492.94,0.158,0.759,-0.632,0.007,0.058,0.019,0.244,-0.04,-0.033,0.245,-0.862,1.119
2024-10-01 16:13:45.670,34492.95,0.157,0.757,-0.634,-0.004,0.051,0.018,0.234,-0.012,-0.026,0.244,-0.859,1.117
2024-10-01 16:13:45.680,34492.96,0.157,0.756,-0.635,-0.009,0.025,0.016,0.186,0.029,-0.008,0.243,-0.857,1.116
2024-10-01 16:13:45.689,34492.97,0.158,0.755,-0.636,-0.007,0.004,0.01,0.091,0.047,-0.005,0.243,-0.856,1.116
2024-10-01 16:13:45.699,34492.98,0.158,0.755,-0.637,-0.009,-0.013,0.007,-0.019,0.043,-0.009,0.243,-0.856,1.115
2024-10-01 16:13:45.710,34492.99,0.158,0.755,-0.636,-0.006,-0.037,-0.007,-0.129,0.018,-0.03,0.243,-0.856,1.115
2024-10-01 16:13:45.719,34493.0,0.158,0.757,-0.634,0.001,-0.054,-0.012,-0.244,-0.017,-0.051,0.244,-0.858,1.116
2024-10-01 16:13:45.729,34493.01,0.157,0.759,-0.632,0.005,-0.051,-0.013,-0.317,-0.035,-0.069,0.243,-0.861,1.116
2024-10-01 16:13:45.740,34493.02,0.156,0.761,-0.63,0.004,-0.052,-0.017,-0.367,-0.04,-0.084,0.243,-0.865,1.116
2024-10-01 16:13:45.749,34493.03,0.155,0.763,-0.627,0.003,-0.033,-0.007,-0.388,-0.022,-0.091,0.243,-0.869,1.116
2024-10-01 16:13:45.759,34493.04,0.155,0.766,-0.624,0.001,-0.017,0.002,-0.37,0.005,-0.093,0.243,-0.873,1.116
2024-10-01 16:13:45.770,34493.049,0.154,0.768,-0.621,-0.003,0.0,0.001,-0.362,0.035,-0.086,0.243,-0.876,1.116
2024-10-01 16:13:45.780,34493.059,0.154,0.771,-0.618,-0.007,0.029,0.005,-0.373,0.052,-0.076,0.244,-0.88,1.116
2024-10-01 16:13:45.790,34493.069,0.153,0.773,-0.615,-0.013,0.008,-0.004,-0.359,0.043,-0.067,0.244,-0.884,1.116
2024-10-01 16:13:45.800,34493.079,0.153,0.775,-0.613,-0.002,-0.014,-0.002,-0.292,0.034,-0.061,0.245,-0.887,1.117
2024-10-01 16:13:45.809,34493.089,0.153,0.777,-0.611,0.002,0.016,0.013,-0.175,-0.008,-0.045,0.245,-0.89,1.117
2024-10-01 16:13:45.819,34493.099,0.152,0.777,-0.61,0.0,0.043,0.022,-0.036,-0.052,-0.043,0.245,-0.891,1.116
2024-10-01 16:13:45.829,34493.109,0.152,0.777,-0.611,0.009,0.051,0.038,0.088,-0.074,-0.045,0.243,-0.89,1.116
2024-10-01 16:13:45.839,34493.119,0.151,0.777,-0.612,0.011,0.047,0.044,0.149,-0.061,-0.028,0.242,-0.889,1.115
2024-10-01 16:13:45.849,34493.129,0.15,0.776,-0.613,-0.001,0.035,0.025,0.16,-0.059,-0.014,0.24,-0.888,1.114
2024-10-01 16:13:45.860,34493.139,0.15,0.775,-0.614,-0.01,0.015,0.019,0.091,-0.052,-0.02,0.239,-0.887,1.113
2024-10-01 16:13:45.869,34493.149,0.149,0.775,-0.614,-0.007,-0.02,0.006,-0.006,-0.036,-0.018,0.239,-0.886,1.112
2024-10-01 16:13:45.879,34493.159,0.149,0.775,-0.614,-0.009,-0.053,-0.012,-0.088,-0.014,-0.014,0.238,-0.887,1.112
2024-10-01 16:13:45.889,34493.169,0.149,0.776,-0.613,-0.009,-0.042,-0.014,-0.134,-0.003,0.001,0.238,-0.888,1.113
2024-10-01 16:13:45.899,34493.179,0.149,0.777,-0.612,-0.01,-0.009,-0.007,-0.143,-0.003,0.013,0.239,-0.889,1.113
2024-10-01 16:13:45.909,34493.189,0.149,0.777,-0.611,-0.006,-0.004,0.003,-0.118,-0.008,0.021,0.239,-0.891,1.114
2024-10-01 16:13:45.919,34493.199,0.149,0.778,-0.61,-0.002,0.001,0.009,-0.07,-0.013,0.023,0.24,-0.892,1.115
2024-10-01 16:13:45.929,34493.209,0.149,0.778,-0.61,-0.0,0.014,0.017,-0.033,-0.022,0.021,0.24,-0.892,1.115
2024-10-01 16:13:45.939,34493.219,0.149,0.779,-0.61,0.001,0.015,0.019,-0.035,-0.035,0.015,0.24,-0.892,1.116
2024-10-01 16:13:45.949,34493.229,0.149,0.779,-0.609,0.001,0.002,0.011,-0.072,-0.065,0.002,0.24,-0.893,1.116
2024-10-01 16:13:45.959,34493.239,0.149,0.779,-0.609,0.002,-0.009,0.001,-0.098,-0.099,-0.014,0.239,-0.894,1.116
2024-10-01 16:13:45.969,34493.249,0.148,0.78,-0.608,0.006,-0.022,-0.002,-0.094,-0.108,-0.028,0.238,-0.895,1.116
2024-10-01 16:13:45.979,34493.259,0.147,0.78,-0.608,0.006,-0.011,0.005,-0.049,-0.114,-0.033,0.237,-0.895,1.116
2024-10-01 16:13:45.989,34493.269,0.146,0.781,-0.608,0.003,0.02,0.018,-0.002,-0.11,-0.033,0.235,-0.896,1.116
2024-10-01 16:13:45.999,34493.279,0.145,0.781,-0.608,0.002,0.035,0.024,0.029,-0.101,-0.036,0.234,-0.895,1.115
2024-10-01 16:13:46.009,34493.289,0.144,0.78,-0.608,-0.001,0.023,0.017,0.04,-0.084,-0.034,0.233,-0.895,1.114
2024-10-01 16:13:46.019,34493.299,0.143,0.78,-0.609,-0.004,0.004,0.012,0.039,-0.068,-0.03,0.231,-0.895,1.114
2024-10-01 16:13:46.029,34493.309,0.143,0.78,-0.609,-0.007,-0.003,0.009,0.016,-0.036,-0.024,0.23,-0.895,1.113
2024-10-01 16:13:46.040,34493.319,0.143,0.78,-0.609,-0.007,-0.001,0.007,-0.036,-0.031,-0.018,0.23,-0.895,1.113
2024-10-01 16:13:46.049,34493.329,0.142,0.781,-0.609,-0.007,-0.01,-0.003,-0.092,-0.051,-0.021,0.23,-0.896,1.113
2024-10-01 16:13:46.059,34493.339,0.142,0.781,-0.608,-0.002,-0.028,-0.01,-0.092,-0.079,-0.026,0.229,-0.897,1.113
2024-10-01 16:13:46.069,34493.349,0.141,0.782,-0.608,0.004,-0.022,-0.004,-0.038,-0.105,-0.037,0.228,-0.897,1.113
2024-10-01 16:13:46.079,34493.359,0.14,0.782,-0.608,0.007,0.015,0.017,0.037,-0.126,-0.041,0.226,-0.898,1.112
2024-10-01 16:13:46.089,34493.369,0.139,0.781,-0.608,0.007,0.042,0.029,0.129,-0.142,-0.044,0.224,-0.897,1.112
2024-10-01 16:13:46.099,34493.379,0.138,0.781,-0.61,0.005,0.033,0.028,0.22,-0.15,-0.048,0.222,-0.895,1.11
2024-10-01 16:13:46.108,34493.389,0.136,0.779,-0.612,0.006,0.037,0.031,0.288,-0.155,-0.052,0.219,-0.893,1.109
2024-10-01 16:13:46.119,34493.399,0.135,0.777,-0.615,0.003,0.04,0.03,0.345,-0.158,-0.067,0.216,-0.89,1.107
2024-10-01 16:13:46.128,34493.409,0.133,0.775,-0.618,0.001,0.02,0.019,0.409,-0.11,-0.07,0.213,-0.887,1.104
2024-10-01 16:13:46.139,34493.419,0.133,0.773,-0.621,0.002,0.02,0.024,0.288,-0.012,-0.034,0.211,-0.883,1.102
2024-10-01 16:13:46.149,34493.429,0.133,0.771,-0.622,-0.018,0.047,0.004,0.209,0.0,-0.005,0.21,-0.881,1.101
2024-10-01 16:13:46.158,34493.439,0.132,0.77,-0.624,-0.033,-0.003,-0.012,0.188,0.003,-0.024,0.209,-0.879,1.1
2024-10-01 16:13:46.169,34493.449,0.132,0.769,-0.625,-0.004,-0.082,-0.002,0.182,0.032,-0.016,0.209,-0.878,1.1
2024-10-01 16:13:46.179,34493.459,0.133,0.768,-0.627,-0.0,0.012,0.004,0.214,0.06,0.011,0.209,-0.876,1.099
2024-10-01 16:13:46.189,34493.469,0.133,0.767,-0.628,-0.013,0.063,0.015,0.248,0.073,0.015,0.209,-0.873,1.098
2024-10-01 16:13:46.198,34493.479,0.134,0.765,-0.63,-0.01,0.018,0.01,0.179,0.148,0.016,0.21,-0.871,1.098
2024-10-01 16:13:46.209,34493.489,0.135,0.764,-0.63,-0.011,-0.007,0.012,0.119,0.174,0.031,0.211,-0.87,1.098
2024-10-01 16:13:46.219,34493.499,0.137,0.764,-0.631,-0.025,-0.051,-0.005,0.055,0.184,0.015,0.213,-0.869,1.098
2024-10-01 16:13:46.228,34493.509,0.138,0.764,-0.631,-0.019,-0.057,-0.01,-0.045,0.208,0.006,0.215,-0.869,1.098
2024-10-01 16:13:46.239,34493.519,0.139,0.764,-0.63,-0.01,-0.048,0.003,-0.191,0.16,0.022,0.217,-0.87,1.099
2024-10-01 16:13:46.249,34493.529,0.14,0.766,-0.628,-0.005,-0.058,-0.013,-0.266,0.061,0.018,0.219,-0.872,1.1
2024-10-01 16:13:46.259,34493.539,0.14,0.767,-0.626,0.006,-0.05,-0.018,-0.208,-0.033,-0.001,0.22,-0.875,1.1
2024-10-01 16:13:46.268,34493.549,0.14,0.769,-0.624,0.027,-0.024,0.017,-0.191,-0.087,-0.023,0.22,-0.877,1.101
2024-10-01 16:13:46.279,34493.559,0.139,0.77,-0.623,0.029,0.036,0.032,-0.202,-0.101,-0.03,0.219,-0.878,1.101
2024-10-01 16:13:46.288,34493.569,0.138,0.771,-0.622,0.004,0.004,0.016,-0.233,-0.084,-0.028,0.218,-0.881,1.101
2024-10-01 16:13:46.299,34493.579,0.137,0.773,-0.62,0.0,-0.05,0.003,-0.189,-0.048,-0.025,0.218,-0.883,1.102
2024-10-01 16:13:46.309,34493.589,0.137,0.773,-0.619,-0.002,0.006,0.016,-0.144,-0.003,-0.006,0.218,-0.884,1.102
2024-10-01 16:13:46.318,34493.599,0.137,0.774,-0.618,-0.011,0.042,0.021,-0.157,0.036,0.008,0.218,-0.886,1.103
2024-10-01 16:13:46.328,34493.609,0.137,0.775,-0.616,-0.015,0.019,0.004,-0.183,0.022,0.018,0.219,-0.887,1.103
2024-10-01 16:13:46.338,34493.618,0.138,0.777,-0.615,-0.01,-0.007,-0.01,-0.193,-0.016,0.009,0.22,-0.889,1.104
2024-10-01 16:13:46.348,34493.628,0.137,0.777,-0.614,0.001,-0.014,-0.01,-0.123,-0.05,-0.009,0.22,-0.891,1.105
2024-10-01 16:13:46.358,34493.638,0.137,0.778,-0.613,0.008,0.004,0.005,-0.05,-0.08,-0.028,0.22,-0.892,1.105
2024-10-01 16:13:46.369,34493.648,0.136,0.778,-0.613,0.01,0.046,0.023,0.034,-0.119,-0.051,0.218,-0.892,1.104
2024-10-01 16:13:46.378,34493.658,0.135,0.778,-0.614,0.011,0.047,0.027,0.118,-0.147,-0.089,0.216,-0.891,1.103
2024-10-01 16:13:46.388,34493.668,0.133,0.777,-0.615,0.016,0.026,0.028,0.195,-0.173,-0.115,0.213,-0.89,1.101
2024-10-01 16:13:46.398,34493.678,0.131,0.776,-0.617,0.014,0.029,0.025,0.288,-0.184,-0.134,0.209,-0.888,1.098
2024-10-01 16:13:46.408,34493.688,0.129,0.774,-0.62,0.009,0.033,0.026,0.393,-0.188,-0.148,0.204,-0.885,1.095
2024-10-01 16:13:46.418,34493.698,0.126,0.771,-0.624,0.009,0.045,0.033,0.46,-0.173,-0.148,0.2,-0.881,1.091
2024-10-01 16:13:46.429,34493.708,0.125,0.768,-0.628,0.007,0.056,0.035,0.483,-0.057,-0.12,0.196,-0.876,1.088
2024-10-01 16:13:46.438,34493.718,0.124,0.766,-0.631,-0.005,0.038,0.025,0.274,-0.022,-0.046,0.194,-0.873,1.085
2024-10-01 16:13:46.448,34493.728,0.123,0.765,-0.632,-0.035,0.023,-0.022,0.183,-0.034,-0.029,0.193,-0.871,1.084
2024-10-01 16:13:46.458,34493.738,0.123,0.764,-0.633,-0.027,-0.081,-0.019,0.052,-0.026,-0.034,0.192,-0.87,1.083
2024-10-01 16:13:46.468,34493.748,0.123,0.764,-0.633,-0.004,-0.117,-0.02,-0.068,0.004,0.007,0.192,-0.87,1.083
2024-10-01 16:13:46.478,34493.758,0.123,0.765,-0.632,-0.014,-0.005,-0.012,-0.131,-0.004,0.029,0.192,-0.871,1.084
2024-10-01 16:13:46.488,34493.768,0.123,0.766,-0.631,-0.021,-0.021,-0.013,-0.128,-0.0,0.004,0.193,-0.872,1.085
2024-10-01 16:13:46.498,34493.778,0.123,0.767,-0.63,-0.004,-0.026,-0.009,-0.19,0.007,0.03,0.193,-0.874,1.085
2024-10-01 16:13:46.508,34493.788,0.124,0.768,-0.628,-0.003,-0.002,-0.005,-0.201,-0.005,0.056,0.194,-0.876,1.087
2024-10-01 16:13:46.518,34493.798,0.124,0.769,-0.627,-0.016,0.021,-0.011,-0.173,-0.008,0.055,0.195,-0.878,1.088
2024-10-01 16:13:46.528,34493.808,0.124,0.77,-0.626,-0.006,0.0,0.005,-0.08,0.015,0.043,0.196,-0.879,1.089
2024-10-01 16:13:46.538,34493.818,0.125,0.77,-0.626,0.002,0.01,0.025,0.005,0.015,0.036,0.197,-0.879,1.09
2024-10-01 16:13:46.548,34493.828,0.125,0.77,-0.626,-0.001,0.02,0.034,0.011,-0.004,0.031,0.197,-0.879,1.09
2024-10-01 16:13:46.559,34493.838,0.125,0.77,-0.626,0.003,0.007,0.03,-0.017,-0.02,0.024,0.197,-0.879,1.091
2024-10-01 16:13:46.568,34493.848,0.125,0.77,-0.626,-0.0,-0.02,0.011,-0.047,-0.04,0.0,0.197,-0.879,1.091
2024-10-01 16:13:46.578,34493.858,0.125,0.77,-0.625,0.006,-0.036,0.005,-0.075,-0.022,-0.04,0.197,-0.88,1.091
2024-10-01 16:13:46.588,34493.868,0.124,0.771,-0.624,0.012,-0.035,0.001,-0.17,-0.015,-0.029,0.197,-0.881,1.091
2024-10-01 16:13:46.598,34493.878,0.124,0.772,-0.623,-0.005,-0.013,0.005,-0.181,-0.006,-0.057,0.196,-0.883,1.091
2024-10-01 16:13:46.608,34493.888,0.123,0.774,-0.621,-0.005,-0.065,0.004,-0.213,0.026,-0.07,0.196,-0.885,1.09
2024-10-01 16:13:46.618,34493.898,0.123,0.775,-0.62,0.003,-0.051,-0.0,-0.138,0.047,-0.025,0.196,-0.887,1.09
2024-10-01 16:13:46.628,34493.908,0.123,0.775,-0.619,-0.015,0.018,0.02,0.043,0.054,-0.003,0.197,-0.887,1.09
2024-10-01 16:13:46.638,34493.918,0.124,0.775,-0.62,-0.013,0.046,0.042,0.154,0.121,0.009,0.197,-0.886,1.09
2024-10-01 16:13:46.648,34493.928,0.125,0.774,-0.621,-0.007,0.08,0.041,0.083,0.143,0.062,0.199,-0.885,1.09
2024-10-01 16:13:46.658,34493.938,0.126,0.774,-0.621,-0.025,0.073,-0.001,0.016,0.07,0.076,0.201,-0.884,1.091
2024-10-01 16:13:46.668,34493.948,0.127,0.773,-0.621,-0.014,-0.007,-0.023,0.006,0.009,0.04,0.202,-0.884,1.092
2024-10-01 16:13:46.678,34493.958,0.127,0.773,-0.621,0.014,-0.044,-0.008,0.027,0.006,0.025,0.202,-0.884,1.092
2024-10-01 16:13:46.688,34493.968,0.128,0.773,-0.621,0.011,0.011,0.007,0.041,-0.017,0.016,0.202,-0.884,1.092
2024-10-01 16:13:46.697,34493.978,0.127,0.773,-0.622,0.001,0.045,0.016,0.083,-0.046,-0.023,0.202,-0.883,1.092
2024-10-01 16:13:46.708,34493.988,0.127,0.772,-0.623,0.013,0.005,0.015,0.151,-0.06,-0.06,0.2,-0.882,1.091
2024-10-01 16:13:46.718,34493.998,0.126,0.771,-0.624,0.016,-0.0,0.02,0.208,-0.059,-0.075,0.199,-0.88,1.09
2024-10-01 16:13:46.727,34494.008,0.125,0.77,-0.626,0.008,0.037,0.025,0.258,-0.074,-0.085,0.197,-0.878,1.088
2024-10-01 16:13:46.738,34494.018,0.124,0.768,-0.628,0.007,0.031,0.017,0.27,-0.06,-0.085,0.194,-0.876,1.085
2024-10-01 16:13:46.748,34494.028,0.123,0.767,-0.63,0.007,0.015,0.014,0.213,0.01,-0.051,0.192,-0.873,1.084
2024-10-01 16:13:46.758,34494.038,0.123,0.766,-0.631,-0.011,0.016,-0.0,0.111,-0.011,-0.013,0.192,-0.872,1.083
2024-10-01 16:13:46.767,34494.048,0.122,0.765,-0.632,-0.031,0.018,-0.017,0.097,-0.039,-0.023,0.191,-0.871,1.082
2024-10-01 16:13:46.777,34494.058,0.122,0.765,-0.633,-0.001,-0.087,0.003,0.035,-0.061,-0.019,0.19,-0.87,1.082
2024-10-01 16:13:46.787,34494.068,0.121,0.764,-0.633,0.005,-0.036,-0.002,0.031,-0.079,-0.006,0.189,-0.87,1.081
2024-10-01 16:13:46.797,34494.078,0.121,0.764,-0.633,-0.007,0.018,0.007,0.028,-0.093,-0.011,0.188,-0.87,1.081
2024-10-01 16:13:46.808,34494.088,0.12,0.764,-0.634,-0.001,-0.01,0.006,0.017,-0.097,-0.005,0.187,-0.87,1.081
2024-10-01 16:13:46.817,34494.098,0.12,0.764,-0.634,0.004,0.003,0.008,0.07,-0.123,0.031,0.186,-0.869,1.081
2024-10-01 16:13:46.827,34494.108,0.119,0.764,-0.634,-0.003,0.025,0.011,-0.034,-0.166,0.034,0.185,-0.869,1.082
2024-10-01 16:13:46.837,34494.118,0.118,0.764,-0.634,-0.002,0.015,0.006,-0.063,-0.157,0.041,0.184,-0.87,1.082
2024-10-01 16:13:46.848,34494.128,0.118,0.765,-0.633,0.001,-0.08,-0.007,-0.194,-0.107,0.038,0.184,-0.871,1.083
2024-10-01 16:13:46.857,34494.138,0.117,0.766,-0.632,-0.004,-0.05,-0.015,-0.161,-0.06,0.064,0.184,-0.873,1.085
2024-10-01 16:13:46.867,34494.148,0.118,0.767,-0.631,-0.022,0.013,0.012,-0.18,0.017,0.019,0.185,-0.874,1.086
2024-10-01 16:13:46.878,34494.158,0.118,0.768,-0.629,-0.009,-0.027,0.013,-0.199,0.027,0.015,0.185,-0.876,1.087
2024-10-01 16:13:46.887,34494.168,0.118,0.769,-0.628,-0.004,-0.032,-0.006,-0.151,0.05,0.014,0.186,-0.878,1.087
2024-10-01 16:13:46.898,34494.178,0.119,0.77,-0.627,-0.008,0.007,0.009,-0.084,0.063,-0.005,0.187,-0.879,1.088
2024-10-01 16:13:46.908,34494.187,0.119,0.77,-0.626,-0.0,-0.005,0.023,-0.001,0.104,-0.007,0.188,-0.88,1.088
2024-10-01 16:13:46.917,34494.197,0.12,0.77,-0.626,-0.002,0.038,0.025,0.067,0.184,0.013,0.189,-0.879,1.088
2024-10-01 16:13:46.927,34494.207,0.122,0.77,-0.627,-0.02,0.043,0.03,0.037,0.304,0.031,0.192,-0.879,1.088
2024-10-01 16:13:46.938,34494.217,0.124,0.77,-0.626,-0.029,0.018,0.021,-0.084,0.317,0.062,0.196,-0.879,1.089
2024-10-01 16:13:46.948,34494.227,0.126,0.771,-0.625,-0.033,-0.01,-0.02,-0.193,0.242,0.056,0.2,-0.88,1.09
2024-10-01 16:13:46.957,34494.237,0.128,0.772,-0.623,-0.01,-0.04,-0.027,-0.228,0.172,0.009,0.202,-0.882,1.091
2024-10-01 16:13:46.967,34494.247,0.129,0.773,-0.621,0.014,-0.061,-0.022,-0.16,0.126,-0.011,0.204,-0.884,1.092
2024-10-01 16:13:46.977,34494.257,0.129,0.774,-0.62,0.017,0.01,0.004,-0.05,0.071,-0.03,0.205,-0.885,1.092
2024-10-01 16:13:46.987,34494.267,0.129,0.774,-0.62,0.013,0.074,0.026,0.073,0.005,-0.053,0.205,-0.885,1.091
2024-10-01 16:13:46.997,34494.277,0.128,0.773,-0.621,0.021,0.05,0.029,0.193,-0.066,-0.074,0.204,-0.884,1.09
2024-10-01 16:13:47.007,34494.287,0.127,0.772,-0.623,0.023,0.042,0.031,0.301,-0.137,-0.097,0.201,-0.881,1.087
2024-10-01 16:13:47.017,34494.297,0.125,0.77,-0.626,0.023,0.048,0.031,0.397,-0.203,-0.123,0.197,-0.878,1.085
2024-10-01 16:13:47.027,34494.307,0.123,0.767,-0.63,0.024,0.037,0.031,0.455,-0.103,-0.122,0.193,-0.874,1.081
2024-10-01 16:13:47.037,34494.317,0.122,0.765,-0.632,0.015,0.03,0.034,0.22,-0.075,-0.046,0.19,-0.871,1.079
2024-10-01 16:13:47.047,34494.327,0.121,0.764,-0.634,-0.03,0.028,-0.021,0.132,-0.088,-0.03,0.189,-0.87,1.078
2024-10-01 16:13:47.057,34494.337,0.12,0.764,-0.634,-0.033,-0.045,-0.023,0.052,-0.065,-0.058,0.187,-0.869,1.077
2024-10-01 16:13:47.067,34494.347,0.12,0.763,-0.635,0.003,-0.133,-0.007,0.018,0.005,-0.03,0.186,-0.869,1.076
2024-10-01 16:13:47.077,34494.357,0.12,0.763,-0.635,-0.012,0.021,-0.005,-0.021,0.075,-0.009,0.186,-0.868,1.076
2024-10-01 16:13:47.087,34494.367,0.12,0.764,-0.634,-0.03,0.051,-0.003,-0.075,0.068,0.015,0.187,-0.869,1.076
2024-10-01 16:13:47.097,34494.377,0.121,0.764,-0.634,-0.021,-0.014,-0.01,-0.07,0.048,0.013,0.188,-0.87,1.077
2024-10-01 16:13:47.107,34494.387,0.121,0.765,-0.633,-0.003,-0.055,0.006,-0.047,0.046,0.013,0.189,-0.871,1.077
2024-10-01 16:13:47.117,34494.397,0.122,0.765,-0.632,0.003,-0.013,0.014,-0.123,0.019,0.017,0.19,-0.871,1.078
2024-10-01 16:13:47.127,34494.407,0.122,0.766,-0.631,-0.002,-0.01,0.013,-0.153,-0.069,0.04,0.19,-0.873,1.079
2024-10-01 16:13:47.137,34494.417,0.121,0.767,-0.63,0.004,-0.065,0.004,-0.269,-0.115,0.02,0.19,-0.875,1.08
2024-10-01 16:13:47.147,34494.427,0.121,0.769,-0.628,0.012,-0.067,-0.012,-0.305,-0.102,0.034,0.19,-0.878,1.081
2024-10-01 16:13:47.157,34494.437,0.12,0.771,-0.625,0.004,-0.017,0.006,-0.399,-0.069,0.014,0.19,-0.881,1.082
2024-10-01 16:13:47.167,34494.447,0.12,0.774,-0.622,-0.009,-0.045,-0.006,-0.428,-0.056,0.003,0.191,-0.885,1.084
2024-10-01 16:13:47.177,34494.457,0.12,0.777,-0.619,-0.008,-0.025,0.002,-0.436,-0.018,-0.016,0.191,-0.889,1.085
2024-10-01 16:13:47.187,34494.467,0.12,0.779,-0.616,-0.003,-0.044,-0.004,-0.344,0.02,0.024,0.192,-0.893,1.086
2024-10-01 16:13:47.197,34494.477,0.12,0.78,-0.614,-0.009,0.036,0.011,-0.141,0.092,0.04,0.194,-0.895,1.087
2024-10-01 16:13:47.207,34494.487,0.122,0.781,-0.613,-0.013,0.075,0.05,-0.09,0.149,0.069,0.196,-0.896,1.088
2024-10-01 16:13:47.217,34494.497,0.123,0.782,-0.612,-0.017,0.065,0.031,-0.138,0.11,0.113,0.199,-0.897,1.09
2024-10-01 16:13:47.226,34494.507,0.124,0.782,-0.61,-0.02,0.027,-0.011,-0.139,0.028,0.11,0.201,-0.898,1.092
2024-10-01 16:13:47.237,34494.517,0.125,0.783,-0.609,-0.004,-0.031,-0.007,-0.151,-0.034,0.085,0.203,-0.899,1.094
2024-10-01 16:13:47.247,34494.527,0.125,0.784,-0.608,0.015,-0.017,0.001,-0.111,-0.092,0.076,0.203,-0.901,1.096
2024-10-01 16:13:47.257,34494.537,0.125,0.784,-0.608,0.015,0.018,0.008,-0.032,-0.139,0.042,0.203,-0.901,1.097
2024-10-01 16:13:47.267,34494.547,0.124,0.784,-0.608,0.016,0.032,0.016,0.069,-0.157,0.007,0.202,-0.901,1.097
2024-10-01 16:13:47.276,34494.557,0.123,0.783,-0.609,0.016,0.045,0.028,0.158,-0.193,-0.017,0.2,-0.9,1.097
2024-10-01 16:13:47.287,34494.567,0.122,0.782,-0.611,0.013,0.049,0.026,0.253,-0.238,-0.048,0.197,-0.898,1.096
2024-10-01 16:13:47.297,34494.577,0.12,0.78,-0.614,0.018,0.034,0.02,0.361,-0.284,-0.074,0.193,-0.895,1.094
2024-10-01 16:13:47.307,34494.587,0.117,0.778,-0.618,0.02,0.039,0.024,0.479,-0.316,-0.089,0.188,-0.891,1.091
2024-10-01 16:13:47.317,34494.597,0.114,0.775,-0.622,0.017,0.057,0.03,0.571,-0.347,-0.107,0.182,-0.886,1.088
2024-10-01 16:13:47.327,34494.607,0.111,0.771,-0.627,0.017,0.056,0.03,0.647,-0.282,-0.106,0.176,-0.88,1.085
2024-10-01 16:13:47.337,34494.617,0.11,0.767,-0.632,0.015,0.046,0.031,0.551,-0.038,-0.054,0.172,-0.874,1.082
2024-10-01 16:13:47.347,34494.627,0.11,0.764,-0.636,-0.032,0.048,0.014,0.32,-0.04,0.014,0.171,-0.87,1.081
2024-10-01 16:13:47.357,34494.637,0.109,0.762,-0.638,-0.067,0.025,-0.04,0.295,0.028,-0.036,0.17,-0.867,1.08
2024-10-01 16:13:47.367,34494.647,0.11,0.761,-0.64,-0.003,-0.173,0.003,0.176,0.112,-0.026,0.17,-0.865,1.078
2024-10-01 16:13:47.377,34494.657,0.111,0.76,-0.641,-0.01,-0.043,0.006,0.232,0.175,0.033,0.171,-0.863,1.078
2024-10-01 16:13:47.387,34494.667,0.112,0.758,-0.642,-0.033,0.039,0.021,0.213,0.161,0.026,0.173,-0.861,1.078
2024-10-01 16:13:47.396,34494.677,0.113,0.758,-0.643,-0.025,-0.04,0.017,-0.026,0.159,0.042,0.175,-0.86,1.078
2024-10-01 16:13:47.407,34494.687,0.114,0.758,-0.642,-0.02,-0.084,-0.003,-0.221,0.049,0.078,0.177,-0.861,1.079
2024-10-01 16:13:47.416,34494.697,0.115,0.76,-0.64,-0.012,-0.16,-0.023,-0.265,-0.002,0.105,0.178,-0.863,1.081
2024-10-01 16:13:47.426,34494.707,0.116,0.761,-0.638,0.015,-0.071,-0.01,-0.248,-0.013,0.099,0.18,-0.865,1.084
2024-10-01 16:13:47.436,34494.717,0.117,0.763,-0.636,0.002,0.08,0.009,-0.294,-0.022,0.101,0.182,-0.868,1.086
2024-10-01 16:13:47.446,34494.727,0.117,0.765,-0.634,-0.007,0.007,0.001,-0.343,-0.029,0.084,0.183,-0.871,1.088
2024-10-01 16:13:47.457,34494.737,0.118,0.767,-0.631,0.005,-0.05,-0.009,-0.328,0.092,0.123,0.185,-0.874,1.091
2024-10-01 16:13:47.466,34494.747,0.12,0.769,-0.628,-0.007,-0.004,0.003,-0.457,0.198,0.212,0.189,-0.877,1.094
2024-10-01 16:13:47.477,34494.756,0.124,0.772,-0.623,-0.048,0.043,-0.026,-0.673,0.254,0.265,0.196,-0.882,1.1
2024-10-01 16:13:47.486,34494.766,0.128,0.777,-0.617,-0.057,-0.023,-0.072,-0.796,0.276,0.299,0.204,-0.889,1.107
2024-10-01 16:13:47.496,34494.776,0.132,0.781,-0.611,-0.036,-0.088,-0.075,-0.774,0.255,0.29,0.212,-0.896,1.114
2024-10-01 16:13:47.506,34494.786,0.135,0.785,-0.605,-0.021,0.029,-0.055,-0.591,0.185,0.153,0.219,-0.902,1.12
2024-10-01 16:13:47.516,34494.796,0.136,0.788,-0.601,-0.043,0.152,-0.053,-0.411,-0.004,-0.038,0.222,-0.907,1.123
2024-10-01 16:13:47.526,34494.806,0.125,0.793,-0.596,-0.076,0.172,-0.05,-0.595,-0.927,-0.701,0.206,-0.916,1.11
2024-10-01 16:13:47.536,34494.816,0.118,0.796,-0.594,-0.321,0.093,0.054,-0.275,-0.535,-0.311,0.196,-0.92,1.106
2024-10-01 16:13:47.546,34494.826,0.113,0.797,-0.594,-0.159,0.167,0.015,0.163,-0.121,-0.209,0.188,-0.921,1.101
2024-10-01 16:13:47.556,34494.836,0.111,0.796,-0.595,0.049,0.218,0.026,-0.147,-0.197,-0.174,0.185,-0.921,1.098
2024-10-01 16:13:47.566,34494.846,0.107,0.798,-0.592,-0.036,-0.021,0.024,-0.398,-0.264,-0.318,0.179,-0.925,1.095
2024-10-01 16:13:47.578,34494.856,0.104,0.801,-0.589,-0.058,0.01,0.074,-0.557,-0.177,-0.307,0.174,-0.93,1.091
2024-10-01 16:13:47.586,34494.866,0.1,0.805,-0.584,-0.095,0.057,0.064,-0.65,-0.134,-0.372,0.17,-0.936,1.088
2024-10-01 16:13:47.596,34494.876,0.096,0.81,-0.579,-0.055,0.052,0.059,-0.731,-0.083,-0.397,0.165,-0.944,1.083
2024-10-01 16:13:47.606,34494.886,0.093,0.814,-0.573,-0.026,-0.043,0.059,-0.725,-0.04,-0.356,0.161,-0.952,1.079
2024-10-01 16:13:47.616,34494.896,0.09,0.819,-0.567,0.019,-0.166,0.112,-0.651,0.005,-0.308,0.158,-0.959,1.075
2024-10-01 16:13:47.626,34494.906,0.088,0.822,-0.562,0.061,-0.211,0.151,-0.537,0.058,-0.259,0.155,-0.965,1.072
2024-10-01 16:13:47.636,34494.916,0.087,0.825,-0.559,0.075,-0.13,0.119,-0.322,0.108,-0.18,0.154,-0.97,1.069
2024-10-01 16:13:47.646,34494.926,0.086,0.826,-0.557,0.063,-0.07,0.046,-0.155,0.096,-0.118,0.153,-0.972,1.067
2024-10-01 16:13:47.656,34494.936,0.086,0.827,-0.556,0.074,-0.057,-0.002,-0.016,0.088,-0.087,0.153,-0.973,1.066
2024-10-01 16:13:47.666,34494.946,0.085,0.827,-0.556,0.102,-0.025,-0.006,0.1,0.093,-0.072,0.153,-0.973,1.064
2024-10-01 16:13:47.676,34494.956,0.086,0.826,-0.557,0.103,0.009,-0.004,0.172,0.092,-0.047,0.152,-0.972,1.063
2024-10-01 16:13:47.686,34494.966,0.086,0.825,-0.559,0.095,0.017,-0.002,0.168,0.086,-0.043,0.152,-0.97,1.062
2024-10-01 16:13:47.696,34494.976,0.086,0.824,-0.56,0.09,0.013,0.015,0.115,0.094,-0.015,0.152,-0.969,1.061
2024-10-01 16:13:47.706,34494.986,0.086,0.824,-0.56,0.075,-0.021,0.029,0.038,0.086,0.002,0.153,-0.968,1.06
2024-10-01 16:13:47.716,34494.996,0.087,0.824,-0.561,0.052,-0.067,0.048,0.046,0.087,0.011,0.154,-0.968,1.06
2024-10-01 16:13:47.726,34495.006,0.087,0.823,-0.561,0.031,-0.077,0.047,0.156,0.092,0.008,0.155,-0.967,1.06
2024-10-01 16:13:47.736,34495.016,0.088,0.822,-0.563,0.017,-0.054,0.013,0.313,0.072,0.004,0.155,-0.964,1.06
2024-10-01 16:13:47.746,34495.026,0.088,0.82,-0.566,0.007,-0.007,-0.024,0.424,0.06,0.013,0.155,-0.961,1.059
2024-10-01 16:13:47.756,34495.036,0.089,0.817,-0.57,0.016,0.033,-0.042,0.442,0.046,0.013,0.155,-0.956,1.058
2024-10-01 16:13:47.766,34495.046,0.089,0.815,-0.573,0.021,0.024,-0.036,0.385,0.001,-0.006,0.154,-0.952,1.057
2024-10-01 16:13:47.776,34495.056,0.089,0.813,-0.576,0.025,0.018,-0.023,0.334,-0.006,-0.019,0.153,-0.949,1.056
2024-10-01 16:13:47.786,34495.066,0.089,0.81,-0.579,0.03,0.035,-0.019,0.683,0.141,0.016,0.152,-0.945,1.054
2024-10-01 16:13:47.796,34495.076,0.09,0.807,-0.584,0.013,0.033,-0.028,0.486,0.167,0.029,0.153,-0.939,1.053
2024-10-01 16:13:47.806,34495.086,0.092,0.804,-0.587,-0.01,0.064,-0.093,0.434,0.188,0.045,0.155,-0.934,1.053
2024-10-01 16:13:47.816,34495.096,0.093,0.802,-0.59,-0.001,0.089,-0.027,0.334,0.171,0.001,0.156,-0.93,1.052
2024-10-01 16:13:47.826,34495.106,0.094,0.8,-0.592,0.003,-0.04,-0.011,0.206,0.111,-0.017,0.157,-0.928,1.051
2024-10-01 16:13:47.836,34495.116,0.094,0.799,-0.594,0.005,-0.077,-0.015,0.116,0.052,-0.003,0.157,-0.926,1.051
2024-10-01 16:13:47.846,34495.126,0.094,0.799,-0.594,0.009,-0.052,-0.021,0.071,0.015,-0.003,0.157,-0.925,1.05
2024-10-01 16:13:47.856,34495.136,0.094,0.798,-0.595,0.007,-0.012,-0.013,0.027,-0.003,-0.007,0.157,-0.925,1.05
2024-10-01 16:13:47.866,34495.146,0.094,0.798,-0.595,0.009,0.015,-0.004,0.028,-0.013,-0.004,0.157,-0.924,1.05
2024-10-01 16:13:47.876,34495.156,0.094,0.798,-0.595,0.003,-0.003,0.002,0.042,-0.002,-0.002,0.157,-0.924,1.05
2024-10-01 16:13:47.886,34495.166,0.094,0.798,-0.596,-0.001,0.002,0.012,0.056,0.003,0.002,0.156,-0.924,1.05
2024-10-01 16:13:47.896,34495.176,0.094,0.797,-0.596,-0.004,0.02,0.015,0.074,-0.009,0.015,0.156,-0.923,1.05
2024-10-01 16:13:47.906,34495.186,0.094,0.797,-0.597,-0.003,0.007,0.009,0.094,-0.035,0.018,0.156,-0.922,1.05
2024-10-01 16:13:47.916,34495.196,0.094,0.796,-0.598,0.005,0.003,0.012,0.118,-0.056,0.015,0.156,-0.921,1.05
2024-10-01 16:13:47.925,34495.206,0.094,0.795,-0.599,0.007,-0.001,0.013,0.135,-0.073,0.009,0.155,-0.92,1.05
2024-10-01 16:13:47.936,34495.216,0.093,0.795,-0.6,0.007,0.011,0.011,0.139,-0.093,-0.008,0.154,-0.918,1.05
2024-10-01 16:13:47.946,34495.226,0.092,0.794,-0.601,0.008,0.015,0.01,0.123,-0.116,-0.041,0.153,-0.917,1.049
2024-10-01 16:13:47.956,34495.236,0.091,0.793,-0.602,0.011,0.007,0.005,0.103,-0.161,-0.08,0.15,-0.916,1.048
2024-10-01 16:13:47.966,34495.246,0.089,0.793,-0.603,0.016,-0.013,-0.004,0.096,-0.185,-0.117,0.147,-0.915,1.046
2024-10-01 16:13:47.975,34495.256,0.087,0.792,-0.604,0.02,-0.005,0.001,0.121,-0.187,-0.135,0.143,-0.915,1.043
2024-10-01 16:13:47.985,34495.266,0.085,0.792,-0.605,0.01,0.024,0.005,0.181,-0.201,-0.135,0.139,-0.913,1.041
2024-10-01 16:13:47.995,34495.276,0.083,0.79,-0.607,0.003,0.042,0.012,0.291,-0.117,-0.127,0.136,-0.911,1.038
2024-10-01 16:13:48.005,34495.286,0.082,0.789,-0.609,-0.001,0.045,0.033,0.263,-0.015,-0.097,0.133,-0.909,1.036
2024-10-01 16:13:48.015,34495.296,0.081,0.787,-0.611,-0.037,0.048,0.017,0.229,0.006,-0.052,0.132,-0.907,1.034
2024-10-01 16:13:48.025,34495.306,0.081,0.786,-0.613,-0.04,0.029,-0.001,0.246,0.052,-0.053,0.131,-0.904,1.033
2024-10-01 16:13:48.035,34495.316,0.081,0.785,-0.615,-0.016,-0.068,0.019,0.256,0.107,-0.039,0.131,-0.902,1.032
2024-10-01 16:13:48.045,34495.325,0.082,0.783,-0.617,-0.022,-0.003,0.008,0.338,0.157,-0.011,0.132,-0.899,1.031
2024-10-01 16:13:48.055,34495.335,0.083,0.781,-0.619,-0.02,0.077,0.015,0.344,0.196,-0.031,0.133,-0.896,1.03
2024-10-01 16:13:48.065,34495.345,0.084,0.779,-0.622,-0.015,0.06,0.015,0.269,0.252,-0.061,0.134,-0.893,1.029
2024-10-01 16:13:48.075,34495.355,0.085,0.778,-0.623,-0.016,-0.006,0.012,0.148,0.266,-0.074,0.136,-0.891,1.027
2024-10-01 16:13:48.085,34495.365,0.086,0.777,-0.623,-0.027,-0.089,0.004,-0.058,0.193,-0.059,0.137,-0.89,1.026
2024-10-01 16:13:48.096,34495.375,0.087,0.779,-0.621,-0.011,-0.119,-0.011,-0.328,0.086,-0.003,0.139,-0.893,1.026
2024-10-01 16:13:48.105,34495.385,0.087,0.78,-0.619,0.018,-0.105,-0.003,-0.097,0.076,-0.031,0.14,-0.895,1.026
2024-10-01 16:13:48.115,34495.395,0.087,0.781,-0.618,0.021,-0.053,-0.008,-0.212,0.075,0.008,0.14,-0.897,1.027
2024-10-01 16:13:48.125,34495.405,0.088,0.783,-0.616,-0.001,0.059,0.006,-0.267,-0.021,0.021,0.141,-0.899,1.027
2024-10-01 16:13:48.135,34495.415,0.088,0.784,-0.614,-0.008,-0.085,-0.002,-0.311,-0.024,-0.011,0.142,-0.902,1.028
2024-10-01 16:13:48.145,34495.425,0.088,0.786,-0.612,0.016,-0.097,-0.002,-0.295,0.074,0.03,0.142,-0.905,1.029
2024-10-01 16:13:48.155,34495.435,0.089,0.788,-0.61,-0.029,-0.01,0.013,-0.163,0.146,0.057,0.145,-0.907,1.03
2024-10-01 16:13:48.165,34495.445,0.09,0.788,-0.609,-0.033,0.069,0.024,-0.03,0.203,0.034,0.147,-0.908,1.031
2024-10-01 16:13:48.175,34495.455,0.092,0.788,-0.608,-0.001,0.105,0.031,-0.025,0.214,0.042,0.15,-0.908,1.032
2024-10-01 16:13:48.185,34495.465,0.093,0.789,-0.608,-0.005,0.07,0.001,-0.077,0.14,0.041,0.152,-0.909,1.032
2024-10-01 16:13:48.195,34495.475,0.094,0.789,-0.607,-0.003,-0.009,-0.016,-0.088,0.043,0.004,0.153,-0.909,1.033
2024-10-01 16:13:48.205,34495.485,0.094,0.79,-0.606,0.022,-0.045,-0.011,-0.035,0.013,-0.024,0.154,-0.91,1.033
2024-10-01 16:13:48.215,34495.495,0.094,0.79,-0.606,0.022,-0.006,0.007,0.018,-0.0,-0.027,0.153,-0.91,1.033
2024-10-01 16:13:48.225,34495.505,0.093,0.789,-0.607,0.005,0.048,0.017,0.08,-0.035,-0.039,0.153,-0.91,1.032
2024-10-01 16:13:48.235,34495.515,0.093,0.789,-0.608,0.008,0.05,0.016,0.145,-0.063,-0.066,0.151,-0.909,1.031
2024-10-01 16:13:48.245,34495.525,0.092,0.788,-0.609,0.015,0.027,0.018,0.211,-0.084,-0.082,0.149,-0.907,1.029
2024-10-01 16:13:48.255,34495.535,0.09,0.786,-0.611,0.01,0.029,0.018,0.271,-0.114,-0.101,0.147,-0.905,1.027
2024-10-01 16:13:48.265,34495.545,0.089,0.785,-0.614,0.009,0.031,0.02,0.337,-0.128,-0.125,0.143,-0.902,1.025
2024-10-01 16:13:48.275,34495.555,0.087,0.782,-0.617,0.014,0.03,0.023,0.398,-0.137,-0.141,0.14,-0.899,1.022
2024-10-01 16:13:48.285,34495.565,0.085,0.78,-0.62,0.009,0.032,0.024,0.429,-0.044,-0.147,0.136,-0.895,1.019
2024-10-01 16:13:48.295,34495.575,0.084,0.778,-0.623,0.002,0.028,0.029,0.227,0.028,-0.112,0.134,-0.892,1.016
2024-10-01 16:13:48.305,34495.585,0.083,0.777,-0.624,-0.034,0.01,-0.016,0.093,0.024,-0.064,0.133,-0.89,1.014
2024-10-01 16:13:48.315,34495.595,0.083,0.777,-0.624,-0.035,-0.029,-0.031,0.006,0.038,-0.09,0.132,-0.89,1.013
2024-10-01 16:13:48.325,34495.605,0.083,0.777,-0.623,-0.007,-0.144,-0.0,-0.123,0.027,-0.047,0.132,-0.891,1.012
2024-10-01 16:13:48.335,34495.615,0.083,0.778,-0.622,-0.012,-0.061,-0.018,-0.134,-0.018,0.005,0.132,-0.892,1.012
2024-10-01 16:13:48.346,34495.625,0.083,0.779,-0.621,-0.01,-0.009,-0.009,-0.136,-0.05,-0.0,0.132,-0.893,1.012
2024-10-01 16:13:48.355,34495.635,0.082,0.78,-0.62,0.003,-0.013,0.0,-0.139,-0.052,0.025,0.132,-0.895,1.013
2024-10-01 16:13:48.365,34495.645,0.082,0.781,-0.619,0.003,0.023,0.003,-0.136,-0.077,0.075,0.132,-0.896,1.014
2024-10-01 16:13:48.375,34495.655,0.082,0.782,-0.618,-0.01,0.018,-0.003,-0.106,-0.099,0.08,0.132,-0.897,1.015
2024-10-01 16:13:48.385,34495.665,0.082,0.782,-0.617,-0.002,-0.007,-0.001,-0.113,-0.095,0.076,0.133,-0.898,1.017
2024-10-01 16:13:48.395,34495.675,0.082,0.783,-0.617,0.005,0.028,0.001,-0.084,-0.038,0.054,0.133,-0.899,1.018
2024-10-01 16:13:48.405,34495.685,0.083,0.783,-0.616,-0.004,0.028,0.007,-0.107,-0.001,0.042,0.134,-0.9,1.019
2024-10-01 16:13:48.415,34495.695,0.083,0.784,-0.615,-0.014,0.007,0.003,-0.124,0.004,0.022,0.134,-0.901,1.02
2024-10-01 16:13:48.425,34495.705,0.083,0.784,-0.615,-0.004,-0.019,0.013,-0.109,-0.046,0.014,0.134,-0.902,1.02
2024-10-01 16:13:48.435,34495.715,0.083,0.785,-0.614,-0.004,-0.043,0.019,-0.051,-0.055,-0.029,0.134,-0.903,1.02
2024-10-01 16:13:48.445,34495.725,0.082,0.786,-0.613,0.009,-0.043,0.019,-0.103,-0.048,-0.055,0.133,-0.904,1.02
2024-10-01 16:13:48.455,34495.735,0.081,0.786,-0.613,0.009,-0.008,0.005,-0.054,-0.046,-0.044,0.132,-0.905,1.019
2024-10-01 16:13:48.465,34495.745,0.081,0.786,-0.612,-0.006,0.018,0.025,-0.04,0.002,-0.059,0.131,-0.905,1.018
2024-10-01 16:13:48.475,34495.755,0.08,0.787,-0.612,-0.016,-0.039,0.03,-0.07,0.055,-0.009,0.131,-0.906,1.018
2024-10-01 16:13:48.485,34495.765,0.081,0.787,-0.611,-0.027,-0.021,0.016,-0.086,0.128,0.046,0.132,-0.906,1.018
2024-10-01 16:13:48.495,34495.775,0.083,0.788,-0.61,-0.042,-0.02,0.012,-0.044,0.166,0.094,0.135,-0.907,1.02
2024-10-01 16:13:48.504,34495.785,0.084,0.788,-0.61,-0.038,-0.007,0.022,0.047,0.147,0.082,0.137,-0.907,1.021
2024-10-01 16:13:48.515,34495.795,0.086,0.787,-0.611,-0.006,0.016,0.026,0.052,0.228,0.065,0.14,-0.906,1.022
2024-10-01 16:13:48.525,34495.805,0.088,0.787,-0.61,0.005,0.034,0.01,-0.068,0.255,0.095,0.143,-0.906,1.023
2024-10-01 16:13:48.535,34495.815,0.09,0.788,-0.609,-0.028,0.035,-0.026,-0.147,0.153,0.085,0.147,-0.907,1.025
2024-10-01 16:13:48.544,34495.825,0.091,0.789,-0.608,-0.003,-0.014,-0.036,-0.137,0.09,0.012,0.149,-0.909,1.026
2024-10-01 16:13:48.554,34495.835,0.091,0.789,-0.607,0.035,-0.058,-0.009,-0.084,0.058,-0.021,0.15,-0.91,1.026
2024-10-01 16:13:48.564,34495.845,0.091,0.79,-0.607,0.025,0.009,0.009,-0.014,0.02,-0.037,0.15,-0.91,1.026
2024-10-01 16:13:48.574,34495.855,0.091,0.789,-0.607,0.015,0.072,0.017,0.07,-0.038,-0.051,0.149,-0.91,1.025
2024-10-01 16:13:48.584,34495.865,0.09,0.789,-0.608,0.017,0.049,0.016,0.196,-0.057,-0.068,0.147,-0.909,1.024
2024-10-01 16:13:48.594,34495.875,0.089,0.787,-0.61,0.017,0.027,0.029,0.306,-0.069,-0.065,0.145,-0.906,1.022
2024-10-01 16:13:48.605,34495.885,0.088,0.785,-0.613,0.005,0.05,0.034,0.375,-0.101,-0.062,0.143,-0.903,1.02
2024-10-01 16:13:48.614,34495.894,0.087,0.783,-0.616,0.006,0.055,0.026,0.399,-0.129,-0.056,0.14,-0.899,1.018
2024-10-01 16:13:48.624,34495.904,0.086,0.78,-0.619,0.007,0.033,0.012,0.449,-0.151,-0.048,0.137,-0.895,1.016
2024-10-01 16:13:48.634,34495.914,0.085,0.778,-0.623,0.004,0.018,0.013,0.473,-0.024,-0.062,0.135,-0.891,1.015
2024-10-01 16:13:48.644,34495.924,0.084,0.775,-0.626,-0.004,0.02,0.029,0.219,0.003,-0.017,0.134,-0.887,1.013
2024-10-01 16:13:48.654,34495.934,0.084,0.775,-0.627,-0.042,0.029,-0.026,0.1,-0.074,0.026,0.134,-0.886,1.013
2024-10-01 16:13:48.664,34495.944,0.084,0.774,-0.627,-0.017,-0.078,-0.033,-0.007,-0.116,-0.016,0.133,-0.886,1.013
2024-10-01 16:13:48.674,34495.954,0.083,0.775,-0.627,0.018,-0.153,-0.018,-0.075,-0.159,0.019,0.131,-0.886,1.013
2024-10-01 16:13:48.684,34495.964,0.082,0.775,-0.626,0.012,-0.001,-0.006,-0.137,-0.201,0.039,0.13,-0.887,1.014
2024-10-01 16:13:48.694,34495.974,0.081,0.776,-0.625,0.002,-0.009,0.001,-0.149,-0.191,0.042,0.129,-0.889,1.015
2024-10-01 16:13:48.704,34495.984,0.08,0.777,-0.624,0.008,-0.056,-0.002,-0.083,-0.196,0.094,0.128,-0.89,1.016
2024-10-01 16:13:48.714,34495.994,0.08,0.777,-0.625,-0.005,0.033,0.013,-0.008,-0.103,0.088,0.127,-0.89,1.018
2024-10-01 16:13:48.724,34496.004,0.08,0.777,-0.625,-0.013,0.059,0.046,0.039,-0.016,0.094,0.128,-0.889,1.019
2024-10-01 16:13:48.735,34496.014,0.081,0.776,-0.625,-0.033,-0.017,0.027,0.035,0.01,0.104,0.129,-0.889,1.021
2024-10-01 16:13:48.744,34496.024,0.082,0.776,-0.625,-0.019,-0.007,0.012,-0.045,0.085,0.08,0.13,-0.889,1.022
2024-10-01 16:13:48.754,34496.034,0.083,0.777,-0.624,-0.018,-0.027,0.007,-0.114,0.114,0.074,0.132,-0.89,1.023
2024-10-01 16:13:48.764,34496.044,0.084,0.778,-0.623,-0.028,-0.059,-0.009,-0.193,0.16,0.039,0.135,-0.891,1.025
2024-10-01 16:13:48.774,34496.054,0.086,0.779,-0.621,-0.012,-0.049,-0.004,-0.2,0.175,0.015,0.137,-0.893,1.025
2024-10-01 16:13:48.784,34496.064,0.087,0.78,-0.62,-0.013,-0.025,-0.005,-0.15,0.232,-0.007,0.139,-0.895,1.026
2024-10-01 16:13:48.794,34496.074,0.089,0.781,-0.618,-0.006,0.024,0.014,-0.195,0.321,-0.008,0.142,-0.896,1.026
2024-10-01 16:13:48.804,34496.084,0.091,0.783,-0.616,-0.025,0.031,0.009,-0.265,0.293,0.003,0.146,-0.899,1.027
2024-10-01 16:13:48.814,34496.094,0.092,0.784,-0.614,-0.024,-0.014,-0.017,-0.296,0.214,-0.018,0.149,-0.902,1.027
2024-10-01 16:13:48.824,34496.104,0.093,0.786,-0.611,0.012,-0.048,-0.016,-0.254,0.125,-0.038,0.151,-0.904,1.027
2024-10-01 16:13:48.834,34496.114,0.093,0.787,-0.61,0.026,-0.012,-0.005,-0.139,0.056,-0.034,0.151,-0.906,1.027
2024-10-01 16:13:48.844,34496.124,0.093,0.788,-0.609,0.02,0.044,0.007,0.017,0.007,-0.039,0.151,-0.907,1.027
2024-10-01 16:13:48.854,34496.134,0.092,0.787,-0.61,0.016,0.084,0.027,0.18,-0.023,-0.046,0.15,-0.906,1.026
2024-10-01 16:13:48.864,34496.144,0.092,0.786,-0.612,0.013,0.08,0.041,0.306,-0.058,-0.064,0.149,-0.904,1.024
2024-10-01 16:13:48.874,34496.154,0.091,0.784,-0.615,0.011,0.06,0.032,0.395,-0.098,-0.086,0.147,-0.9,1.022
2024-10-01 16:13:48.884,34496.164,0.089,0.781,-0.618,0.015,0.049,0.027,0.452,-0.118,-0.11,0.143,-0.896,1.02
2024-10-01 16:13:48.894,34496.174,0.088,0.778,-0.622,0.014,0.034,0.026,0.469,-0.004,-0.112,0.14,-0.892,1.017
2024-10-01 16:13:48.904,34496.184,0.087,0.776,-0.624,0.005,0.008,0.027,0.176,0.025,-0.043,0.139,-0.889,1.015
2024-10-01 16:13:48.914,34496.194,0.087,0.776,-0.625,-0.042,-0.002,-0.029,0.082,-0.057,0.006,0.138,-0.888,1.014
2024-10-01 16:13:48.924,34496.204,0.087,0.775,-0.626,-0.023,-0.061,-0.033,-0.003,-0.035,-0.04,0.138,-0.887,1.014
2024-10-01 16:13:48.934,34496.214,0.086,0.775,-0.625,0.015,-0.149,0.001,-0.009,0.039,-0.022,0.137,-0.887,1.013
2024-10-01 16:13:48.944,34496.224,0.087,0.776,-0.625,-0.008,0.028,0.002,-0.07,0.108,0.016,0.138,-0.888,1.014
2024-10-01 16:13:48.954,34496.234,0.088,0.777,-0.624,-0.036,0.05,-0.004,-0.132,0.061,0.033,0.139,-0.889,1.014
2024-10-01 16:13:48.964,34496.244,0.088,0.777,-0.623,-0.023,-0.047,-0.016,-0.174,0.065,-0.014,0.14,-0.891,1.015
2024-10-01 16:13:48.974,34496.254,0.088,0.779,-0.621,0.01,-0.085,0.001,-0.168,0.063,0.025,0.141,-0.892,1.015
2024-10-01 16:13:48.986,34496.264,0.089,0.78,-0.62,-0.004,0.005,0.008,-0.216,0.046,0.044,0.143,-0.894,1.016
2024-10-01 16:13:48.994,34496.274,0.089,0.781,-0.618,-0.011,-0.004,0.001,-0.233,-0.016,0.045,0.144,-0.896,1.017
2024-10-01 16:13:49.004,34496.284,0.09,0.783,-0.616,0.002,-0.038,0.004,-0.264,-0.044,0.023,0.144,-0.899,1.019
2024-10-01 16:13:49.014,34496.294,0.089,0.784,-0.614,0.012,-0.045,0.014,-0.234,-0.03,0.012,0.145,-0.901,1.019
2024-10-01 16:13:49.024,34496.304,0.09,0.786,-0.612,0.002,-0.026,0.017,-0.243,0.024,0.012,0.145,-0.904,1.02
2024-10-01 16:13:49.034,34496.314,0.09,0.787,-0.61,-0.014,-0.001,0.014,-0.256,0.041,0.034,0.146,-0.906,1.021
2024-10-01 16:13:49.044,34496.324,0.09,0.789,-0.608,-0.022,-0.002,0.011,-0.281,0.046,0.058,0.148,-0.908,1.022
2024-10-01 16:13:49.054,34496.334,0.092,0.79,-0.606,-0.015,-0.024,0.001,-0.208,0.112,0.084,0.15,-0.911,1.024
2024-10-01 16:13:49.063,34496.344,0.093,0.791,-0.605,-0.015,0.002,0.011,-0.235,0.149,0.121,0.153,-0.913,1.026
2024-10-01 16:13:49.074,34496.354,0.095,0.793,-0.602,-0.027,0.066,-0.003,-0.264,0.129,0.151,0.157,-0.915,1.029
2024-10-01 16:13:49.083,34496.364,0.097,0.794,-0.6,-0.015,0.021,-0.016,-0.218,0.1,0.135,0.16,-0.917,1.032
2024-10-01 16:13:49.093,34496.374,0.098,0.795,-0.599,0.002,-0.039,-0.003,-0.143,0.08,0.125,0.163,-0.919,1.035
2024-10-01 16:13:49.103,34496.384,0.1,0.795,-0.598,0.01,0.041,0.018,-0.052,0.021,0.119,0.165,-0.919,1.037
2024-10-01 16:13:49.114,34496.394,0.1,0.795,-0.598,0.009,0.057,0.022,0.039,-0.043,0.074,0.166,-0.919,1.039
2024-10-01 16:13:49.124,34496.404,0.1,0.795,-0.599,0.023,0.024,0.021,0.136,-0.086,0.042,0.166,-0.918,1.039
2024-10-01 16:13:49.133,34496.414,0.1,0.794,-0.6,0.025,0.03,0.027,0.201,-0.119,0.025,0.165,-0.917,1.039
2024-10-01 16:13:49.143,34496.424,0.099,0.792,-0.602,0.013,0.047,0.025,0.238,-0.18,0.004,0.163,-0.914,1.039
2024-10-01 16:13:49.153,34496.434,0.098,0.791,-0.604,0.013,0.034,0.012,0.292,-0.223,-0.032,0.161,-0.912,1.038
2024-10-01 16:13:49.163,34496.444,0.096,0.789,-0.607,0.022,0.017,0.011,0.351,-0.251,-0.055,0.157,-0.909,1.036
2024-10-01 16:13:49.173,34496.454,0.094,0.787,-0.61,0.016,0.025,0.018,0.398,-0.274,-0.067,0.153,-0.905,1.034
2024-10-01 16:13:49.183,34496.463,0.092,0.784,-0.614,0.01,0.03,0.019,0.454,-0.294,-0.081,0.148,-0.901,1.032
2024-10-01 16:13:49.193,34496.473,0.089,0.781,-0.618,0.011,0.027,0.017,0.48,-0.292,-0.082,0.143,-0.897,1.03
2024-10-01 16:13:49.203,34496.483,0.088,0.778,-0.622,0.006,0.028,0.022,0.535,-0.017,-0.088,0.14,-0.891,1.027
2024-10-01 16:13:49.213,34496.493,0.087,0.776,-0.625,-0.026,0.033,0.031,0.274,-0.019,0.027,0.139,-0.888,1.026
2024-10-01 16:13:49.223,34496.503,0.087,0.774,-0.627,-0.074,0.057,-0.042,0.284,-0.03,-0.006,0.138,-0.885,1.026
2024-10-01 16:13:49.233,34496.513,0.087,0.772,-0.629,-0.004,-0.109,0.002,0.196,0.049,-0.046,0.137,-0.882,1.024
2024-10-01 16:13:49.243,34496.523,0.088,0.771,-0.631,-0.006,-0.105,0.019,0.219,0.118,0.043,0.138,-0.88,1.024
2024-10-01 16:13:49.254,34496.533,0.089,0.77,-0.632,-0.04,0.041,0.016,0.159,0.136,0.033,0.139,-0.878,1.024
2024-10-01 16:13:49.262,34496.543,0.09,0.769,-0.633,-0.037,-0.02,0.005,0.038,0.157,0.026,0.141,-0.877,1.024
2024-10-01 16:13:49.273,34496.553,0.091,0.769,-0.633,-0.009,-0.05,-0.002,-0.023,0.139,0.062,0.143,-0.877,1.025
2024-10-01 16:13:49.283,34496.563,0.092,0.769,-0.633,-0.012,-0.069,-0.007,0.022,0.11,0.037,0.145,-0.877,1.026
2024-10-01 16:13:49.293,34496.573,0.093,0.769,-0.633,0.009,0.009,0.008,-0.014,0.118,0.041,0.146,-0.877,1.026
2024-10-01 16:13:49.303,34496.583,0.094,0.769,-0.632,0.009,0.056,0.013,-0.018,0.061,0.042,0.148,-0.877,1.027
2024-10-01 16:13:49.313,34496.593,0.095,0.769,-0.632,-0.001,-0.032,0.013,-0.118,0.028,0.033,0.149,-0.878,1.028
2024-10-01 16:13:49.323,34496.603,0.095,0.77,-0.631,0.015,-0.06,0.007,-0.21,0.026,0.055,0.15,-0.879,1.029
2024-10-01 16:13:49.333,34496.613,0.096,0.772,-0.629,-0.004,-0.062,0.0,-0.296,0.036,0.066,0.151,-0.882,1.03
2024-10-01 16:13:49.343,34496.623,0.097,0.774,-0.626,-0.017,-0.086,-0.002,-0.368,0.081,0.082,0.153,-0.885,1.032
2024-10-01 16:13:49.353,34496.633,0.098,0.776,-0.623,-0.017,-0.052,-0.006,-0.429,0.16,0.138,0.156,-0.888,1.035
2024-10-01 16:13:49.363,34496.643,0.101,0.779,-0.619,-0.034,-0.005,-0.023,-0.523,0.298,0.204,0.162,-0.893,1.039
2024-10-01 16:13:49.373,34496.653,0.105,0.782,-0.614,-0.043,0.036,-0.03,-0.695,0.326,0.244,0.169,-0.898,1.044
2024-10-01 16:13:49.383,34496.663,0.108,0.787,-0.608,-0.051,0.017,-0.063,-0.844,0.263,0.237,0.177,-0.906,1.05
2024-10-01 16:13:49.393,34496.673,0.111,0.792,-0.601,-0.019,-0.045,-0.068,-0.865,0.143,0.21,0.183,-0.914,1.056
2024-10-01 16:13:49.403,34496.683,0.114,0.797,-0.594,0.013,-0.047,-0.047,-0.807,0.029,0.207,0.189,-0.922,1.062
2024-10-01 16:13:49.413,34496.693,0.115,0.801,-0.588,0.022,0.03,-0.024,-0.66,-0.162,0.169,0.193,-0.928,1.068
2024-10-01 16:13:49.423,34496.703,0.107,0.806,-0.583,0.017,0.103,0.007,-0.616,-0.711,-0.49,0.181,-0.937,1.06
2024-10-01 16:13:49.433,34496.713,0.102,0.808,-0.58,-0.193,0.039,0.086,-0.222,-0.421,-0.085,0.174,-0.941,1.058
2024-10-01 16:13:49.443,34496.723,0.098,0.809,-0.58,-0.099,0.11,0.048,-0.01,-0.457,-0.359,0.167,-0.942,1.055
2024-10-01 16:13:49.453,34496.733,0.094,0.809,-0.581,0.072,0.197,0.071,0.183,-0.283,-0.002,0.161,-0.942,1.052
2024-10-01 16:13:49.463,34496.743,0.092,0.807,-0.583,-0.101,0.095,0.028,0.23,-0.278,-0.092,0.157,-0.94,1.051
2024-10-01 16:13:49.473,34496.753,0.09,0.807,-0.584,-0.047,0.145,0.002,-0.018,-0.252,-0.092,0.153,-0.939,1.049
2024-10-01 16:13:49.483,34496.763,0.088,0.807,-0.584,-0.095,0.085,0.018,-0.095,-0.222,-0.057,0.15,-0.939,1.048
2024-10-01 16:13:49.493,34496.773,0.086,0.808,-0.583,-0.07,-0.019,0.033,-0.218,-0.183,-0.133,0.147,-0.941,1.047
2024-10-01 16:13:49.503,34496.783,0.084,0.809,-0.581,-0.029,-0.064,0.042,-0.133,-0.099,-0.126,0.144,-0.943,1.045
2024-10-01 16:13:49.513,34496.793,0.083,0.81,-0.581,-0.032,-0.042,0.043,-0.017,-0.051,-0.135,0.142,-0.944,1.043
2024-10-01 16:13:49.523,34496.803,0.081,0.81,-0.581,-0.012,-0.049,0.015,0.115,-0.025,-0.146,0.139,-0.944,1.041
2024-10-01 16:13:49.533,34496.813,0.08,0.809,-0.583,0.002,-0.058,-0.006,0.211,0.013,-0.139,0.137,-0.942,1.038
2024-10-01 16:13:49.543,34496.823,0.079,0.808,-0.584,0.005,-0.039,-0.008,0.256,0.044,-0.14,0.135,-0.94,1.035
2024-10-01 16:13:49.553,34496.833,0.079,0.806,-0.586,0.001,-0.039,0.016,0.223,0.071,-0.124,0.133,-0.938,1.032
2024-10-01 16:13:49.563,34496.843,0.078,0.805,-0.588,0.007,-0.063,0.044,0.147,0.082,-0.113,0.132,-0.936,1.03
2024-10-01 16:13:49.573,34496.853,0.078,0.805,-0.589,0.027,-0.084,0.06,0.064,0.065,-0.106,0.131,-0.935,1.028
2024-10-01 16:13:49.583,34496.863,0.077,0.804,-0.589,0.045,-0.104,0.067,0.042,0.042,-0.102,0.13,-0.935,1.026
2024-10-01 16:13:49.592,34496.873,0.077,0.804,-0.589,0.06,-0.084,0.05,0.093,0.038,-0.082,0.129,-0.934,1.024
2024-10-01 16:13:49.602,34496.883,0.076,0.803,-0.59,0.073,-0.024,0.021,0.151,0.034,-0.047,0.128,-0.933,1.023
2024-10-01 16:13:49.612,34496.893,0.076,0.803,-0.592,0.08,0.029,-0.001,0.157,0.035,-0.019,0.128,-0.932,1.022
2024-10-01 16:13:49.622,34496.903,0.076,0.802,-0.593,0.082,0.04,-0.015,0.148,0.032,-0.006,0.128,-0.93,1.021
2024-10-01 16:13:49.633,34496.913,0.076,0.801,-0.594,0.068,0.03,-0.015,0.126,0.019,0.002,0.128,-0.929,1.021
2024-10-01 16:13:49.642,34496.923,0.077,0.8,-0.595,0.058,0.017,-0.005,0.11,0.043,0.01,0.128,-0.928,1.021
2024-10-01 16:13:49.652,34496.933,0.077,0.8,-0.595,0.047,-0.002,0.004,0.056,0.038,0.009,0.129,-0.927,1.021
2024-10-01 16:13:49.662,34496.943,0.077,0.8,-0.596,0.031,-0.038,0.007,-0.001,0.015,-0.011,0.129,-0.926,1.021
2024-10-01 16:13:49.672,34496.953,0.077,0.8,-0.596,0.026,-0.045,0.015,-0.015,0.012,-0.02,0.129,-0.927,1.021
2024-10-01 16:13:49.682,34496.963,0.077,0.8,-0.596,0.019,-0.04,0.011,0.009,0.006,-0.003,0.129,-0.927,1.021
2024-10-01 16:13:49.692,34496.973,0.078,0.799,-0.596,0.017,-0.017,0.013,0.073,0.01,0.01,0.129,-0.926,1.021
2024-10-01 16:13:49.702,34496.983,0.078,0.799,-0.597,0.013,-0.001,0.005,0.114,-0.011,0.007,0.13,-0.925,1.021
2024-10-01 16:13:49.712,34496.993,0.078,0.798,-0.598,0.002,0.018,-0.006,0.155,-0.015,0.005,0.129,-0.924,1.021
2024-10-01 16:13:49.723,34497.003,0.078,0.797,-0.599,-0.002,0.036,-0.012,0.151,-0.013,0.0,0.129,-0.922,1.021
2024-10-01 16:13:49.732,34497.013,0.078,0.796,-0.6,-0.004,0.026,-0.019,0.115,-0.02,0.0,0.129,-0.921,1.02
2024-10-01 16:13:49.742,34497.023,0.078,0.796,-0.601,-0.008,0.004,-0.022,0.067,-0.021,-0.005,0.128,-0.92,1.02
2024-10-01 16:13:49.754,34497.032,0.077,0.795,-0.601,-0.006,-0.001,-0.023,0.031,-0.014,-0.012,0.128,-0.92,1.02
2024-10-01 16:13:49.762,34497.042,0.077,0.795,-0.601,-0.008,0.003,-0.009,0.014,0.001,-0.02,0.128,-0.919,1.02
2024-10-01 16:13:49.772,34497.052,0.077,0.795,-0.601,-0.006,0.001,0.001,0.003,-0.003,-0.025,0.128,-0.919,1.02
2024-10-01 16:13:49.782,34497.062,0.077,0.795,-0.601,0.001,-0.001,0.007,0.004,-0.011,-0.025,0.127,-0.919,1.019
2024-10-01 16:13:49.792,34497.072,0.077,0.795,-0.601,0.003,-0.002,0.013,0.044,-0.027,-0.026,0.127,-0.919,1.019
2024-10-01 16:13:49.802,34497.082,0.076,0.795,-0.602,0.004,0.016,0.019,0.129,-0.052,-0.025,0.126,-0.919,1.018
2024-10-01 16:13:49.812,34497.092,0.076,0.794,-0.604,0.004,0.039,0.013,0.215,-0.092,-0.027,0.125,-0.917,1.017
2024-10-01 16:13:49.822,34497.102,0.075,0.792,-0.606,0.0,0.042,0.005,0.313,-0.147,-0.028,0.123,-0.914,1.016
2024-10-01 16:13:49.832,34497.112,0.074,0.79,-0.609,0.004,0.044,0.008,0.412,-0.142,-0.028,0.12,-0.911,1.015
2024-10-01 16:13:49.842,34497.122,0.072,0.787,-0.612,0.01,0.054,0.013,0.493,-0.15,-0.028,0.118,-0.906,1.014
2024-10-01 16:13:49.852,34497.132,0.071,0.784,-0.616,-0.001,0.044,0.015,0.518,-0.057,-0.012,0.115,-0.901,1.013
2024-10-01 16:13:49.862,34497.142,0.071,0.781,-0.62,0.001,0.03,0.022,0.344,0.008,-0.003,0.115,-0.897,1.012
2024-10-01 16:13:49.872,34497.152,0.071,0.78,-0.622,-0.022,0.007,0.006,0.221,0.024,-0.043,0.114,-0.894,1.011
2024-10-01 16:13:49.883,34497.162,0.071,0.779,-0.623,-0.037,-0.03,-0.039,0.088,0.039,-0.032,0.114,-0.893,1.01
2024-10-01 16:13:49.892,34497.172,0.071,0.779,-0.623,-0.014,-0.077,-0.022,0.002,0.057,-0.036,0.114,-0.893,1.009
2024-10-01 16:13:49.901,34497.182,0.072,0.779,-0.623,-0.003,-0.015,-0.014,-0.028,0.101,-0.009,0.115,-0.893,1.009
2024-10-01 16:13:49.911,34497.192,0.072,0.779,-0.623,-0.011,0.033,-0.016,-0.019,0.205,-0.01,0.116,-0.893,1.009
2024-10-01 16:13:49.922,34497.202,0.074,0.78,-0.622,-0.01,0.017,-0.016,-0.101,0.215,-0.026,0.118,-0.894,1.009
2024-10-01 16:13:49.932,34497.212,0.075,0.78,-0.621,-0.025,-0.014,-0.008,-0.135,0.242,-0.041,0.12,-0.895,1.009
2024-10-01 16:13:49.942,34497.222,0.076,0.781,-0.619,-0.017,-0.077,-0.002,-0.189,0.219,-0.046,0.122,-0.897,1.008
2024-10-01 16:13:49.952,34497.232,0.076,0.783,-0.618,-0.002,-0.09,0.008,-0.209,0.097,-0.02,0.123,-0.899,1.008
2024-10-01 16:13:49.962,34497.242,0.077,0.784,-0.616,0.0,-0.08,0.009,-0.144,0.08,0.0,0.124,-0.901,1.008
2024-10-01 16:13:49.972,34497.252,0.077,0.785,-0.615,0.016,-0.022,0.015,-0.147,0.05,0.015,0.125,-0.902,1.009
2024-10-01 16:13:49.982,34497.262,0.078,0.786,-0.614,-0.001,0.022,0.033,-0.135,0.021,0.041,0.126,-0.904,1.009
2024-10-01 16:13:49.992,34497.272,0.078,0.786,-0.613,0.0,-0.009,0.032,-0.135,0.012,0.02,0.127,-0.905,1.01
2024-10-01 16:13:50.002,34497.282,0.078,0.787,-0.611,-0.001,-0.052,0.026,-0.203,0.049,0.019,0.128,-0.907,1.011
2024-10-01 16:13:50.012,34497.292,0.079,0.789,-0.61,-0.025,-0.049,0.041,-0.258,0.043,0.004,0.128,-0.909,1.011
2024-10-01 16:13:50.022,34497.302,0.079,0.79,-0.608,-0.033,-0.016,0.057,-0.188,0.094,0.025,0.13,-0.911,1.012
2024-10-01 16:13:50.032,34497.312,0.08,0.791,-0.607,-0.016,0.045,0.043,-0.119,0.174,0.037,0.132,-0.912,1.013
2024-10-01 16:13:50.042,34497.322,0.082,0.792,-0.605,-0.022,0.089,-0.001,-0.154,0.129,0.024,0.134,-0.914,1.014
2024-10-01 16:13:50.052,34497.332,0.082,0.793,-0.604,-0.029,0.013,-0.036,-0.138,0.072,-0.015,0.135,-0.915,1.014
2024-10-01 16:13:50.062,34497.342,0.082,0.793,-0.603,0.018,-0.026,-0.023,-0.049,0.075,-0.032,0.136,-0.916,1.014
2024-10-01 16:13:50.072,34497.352,0.083,0.793,-0.603,0.032,0.02,-0.001,0.021,0.064,-0.031,0.136,-0.916,1.013
2024-10-01 16:13:50.082,34497.362,0.083,0.793,-0.604,0.018,0.053,0.008,0.068,0.029,-0.045,0.136,-0.916,1.013
2024-10-01 16:13:50.092,34497.372,0.082,0.793,-0.604,0.023,0.046,0.014,0.126,0.011,-0.05,0.135,-0.915,1.012
2024-10-01 16:13:50.102,34497.382,0.082,0.792,-0.606,0.024,0.038,0.02,0.198,-0.006,-0.049,0.134,-0.913,1.011
2024-10-01 16:13:50.112,34497.392,0.081,0.79,-0.607,0.017,0.038,0.022,0.256,-0.03,-0.059,0.133,-0.911,1.009
2024-10-01 16:13:50.122,34497.402,0.08,0.789,-0.61,0.013,0.032,0.016,0.341,-0.064,-0.068,0.131,-0.909,1.007
2024-10-01 16:13:50.131,34497.412,0.079,0.786,-0.613,0.017,0.034,0.01,0.409,-0.078,-0.078,0.129,-0.905,1.005
2024-10-01 16:13:50.142,34497.422,0.078,0.784,-0.616,0.014,0.031,-0.001,0.407,-0.061,-0.062,0.127,-0.901,1.003
2024-10-01 16:13:50.151,34497.432,0.079,0.782,-0.618,0.009,0.022,0.004,0.197,0.041,0.045,0.126,-0.898,1.003
2024-10-01 16:13:50.161,34497.442,0.079,0.781,-0.619,-0.0,0.001,0.021,0.1,-0.004,-0.036,0.126,-0.896,1.003
2024-10-01 16:13:50.172,34497.452,0.078,0.781,-0.62,-0.017,-0.033,-0.038,0.058,0.024,-0.035,0.126,-0.896,1.002
2024-10-01 16:13:50.181,34497.462,0.078,0.781,-0.62,-0.035,-0.078,-0.066,0.01,-0.004,-0.023,0.126,-0.896,1.001
2024-10-01 16:13:50.191,34497.472,0.078,0.781,-0.62,-0.029,-0.066,-0.04,0.024,0.009,-0.02,0.125,-0.895,1.001
2024-10-01 16:13:50.201,34497.482,0.078,0.78,-0.621,-0.012,0.004,-0.01,0.055,-0.012,0.004,0.125,-0.895,1.001
2024-10-01 16:13:50.211,34497.492,0.078,0.78,-0.621,-0.012,0.022,0.005,0.104,-0.052,0.025,0.125,-0.894,1.001
2024-10-01 16:13:50.221,34497.502,0.078,0.779,-0.622,0.005,0.013,0.015,0.161,-0.061,0.032,0.125,-0.893,1.001
2024-10-01 16:13:50.231,34497.512,0.078,0.778,-0.623,0.017,0.013,0.019,0.127,0.015,0.072,0.125,-0.891,1.002
2024-10-01 16:13:50.242,34497.522,0.078,0.778,-0.624,0.005,-0.001,-0.002,-0.001,-0.102,0.06,0.125,-0.891,1.003
2024-10-01 16:13:50.252,34497.532,0.078,0.777,-0.624,-0.025,0.006,-0.027,0.008,-0.035,0.047,0.125,-0.891,1.003
2024-10-01 16:13:50.262,34497.542,0.078,0.778,-0.624,-0.028,-0.029,-0.048,-0.071,-0.07,0.055,0.125,-0.891,1.004
2024-10-01 16:13:50.271,34497.552,0.078,0.778,-0.623,-0.023,-0.061,-0.04,-0.131,-0.036,0.032,0.125,-0.892,1.005
2024-10-01 16:13:50.281,34497.562,0.079,0.779,-0.622,-0.01,-0.013,-0.024,-0.139,0.004,0.034,0.126,-0.893,1.006
2024-10-01 16:13:50.291,34497.572,0.079,0.78,-0.621,-0.031,-0.005,-0.011,-0.093,0.006,0.016,0.126,-0.894,1.006
2024-10-01 16:13:50.301,34497.582,0.079,0.78,-0.621,-0.011,-0.013,0.007,-0.025,-0.012,-0.01,0.126,-0.895,1.007
2024-10-01 16:13:50.311,34497.592,0.079,0.78,-0.621,0.006,0.005,0.044,0.07,0.012,0.016,0.126,-0.895,1.007
2024-10-01 16:13:50.321,34497.601,0.079,0.78,-0.621,0.001,0.015,0.065,0.046,-0.032,-0.004,0.126,-0.894,1.007
2024-10-01 16:13:50.331,34497.611,0.078,0.779,-0.622,0.015,-0.007,0.062,0.099,-0.033,-0.016,0.126,-0.894,1.006
2024-10-01 16:13:50.341,34497.621,0.078,0.779,-0.623,0.012,0.007,0.068,0.084,-0.024,-0.005,0.125,-0.893,1.006
2024-10-01 16:13:50.351,34497.631,0.078,0.778,-0.623,0.003,-0.032,0.059,-0.001,-0.025,-0.013,0.124,-0.892,1.006
2024-10-01 16:13:50.361,34497.641,0.078,0.779,-0.623,0.003,-0.031,0.028,-0.099,0.003,0.005,0.124,-0.893,1.006
2024-10-01 16:13:50.371,34497.651,0.078,0.78,-0.621,-0.023,-0.04,0.001,-0.212,0.021,-0.001,0.125,-0.894,1.006
2024-10-01 16:13:50.381,34497.661,0.078,0.781,-0.62,-0.028,-0.04,-0.007,-0.257,0.042,-0.018,0.125,-0.896,1.006
2024-10-01 16:13:50.391,34497.671,0.078,0.783,-0.617,-0.03,-0.043,-0.01,-0.259,0.025,-0.02,0.126,-0.899,1.006
2024-10-01 16:13:50.401,34497.681,0.078,0.784,-0.616,-0.03,-0.026,-0.0,-0.144,0.053,0.002,0.126,-0.901,1.007
2024-10-01 16:13:50.411,34497.691,0.079,0.785,-0.615,-0.017,0.041,0.033,-0.081,0.141,0.021,0.128,-0.902,1.007
2024-10-01 16:13:50.421,34497.701,0.08,0.785,-0.614,-0.022,0.064,0.048,-0.107,0.116,-0.001,0.129,-0.903,1.008
2024-10-01 16:13:50.431,34497.711,0.08,0.786,-0.613,-0.027,0.006,0.021,-0.067,0.1,-0.019,0.13,-0.904,1.008
2024-10-01 16:13:50.441,34497.721,0.081,0.786,-0.613,-0.0,-0.011,0.014,-0.02,0.096,-0.026,0.131,-0.905,1.007
2024-10-01 16:13:50.451,34497.731,0.081,0.786,-0.613,0.009,0.012,0.024,0.023,0.053,-0.023,0.132,-0.905,1.007
2024-10-01 16:13:50.461,34497.741,0.081,0.786,-0.613,0.014,0.04,-0.008,0.073,0.033,-0.015,0.132,-0.904,1.006
2024-10-01 16:13:50.471,34497.751,0.081,0.785,-0.614,0.019,0.057,-0.031,0.119,0.024,-0.015,0.132,-0.903,1.006
2024-10-01 16:13:50.481,34497.761,0.081,0.784,-0.615,0.009,0.056,-0.01,0.165,0.012,-0.03,0.131,-0.902,1.005
2024-10-01 16:13:50.491,34497.771,0.081,0.783,-0.616,0.008,0.024,0.006,0.214,-0.019,-0.044,0.13,-0.9,1.004
2024-10-01 16:13:50.501,34497.781,0.08,0.782,-0.618,0.015,0.002,0.006,0.27,-0.03,-0.055,0.129,-0.898,1.003
2024-10-01 16:13:50.511,34497.791,0.08,0.78,-0.621,0.017,0.018,0.011,0.333,-0.04,-0.058,0.127,-0.895,1.001
2024-10-01 16:13:50.522,34497.801,0.079,0.778,-0.623,0.014,0.032,0.01,0.356,-0.063,-0.065,0.126,-0.891,1.0
2024-10-01 16:13:50.531,34497.811,0.078,0.776,-0.626,0.018,0.018,0.007,0.232,0.053,0.006,0.125,-0.888,0.999
2024-10-01 16:13:50.541,34497.821,0.078,0.775,-0.627,0.012,0.004,0.015,0.087,-0.038,-0.032,0.125,-0.887,0.998
2024-10-01 16:13:50.551,34497.831,0.078,0.775,-0.627,-0.011,-0.003,-0.032,0.109,-0.041,-0.01,0.124,-0.886,0.998
2024-10-01 16:13:50.561,34497.841,0.078,0.774,-0.628,-0.018,-0.045,-0.066,0.101,-0.076,0.002,0.123,-0.885,0.998
2024-10-01 16:13:50.571,34497.851,0.077,0.773,-0.629,-0.004,-0.04,-0.035,0.142,-0.09,0.011,0.122,-0.884,0.997
2024-10-01 16:13:50.581,34497.861,0.077,0.772,-0.631,0.001,0.002,-0.001,0.205,-0.111,0.008,0.121,-0.883,0.997
2024-10-01 16:13:50.591,34497.871,0.076,0.771,-0.632,-0.002,-0.015,0.014,0.177,-0.166,0.018,0.12,-0.881,0.997
2024-10-01 16:13:50.601,34497.881,0.075,0.77,-0.634,-0.0,-0.013,0.021,0.265,-0.249,0.044,0.118,-0.879,0.997
2024-10-01 16:13:50.611,34497.891,0.074,0.768,-0.636,0.004,0.018,0.024,0.297,-0.139,0.052,0.116,-0.876,0.998
2024-10-01 16:13:50.621,34497.901,0.074,0.767,-0.637,0.007,0.022,0.004,-0.046,-0.169,0.079,0.115,-0.874,0.998
2024-10-01 16:13:50.631,34497.911,0.073,0.768,-0.636,-0.034,-0.044,-0.011,-0.175,-0.211,0.077,0.114,-0.876,1.0
2024-10-01 16:13:50.641,34497.921,0.073,0.769,-0.635,-0.007,-0.033,-0.004,-0.137,-0.01,0.068,0.114,-0.877,1.001
2024-10-01 16:13:50.651,34497.931,0.073,0.77,-0.634,-0.013,0.017,-0.009,-0.336,-0.066,0.069,0.115,-0.879,1.003
2024-10-01 16:13:50.661,34497.941,0.073,0.772,-0.631,-0.054,-0.063,0.01,-0.269,0.024,0.014,0.116,-0.882,1.004
2024-10-01 16:13:50.671,34497.951,0.074,0.774,-0.629,-0.006,-0.063,0.016,-0.245,0.072,0.025,0.117,-0.885,1.005
2024-10-01 16:13:50.680,34497.961,0.075,0.775,-0.628,-0.043,-0.049,0.019,-0.179,0.085,0.022,0.118,-0.887,1.005
2024-10-01 16:13:50.691,34497.971,0.075,0.776,-0.626,-0.035,-0.023,0.047,-0.107,0.127,0.016,0.12,-0.888,1.006
2024-10-01 16:13:50.700,34497.981,0.077,0.776,-0.626,-0.007,0.01,0.056,-0.097,0.171,0.03,0.122,-0.889,1.007
2024-10-01 16:13:50.710,34497.991,0.078,0.777,-0.624,-0.014,0.035,0.051,-0.178,0.224,0.034,0.124,-0.89,1.007
2024-10-01 16:13:50.721,34498.001,0.08,0.779,-0.623,-0.016,0.025,0.029,-0.282,0.212,0.004,0.127,-0.892,1.008
2024-10-01 16:13:50.730,34498.011,0.081,0.78,-0.62,-0.009,-0.02,-0.017,-0.318,0.214,-0.014,0.13,-0.895,1.008
2024-10-01 16:13:50.741,34498.021,0.082,0.782,-0.617,0.003,-0.02,-0.049,-0.302,0.194,-0.02,0.132,-0.898,1.009
2024-10-01 16:13:50.750,34498.031,0.083,0.784,-0.615,0.004,-0.006,-0.056,-0.246,0.169,-0.043,0.134,-0.901,1.009
2024-10-01 16:13:50.760,34498.041,0.083,0.785,-0.613,0.01,0.018,-0.021,-0.126,0.137,-0.059,0.135,-0.903,1.008
2024-10-01 16:13:50.771,34498.051,0.084,0.786,-0.613,0.015,0.037,0.017,0.018,0.103,-0.067,0.135,-0.904,1.008
2024-10-01 16:13:50.781,34498.061,0.084,0.785,-0.613,0.018,0.056,0.035,0.144,0.061,-0.059,0.135,-0.903,1.006
2024-10-01 16:13:50.791,34498.071,0.083,0.784,-0.615,0.018,0.063,0.042,0.277,0.008,-0.072,0.134,-0.901,1.005
2024-10-01 16:13:50.800,34498.081,0.083,0.782,-0.618,0.02,0.05,0.028,0.391,-0.047,-0.075,0.133,-0.898,1.003
2024-10-01 16:13:50.811,34498.091,0.081,0.78,-0.621,0.022,0.045,0.009,0.463,-0.1,-0.066,0.13,-0.894,1.001
2024-10-01 16:13:50.821,34498.101,0.08,0.777,-0.625,0.023,0.039,-0.0,0.485,-0.141,-0.063,0.128,-0.889,0.999
2024-10-01 16:13:50.830,34498.111,0.08,0.774,-0.628,0.024,0.02,0.004,0.297,0.018,0.057,0.126,-0.885,0.998
2024-10-01 16:13:50.840,34498.121,0.08,0.773,-0.629,0.01,-0.021,0.02,0.129,-0.093,-0.035,0.126,-0.883,0.998
2024-10-01 16:13:50.850,34498.131,0.079,0.772,-0.631,-0.023,-0.031,-0.033,0.163,-0.047,-0.024,0.125,-0.882,0.997
2024-10-01 16:13:50.860,34498.141,0.079,0.771,-0.632,-0.031,-0.081,-0.06,0.083,-0.054,-0.014,0.124,-0.881,0.997
2024-10-01 16:13:50.870,34498.151,0.078,0.771,-0.632,-0.009,-0.055,-0.028,0.108,-0.008,0.004,0.123,-0.88,0.996
2024-10-01 16:13:50.880,34498.161,0.079,0.77,-0.633,-0.008,0.048,-0.009,0.077,0.041,0.03,0.123,-0.879,0.996
2024-10-01 16:13:50.890,34498.171,0.079,0.77,-0.633,-0.02,0.046,-0.028,-0.043,-0.001,0.028,0.124,-0.879,0.997
2024-10-01 16:13:50.900,34498.18,0.079,0.77,-0.633,-0.007,0.001,-0.011,-0.1,0.071,0.007,0.125,-0.88,0.997
2024-10-01 16:13:50.911,34498.19,0.08,0.771,-0.631,0.001,-0.018,-0.001,-0.105,0.067,0.015,0.126,-0.881,0.998
2024-10-01 16:13:50.920,34498.2,0.08,0.772,-0.631,-0.031,-0.041,0.002,-0.081,0.089,-0.03,0.127,-0.882,0.998
2024-10-01 16:13:50.930,34498.21,0.081,0.772,-0.63,-0.014,-0.07,0.014,-0.078,0.07,-0.011,0.127,-0.882,0.998
2024-10-01 16:13:50.940,34498.22,0.081,0.773,-0.629,-0.027,-0.034,0.024,-0.11,0.003,0.017,0.127,-0.883,0.998
2024-10-01 16:13:50.950,34498.23,0.081,0.773,-0.629,-0.019,-0.06,0.038,-0.091,-0.036,0.013,0.128,-0.884,0.998
2024-10-01 16:13:50.960,34498.24,0.081,0.774,-0.628,0.011,-0.013,0.057,-0.026,-0.029,0.02,0.128,-0.885,0.999
2024-10-01 16:13:50.970,34498.25,0.081,0.774,-0.628,-0.008,-0.02,0.058,-0.074,-0.024,0.03,0.128,-0.885,0.999
2024-10-01 16:13:50.980,34498.26,0.081,0.775,-0.627,-0.018,-0.041,0.047,-0.173,-0.02,0.021,0.128,-0.886,1.0
2024-10-01 16:13:50.990,34498.27,0.081,0.776,-0.625,-0.031,-0.054,0.017,-0.237,-0.008,0.02,0.128,-0.888,1.001
2024-10-01 16:13:51.000,34498.28,0.081,0.778,-0.623,-0.036,-0.038,-0.013,-0.328,0.008,0.036,0.129,-0.891,1.001
2024-10-01 16:13:51.010,34498.29,0.081,0.78,-0.621,-0.027,0.011,-0.01,-0.347,0.047,0.061,0.13,-0.894,1.003
2024-10-01 16:13:51.020,34498.3,0.082,0.782,-0.618,-0.011,0.049,0.008,-0.3,0.14,0.067,0.133,-0.898,1.005
2024-10-01 16:13:51.030,34498.31,0.084,0.784,-0.615,-0.01,0.067,-0.009,-0.369,0.081,0.058,0.135,-0.901,1.006
2024-10-01 16:13:51.040,34498.32,0.084,0.786,-0.612,-0.023,-0.014,-0.033,-0.346,0.012,0.023,0.137,-0.904,1.008
2024-10-01 16:13:51.050,34498.33,0.085,0.788,-0.61,0.009,-0.048,-0.015,-0.228,0.004,0.035,0.138,-0.907,1.009
2024-10-01 16:13:51.060,34498.34,0.085,0.789,-0.609,0.023,0.015,0.004,-0.127,-0.023,0.055,0.138,-0.909,1.01
2024-10-01 16:13:51.070,34498.35,0.085,0.789,-0.608,0.013,0.059,0.02,-0.012,-0.085,0.038,0.139,-0.909,1.011
2024-10-01 16:13:51.080,34498.36,0.084,0.789,-0.609,0.024,0.046,0.019,0.105,-0.119,0.029,0.138,-0.909,1.011
2024-10-01 16:13:51.090,34498.37,0.084,0.788,-0.61,0.029,0.039,0.012,0.209,-0.129,0.018,0.137,-0.907,1.011
2024-10-01 16:13:51.100,34498.38,0.083,0.786,-0.612,0.015,0.049,0.024,0.296,-0.119,0.01,0.135,-0.905,1.011
2024-10-01 16:13:51.110,34498.39,0.082,0.784,-0.615,0.01,0.043,0.031,0.353,-0.126,-0.01,0.133,-0.902,1.01
2024-10-01 16:13:51.120,34498.4,0.081,0.782,-0.618,0.009,0.035,0.02,0.396,-0.138,-0.018,0.131,-0.898,1.009
2024-10-01 16:13:51.130,34498.41,0.08,0.779,-0.621,0.002,0.027,0.004,0.464,-0.157,-0.027,0.129,-0.894,1.008
2024-10-01 16:13:51.140,34498.42,0.079,0.776,-0.625,0.005,0.019,0.001,0.53,-0.189,-0.034,0.126,-0.889,1.006
2024-10-01 16:13:51.150,34498.43,0.077,0.773,-0.63,0.01,0.025,0.001,0.605,-0.224,-0.051,0.122,-0.883,1.005
2024-10-01 16:13:51.160,34498.44,0.076,0.769,-0.635,0.01,0.037,-0.002,0.566,-0.006,-0.009,0.119,-0.877,1.003
2024-10-01 16:13:51.170,34498.45,0.076,0.766,-0.638,0.002,0.044,0.014,0.326,-0.037,-0.052,0.119,-0.873,1.002
2024-10-01 16:13:51.179,34498.46,0.075,0.764,-0.64,-0.036,0.044,-0.017,0.263,-0.022,-0.061,0.117,-0.87,1.0
2024-10-01 16:13:51.190,34498.47,0.075,0.763,-0.642,-0.019,-0.028,-0.072,0.134,-0.027,-0.044,0.116,-0.868,0.999
2024-10-01 16:13:51.200,34498.48,0.074,0.763,-0.642,0.015,-0.085,0.002,0.05,0.034,-0.058,0.115,-0.868,0.998
2024-10-01 16:13:51.210,34498.49,0.074,0.762,-0.643,-0.002,-0.036,0.057,0.101,0.03,-0.048,0.115,-0.867,0.997
2024-10-01 16:13:51.219,34498.5,0.075,0.761,-0.644,-0.028,-0.039,0.058,0.148,0.204,-0.037,0.115,-0.865,0.996
2024-10-01 16:13:51.229,34498.51,0.075,0.761,-0.644,-0.028,-0.024,0.002,-0.071,0.013,0.01,0.116,-0.865,0.996
2024-10-01 16:13:51.239,34498.52,0.076,0.762,-0.644,-0.056,-0.081,-0.012,-0.049,0.032,0.008,0.117,-0.866,0.996
2024-10-01 16:13:51.250,34498.53,0.076,0.762,-0.643,0.013,-0.103,-0.01,-0.085,0.058,0.062,0.118,-0.866,0.997
2024-10-01 16:13:51.260,34498.54,0.077,0.763,-0.642,-0.008,0.004,-0.003,-0.202,-0.009,0.082,0.119,-0.867,0.998
2024-10-01 16:13:51.269,34498.55,0.077,0.764,-0.641,-0.024,-0.031,0.022,-0.252,-0.053,0.068,0.12,-0.87,1.0
2024-10-01 16:13:51.280,34498.56,0.077,0.766,-0.638,0.005,-0.081,0.013,-0.303,-0.01,0.073,0.121,-0.872,1.002
2024-10-01 16:13:51.290,34498.57,0.078,0.768,-0.636,-0.019,-0.059,0.008,-0.387,0.011,0.09,0.122,-0.875,1.003
2024-10-01 16:13:51.300,34498.58,0.079,0.77,-0.633,-0.05,0.004,0.009,-0.436,0.031,0.097,0.124,-0.88,1.006
2024-10-01 16:13:51.310,34498.59,0.08,0.773,-0.629,-0.046,0.008,-0.002,-0.476,0.138,0.13,0.127,-0.884,1.008
2024-10-01 16:13:51.320,34498.6,0.082,0.776,-0.625,-0.04,0.051,-0.008,-0.487,0.192,0.089,0.131,-0.888,1.011
2024-10-01 16:13:51.329,34498.61,0.084,0.779,-0.621,-0.076,0.076,-0.065,-0.516,0.154,0.058,0.134,-0.893,1.013
2024-10-01 16:13:51.339,34498.62,0.085,0.782,-0.617,-0.08,0.028,-0.105,-0.499,0.121,0.011,0.137,-0.898,1.015
2024-10-01 16:13:51.349,34498.63,0.086,0.785,-0.613,-0.053,0.033,-0.088,-0.397,0.088,0.04,0.139,-0.903,1.016
2024-10-01 16:13:51.359,34498.64,0.087,0.787,-0.611,-0.067,0.102,-0.051,-0.275,0.061,0.065,0.141,-0.906,1.018
2024-10-01 16:13:51.369,34498.65,0.085,0.789,-0.609,-0.059,0.11,-0.037,-0.274,-0.123,-0.575,0.138,-0.908,1.014
2024-10-01 16:13:51.379,34498.66,0.083,0.79,-0.608,-0.124,0.11,0.002,-0.012,0.006,0.067,0.135,-0.91,1.011
2024-10-01 16:13:51.389,34498.67,0.081,0.79,-0.608,-0.164,0.092,0.037,-0.073,-0.16,-0.282,0.133,-0.911,1.009
2024-10-01 16:13:51.399,34498.68,0.078,0.79,-0.608,0.036,-0.019,0.066,0.014,-0.131,-0.175,0.128,-0.911,1.006
2024-10-01 16:13:51.409,34498.69,0.076,0.79,-0.608,-0.089,-0.011,0.106,0.006,-0.119,-0.181,0.125,-0.911,1.003
2024-10-01 16:13:51.420,34498.7,0.074,0.79,-0.608,-0.021,0.045,0.113,0.025,-0.139,-0.172,0.121,-0.911,1.0
2024-10-01 16:13:51.429,34498.71,0.072,0.79,-0.609,-0.009,-0.01,0.105,0.081,-0.148,-0.135,0.118,-0.911,0.997
2024-10-01 16:13:51.439,34498.72,0.07,0.79,-0.609,0.042,-0.051,0.088,0.106,-0.165,-0.099,0.115,-0.91,0.995
2024-10-01 16:13:51.449,34498.73,0.069,0.789,-0.61,0.062,-0.057,0.065,0.107,-0.146,-0.074,0.112,-0.909,0.993
2024-10-01 16:13:51.459,34498.74,0.067,0.789,-0.611,0.065,-0.036,0.049,0.071,-0.125,-0.061,0.109,-0.909,0.992
2024-10-01 16:13:51.469,34498.749,0.066,0.788,-0.612,0.063,-0.049,0.038,0.04,-0.117,-0.051,0.107,-0.908,0.991
2024-10-01 16:13:51.479,34498.759,0.065,0.788,-0.612,0.07,-0.068,0.032,0.035,-0.073,-0.032,0.106,-0.908,0.99
2024-10-01 16:13:51.489,34498.769,0.064,0.788,-0.612,0.073,-0.071,0.006,0.014,-0.04,-0.019,0.105,-0.908,0.99
2024-10-01 16:13:51.499,34498.779,0.064,0.788,-0.612,0.069,-0.058,-0.011,-0.012,0.003,-0.018,0.105,-0.908,0.99
2024-10-01 16:13:51.509,34498.789,0.064,0.788,-0.612,0.07,-0.039,-0.018,-0.056,0.026,-0.015,0.104,-0.908,0.989
2024-10-01 16:13:51.519,34498.799,0.064,0.789,-0.611,0.07,-0.047,-0.024,-0.064,0.038,0.02,0.105,-0.909,0.99
2024-10-01 16:13:51.529,34498.809,0.065,0.789,-0.611,0.081,-0.051,-0.03,-0.095,0.04,-0.001,0.106,-0.909,0.99
2024-10-01 16:13:51.539,34498.819,0.065,0.79,-0.61,0.077,-0.045,-0.028,-0.133,0.013,0.001,0.106,-0.91,0.99
2024-10-01 16:13:51.550,34498.829,0.065,0.791,-0.609,0.056,-0.027,-0.021,-0.097,-0.002,-0.003,0.106,-0.912,0.99
2024-10-01 16:13:51.559,34498.839,0.065,0.791,-0.608,0.044,-0.014,-0.015,-0.043,-0.002,0.009,0.107,-0.912,0.991
2024-10-01 16:13:51.569,34498.849,0.065,0.791,-0.608,0.028,0.01,-0.001,-0.01,-0.003,0.02,0.107,-0.913,0.991
2024-10-01 16:13:51.579,34498.859,0.066,0.791,-0.608,0.012,0.035,0.011,0.01,-0.003,0.029,0.107,-0.912,0.991
2024-10-01 16:13:51.589,34498.869,0.066,0.791,-0.608,0.001,0.035,0.013,0.027,-0.004,0.04,0.108,-0.912,0.992
2024-10-01 16:13:51.599,34498.879,0.066,0.791,-0.609,-0.005,0.026,0.013,0.044,-0.001,0.038,0.109,-0.912,0.993
2024-10-01 16:13:51.609,34498.889,0.067,0.79,-0.609,-0.014,0.014,0.015,0.074,-0.006,0.029,0.109,-0.911,0.993
2024-10-01 16:13:51.619,34498.899,0.067,0.789,-0.61,-0.019,0.016,0.013,0.114,0.002,0.026,0.109,-0.91,0.994
2024-10-01 16:13:51.629,34498.909,0.067,0.789,-0.611,-0.016,0.019,0.005,0.12,-0.012,0.022,0.11,-0.909,0.994
2024-10-01 16:13:51.639,34498.919,0.067,0.788,-0.612,-0.018,0.009,-0.006,0.128,-0.037,0.023,0.11,-0.907,0.994
2024-10-01 16:13:51.649,34498.929,0.067,0.787,-0.613,-0.01,0.022,-0.013,0.155,-0.047,0.02,0.109,-0.906,0.995
2024-10-01 16:13:51.659,34498.939,0.067,0.786,-0.614,-0.006,0.022,-0.016,0.158,-0.05,0.026,0.109,-0.905,0.995
2024-10-01 16:13:51.669,34498.949,0.067,0.785,-0.616,-0.007,0.011,-0.002,0.164,-0.057,0.017,0.108,-0.903,0.995
2024-10-01 16:13:51.679,34498.959,0.067,0.784,-0.617,-0.002,0.004,0.009,0.187,-0.06,0.009,0.108,-0.901,0.995
2024-10-01 16:13:51.689,34498.969,0.066,0.783,-0.618,-0.004,-0.009,0.007,0.179,-0.066,0.011,0.107,-0.9,0.994
2024-10-01 16:13:51.699,34498.979,0.066,0.782,-0.62,-0.006,-0.007,0.001,0.206,-0.087,0.003,0.106,-0.898,0.994
2024-10-01 16:13:51.709,34498.989,0.065,0.781,-0.622,-0.004,0.005,-0.003,0.264,-0.096,-0.01,0.105,-0.896,0.994
2024-10-01 16:13:51.719,34498.999,0.064,0.779,-0.624,0.003,0.027,-0.003,0.348,-0.118,-0.019,0.103,-0.893,0.993
2024-10-01 16:13:51.729,34499.009,0.063,0.776,-0.627,0.003,0.036,0.001,0.457,-0.16,-0.04,0.101,-0.889,0.992
2024-10-01 16:13:51.739,34499.019,0.062,0.773,-0.631,0.013,0.04,0.001,0.56,-0.167,-0.054,0.098,-0.884,0.99
2024-10-01 16:13:51.749,34499.029,0.06,0.77,-0.636,0.013,0.048,0.002,0.624,-0.103,-0.037,0.095,-0.878,0.988
2024-10-01 16:13:51.759,34499.039,0.06,0.766,-0.64,0.006,0.051,0.012,0.466,-0.058,-0.012,0.094,-0.873,0.987
2024-10-01 16:13:51.769,34499.049,0.059,0.763,-0.643,-0.011,0.036,0.011,0.423,-0.044,-0.047,0.092,-0.868,0.986
2024-10-01 16:13:51.779,34499.059,0.059,0.761,-0.646,-0.023,0.007,-0.035,0.3,-0.005,-0.033,0.091,-0.865,0.985
2024-10-01 16:13:51.789,34499.069,0.059,0.759,-0.648,-0.006,-0.053,-0.005,0.16,0.057,-0.048,0.09,-0.862,0.984
2024-10-01 16:13:51.799,34499.079,0.059,0.759,-0.649,-0.011,-0.042,0.03,0.079,0.099,-0.051,0.091,-0.861,0.983
2024-10-01 16:13:51.809,34499.089,0.06,0.759,-0.649,-0.024,-0.019,0.023,-0.011,0.172,-0.073,0.092,-0.861,0.982
2024-10-01 16:13:51.818,34499.099,0.06,0.759,-0.648,-0.027,-0.033,-0.011,-0.142,0.235,-0.077,0.093,-0.862,0.981
2024-10-01 16:13:51.828,34499.109,0.061,0.76,-0.647,-0.034,-0.043,-0.024,-0.215,0.209,-0.082,0.094,-0.864,0.98
2024-10-01 16:13:51.838,34499.119,0.062,0.762,-0.645,-0.016,-0.069,-0.007,-0.169,0.252,-0.069,0.096,-0.866,0.98
2024-10-01 16:13:51.848,34499.129,0.063,0.763,-0.644,0.002,-0.031,0.016,-0.17,0.173,-0.046,0.098,-0.868,0.979
2024-10-01 16:13:51.858,34499.139,0.064,0.764,-0.642,-0.006,-0.008,0.02,-0.173,0.148,-0.011,0.099,-0.869,0.979
2024-10-01 16:13:51.869,34499.149,0.065,0.765,-0.641,0.006,-0.022,0.011,-0.167,0.088,-0.004,0.101,-0.871,0.979
2024-10-01 16:13:51.878,34499.159,0.065,0.766,-0.64,0.015,-0.016,0.037,-0.116,0.12,0.023,0.102,-0.872,0.979
2024-10-01 16:13:51.888,34499.169,0.066,0.767,-0.639,0.013,0.011,0.062,-0.161,0.106,0.023,0.104,-0.874,0.98
2024-10-01 16:13:51.898,34499.179,0.067,0.768,-0.637,-0.013,-0.046,0.04,-0.252,0.096,0.021,0.105,-0.876,0.981
2024-10-01 16:13:51.908,34499.189,0.068,0.77,-0.635,-0.019,-0.099,0.011,-0.33,0.054,0.021,0.106,-0.879,0.981
2024-10-01 16:13:51.918,34499.199,0.068,0.772,-0.632,-0.024,-0.066,0.004,-0.242,0.08,0.027,0.108,-0.882,0.982
2024-10-01 16:13:51.929,34499.209,0.069,0.773,-0.63,-0.007,-0.003,0.006,-0.219,0.142,0.061,0.11,-0.884,0.983
2024-10-01 16:13:51.939,34499.219,0.071,0.775,-0.629,-0.004,0.065,0.004,-0.237,0.127,0.053,0.112,-0.886,0.985
2024-10-01 16:13:51.949,34499.229,0.072,0.776,-0.627,-0.017,0.072,-0.021,-0.193,0.074,0.008,0.114,-0.888,0.986
2024-10-01 16:13:51.958,34499.239,0.072,0.777,-0.626,0.009,0.018,-0.048,-0.112,0.051,-0.005,0.115,-0.89,0.986
2024-10-01 16:13:51.969,34499.249,0.072,0.777,-0.625,0.025,0.008,-0.019,-0.021,0.049,-0.024,0.115,-0.89,0.986
2024-10-01 16:13:51.978,34499.259,0.072,0.777,-0.625,0.023,0.034,0.024,0.059,0.029,-0.038,0.115,-0.89,0.985
2024-10-01 16:13:51.988,34499.269,0.072,0.777,-0.626,0.021,0.042,0.03,0.133,-0.013,-0.049,0.114,-0.889,0.984
2024-10-01 16:13:51.998,34499.279,0.071,0.775,-0.627,0.019,0.04,0.027,0.237,-0.04,-0.047,0.113,-0.887,0.983
2024-10-01 16:13:52.008,34499.289,0.071,0.774,-0.63,0.018,0.037,0.017,0.302,-0.066,-0.037,0.112,-0.885,0.982
2024-10-01 16:13:52.018,34499.299,0.07,0.772,-0.632,0.011,0.033,0.015,0.348,-0.087,-0.039,0.11,-0.882,0.981
2024-10-01 16:13:52.028,34499.309,0.069,0.769,-0.635,0.007,0.023,0.018,0.384,-0.096,-0.035,0.108,-0.878,0.98
2024-10-01 16:13:52.038,34499.318,0.068,0.767,-0.638,0.004,0.014,0.013,0.407,-0.106,-0.037,0.106,-0.874,0.978
2024-10-01 16:13:52.048,34499.328,0.068,0.765,-0.641,-0.002,0.011,0.002,0.314,0.003,0.029,0.105,-0.87,0.978
2024-10-01 16:13:52.058,34499.338,0.068,0.763,-0.643,-0.012,-0.004,0.007,0.193,-0.026,-0.024,0.105,-0.868,0.978
2024-10-01 16:13:52.068,34499.348,0.067,0.762,-0.644,-0.027,-0.013,-0.017,0.164,-0.01,-0.042,0.104,-0.866,0.977
2024-10-01 16:13:52.078,34499.358,0.067,0.761,-0.645,-0.031,-0.045,-0.044,0.128,-0.031,-0.031,0.104,-0.865,0.976
2024-10-01 16:13:52.088,34499.368,0.067,0.76,-0.646,-0.023,-0.056,-0.034,0.146,-0.035,-0.017,0.103,-0.864,0.976
2024-10-01 16:13:52.098,34499.378,0.066,0.759,-0.647,-0.007,0.008,-0.023,0.15,-0.041,0.01,0.102,-0.863,0.975
2024-10-01 16:13:52.108,34499.388,0.066,0.759,-0.648,-0.007,0.027,-0.016,0.153,-0.044,0.023,0.102,-0.861,0.975
2024-10-01 16:13:52.118,34499.398,0.066,0.758,-0.649,0.008,0.015,-0.011,0.11,-0.036,0.033,0.102,-0.86,0.975
2024-10-01 16:13:52.128,34499.408,0.066,0.757,-0.65,0.008,-0.003,-0.019,0.02,-0.029,0.045,0.102,-0.859,0.976
2024-10-01 16:13:52.138,34499.418,0.066,0.758,-0.649,-0.003,-0.03,-0.028,-0.115,-0.059,0.024,0.102,-0.86,0.977
2024-10-01 16:13:52.148,34499.428,0.066,0.759,-0.648,-0.015,-0.062,-0.038,-0.139,-0.062,0.013,0.101,-0.861,0.977
2024-10-01 16:13:52.158,34499.438,0.066,0.76,-0.647,-0.019,-0.053,-0.049,-0.182,-0.088,0.04,0.101,-0.863,0.978
2024-10-01 16:13:52.168,34499.448,0.066,0.76,-0.646,-0.028,-0.011,-0.044,-0.103,-0.05,0.027,0.101,-0.864,0.978
2024-10-01 16:13:52.178,34499.458,0.066,0.761,-0.646,-0.024,0.016,-0.018,-0.054,-0.02,0.034,0.101,-0.865,0.979
2024-10-01 16:13:52.188,34499.468,0.066,0.761,-0.646,-0.016,0.048,0.019,0.033,0.022,0.027,0.102,-0.864,0.979
2024-10-01 16:13:52.198,34499.478,0.066,0.761,-0.646,-0.011,0.034,0.046,-0.004,-0.005,0.021,0.102,-0.864,0.98
2024-10-01 16:13:52.208,34499.488,0.066,0.76,-0.646,0.009,-0.012,0.061,0.032,-0.016,0.004,0.102,-0.864,0.98
2024-10-01 16:13:52.218,34499.498,0.066,0.76,-0.646,0.018,-0.016,0.074,0.052,-0.011,0.003,0.102,-0.864,0.98
2024-10-01 16:13:52.228,34499.508,0.066,0.76,-0.647,0.011,-0.002,0.065,0.014,0.035,-0.004,0.102,-0.863,0.98
2024-10-01 16:13:52.238,34499.518,0.066,0.76,-0.646,0.006,-0.047,0.06,-0.1,0.047,-0.018,0.102,-0.864,0.98
2024-10-01 16:13:52.248,34499.528,0.066,0.761,-0.645,0.004,-0.071,0.055,-0.176,0.058,-0.017,0.103,-0.865,0.98
2024-10-01 16:13:52.258,34499.538,0.067,0.762,-0.644,-0.025,-0.073,0.03,-0.221,0.085,-0.006,0.103,-0.867,0.98
2024-10-01 16:13:52.268,34499.548,0.067,0.764,-0.642,-0.038,-0.042,0.019,-0.232,0.059,-0.011,0.104,-0.869,0.98
2024-10-01 16:13:52.278,34499.558,0.067,0.765,-0.64,-0.042,-0.012,0.014,-0.181,0.04,0.004,0.105,-0.872,0.98
2024-10-01 16:13:52.288,34499.568,0.068,0.766,-0.639,-0.025,0.011,0.013,-0.107,0.088,0.031,0.106,-0.873,0.981
2024-10-01 16:13:52.298,34499.578,0.069,0.767,-0.638,-0.007,0.022,0.025,-0.116,0.11,0.041,0.107,-0.874,0.982
2024-10-01 16:13:52.308,34499.588,0.07,0.768,-0.637,-0.01,0.053,0.016,-0.114,0.09,0.02,0.109,-0.875,0.982
2024-10-01 16:13:52.318,34499.598,0.07,0.768,-0.636,-0.017,0.039,-0.015,-0.077,0.051,-0.004,0.11,-0.876,0.983
2024-10-01 16:13:52.328,34499.608,0.071,0.769,-0.636,-0.0,0.007,-0.025,-0.005,0.058,-0.009,0.111,-0.877,0.983
2024-10-01 16:13:52.337,34499.618,0.071,0.768,-0.636,0.013,0.027,-0.007,0.048,0.053,-0.002,0.111,-0.876,0.982
2024-10-01 16:13:52.347,34499.628,0.071,0.768,-0.637,0.006,0.035,0.012,0.113,0.017,-0.017,0.111,-0.875,0.982
2024-10-01 16:13:52.357,34499.638,0.071,0.767,-0.638,0.014,0.035,0.014,0.226,-0.01,-0.031,0.11,-0.874,0.981
2024-10-01 16:13:52.368,34499.648,0.07,0.765,-0.64,0.018,0.039,-0.001,0.326,-0.043,-0.029,0.109,-0.871,0.98
2024-10-01 16:13:52.378,34499.658,0.07,0.763,-0.643,0.017,0.046,0.009,0.412,-0.072,-0.044,0.108,-0.868,0.979
2024-10-01 16:13:52.388,34499.668,0.069,0.76,-0.646,0.021,0.049,0.019,0.44,-0.055,-0.042,0.106,-0.863,0.978
2024-10-01 16:13:52.397,34499.678,0.069,0.758,-0.649,0.021,0.044,0.01,0.253,0.006,0.036,0.106,-0.86,0.977
2024-10-01 16:13:52.407,34499.688,0.069,0.756,-0.651,0.004,0.022,0.017,0.216,-0.047,-0.045,0.105,-0.858,0.977
2024-10-01 16:13:52.417,34499.698,0.068,0.755,-0.652,-0.016,-0.012,-0.049,0.2,-0.056,-0.005,0.104,-0.856,0.976
2024-10-01 16:13:52.427,34499.708,0.068,0.754,-0.654,-0.014,-0.074,-0.064,0.186,-0.095,-0.002,0.103,-0.854,0.976
2024-10-01 16:13:52.437,34499.718,0.067,0.753,-0.655,0.0,-0.052,-0.027,0.216,-0.102,0.015,0.102,-0.852,0.976
2024-10-01 16:13:52.447,34499.728,0.067,0.751,-0.657,-0.002,-0.002,-0.009,0.168,-0.125,0.029,0.101,-0.85,0.976
2024-10-01 16:13:52.458,34499.738,0.066,0.75,-0.658,-0.002,-0.01,-0.007,0.13,-0.151,0.031,0.1,-0.848,0.976
2024-10-01 16:13:52.467,34499.748,0.065,0.75,-0.659,0.006,-0.017,-0.004,0.046,-0.182,0.051,0.099,-0.847,0.976
2024-10-01 16:13:52.477,34499.758,0.065,0.749,-0.659,-0.003,0.005,0.001,-0.007,-0.104,0.088,0.098,-0.847,0.977
2024-10-01 16:13:52.487,34499.768,0.065,0.75,-0.659,-0.012,-0.007,0.008,-0.165,-0.078,0.095,0.098,-0.848,0.979
2024-10-01 16:13:52.497,34499.778,0.065,0.751,-0.657,-0.013,-0.047,0.032,-0.299,-0.027,0.073,0.099,-0.85,0.98
2024-10-01 16:13:52.507,34499.788,0.066,0.753,-0.654,-0.019,-0.073,0.039,-0.332,-0.007,0.053,0.1,-0.853,0.982
2024-10-01 16:13:52.517,34499.798,0.066,0.755,-0.652,-0.037,-0.059,0.012,-0.212,0.037,0.045,0.101,-0.856,0.983
2024-10-01 16:13:52.527,34499.808,0.067,0.756,-0.651,-0.034,-0.025,0.001,-0.208,0.13,0.058,0.103,-0.858,0.984
2024-10-01 16:13:52.537,34499.818,0.068,0.758,-0.649,-0.037,-0.024,-0.001,-0.259,0.126,0.039,0.105,-0.86,0.985
2024-10-01 16:13:52.547,34499.828,0.069,0.759,-0.647,-0.03,-0.032,0.024,-0.196,0.178,0.017,0.107,-0.862,0.986
2024-10-01 16:13:52.557,34499.838,0.071,0.761,-0.645,-0.004,0.001,0.03,-0.229,0.258,0.053,0.11,-0.864,0.987
2024-10-01 16:13:52.568,34499.848,0.073,0.762,-0.643,-0.006,0.042,0.026,-0.293,0.239,0.007,0.113,-0.867,0.988
2024-10-01 16:13:52.577,34499.858,0.074,0.764,-0.641,-0.008,0.004,-0.009,-0.296,0.205,-0.029,0.115,-0.87,0.988
2024-10-01 16:13:52.587,34499.868,0.075,0.766,-0.639,0.008,-0.031,-0.046,-0.236,0.177,-0.046,0.117,-0.872,0.988
2024-10-01 16:13:52.597,34499.878,0.076,0.767,-0.637,0.016,-0.008,-0.038,-0.166,0.152,-0.064,0.119,-0.874,0.987
2024-10-01 16:13:52.607,34499.887,0.076,0.768,-0.636,0.016,0.026,-0.013,-0.067,0.12,-0.069,0.119,-0.876,0.987
2024-10-01 16:13:52.617,34499.897,0.076,0.768,-0.636,0.014,0.06,0.015,0.066,0.084,-0.088,0.119,-0.876,0.985
2024-10-01 16:13:52.627,34499.907,0.076,0.767,-0.637,0.02,0.077,0.03,0.188,0.019,-0.094,0.119,-0.874,0.984
2024-10-01 16:13:52.637,34499.917,0.075,0.766,-0.639,0.022,0.064,0.035,0.32,-0.05,-0.101,0.117,-0.872,0.982
2024-10-01 16:13:52.647,34499.927,0.074,0.763,-0.642,0.028,0.053,0.024,0.426,-0.107,-0.086,0.114,-0.868,0.98
2024-10-01 16:13:52.657,34499.937,0.072,0.76,-0.645,0.03,0.039,0.015,0.478,-0.166,-0.065,0.112,-0.864,0.978
2024-10-01 16:13:52.667,34499.947,0.072,0.758,-0.649,0.02,0.014,0.018,0.315,0.008,0.059,0.11,-0.86,0.977
2024-10-01 16:13:52.677,34499.957,0.071,0.756,-0.65,-0.003,-0.015,0.027,0.132,-0.091,-0.043,0.11,-0.858,0.977
2024-10-01 16:13:52.687,34499.967,0.071,0.756,-0.651,-0.045,-0.032,-0.039,0.082,-0.03,-0.013,0.108,-0.857,0.976
2024-10-01 16:13:52.698,34499.977,0.071,0.756,-0.651,-0.045,-0.074,-0.076,0.011,-0.029,-0.015,0.108,-0.856,0.976
2024-10-01 16:13:52.707,34499.987,0.07,0.755,-0.651,-0.011,-0.041,-0.031,0.007,0.011,-0.005,0.108,-0.856,0.976
2024-10-01 16:13:52.717,34499.997,0.071,0.755,-0.652,-0.006,0.034,-0.009,0.102,0.067,0.005,0.108,-0.856,0.975
2024-10-01 16:13:52.727,34500.007,0.071,0.755,-0.652,-0.006,0.034,-0.019,0.079,0.037,-0.0,0.109,-0.855,0.975
2024-10-01 16:13:52.737,34500.017,0.071,0.754,-0.652,-0.016,0.027,-0.022,-0.002,0.026,0.02,0.109,-0.855,0.976
2024-10-01 16:13:52.747,34500.027,0.072,0.754,-0.653,-0.021,-0.014,-0.003,0.086,0.053,0.005,0.109,-0.854,0.976
2024-10-01 16:13:52.757,34500.037,0.072,0.754,-0.653,-0.002,-0.034,0.019,-0.006,0.075,0.008,0.11,-0.854,0.976
2024-10-01 16:13:52.767,34500.047,0.072,0.754,-0.653,-0.021,-0.049,0.014,-0.106,-0.036,0.018,0.11,-0.854,0.976
2024-10-01 16:13:52.777,34500.057,0.072,0.755,-0.652,-0.034,-0.073,0.031,-0.035,-0.039,-0.013,0.11,-0.855,0.976
2024-10-01 16:13:52.787,34500.067,0.072,0.754,-0.652,0.019,-0.048,0.028,0.015,0.019,0.024,0.11,-0.855,0.976
2024-10-01 16:13:52.797,34500.077,0.072,0.755,-0.652,0.0,0.035,0.018,-0.086,-0.009,0.036,0.11,-0.855,0.977
2024-10-01 16:13:52.807,34500.087,0.072,0.755,-0.651,-0.017,-0.006,0.038,-0.146,0.024,-0.006,0.111,-0.856,0.977
2024-10-01 16:13:52.817,34500.097,0.073,0.757,-0.65,0.021,-0.074,0.048,-0.226,0.068,0.008,0.111,-0.858,0.977
2024-10-01 16:13:52.827,34500.107,0.073,0.758,-0.648,-0.008,-0.065,0.038,-0.273,0.09,0.016,0.113,-0.861,0.978
2024-10-01 16:13:52.837,34500.117,0.074,0.76,-0.646,-0.038,-0.061,0.026,-0.319,0.069,0.027,0.114,-0.863,0.979
2024-10-01 16:13:52.847,34500.127,0.074,0.762,-0.643,-0.032,-0.059,0.019,-0.318,0.01,0.052,0.115,-0.867,0.98
2024-10-01 16:13:52.857,34500.137,0.075,0.764,-0.641,-0.023,-0.024,0.021,-0.235,0.082,0.09,0.117,-0.869,0.981
2024-10-01 16:13:52.867,34500.147,0.077,0.765,-0.639,-0.007,0.064,0.013,-0.242,0.14,0.109,0.119,-0.871,0.983
2024-10-01 16:13:52.877,34500.157,0.078,0.767,-0.637,-0.044,0.107,-0.024,-0.353,0.067,0.082,0.122,-0.874,0.985
2024-10-01 16:13:52.887,34500.167,0.079,0.769,-0.634,-0.038,-0.006,-0.046,-0.357,0.041,0.042,0.124,-0.878,0.987
2024-10-01 16:13:52.897,34500.177,0.079,0.771,-0.632,0.009,-0.042,-0.017,-0.271,0.044,0.044,0.125,-0.881,0.988
2024-10-01 16:13:52.907,34500.187,0.08,0.773,-0.63,0.004,0.026,0.01,-0.166,0.007,0.04,0.126,-0.883,0.989
2024-10-01 16:13:52.917,34500.197,0.08,0.773,-0.629,0.008,0.039,0.006,-0.056,-0.038,0.023,0.127,-0.884,0.99
2024-10-01 16:13:52.927,34500.207,0.08,0.773,-0.629,0.032,0.032,0.01,0.071,-0.064,0.025,0.126,-0.884,0.99
2024-10-01 16:13:52.936,34500.217,0.08,0.772,-0.63,0.031,0.041,0.015,0.165,-0.1,0.024,0.126,-0.883,0.991
2024-10-01 16:13:52.946,34500.227,0.079,0.771,-0.632,0.025,0.039,0.022,0.252,-0.133,0.001,0.124,-0.881,0.99
2024-10-01 16:13:52.957,34500.237,0.078,0.769,-0.634,0.025,0.043,0.021,0.347,-0.162,-0.011,0.122,-0.878,0.99
2024-10-01 16:13:52.967,34500.247,0.077,0.767,-0.637,0.022,0.055,0.014,0.418,-0.194,-0.025,0.12,-0.874,0.989
2024-10-01 16:13:52.976,34500.257,0.075,0.764,-0.641,0.021,0.055,0.007,0.486,-0.234,-0.044,0.117,-0.869,0.987
2024-10-01 16:13:52.987,34500.267,0.073,0.761,-0.645,0.017,0.039,0.003,0.557,-0.269,-0.059,0.113,-0.864,0.986
2024-10-01 16:13:52.996,34500.277,0.071,0.757,-0.65,0.017,0.027,-0.003,0.622,-0.285,-0.068,0.109,-0.859,0.984
2024-10-01 16:13:53.013,34500.287,0.069,0.753,-0.655,0.016,0.03,0.002,0.589,-0.13,-0.017,0.105,-0.852,0.982
2024-10-01 16:13:53.018,34500.297,0.068,0.75,-0.658,0.007,0.018,0.018,0.273,-0.096,-0.021,0.103,-0.848,0.981
2024-10-01 16:13:53.026,34500.307,0.067,0.749,-0.659,-0.027,-0.001,0.006,0.195,-0.06,-0.055,0.102,-0.846,0.98
2024-10-01 16:13:53.036,34500.317,0.067,0.748,-0.66,-0.045,-0.074,-0.093,0.064,-0.05,-0.039,0.101,-0.845,0.979
2024-10-01 16:13:53.047,34500.327,0.066,0.748,-0.661,-0.014,-0.105,-0.05,0.02,0.017,-0.038,0.1,-0.845,0.979
2024-10-01 16:13:53.056,34500.337,0.066,0.747,-0.661,-0.01,-0.014,0.028,0.036,0.036,-0.019,0.1,-0.844,0.978
2024-10-01 16:13:53.067,34500.347,0.066,0.747,-0.662,-0.026,0.012,0.046,0.14,0.118,-0.036,0.1,-0.843,0.978
2024-10-01 16:13:53.076,34500.357,0.067,0.746,-0.662,-0.024,-0.001,0.027,0.106,0.084,-0.029,0.101,-0.842,0.977
2024-10-01 16:13:53.087,34500.367,0.067,0.746,-0.663,-0.04,-0.023,0.009,-0.007,0.037,-0.002,0.101,-0.842,0.977
2024-10-01 16:13:53.096,34500.377,0.067,0.746,-0.663,-0.017,-0.086,-0.002,0.037,0.032,-0.004,0.101,-0.842,0.977
2024-10-01 16:13:53.106,34500.387,0.068,0.746,-0.663,0.003,-0.052,-0.014,-0.017,0.014,0.048,0.102,-0.842,0.977
2024-10-01 16:13:53.116,34500.397,0.068,0.746,-0.662,-0.01,0.029,0.01,-0.089,-0.03,0.057,0.102,-0.842,0.978
2024-10-01 16:13:53.126,34500.407,0.068,0.747,-0.662,-0.006,-0.008,0.032,-0.113,-0.034,0.056,0.103,-0.843,0.979
2024-10-01 16:13:53.136,34500.417,0.069,0.748,-0.661,0.004,-0.061,0.033,-0.178,0.007,0.075,0.104,-0.845,0.98
2024-10-01 16:13:53.146,34500.427,0.069,0.749,-0.659,-0.02,-0.059,0.04,-0.263,0.038,0.068,0.105,-0.847,0.981
2024-10-01 16:13:53.156,34500.437,0.07,0.751,-0.657,-0.037,-0.04,0.037,-0.297,0.059,0.069,0.106,-0.849,0.983
2024-10-01 16:13:53.166,34500.447,0.071,0.753,-0.654,-0.037,-0.011,0.001,-0.333,0.103,0.113,0.109,-0.852,0.985
2024-10-01 16:13:53.176,34500.456,0.073,0.755,-0.651,-0.041,0.037,-0.029,-0.41,0.179,0.134,0.112,-0.856,0.987
2024-10-01 16:13:53.186,34500.466,0.075,0.758,-0.648,-0.046,0.057,-0.039,-0.531,0.195,0.114,0.116,-0.86,0.99
2024-10-01 16:13:53.196,34500.476,0.077,0.762,-0.643,-0.046,0.015,-0.075,-0.655,0.147,0.061,0.119,-0.866,0.992
2024-10-01 16:13:53.206,34500.486,0.079,0.766,-0.638,-0.033,-0.025,-0.089,-0.573,0.113,0.115,0.122,-0.872,0.995
2024-10-01 16:13:53.216,34500.496,0.08,0.769,-0.634,-0.033,-0.013,-0.047,-0.421,0.111,0.137,0.126,-0.877,0.998
2024-10-01 16:13:53.226,34500.506,0.082,0.771,-0.631,-0.012,0.031,-0.039,-0.313,0.077,0.14,0.129,-0.881,1.001
2024-10-01 16:13:53.236,34500.516,0.083,0.773,-0.629,-0.001,0.094,-0.017,-0.201,-0.002,0.097,0.131,-0.883,1.003
2024-10-01 16:13:53.246,34500.526,0.077,0.773,-0.629,-0.014,0.09,0.008,-0.247,-0.318,-0.931,0.122,-0.884,0.994
2024-10-01 16:13:53.257,34500.536,0.076,0.774,-0.629,-0.203,0.093,0.036,0.14,-0.094,0.31,0.12,-0.885,0.992
2024-10-01 16:13:53.266,34500.546,0.074,0.773,-0.63,-0.096,0.1,0.082,0.007,-0.229,-0.28,0.117,-0.884,0.991
2024-10-01 16:13:53.276,34500.556,0.072,0.773,-0.631,0.15,-0.056,0.108,0.144,-0.212,-0.018,0.113,-0.883,0.989
2024-10-01 16:13:53.286,34500.566,0.07,0.772,-0.632,-0.124,-0.005,0.1,0.197,-0.207,-0.067,0.11,-0.882,0.988
2024-10-01 16:13:53.296,34500.576,0.068,0.771,-0.634,0.02,0.079,0.058,0.158,-0.231,-0.063,0.107,-0.88,0.986
2024-10-01 16:13:53.306,34500.586,0.066,0.77,-0.635,-0.006,0.004,0.024,0.111,-0.19,-0.043,0.104,-0.879,0.985
2024-10-01 16:13:53.316,34500.596,0.065,0.769,-0.635,0.02,-0.018,0.02,0.036,-0.12,-0.025,0.102,-0.878,0.984
2024-10-01 16:13:53.326,34500.606,0.064,0.77,-0.635,0.014,-0.038,0.023,-0.076,-0.082,-0.033,0.101,-0.878,0.984
2024-10-01 16:13:53.337,34500.616,0.063,0.77,-0.635,0.018,-0.051,0.023,-0.112,-0.045,-0.04,0.1,-0.879,0.984
2024-10-01 16:13:53.346,34500.626,0.063,0.771,-0.634,0.025,-0.068,0.01,-0.094,-0.024,-0.056,0.099,-0.88,0.983
2024-10-01 16:13:53.356,34500.636,0.062,0.771,-0.633,0.031,-0.068,0.003,-0.059,-0.003,-0.055,0.098,-0.881,0.982
2024-10-01 16:13:53.366,34500.646,0.062,0.772,-0.633,0.031,-0.047,-0.001,-0.02,-0.004,-0.054,0.097,-0.881,0.981
2024-10-01 16:13:53.376,34500.656,0.062,0.772,-0.633,0.038,-0.042,0.003,0.002,0.007,-0.05,0.097,-0.882,0.981
2024-10-01 16:13:53.386,34500.666,0.061,0.772,-0.633,0.049,-0.033,0.004,0.008,0.033,-0.016,0.097,-0.882,0.98
2024-10-01 16:13:53.396,34500.676,0.062,0.772,-0.633,0.043,-0.013,0.002,-0.006,0.04,0.007,0.097,-0.882,0.98
2024-10-01 16:13:53.406,34500.686,0.062,0.772,-0.633,0.048,-0.007,0.0,-0.024,0.023,0.011,0.098,-0.882,0.98
2024-10-01 16:13:53.416,34500.696,0.062,0.772,-0.633,0.056,-0.012,-0.012,-0.032,0.017,0.012,0.098,-0.882,0.98
2024-10-01 16:13:53.426,34500.706,0.062,0.772,-0.632,0.055,-0.019,-0.023,-0.065,0.011,0.012,0.098,-0.882,0.981
2024-10-01 16:13:53.436,34500.716,0.063,0.773,-0.632,0.048,-0.009,-0.012,-0.095,0.005,0.009,0.099,-0.883,0.981
2024-10-01 16:13:53.446,34500.726,0.063,0.773,-0.631,0.035,-0.004,0.004,-0.08,-0.004,0.008,0.099,-0.884,0.981
2024-10-01 16:13:53.456,34500.736,0.063,0.774,-0.631,0.027,-0.012,0.001,-0.035,-0.022,0.012,0.099,-0.884,0.982
2024-10-01 16:13:53.466,34500.746,0.063,0.774,-0.631,0.018,-0.001,-0.005,0.028,-0.04,0.016,0.099,-0.884,0.982
2024-10-01 16:13:53.476,34500.756,0.063,0.773,-0.631,0.01,0.008,0.002,0.065,-0.065,0.002,0.099,-0.884,0.982
2024-10-01 16:13:53.486,34500.766,0.062,0.773,-0.632,0.008,0.001,0.013,0.111,-0.066,-0.005,0.098,-0.883,0.982
2024-10-01 16:13:53.496,34500.776,0.062,0.772,-0.633,0.005,0.016,0.017,0.149,-0.08,0.003,0.098,-0.882,0.982
2024-10-01 16:13:53.506,34500.786,0.062,0.771,-0.634,-0.001,0.021,0.016,0.198,-0.078,-0.013,0.097,-0.88,0.982
2024-10-01 16:13:53.516,34500.796,0.061,0.769,-0.636,0.005,0.014,0.006,0.221,-0.088,-0.014,0.096,-0.878,0.982
2024-10-01 16:13:53.525,34500.806,0.061,0.768,-0.638,0.002,0.017,-0.006,0.242,-0.11,-0.024,0.095,-0.875,0.982
2024-10-01 16:13:53.536,34500.816,0.06,0.766,-0.64,-0.002,0.015,-0.011,0.263,-0.129,-0.033,0.093,-0.873,0.981
2024-10-01 16:13:53.546,34500.826,0.059,0.765,-0.642,0.001,0.015,-0.022,0.302,-0.147,-0.037,0.091,-0.87,0.98
2024-10-01 16:13:53.556,34500.836,0.057,0.763,-0.644,0.003,0.018,-0.02,0.335,-0.177,-0.042,0.089,-0.867,0.979
2024-10-01 16:13:53.566,34500.846,0.056,0.76,-0.647,0.006,0.02,-0.005,0.367,-0.197,-0.05,0.086,-0.864,0.978
2024-10-01 16:13:53.576,34500.856,0.054,0.758,-0.65,0.006,0.029,0.002,0.421,-0.168,-0.044,0.084,-0.86,0.977
2024-10-01 16:13:53.585,34500.866,0.054,0.756,-0.653,0.002,0.037,0.012,0.296,-0.108,0.009,0.082,-0.857,0.976
2024-10-01 16:13:53.596,34500.876,0.053,0.754,-0.655,-0.014,0.026,0.024,0.325,-0.085,-0.056,0.08,-0.854,0.975
2024-10-01 16:13:53.605,34500.886,0.052,0.752,-0.657,-0.034,-0.009,-0.021,0.286,-0.059,-0.024,0.079,-0.851,0.975
2024-10-01 16:13:53.616,34500.896,0.052,0.75,-0.659,-0.025,-0.047,-0.007,0.27,-0.051,-0.034,0.078,-0.849,0.974
2024-10-01 16:13:53.625,34500.906,0.051,0.748,-0.661,-0.012,-0.011,0.029,0.3,0.025,-0.019,0.077,-0.846,0.973
2024-10-01 16:13:53.635,34500.916,0.051,0.747,-0.663,-0.01,0.031,0.033,0.265,0.058,-0.003,0.077,-0.843,0.973
2024-10-01 16:13:53.645,34500.926,0.052,0.745,-0.665,-0.015,0.02,0.024,0.183,0.08,-0.026,0.078,-0.841,0.972
2024-10-01 16:13:53.656,34500.936,0.052,0.744,-0.666,-0.011,-0.015,0.008,0.022,0.13,-0.026,0.078,-0.84,0.972
2024-10-01 16:13:53.666,34500.946,0.053,0.745,-0.665,-0.022,-0.05,-0.008,-0.174,0.108,-0.003,0.08,-0.84,0.971
2024-10-01 16:13:53.675,34500.956,0.054,0.746,-0.663,-0.024,-0.105,-0.016,-0.266,0.121,-0.01,0.081,-0.843,0.972
2024-10-01 16:13:53.685,34500.966,0.054,0.749,-0.661,-0.007,-0.118,-0.023,-0.365,0.103,0.005,0.082,-0.846,0.972
2024-10-01 16:13:53.695,34500.976,0.055,0.751,-0.658,-0.013,-0.037,-0.01,-0.367,0.129,0.02,0.084,-0.85,0.973
2024-10-01 16:13:53.705,34500.986,0.056,0.753,-0.655,-0.015,-0.018,-0.0,-0.405,0.097,0.006,0.085,-0.853,0.973
2024-10-01 16:13:53.715,34500.996,0.057,0.756,-0.652,0.004,-0.051,0.019,-0.342,0.112,0.005,0.087,-0.857,0.974
2024-10-01 16:13:53.726,34501.006,0.058,0.758,-0.65,0.017,-0.012,0.05,-0.268,0.137,0.014,0.088,-0.86,0.974
2024-10-01 16:13:53.736,34501.016,0.059,0.76,-0.648,0.003,0.017,0.057,-0.292,0.152,0.039,0.091,-0.863,0.975
2024-10-01 16:13:53.745,34501.025,0.06,0.762,-0.645,-0.004,0.007,0.054,-0.298,0.117,0.019,0.093,-0.866,0.976
2024-10-01 16:13:53.756,34501.035,0.061,0.763,-0.643,0.002,0.017,0.032,-0.198,0.112,0.016,0.094,-0.868,0.977
2024-10-01 16:13:53.766,34501.045,0.061,0.764,-0.642,-0.002,0.043,-0.009,-0.127,0.05,0.025,0.095,-0.87,0.977
2024-10-01 16:13:53.775,34501.055,0.062,0.765,-0.641,-0.005,0.042,-0.019,-0.002,0.014,0.001,0.096,-0.871,0.978
2024-10-01 16:13:53.785,34501.065,0.062,0.764,-0.642,0.01,0.032,-0.025,0.097,-0.002,-0.0,0.096,-0.87,0.977
2024-10-01 16:13:53.795,34501.075,0.062,0.763,-0.643,0.003,0.045,-0.009,0.164,-0.023,-0.018,0.096,-0.869,0.977
2024-10-01 16:13:53.805,34501.085,0.061,0.762,-0.644,0.006,0.053,0.013,0.24,-0.052,-0.036,0.095,-0.867,0.976
2024-10-01 16:13:53.815,34501.095,0.06,0.76,-0.647,0.014,0.031,0.007,0.318,-0.098,-0.056,0.093,-0.864,0.975
2024-10-01 16:13:53.825,34501.105,0.059,0.758,-0.649,0.019,0.023,0.004,0.403,-0.127,-0.073,0.091,-0.86,0.974
2024-10-01 16:13:53.835,34501.115,0.058,0.755,-0.653,0.014,0.028,0.004,0.444,-0.121,-0.074,0.088,-0.856,0.972
2024-10-01 16:13:53.845,34501.125,0.057,0.753,-0.656,0.009,0.032,0.002,0.347,0.005,-0.015,0.087,-0.852,0.971
2024-10-01 16:13:53.856,34501.135,0.057,0.751,-0.658,0.001,0.031,0.009,0.169,-0.033,-0.032,0.086,-0.85,0.97
2024-10-01 16:13:53.865,34501.145,0.056,0.75,-0.659,-0.016,0.026,-0.018,0.13,0.004,-0.051,0.085,-0.848,0.969
2024-10-01 16:13:53.875,34501.155,0.056,0.75,-0.659,-0.025,-0.02,-0.069,0.033,-0.022,-0.03,0.085,-0.848,0.969
2024-10-01 16:13:53.885,34501.165,0.056,0.75,-0.659,-0.018,-0.073,-0.039,-0.011,-0.024,-0.024,0.084,-0.848,0.968
2024-10-01 16:13:53.895,34501.175,0.056,0.75,-0.659,0.001,-0.033,-0.008,-0.012,0.014,0.013,0.084,-0.848,0.968
2024-10-01 16:13:53.905,34501.185,0.056,0.75,-0.659,-0.004,-0.009,-0.001,-0.059,-0.039,0.011,0.084,-0.848,0.969
2024-10-01 16:13:53.915,34501.195,0.056,0.75,-0.659,-0.003,-0.003,-0.006,0.032,0.022,0.027,0.084,-0.848,0.969
2024-10-01 16:13:53.925,34501.205,0.056,0.751,-0.658,-0.011,0.001,-0.028,-0.096,-0.043,0.037,0.085,-0.849,0.969
