Date,TimeStamp,GravityX,GravityY,GravityZ,UserAccelerationX,UserAccelerationY,UserAccelerationZ,RotationRateX,RotationRateY,RotationRateZ,AttitudeRoll,AttitudePitch,AttitudeYaw
2024-09-23 14:54:37.980,173962.446,0.008,0.713,-0.701,0.014,-0.028,0.011,0.067,-0.031,0.146,0.011,-0.794,1.526
2024-09-23 14:54:37.990,173962.456,0.008,0.712,-0.702,0.016,0.005,0.023,0.122,-0.075,0.024,0.012,-0.792,1.527
2024-09-23 14:54:37.999,173962.466,0.008,0.711,-0.703,0.038,0.063,0.047,0.073,-0.093,0.031,0.011,-0.791,1.527
2024-09-23 14:54:38.009,173962.476,0.007,0.711,-0.703,0.026,-0.007,0.014,-0.056,-0.091,-0.041,0.01,-0.791,1.527
2024-09-23 14:54:38.019,173962.486,0.006,0.712,-0.702,0.028,-0.103,-0.014,-0.164,-0.078,-0.043,0.008,-0.793,1.527
2024-09-23 14:54:38.029,173962.496,0.005,0.714,-0.701,0.012,-0.063,-0.026,-0.217,-0.068,-0.061,0.007,-0.795,1.526
2024-09-23 14:54:38.039,173962.506,0.004,0.715,-0.699,-0.0,-0.017,-0.018,-0.217,-0.086,-0.036,0.006,-0.797,1.525
2024-09-23 14:54:38.049,173962.516,0.003,0.716,-0.698,-0.001,-0.0,-0.001,-0.155,-0.098,-0.04,0.005,-0.799,1.525
2024-09-23 14:54:38.060,173962.525,0.002,0.717,-0.697,0.01,0.006,0.007,-0.115,-0.076,-0.061,0.003,-0.8,1.524
2024-09-23 14:54:38.070,173962.535,0.002,0.718,-0.696,-0.002,0.009,0.02,-0.114,-0.04,-0.059,0.002,-0.801,1.523
2024-09-23 14:54:38.079,173962.545,0.001,0.719,-0.695,-0.015,-0.031,0.016,-0.132,-0.022,-0.067,0.001,-0.802,1.522
2024-09-23 14:54:38.089,173962.555,0.001,0.72,-0.694,-0.008,-0.044,0.007,-0.14,0.008,-0.056,0.001,-0.804,1.521
2024-09-23 14:54:38.099,173962.565,0.0,0.721,-0.693,-0.014,0.006,-0.001,-0.224,0.038,-0.053,0.0,-0.805,1.521
2024-09-23 14:54:38.110,173962.575,0.0,0.723,-0.691,-0.022,0.026,-0.018,-0.24,0.062,-0.022,0.001,-0.808,1.52
2024-09-23 14:54:38.119,173962.585,0.001,0.724,-0.69,-0.022,-0.016,-0.021,-0.177,0.038,-0.043,0.001,-0.81,1.52
2024-09-23 14:54:38.129,173962.595,0.0,0.725,-0.689,0.005,-0.025,0.003,-0.103,0.02,-0.064,0.001,-0.811,1.519
2024-09-23 14:54:38.139,173962.605,0.0,0.725,-0.688,0.021,0.045,0.017,0.001,0.01,-0.045,0.0,-0.812,1.518
2024-09-23 14:54:38.150,173962.615,-0.0,0.725,-0.689,0.011,0.055,0.018,0.094,-0.004,-0.034,-0.0,-0.811,1.518
2024-09-23 14:54:38.159,173962.625,-0.0,0.724,-0.69,0.001,0.043,0.024,0.15,-0.024,-0.016,-0.001,-0.81,1.517
2024-09-23 14:54:38.171,173962.635,-0.001,0.723,-0.691,0.003,0.047,0.022,0.203,-0.021,0.019,-0.001,-0.808,1.517
2024-09-23 14:54:38.180,173962.645,-0.001,0.722,-0.692,0.004,0.033,0.019,0.058,-0.011,-0.011,-0.001,-0.807,1.517
2024-09-23 14:54:38.188,173962.655,-0.001,0.722,-0.692,-0.001,0.026,-0.006,-0.036,0.035,0.016,-0.001,-0.807,1.517
2024-09-23 14:54:38.198,173962.665,-0.001,0.723,-0.691,-0.024,-0.04,-0.021,-0.114,0.02,0.007,-0.001,-0.808,1.517
2024-09-23 14:54:38.208,173962.675,-0.001,0.723,-0.69,-0.006,-0.096,-0.022,-0.111,0.004,0.004,-0.001,-0.809,1.517
2024-09-23 14:54:38.218,173962.685,-0.0,0.724,-0.69,0.006,-0.006,-0.007,-0.056,-0.005,0.029,-0.001,-0.81,1.518
2024-09-23 14:54:38.229,173962.695,-0.0,0.724,-0.689,-0.005,0.018,0.015,-0.039,-0.014,0.038,-0.0,-0.81,1.518
2024-09-23 14:54:38.239,173962.705,0.0,0.725,-0.689,-0.011,0.013,0.021,0.015,-0.05,0.102,0.0,-0.81,1.519
2024-09-23 14:54:38.249,173962.715,0.001,0.724,-0.69,-0.009,-0.008,0.013,0.081,-0.047,0.122,0.001,-0.81,1.521
2024-09-23 14:54:38.259,173962.725,0.001,0.724,-0.69,-0.002,0.002,0.018,0.134,-0.01,0.151,0.002,-0.809,1.523
2024-09-23 14:54:38.270,173962.735,0.003,0.723,-0.691,-0.018,0.01,0.015,0.057,0.044,0.166,0.004,-0.808,1.525
2024-09-23 14:54:38.279,173962.745,0.004,0.723,-0.691,-0.027,0.018,-0.008,0.022,0.132,0.175,0.006,-0.807,1.528
2024-09-23 14:54:38.289,173962.755,0.007,0.722,-0.691,-0.046,0.018,-0.023,-0.031,0.194,0.154,0.01,-0.807,1.53
2024-09-23 14:54:38.300,173962.765,0.009,0.723,-0.691,-0.043,-0.053,-0.007,-0.072,0.248,0.085,0.013,-0.808,1.532
2024-09-23 14:54:38.310,173962.775,0.008,0.723,-0.691,-0.019,-0.054,-0.019,0.008,-0.003,-0.336,0.012,-0.808,1.529
2024-09-23 14:54:38.319,173962.785,0.009,0.724,-0.69,-0.075,-0.041,-0.025,-0.184,0.444,0.082,0.014,-0.809,1.528
2024-09-23 14:54:38.329,173962.795,0.012,0.725,-0.689,-0.226,-0.035,-0.003,-0.092,0.206,-0.031,0.017,-0.811,1.528
2024-09-23 14:54:38.339,173962.805,0.013,0.725,-0.689,-0.046,0.001,0.016,0.084,0.274,-0.094,0.018,-0.811,1.527
2024-09-23 14:54:38.349,173962.815,0.014,0.724,-0.69,0.115,0.022,0.023,0.104,0.224,0.055,0.021,-0.81,1.527
2024-09-23 14:54:38.359,173962.825,0.016,0.723,-0.691,-0.02,0.03,0.027,0.175,0.116,0.046,0.023,-0.808,1.527
2024-09-23 14:54:38.369,173962.835,0.016,0.722,-0.692,0.036,0.083,0.025,0.242,0.065,-0.009,0.024,-0.806,1.527
2024-09-23 14:54:38.379,173962.845,0.017,0.72,-0.694,0.097,0.096,0.014,0.249,0.025,0.023,0.024,-0.804,1.527
2024-09-23 14:54:38.389,173962.855,0.017,0.718,-0.696,0.081,0.021,0.021,0.208,-0.038,-0.026,0.024,-0.801,1.527
2024-09-23 14:54:38.399,173962.865,0.016,0.717,-0.697,0.096,-0.005,0.026,0.092,-0.063,-0.089,0.023,-0.8,1.526
2024-09-23 14:54:38.409,173962.875,0.015,0.717,-0.697,0.084,-0.013,0.014,-0.072,-0.061,-0.119,0.021,-0.8,1.525
2024-09-23 14:54:38.419,173962.885,0.013,0.718,-0.696,0.038,-0.064,-0.006,-0.186,-0.074,-0.117,0.019,-0.801,1.523
2024-09-23 14:54:38.429,173962.895,0.012,0.719,-0.694,0.005,-0.092,-0.016,-0.193,-0.07,-0.123,0.017,-0.803,1.521
2024-09-23 14:54:38.439,173962.905,0.011,0.721,-0.693,0.005,-0.059,0.002,-0.187,-0.045,-0.123,0.015,-0.805,1.52
2024-09-23 14:54:38.450,173962.915,0.01,0.722,-0.692,0.001,-0.018,0.007,-0.145,-0.024,-0.066,0.014,-0.807,1.518
2024-09-23 14:54:38.459,173962.925,0.009,0.723,-0.691,-0.017,0.014,-0.004,-0.043,-0.014,-0.058,0.013,-0.808,1.518
2024-09-23 14:54:38.469,173962.935,0.009,0.723,-0.691,-0.02,0.05,0.012,0.042,-0.026,-0.045,0.013,-0.808,1.517
2024-09-23 14:54:38.479,173962.945,0.008,0.722,-0.692,-0.01,0.049,0.023,0.088,-0.023,-0.04,0.012,-0.807,1.516
2024-09-23 14:54:38.489,173962.955,0.008,0.722,-0.692,0.003,0.021,0.024,0.096,-0.011,-0.038,0.012,-0.806,1.516
2024-09-23 14:54:38.499,173962.965,0.008,0.721,-0.693,-0.004,-0.002,0.017,0.072,0.003,-0.049,0.011,-0.805,1.515
2024-09-23 14:54:38.509,173962.975,0.008,0.721,-0.693,-0.009,-0.019,0.004,0.021,0.013,-0.062,0.011,-0.805,1.514
2024-09-23 14:54:38.518,173962.985,0.007,0.721,-0.693,-0.004,-0.03,0.002,-0.0,0.018,-0.053,0.01,-0.805,1.514
2024-09-23 14:54:38.529,173962.995,0.007,0.72,-0.693,-0.005,-0.022,-0.006,0.024,0.012,-0.061,0.01,-0.804,1.513
2024-09-23 14:54:38.538,173963.005,0.007,0.72,-0.694,-0.002,0.001,0.002,0.046,-0.01,-0.049,0.009,-0.804,1.512
2024-09-23 14:54:38.548,173963.015,0.006,0.72,-0.694,0.006,0.021,0.007,0.093,-0.024,-0.027,0.009,-0.804,1.511
2024-09-23 14:54:38.559,173963.025,0.006,0.719,-0.695,0.008,0.022,0.003,0.144,-0.046,-0.021,0.008,-0.802,1.511
2024-09-23 14:54:38.569,173963.035,0.005,0.718,-0.696,0.006,0.033,0.016,0.17,-0.061,-0.021,0.007,-0.801,1.511
2024-09-23 14:54:38.578,173963.045,0.005,0.717,-0.697,0.005,0.027,0.022,0.149,-0.077,-0.006,0.007,-0.799,1.51
2024-09-23 14:54:38.588,173963.055,0.004,0.716,-0.698,0.005,0.002,0.014,0.122,-0.082,0.005,0.006,-0.798,1.51
2024-09-23 14:54:38.598,173963.065,0.003,0.715,-0.699,0.0,-0.003,0.004,0.075,-0.083,0.007,0.005,-0.797,1.51
2024-09-23 14:54:38.608,173963.075,0.003,0.715,-0.699,-0.003,0.003,0.002,-0.021,-0.06,0.017,0.004,-0.796,1.511
2024-09-23 14:54:38.619,173963.085,0.003,0.715,-0.699,-0.005,-0.022,-0.008,-0.019,-0.025,0.041,0.004,-0.797,1.511
2024-09-23 14:54:38.629,173963.095,0.003,0.715,-0.699,-0.011,-0.019,-0.023,-0.012,-0.022,0.048,0.005,-0.797,1.512
2024-09-23 14:54:38.639,173963.105,0.004,0.715,-0.699,-0.013,-0.017,0.013,0.035,-0.006,0.039,0.005,-0.797,1.513
2024-09-23 14:54:38.649,173963.115,0.004,0.715,-0.699,-0.003,0.002,0.008,0.072,-0.021,0.06,0.006,-0.797,1.513
2024-09-23 14:54:38.658,173963.124,0.004,0.714,-0.7,0.001,0.014,0.012,0.23,-0.012,0.041,0.006,-0.796,1.514
2024-09-23 14:54:38.669,173963.134,0.004,0.713,-0.701,0.01,0.033,0.028,0.227,-0.026,-0.007,0.006,-0.794,1.514
2024-09-23 14:54:38.678,173963.144,0.004,0.711,-0.703,0.015,0.03,0.026,0.257,-0.062,0.051,0.006,-0.791,1.515
2024-09-23 14:54:38.688,173963.154,0.004,0.709,-0.705,0.013,0.0,0.004,0.356,-0.053,-0.014,0.006,-0.788,1.515
2024-09-23 14:54:38.699,173963.164,0.003,0.706,-0.708,0.016,0.023,0.019,0.366,-0.109,0.012,0.005,-0.784,1.515
2024-09-23 14:54:38.709,173963.174,0.003,0.703,-0.711,-0.001,0.038,0.025,0.448,-0.106,0.012,0.004,-0.78,1.515
2024-09-23 14:54:38.718,173963.184,0.002,0.701,-0.714,0.016,0.016,0.017,0.358,-0.134,-0.0,0.002,-0.776,1.515
2024-09-23 14:54:38.728,173963.194,0.001,0.698,-0.716,0.004,0.026,0.012,0.279,-0.118,0.003,0.001,-0.773,1.515
2024-09-23 14:54:38.739,173963.204,0.0,0.697,-0.717,-0.011,-0.018,-0.002,0.149,-0.098,-0.025,0.0,-0.771,1.515
2024-09-23 14:54:38.749,173963.214,-0.001,0.697,-0.717,-0.007,-0.061,-0.002,0.03,-0.077,-0.006,-0.001,-0.771,1.515
2024-09-23 14:54:38.758,173963.224,-0.001,0.697,-0.717,-0.016,-0.061,-0.02,-0.055,-0.075,-0.007,-0.002,-0.771,1.515
2024-09-23 14:54:38.769,173963.234,-0.002,0.697,-0.717,-0.014,-0.053,-0.012,-0.043,-0.085,0.002,-0.002,-0.772,1.515
2024-09-23 14:54:38.778,173963.244,-0.002,0.698,-0.716,-0.003,-0.019,-0.002,0.014,-0.099,0.0,-0.003,-0.772,1.515
2024-09-23 14:54:38.787,173963.254,-0.003,0.698,-0.717,0.008,0.016,0.013,0.042,-0.1,0.009,-0.004,-0.772,1.515
2024-09-23 14:54:38.797,173963.264,-0.003,0.697,-0.717,0.001,0.03,0.011,0.033,-0.079,0.01,-0.005,-0.772,1.515
2024-09-23 14:54:38.808,173963.274,-0.004,0.697,-0.717,-0.005,0.001,0.004,-0.052,-0.061,-0.002,-0.006,-0.772,1.515
2024-09-23 14:54:38.818,173963.284,-0.004,0.698,-0.716,-0.008,-0.025,-0.005,-0.129,-0.03,-0.007,-0.006,-0.773,1.515
2024-09-23 14:54:38.827,173963.294,-0.005,0.699,-0.715,-0.011,-0.051,-0.011,-0.209,-0.038,0.001,-0.007,-0.774,1.515
2024-09-23 14:54:38.837,173963.304,-0.005,0.7,-0.714,-0.011,-0.046,-0.009,-0.196,-0.03,0.001,-0.007,-0.776,1.515
2024-09-23 14:54:38.847,173963.314,-0.005,0.702,-0.712,-0.005,-0.018,-0.01,-0.202,-0.031,0.007,-0.007,-0.778,1.515
2024-09-23 14:54:38.857,173963.324,-0.005,0.703,-0.711,-0.005,0.015,-0.002,-0.267,-0.048,0.044,-0.008,-0.78,1.515
2024-09-23 14:54:38.868,173963.334,-0.005,0.706,-0.709,-0.007,-0.01,-0.005,-0.352,0.009,0.02,-0.007,-0.783,1.516
2024-09-23 14:54:38.878,173963.344,-0.005,0.708,-0.706,-0.014,-0.033,-0.017,-0.443,0.021,0.07,-0.007,-0.787,1.516
2024-09-23 14:54:38.888,173963.354,-0.004,0.712,-0.703,-0.025,-0.078,-0.025,-0.481,0.061,0.027,-0.006,-0.792,1.517
2024-09-23 14:54:38.898,173963.364,-0.003,0.715,-0.699,-0.005,-0.068,-0.019,-0.433,0.091,0.043,-0.005,-0.796,1.517
2024-09-23 14:54:38.908,173963.374,-0.003,0.718,-0.696,-0.014,-0.008,-0.0,-0.375,0.093,0.032,-0.004,-0.8,1.518
2024-09-23 14:54:38.918,173963.384,-0.002,0.72,-0.694,-0.006,-0.0,0.005,-0.277,0.07,0.035,-0.003,-0.803,1.518
2024-09-23 14:54:38.928,173963.394,-0.001,0.721,-0.693,0.007,0.03,0.005,-0.179,0.049,0.019,-0.002,-0.805,1.518
2024-09-23 14:54:38.939,173963.404,-0.001,0.722,-0.692,0.011,0.053,0.021,-0.144,0.03,0.021,-0.001,-0.807,1.519
2024-09-23 14:54:38.948,173963.414,-0.001,0.723,-0.691,0.012,0.028,0.016,-0.151,0.042,0.005,-0.001,-0.808,1.519
2024-09-23 14:54:38.958,173963.424,-0.0,0.724,-0.69,0.003,0.014,0.002,-0.183,0.051,0.004,-0.001,-0.81,1.519
2024-09-23 14:54:38.968,173963.434,-0.0,0.726,-0.688,-0.011,-0.019,-0.003,-0.195,0.05,-0.01,-0.0,-0.812,1.519
2024-09-23 14:54:38.978,173963.444,0.0,0.727,-0.687,-0.004,-0.029,-0.002,-0.152,0.04,-0.03,0.0,-0.814,1.519
2024-09-23 14:54:38.987,173963.454,0.0,0.728,-0.686,0.006,0.003,0.001,-0.075,0.024,-0.053,0.0,-0.815,1.518
2024-09-23 14:54:38.998,173963.464,-0.0,0.728,-0.686,0.01,0.008,0.018,0.013,-0.007,-0.067,-0.0,-0.815,1.517
2024-09-23 14:54:39.008,173963.474,-0.001,0.727,-0.686,0.017,0.021,0.024,0.063,-0.014,-0.066,-0.001,-0.815,1.516
2024-09-23 14:54:39.018,173963.484,-0.001,0.727,-0.687,0.011,0.044,0.02,0.081,-0.019,-0.048,-0.002,-0.814,1.515
2024-09-23 14:54:39.028,173963.494,-0.002,0.727,-0.687,-0.002,0.022,0.008,0.078,-0.007,-0.046,-0.003,-0.813,1.515
2024-09-23 14:54:39.038,173963.504,-0.002,0.726,-0.688,-0.003,0.011,0.003,0.05,-0.011,-0.031,-0.003,-0.813,1.514
2024-09-23 14:54:39.048,173963.514,-0.002,0.726,-0.688,-0.004,0.004,0.0,0.037,-0.016,-0.017,-0.003,-0.812,1.514
2024-09-23 14:54:39.058,173963.524,-0.003,0.725,-0.688,-0.004,-0.005,-0.002,0.067,-0.033,-0.015,-0.004,-0.811,1.513
2024-09-23 14:54:39.068,173963.534,-0.003,0.725,-0.689,-0.0,0.002,0.008,0.084,-0.047,-0.015,-0.004,-0.811,1.513
2024-09-23 14:54:39.078,173963.544,-0.003,0.724,-0.689,0.007,0.01,0.015,0.077,-0.048,0.0,-0.005,-0.81,1.513
2024-09-23 14:54:39.088,173963.554,-0.003,0.724,-0.69,0.003,-0.001,0.006,0.042,-0.045,0.009,-0.005,-0.81,1.514
2024-09-23 14:54:39.097,173963.564,-0.003,0.724,-0.69,-0.003,-0.004,-0.0,0.008,-0.034,0.043,-0.005,-0.81,1.514
2024-09-23 14:54:39.108,173963.574,-0.004,0.725,-0.689,-0.006,-0.012,-0.005,-0.131,-0.022,0.041,-0.005,-0.811,1.514
2024-09-23 14:54:39.117,173963.584,-0.003,0.726,-0.688,-0.007,-0.006,-0.021,-0.181,0.01,0.078,-0.004,-0.812,1.515
2024-09-23 14:54:39.127,173963.594,-0.002,0.727,-0.686,-0.026,-0.036,-0.014,-0.23,0.035,0.062,-0.004,-0.815,1.516
2024-09-23 14:54:39.138,173963.604,-0.002,0.729,-0.685,-0.012,-0.038,-0.012,-0.224,0.042,0.077,-0.003,-0.817,1.517
2024-09-23 14:54:39.148,173963.614,-0.001,0.731,-0.683,-0.008,-0.007,-0.014,-0.254,0.046,0.072,-0.002,-0.819,1.518
2024-09-23 14:54:39.158,173963.624,-0.0,0.732,-0.681,-0.012,-0.022,0.0,-0.166,0.049,0.097,-0.0,-0.821,1.52
2024-09-23 14:54:39.168,173963.634,0.001,0.733,-0.68,-0.007,-0.015,0.001,-0.114,0.056,0.055,0.001,-0.823,1.521
2024-09-23 14:54:39.178,173963.644,0.001,0.734,-0.68,-0.002,0.029,0.022,-0.088,0.01,0.1,0.002,-0.824,1.522
2024-09-23 14:54:39.188,173963.654,0.002,0.734,-0.68,-0.004,0.013,0.012,0.027,-0.001,0.065,0.003,-0.824,1.523
2024-09-23 14:54:39.198,173963.664,0.002,0.733,-0.68,0.01,0.006,0.017,0.037,-0.033,0.026,0.003,-0.823,1.523
2024-09-23 14:54:39.208,173963.674,0.002,0.733,-0.68,0.01,0.026,0.024,-0.03,-0.013,-0.019,0.003,-0.823,1.523
2024-09-23 14:54:39.218,173963.684,0.002,0.733,-0.68,0.016,-0.013,-0.0,-0.117,-0.01,-0.021,0.002,-0.823,1.523
2024-09-23 14:54:39.228,173963.694,0.001,0.734,-0.679,-0.001,-0.079,-0.016,-0.119,-0.009,-0.034,0.002,-0.824,1.522
2024-09-23 14:54:39.238,173963.704,0.001,0.735,-0.678,-0.002,-0.043,-0.005,-0.089,-0.026,-0.026,0.001,-0.825,1.522
2024-09-23 14:54:39.248,173963.714,0.0,0.735,-0.678,-0.006,0.009,0.01,0.007,-0.06,-0.003,0.001,-0.826,1.522
2024-09-23 14:54:39.258,173963.723,-0.0,0.735,-0.678,0.0,0.008,0.016,0.105,-0.075,-0.023,-0.0,-0.825,1.521
2024-09-23 14:54:39.268,173963.733,-0.001,0.734,-0.679,0.011,0.048,0.03,0.134,-0.083,-0.018,-0.001,-0.824,1.521
2024-09-23 14:54:39.277,173963.743,-0.002,0.733,-0.68,0.003,0.03,0.019,0.18,-0.092,-0.03,-0.002,-0.823,1.521
2024-09-23 14:54:39.288,173963.753,-0.002,0.732,-0.682,0.007,0.005,0.01,0.195,-0.089,-0.057,-0.004,-0.821,1.52
2024-09-23 14:54:39.298,173963.763,-0.003,0.73,-0.683,0.009,0.007,0.015,0.25,-0.078,-0.079,-0.005,-0.818,1.519
2024-09-23 14:54:39.308,173963.773,-0.005,0.728,-0.685,0.005,0.011,0.018,0.174,-0.099,-0.07,-0.007,-0.816,1.518
2024-09-23 14:54:39.317,173963.783,-0.005,0.727,-0.686,0.007,0.001,0.009,0.161,-0.084,-0.023,-0.008,-0.814,1.518
2024-09-23 14:54:39.328,173963.793,-0.006,0.726,-0.688,-0.004,0.014,-0.019,0.168,-0.063,-0.025,-0.009,-0.813,1.517
2024-09-23 14:54:39.337,173963.803,-0.007,0.725,-0.689,-0.014,0.02,-0.002,0.162,-0.065,-0.012,-0.01,-0.811,1.517
2024-09-23 14:54:39.347,173963.813,-0.007,0.724,-0.689,-0.006,0.005,0.009,0.126,-0.063,-0.001,-0.01,-0.81,1.517
2024-09-23 14:54:39.357,173963.823,-0.007,0.724,-0.69,0.002,-0.003,0.001,0.085,-0.049,0.016,-0.011,-0.809,1.517
2024-09-23 14:54:39.368,173963.833,-0.007,0.723,-0.691,-0.009,0.008,-0.004,0.051,-0.04,0.04,-0.011,-0.809,1.518
2024-09-23 14:54:39.378,173963.843,-0.007,0.723,-0.691,-0.013,-0.019,-0.004,0.04,-0.03,0.042,-0.011,-0.808,1.518
2024-09-23 14:54:39.388,173963.853,-0.007,0.723,-0.691,-0.008,-0.012,0.0,0.014,-0.034,0.051,-0.01,-0.808,1.519
2024-09-23 14:54:39.398,173963.863,-0.007,0.723,-0.691,-0.007,0.003,0.001,-0.02,-0.063,0.066,-0.01,-0.808,1.52
2024-09-23 14:54:39.407,173963.873,-0.007,0.723,-0.691,-0.001,-0.017,-0.007,-0.065,-0.065,0.057,-0.01,-0.809,1.521
2024-09-23 14:54:39.417,173963.883,-0.007,0.724,-0.69,0.004,-0.019,-0.003,-0.162,-0.027,0.054,-0.01,-0.81,1.522
2024-09-23 14:54:39.427,173963.893,-0.007,0.726,-0.688,-0.009,-0.039,-0.011,-0.287,-0.008,0.081,-0.01,-0.812,1.522
2024-09-23 14:54:39.437,173963.903,-0.006,0.727,-0.686,-0.026,-0.076,-0.021,-0.207,0.002,0.069,-0.009,-0.815,1.524
2024-09-23 14:54:39.447,173963.913,-0.006,0.728,-0.685,-0.018,-0.043,-0.002,-0.136,0.017,0.036,-0.008,-0.816,1.524
2024-09-23 14:54:39.457,173963.923,-0.005,0.729,-0.684,0.002,0.028,0.02,-0.092,0.019,0.073,-0.008,-0.817,1.525
2024-09-23 14:54:39.466,173963.933,-0.005,0.73,-0.684,-0.006,0.016,0.013,0.017,0.014,0.027,-0.007,-0.818,1.526
2024-09-23 14:54:39.476,173963.943,-0.005,0.729,-0.684,0.004,-0.01,0.012,0.059,0.006,0.006,-0.007,-0.817,1.526
2024-09-23 14:54:39.486,173963.953,-0.005,0.729,-0.685,0.011,0.038,0.027,0.103,-0.012,0.022,-0.007,-0.816,1.526
2024-09-23 14:54:39.496,173963.963,-0.005,0.728,-0.686,0.006,0.019,0.012,0.103,-0.002,-0.007,-0.007,-0.815,1.526
2024-09-23 14:54:39.507,173963.973,-0.005,0.727,-0.686,0.002,0.028,0.006,0.086,-0.006,0.005,-0.007,-0.814,1.526
2024-09-23 14:54:39.517,173963.983,-0.005,0.726,-0.687,-0.003,0.015,0.004,0.112,-0.005,-0.015,-0.007,-0.813,1.526
2024-09-23 14:54:39.527,173963.993,-0.005,0.725,-0.688,0.005,-0.015,0.0,0.152,-0.024,-0.044,-0.008,-0.812,1.525
2024-09-23 14:54:39.537,173964.003,-0.006,0.724,-0.689,0.011,0.02,0.009,0.187,-0.02,-0.048,-0.008,-0.81,1.525
2024-09-23 14:54:39.547,173964.013,-0.006,0.723,-0.691,0.011,0.033,0.009,0.292,-0.033,-0.041,-0.009,-0.808,1.524
2024-09-23 14:54:39.557,173964.023,-0.007,0.72,-0.693,0.005,0.001,0.013,0.366,-0.044,-0.055,-0.01,-0.804,1.524
2024-09-23 14:54:39.567,173964.033,-0.008,0.718,-0.696,0.006,0.058,0.031,0.413,-0.052,-0.037,-0.011,-0.801,1.523
2024-09-23 14:54:39.578,173964.043,-0.008,0.715,-0.699,0.0,0.055,0.018,0.409,-0.052,-0.032,-0.012,-0.797,1.523
2024-09-23 14:54:39.587,173964.053,-0.009,0.712,-0.702,-0.002,0.008,0.016,0.344,-0.063,-0.027,-0.012,-0.793,1.522
2024-09-23 14:54:39.597,173964.063,-0.009,0.71,-0.704,-0.001,-0.011,0.006,0.258,-0.063,-0.013,-0.013,-0.79,1.522
2024-09-23 14:54:39.607,173964.073,-0.01,0.709,-0.705,-0.002,-0.024,-0.004,0.198,-0.024,-0.015,-0.014,-0.788,1.522
2024-09-23 14:54:39.617,173964.083,-0.01,0.708,-0.706,-0.013,-0.024,-0.009,0.13,-0.029,0.021,-0.014,-0.786,1.522
2024-09-23 14:54:39.627,173964.093,-0.01,0.707,-0.707,-0.023,-0.061,-0.001,0.141,-0.021,0.036,-0.014,-0.785,1.523
2024-09-23 14:54:39.637,173964.103,-0.01,0.706,-0.708,-0.01,0.001,-0.004,0.163,-0.032,0.048,-0.013,-0.784,1.523
2024-09-23 14:54:39.647,173964.113,-0.009,0.705,-0.709,-0.004,0.023,0.007,0.174,-0.036,0.063,-0.013,-0.782,1.524
2024-09-23 14:54:39.656,173964.123,-0.009,0.704,-0.71,-0.0,0.002,0.01,0.167,-0.041,0.088,-0.013,-0.781,1.525
2024-09-23 14:54:39.667,173964.133,-0.009,0.703,-0.711,-0.0,0.007,0.003,0.102,-0.043,0.097,-0.012,-0.779,1.527
2024-09-23 14:54:39.677,173964.143,-0.008,0.703,-0.711,-0.002,0.003,-0.003,-0.069,-0.027,0.096,-0.012,-0.779,1.528
2024-09-23 14:54:39.687,173964.153,-0.008,0.704,-0.71,-0.008,-0.028,-0.016,-0.203,0.005,0.118,-0.011,-0.781,1.529
2024-09-23 14:54:39.697,173964.163,-0.007,0.706,-0.708,-0.017,-0.081,-0.033,-0.441,0.013,0.127,-0.01,-0.784,1.531
2024-09-23 14:54:39.707,173964.173,-0.006,0.71,-0.704,-0.016,-0.09,-0.043,-0.609,0.091,0.121,-0.008,-0.79,1.533
2024-09-23 14:54:39.717,173964.183,-0.004,0.715,-0.699,-0.022,-0.055,-0.053,-0.716,0.117,0.118,-0.006,-0.797,1.534
2024-09-23 14:54:39.727,173964.193,-0.003,0.72,-0.694,-0.031,-0.081,-0.041,-0.582,0.117,0.111,-0.004,-0.804,1.536
2024-09-23 14:54:39.737,173964.203,-0.001,0.724,-0.69,-0.011,-0.058,-0.007,-0.437,0.105,0.07,-0.002,-0.809,1.537
2024-09-23 14:54:39.747,173964.213,-0.0,0.726,-0.688,0.009,0.024,0.031,-0.222,0.049,0.085,-0.001,-0.813,1.538
2024-09-23 14:54:39.757,173964.223,0.0,0.727,-0.687,0.005,0.041,0.029,-0.113,0.017,0.007,0.0,-0.814,1.539
2024-09-23 14:54:39.767,173964.233,0.001,0.727,-0.686,0.019,0.036,0.056,-0.025,0.063,0.028,0.001,-0.815,1.539
2024-09-23 14:54:39.777,173964.243,0.001,0.727,-0.687,-0.005,-0.002,0.029,0.141,0.121,0.02,0.002,-0.814,1.539
2024-09-23 14:54:39.787,173964.253,0.002,0.726,-0.688,-0.024,-0.009,-0.001,0.251,0.144,-0.003,0.004,-0.812,1.54
2024-09-23 14:54:39.797,173964.263,0.004,0.724,-0.69,-0.028,0.031,0.036,0.192,0.176,0.055,0.005,-0.81,1.54
2024-09-23 14:54:39.807,173964.273,0.006,0.723,-0.691,-0.019,0.023,0.009,0.147,0.29,0.12,0.009,-0.808,1.541
2024-09-23 14:54:39.817,173964.283,0.008,0.722,-0.692,-0.063,0.069,-0.054,0.339,-0.024,-0.116,0.012,-0.806,1.542
2024-09-23 14:54:39.827,173964.293,0.008,0.719,-0.695,-0.101,0.022,-0.018,0.236,0.235,0.129,0.011,-0.803,1.541
2024-09-23 14:54:39.837,173964.303,0.011,0.718,-0.696,-0.123,0.04,-0.033,0.275,0.125,0.144,0.015,-0.801,1.544
2024-09-23 14:54:39.847,173964.313,0.012,0.715,-0.699,-0.124,0.074,0.014,0.531,0.04,0.096,0.017,-0.797,1.545
2024-09-23 14:54:39.857,173964.323,0.013,0.71,-0.704,0.107,0.074,0.078,0.798,-0.0,0.138,0.018,-0.79,1.547
2024-09-23 14:54:39.867,173964.332,0.013,0.705,-0.709,0.081,0.189,0.092,0.676,-0.264,0.003,0.018,-0.782,1.548
2024-09-23 14:54:39.877,173964.342,0.013,0.702,-0.712,-0.017,0.199,0.124,0.182,-0.053,0.368,0.018,-0.778,1.55
2024-09-23 14:54:39.887,173964.352,0.015,0.702,-0.712,-0.078,0.164,0.238,-0.24,-0.071,0.468,0.022,-0.778,1.556
2024-09-23 14:54:39.897,173964.362,0.018,0.704,-0.71,0.015,0.036,0.179,-0.081,-0.163,0.484,0.026,-0.78,1.563
2024-09-23 14:54:39.907,173964.372,0.02,0.703,-0.711,0.143,0.03,0.114,0.087,-0.267,0.446,0.028,-0.78,1.57
2024-09-23 14:54:39.916,173964.382,0.021,0.703,-0.711,0.104,0.102,0.138,-0.037,-0.218,0.294,0.029,-0.78,1.575
2024-09-23 14:54:39.926,173964.392,0.021,0.702,-0.712,0.052,-0.066,0.221,0.342,-0.371,0.373,0.03,-0.778,1.58
2024-09-23 14:54:39.936,173964.402,0.02,0.697,-0.717,0.021,-0.23,0.092,0.892,-0.364,0.163,0.028,-0.771,1.583
2024-09-23 14:54:39.946,173964.412,0.019,0.689,-0.724,0.132,-0.035,-0.147,1.228,-0.162,0.013,0.026,-0.76,1.584
2024-09-23 14:54:39.956,173964.422,0.018,0.681,-0.732,0.006,0.043,-0.238,0.937,0.07,-0.147,0.025,-0.749,1.583
2024-09-23 14:54:39.967,173964.432,0.018,0.677,-0.736,-0.1,-0.143,-0.277,0.063,0.255,-0.23,0.025,-0.744,1.58
2024-09-23 14:54:39.976,173964.442,0.018,0.68,-0.733,-0.087,-0.304,-0.272,-0.634,0.257,-0.204,0.025,-0.747,1.577
2024-09-23 14:54:39.986,173964.452,0.019,0.686,-0.728,-0.057,-0.336,-0.17,-1.005,0.297,-0.298,0.026,-0.756,1.574
2024-09-23 14:54:39.996,173964.462,0.02,0.694,-0.72,-0.012,-0.209,-0.067,-1.016,0.323,-0.216,0.027,-0.766,1.571
2024-09-23 14:54:40.007,173964.472,0.019,0.699,-0.714,0.014,-0.191,0.016,-0.603,0.032,-0.229,0.027,-0.775,1.568
2024-09-23 14:54:40.016,173964.482,0.018,0.702,-0.712,0.1,-0.032,0.056,-0.21,-0.016,-0.164,0.025,-0.779,1.566
2024-09-23 14:54:40.026,173964.492,0.017,0.703,-0.711,0.062,0.262,0.042,0.146,-0.135,-0.027,0.024,-0.779,1.564
2024-09-23 14:54:40.036,173964.502,0.015,0.7,-0.713,-0.013,0.239,0.072,0.421,-0.269,-0.067,0.021,-0.776,1.564
2024-09-23 14:54:40.046,173964.512,0.012,0.697,-0.717,0.048,0.132,0.089,0.459,-0.271,-0.081,0.017,-0.772,1.562
2024-09-23 14:54:40.056,173964.522,0.01,0.694,-0.72,0.031,0.034,0.036,0.323,-0.213,-0.077,0.014,-0.768,1.561
2024-09-23 14:54:40.066,173964.532,0.008,0.693,-0.721,-0.037,-0.017,-0.02,0.107,-0.145,-0.099,0.011,-0.765,1.56
2024-09-23 14:54:40.076,173964.542,0.007,0.693,-0.721,-0.05,-0.041,-0.054,-0.079,-0.086,-0.105,0.009,-0.765,1.559
2024-09-23 14:54:40.086,173964.552,0.006,0.694,-0.72,-0.034,-0.091,-0.051,-0.159,-0.06,-0.092,0.008,-0.767,1.557
2024-09-23 14:54:40.096,173964.562,0.005,0.695,-0.719,-0.027,-0.099,-0.028,-0.097,-0.057,-0.079,0.006,-0.768,1.556
2024-09-23 14:54:40.106,173964.572,0.004,0.695,-0.719,-0.014,-0.032,0.01,0.022,-0.054,-0.068,0.005,-0.768,1.555
2024-09-23 14:54:40.116,173964.582,0.003,0.694,-0.72,-0.002,0.033,0.027,0.158,-0.038,-0.04,0.004,-0.768,1.554
2024-09-23 14:54:40.126,173964.592,0.002,0.693,-0.721,-0.008,0.048,0.024,0.268,-0.033,-0.018,0.003,-0.765,1.554
2024-09-23 14:54:40.136,173964.602,0.002,0.691,-0.723,-0.01,0.051,0.025,0.325,-0.034,-0.006,0.003,-0.762,1.554
2024-09-23 14:54:40.146,173964.612,0.002,0.688,-0.725,-0.003,0.049,0.018,0.323,-0.016,0.015,0.003,-0.759,1.554
2024-09-23 14:54:40.156,173964.622,0.002,0.686,-0.728,-0.002,0.026,0.006,0.286,0.0,-0.001,0.003,-0.756,1.554
2024-09-23 14:54:40.166,173964.632,0.002,0.684,-0.729,-0.008,0.007,0.001,0.187,0.02,-0.017,0.003,-0.754,1.554
2024-09-23 14:54:40.176,173964.642,0.002,0.683,-0.73,-0.01,-0.027,0.004,0.07,0.035,-0.026,0.003,-0.752,1.553
2024-09-23 14:54:40.186,173964.652,0.002,0.683,-0.73,-0.007,-0.078,-0.006,-0.001,0.043,-0.037,0.003,-0.752,1.553
2024-09-23 14:54:40.196,173964.662,0.002,0.683,-0.73,-0.007,-0.07,-0.008,-0.021,0.03,-0.045,0.003,-0.752,1.552
2024-09-23 14:54:40.206,173964.672,0.002,0.683,-0.73,-0.003,-0.029,-0.004,0.009,0.018,-0.035,0.003,-0.752,1.552
2024-09-23 14:54:40.216,173964.682,0.002,0.683,-0.73,0.003,0.003,-0.001,0.068,-0.004,-0.01,0.002,-0.752,1.552
2024-09-23 14:54:40.226,173964.692,0.002,0.682,-0.731,-0.001,0.03,0.002,0.154,-0.029,0.014,0.002,-0.751,1.552
2024-09-23 14:54:40.236,173964.702,0.002,0.681,-0.732,-0.001,0.055,0.009,0.221,-0.036,0.013,0.002,-0.749,1.552
2024-09-23 14:54:40.246,173964.712,0.001,0.679,-0.734,0.003,0.058,0.015,0.237,-0.037,0.036,0.002,-0.747,1.552
2024-09-23 14:54:40.256,173964.722,0.001,0.678,-0.735,0.001,0.013,0.017,0.169,-0.027,0.016,0.002,-0.745,1.552
2024-09-23 14:54:40.266,173964.732,0.001,0.677,-0.736,0.001,-0.015,0.002,0.109,-0.02,0.037,0.002,-0.743,1.553
2024-09-23 14:54:40.276,173964.742,0.001,0.676,-0.737,-0.016,-0.039,0.001,0.101,-0.029,0.006,0.002,-0.742,1.553
2024-09-23 14:54:40.286,173964.752,0.001,0.675,-0.738,-0.0,-0.046,0.01,0.072,-0.024,-0.033,0.001,-0.741,1.553
2024-09-23 14:54:40.296,173964.762,0.001,0.675,-0.738,0.006,0.001,0.003,0.031,-0.025,-0.017,0.001,-0.741,1.553
2024-09-23 14:54:40.306,173964.772,0.0,0.675,-0.738,-0.001,-0.028,-0.008,-0.005,-0.022,-0.038,0.0,-0.741,1.552
2024-09-23 14:54:40.316,173964.782,-0.0,0.675,-0.738,-0.002,-0.024,-0.016,-0.036,-0.032,-0.027,-0.0,-0.741,1.552
2024-09-23 14:54:40.326,173964.792,-0.001,0.676,-0.737,-0.006,-0.002,-0.013,-0.054,-0.04,-0.031,-0.001,-0.742,1.551
2024-09-23 14:54:40.336,173964.802,-0.001,0.676,-0.737,-0.001,-0.01,-0.001,-0.054,-0.057,-0.022,-0.002,-0.742,1.551
2024-09-23 14:54:40.347,173964.812,-0.002,0.676,-0.737,0.001,-0.016,0.004,-0.04,-0.062,-0.026,-0.002,-0.743,1.551
2024-09-23 14:54:40.356,173964.822,-0.002,0.677,-0.736,0.005,-0.008,0.008,-0.058,-0.044,-0.03,-0.003,-0.743,1.55
2024-09-23 14:54:40.366,173964.832,-0.003,0.677,-0.736,-0.003,-0.014,0.005,-0.118,-0.003,-0.018,-0.004,-0.744,1.55
2024-09-23 14:54:40.376,173964.842,-0.003,0.678,-0.735,-0.019,-0.043,-0.008,-0.199,0.06,-0.023,-0.004,-0.746,1.55
2024-09-23 14:54:40.386,173964.852,-0.002,0.68,-0.733,-0.03,-0.046,-0.016,-0.335,0.109,-0.032,-0.003,-0.748,1.549
2024-09-23 14:54:40.396,173964.862,-0.001,0.683,-0.73,-0.036,-0.057,-0.025,-0.413,0.118,-0.007,-0.002,-0.752,1.549
2024-09-23 14:54:40.405,173964.872,-0.001,0.686,-0.728,-0.024,-0.075,-0.017,-0.362,0.105,-0.035,-0.001,-0.756,1.549
2024-09-23 14:54:40.416,173964.882,-0.0,0.688,-0.726,-0.002,-0.002,0.003,-0.3,0.101,-0.064,-0.001,-0.759,1.548
2024-09-23 14:54:40.426,173964.892,-0.0,0.69,-0.724,0.001,0.052,0.012,-0.245,0.089,-0.043,-0.0,-0.761,1.547
2024-09-23 14:54:40.435,173964.902,0.0,0.691,-0.723,-0.001,-0.017,0.014,-0.163,0.065,-0.027,0.0,-0.763,1.547
2024-09-23 14:54:40.446,173964.912,0.0,0.692,-0.722,0.004,0.004,0.003,-0.019,0.027,-0.022,0.001,-0.764,1.546
2024-09-23 14:54:40.455,173964.922,0.0,0.692,-0.722,0.008,0.078,0.009,0.1,-0.03,-0.02,0.0,-0.764,1.546
2024-09-23 14:54:40.466,173964.931,-0.0,0.691,-0.723,0.019,0.083,0.03,0.143,-0.058,-0.026,-0.001,-0.762,1.546
2024-09-23 14:54:40.476,173964.941,-0.001,0.689,-0.724,0.02,0.058,0.021,0.138,-0.065,-0.017,-0.001,-0.761,1.545
2024-09-23 14:54:40.486,173964.951,-0.002,0.689,-0.725,0.007,0.017,0.01,0.102,-0.067,-0.02,-0.002,-0.759,1.545
2024-09-23 14:54:40.496,173964.961,-0.002,0.688,-0.726,-0.003,-0.009,0.002,0.053,-0.061,-0.023,-0.003,-0.759,1.545
2024-09-23 14:54:40.505,173964.971,-0.003,0.688,-0.726,-0.001,-0.019,-0.003,-0.021,-0.034,-0.029,-0.004,-0.759,1.544
2024-09-23 14:54:40.516,173964.981,-0.003,0.688,-0.726,-0.003,-0.032,-0.005,-0.058,-0.025,0.001,-0.004,-0.759,1.544
2024-09-23 14:54:40.525,173964.991,-0.003,0.689,-0.725,-0.014,-0.055,-0.013,-0.109,0.0,-0.002,-0.004,-0.76,1.544
2024-09-23 14:54:40.536,173965.001,-0.003,0.69,-0.724,-0.012,-0.023,-0.005,-0.107,0.023,0.036,-0.004,-0.761,1.544
2024-09-23 14:54:40.546,173965.011,-0.002,0.69,-0.723,-0.024,0.019,-0.012,-0.097,0.039,0.036,-0.003,-0.762,1.545
2024-09-23 14:54:40.555,173965.021,-0.002,0.691,-0.723,-0.021,-0.03,0.011,-0.106,0.033,0.06,-0.002,-0.763,1.546
2024-09-23 14:54:40.566,173965.031,-0.001,0.692,-0.722,-0.01,0.004,-0.001,-0.059,0.028,0.1,-0.001,-0.764,1.547
2024-09-23 14:54:40.575,173965.041,-0.0,0.692,-0.722,-0.008,0.021,-0.0,-0.018,0.042,0.093,-0.0,-0.764,1.548
2024-09-23 14:54:40.585,173965.051,0.001,0.692,-0.722,-0.012,0.037,0.015,-0.024,0.051,0.127,0.001,-0.765,1.55
2024-09-23 14:54:40.595,173965.061,0.002,0.693,-0.721,-0.013,0.012,0.007,-0.043,0.089,0.136,0.003,-0.765,1.551
2024-09-23 14:54:40.606,173965.071,0.004,0.693,-0.721,-0.013,-0.01,-0.004,-0.038,0.095,0.136,0.005,-0.766,1.553
2024-09-23 14:54:40.615,173965.081,0.005,0.693,-0.721,-0.02,-0.009,0.001,0.06,0.067,0.135,0.007,-0.766,1.555
2024-09-23 14:54:40.625,173965.091,0.006,0.692,-0.722,-0.004,-0.005,0.013,0.142,0.005,0.122,0.009,-0.765,1.557
2024-09-23 14:54:40.635,173965.101,0.007,0.691,-0.723,0.015,0.019,0.026,0.139,-0.015,0.069,0.01,-0.763,1.558
2024-09-23 14:54:40.645,173965.111,0.007,0.69,-0.724,0.016,0.04,0.029,0.117,-0.022,0.08,0.01,-0.762,1.559
2024-09-23 14:54:40.655,173965.121,0.007,0.69,-0.724,0.004,-0.017,0.003,0.016,-0.041,-0.004,0.01,-0.761,1.559
2024-09-23 14:54:40.665,173965.131,0.007,0.69,-0.723,0.012,-0.078,-0.002,-0.12,-0.058,-0.033,0.009,-0.762,1.559
2024-09-23 14:54:40.675,173965.141,0.006,0.692,-0.722,0.016,-0.067,-0.024,-0.19,-0.087,-0.041,0.008,-0.764,1.558
2024-09-23 14:54:40.685,173965.151,0.005,0.693,-0.721,0.017,-0.072,-0.018,-0.137,-0.105,-0.04,0.007,-0.765,1.558
2024-09-23 14:54:40.695,173965.161,0.004,0.693,-0.72,0.015,-0.023,-0.003,-0.042,-0.085,-0.06,0.005,-0.766,1.557
2024-09-23 14:54:40.705,173965.171,0.003,0.694,-0.72,0.005,0.033,0.015,-0.075,-0.043,-0.069,0.004,-0.767,1.556
2024-09-23 14:54:40.715,173965.181,0.002,0.695,-0.719,-0.017,0.016,0.014,-0.157,-0.003,-0.058,0.003,-0.768,1.555
2024-09-23 14:54:40.725,173965.191,0.002,0.696,-0.718,-0.027,-0.059,-0.009,-0.206,0.021,-0.051,0.002,-0.77,1.555
2024-09-23 14:54:40.736,173965.201,0.002,0.698,-0.717,-0.021,-0.045,-0.013,-0.195,0.022,-0.057,0.002,-0.772,1.554
2024-09-23 14:54:40.745,173965.211,0.001,0.699,-0.715,-0.014,0.009,0.004,-0.197,0.025,-0.044,0.002,-0.774,1.553
2024-09-23 14:54:40.755,173965.221,0.001,0.7,-0.714,-0.006,0.017,-0.0,-0.146,0.025,-0.017,0.002,-0.775,1.553
2024-09-23 14:54:40.765,173965.231,0.001,0.701,-0.714,-0.004,-0.008,-0.005,-0.047,0.004,-0.027,0.002,-0.776,1.553
2024-09-23 14:54:40.775,173965.241,0.001,0.701,-0.714,0.003,0.041,0.012,0.052,-0.019,-0.022,0.002,-0.776,1.552
2024-09-23 14:54:40.785,173965.251,0.001,0.7,-0.714,0.009,0.075,0.023,0.144,-0.036,-0.019,0.001,-0.775,1.552
2024-09-23 14:54:40.795,173965.261,0.0,0.699,-0.715,0.01,0.044,0.025,0.174,-0.04,-0.022,0.001,-0.774,1.552
2024-09-23 14:54:40.805,173965.271,0.0,0.697,-0.717,0.005,0.032,0.023,0.165,-0.04,0.001,0.0,-0.772,1.551
2024-09-23 14:54:40.815,173965.281,-0.0,0.697,-0.717,0.001,0.014,0.01,0.024,-0.006,-0.007,-0.0,-0.771,1.551
2024-09-23 14:54:40.825,173965.291,-0.0,0.697,-0.717,-0.006,-0.002,-0.015,-0.039,0.029,0.017,-0.0,-0.771,1.551
2024-09-23 14:54:40.835,173965.301,0.0,0.697,-0.717,-0.03,-0.056,-0.019,-0.075,0.029,0.012,0.0,-0.772,1.552
2024-09-23 14:54:40.845,173965.311,0.0,0.698,-0.716,-0.012,-0.072,-0.005,-0.079,0.029,0.003,0.001,-0.772,1.552
2024-09-23 14:54:40.855,173965.321,0.001,0.698,-0.716,0.0,0.005,-0.008,-0.032,0.007,0.027,0.001,-0.773,1.552
2024-09-23 14:54:40.865,173965.331,0.001,0.699,-0.715,-0.005,0.003,0.001,-0.015,0.008,0.018,0.001,-0.773,1.552
2024-09-23 14:54:40.875,173965.341,0.001,0.699,-0.715,-0.003,0.009,0.013,0.011,-0.014,0.068,0.002,-0.774,1.553
2024-09-23 14:54:40.885,173965.351,0.002,0.699,-0.715,-0.01,0.013,0.004,0.018,-0.013,0.076,0.002,-0.774,1.554
2024-09-23 14:54:40.895,173965.361,0.002,0.698,-0.716,-0.01,-0.008,0.002,0.05,-0.011,0.118,0.003,-0.773,1.555
2024-09-23 14:54:40.905,173965.371,0.003,0.698,-0.716,-0.012,-0.024,0.005,0.083,0.015,0.137,0.004,-0.773,1.557
2024-09-23 14:54:40.915,173965.381,0.004,0.697,-0.717,-0.018,0.007,0.005,0.068,0.053,0.15,0.006,-0.772,1.559
2024-09-23 14:54:40.925,173965.391,0.006,0.697,-0.717,-0.026,0.031,0.005,0.034,0.129,0.149,0.008,-0.771,1.561
2024-09-23 14:54:40.935,173965.401,0.008,0.697,-0.717,-0.033,0.015,-0.015,0.015,0.219,0.126,0.011,-0.771,1.563
2024-09-23 14:54:40.945,173965.411,0.011,0.697,-0.717,-0.045,-0.046,-0.011,-0.207,0.361,0.052,0.015,-0.772,1.564
2024-09-23 14:54:40.955,173965.421,0.014,0.7,-0.714,-0.048,-0.084,-0.028,-0.367,0.404,0.181,0.02,-0.775,1.566
2024-09-23 14:54:40.965,173965.431,0.018,0.702,-0.712,-0.077,-0.123,-0.043,-0.292,0.387,0.086,0.025,-0.778,1.568
2024-09-23 14:54:40.975,173965.441,0.021,0.704,-0.71,-0.031,0.001,0.002,-0.203,0.374,-0.001,0.03,-0.781,1.568
2024-09-23 14:54:40.986,173965.451,0.024,0.705,-0.709,0.003,0.056,0.03,-0.094,0.37,0.036,0.034,-0.782,1.568
2024-09-23 14:54:40.995,173965.461,0.026,0.705,-0.709,0.017,-0.052,0.02,-0.033,0.235,0.081,0.037,-0.783,1.569
2024-09-23 14:54:41.005,173965.471,0.028,0.705,-0.709,0.031,0.038,0.029,0.169,0.151,0.026,0.039,-0.782,1.57
2024-09-23 14:54:41.015,173965.481,0.029,0.703,-0.711,0.041,0.169,0.017,0.346,0.02,0.022,0.04,-0.779,1.57
2024-09-23 14:54:41.025,173965.491,0.029,0.7,-0.714,0.057,0.075,0.052,0.399,-0.039,-0.033,0.04,-0.775,1.57
2024-09-23 14:54:41.034,173965.501,0.028,0.697,-0.716,0.078,0.03,0.053,0.348,-0.082,-0.046,0.039,-0.772,1.569
2024-09-23 14:54:41.045,173965.511,0.027,0.695,-0.718,0.032,0.012,0.007,0.248,-0.11,-0.084,0.037,-0.769,1.568
2024-09-23 14:54:41.055,173965.521,0.025,0.694,-0.719,0.012,-0.007,0.004,0.05,-0.103,-0.118,0.035,-0.767,1.566
2024-09-23 14:54:41.065,173965.53,0.024,0.694,-0.719,0.013,-0.058,-0.007,-0.124,-0.072,-0.097,0.033,-0.768,1.565
2024-09-23 14:54:41.075,173965.54,0.023,0.696,-0.718,-0.01,-0.116,-0.024,-0.198,-0.061,-0.091,0.032,-0.769,1.564
2024-09-23 14:54:41.084,173965.55,0.022,0.697,-0.717,-0.019,-0.095,-0.013,-0.162,-0.057,-0.081,0.03,-0.771,1.563
2024-09-23 14:54:41.094,173965.56,0.021,0.698,-0.716,-0.01,-0.009,-0.002,-0.026,-0.052,-0.065,0.029,-0.772,1.562
2024-09-23 14:54:41.104,173965.57,0.02,0.697,-0.716,-0.008,0.045,0.009,0.108,-0.057,-0.059,0.028,-0.772,1.561
2024-09-23 14:54:41.115,173965.58,0.019,0.696,-0.717,-0.008,0.058,0.028,0.172,-0.048,-0.054,0.027,-0.77,1.56
2024-09-23 14:54:41.125,173965.59,0.019,0.695,-0.719,-0.005,0.052,0.022,0.145,-0.031,-0.042,0.026,-0.769,1.559
2024-09-23 14:54:41.134,173965.6,0.018,0.695,-0.719,-0.012,0.007,0.012,0.056,-0.018,-0.055,0.025,-0.768,1.559
2024-09-23 14:54:41.144,173965.61,0.018,0.694,-0.719,-0.011,-0.03,-0.003,-0.037,-0.003,-0.057,0.025,-0.768,1.558
2024-09-23 14:54:41.154,173965.62,0.017,0.695,-0.719,-0.008,-0.052,-0.016,-0.091,0.002,-0.058,0.024,-0.768,1.557
2024-09-23 14:54:41.164,173965.63,0.017,0.696,-0.718,-0.005,-0.054,-0.012,-0.096,-0.006,-0.049,0.023,-0.769,1.556
2024-09-23 14:54:41.174,173965.64,0.016,0.696,-0.718,-0.003,-0.013,-0.009,-0.029,-0.025,-0.031,0.023,-0.77,1.556
2024-09-23 14:54:41.184,173965.65,0.016,0.696,-0.718,-0.001,0.02,0.002,0.029,-0.041,-0.022,0.022,-0.77,1.555
2024-09-23 14:54:41.194,173965.66,0.016,0.696,-0.718,0.001,0.042,0.011,0.069,-0.052,-0.003,0.022,-0.77,1.555
2024-09-23 14:54:41.204,173965.67,0.015,0.695,-0.719,-0.0,0.036,0.009,0.076,-0.065,0.014,0.021,-0.769,1.555
2024-09-23 14:54:41.214,173965.68,0.015,0.695,-0.719,-0.003,0.006,0.012,0.034,-0.062,0.012,0.021,-0.768,1.555
2024-09-23 14:54:41.224,173965.69,0.015,0.695,-0.719,-0.001,0.0,0.002,0.017,-0.057,0.045,0.02,-0.768,1.556
2024-09-23 14:54:41.234,173965.7,0.014,0.695,-0.719,-0.011,-0.011,-0.001,0.014,-0.059,0.019,0.02,-0.768,1.556
2024-09-23 14:54:41.245,173965.71,0.014,0.694,-0.719,-0.002,-0.026,0.012,0.008,-0.039,0.024,0.02,-0.768,1.556
2024-09-23 14:54:41.254,173965.72,0.014,0.694,-0.72,0.001,-0.003,0.001,0.037,-0.024,0.03,0.02,-0.767,1.557
2024-09-23 14:54:41.265,173965.73,0.014,0.694,-0.72,-0.007,-0.009,0.001,0.055,-0.039,0.036,0.02,-0.767,1.557
2024-09-23 14:54:41.274,173965.74,0.014,0.693,-0.721,-0.002,0.002,0.01,0.156,-0.023,0.059,0.02,-0.766,1.558
2024-09-23 14:54:41.285,173965.75,0.014,0.692,-0.721,0.005,0.035,0.01,0.109,-0.013,-0.006,0.02,-0.765,1.558
2024-09-23 14:54:41.294,173965.76,0.014,0.691,-0.722,-0.004,0.03,0.02,0.178,-0.024,0.069,0.02,-0.763,1.559
2024-09-23 14:54:41.304,173965.77,0.014,0.69,-0.724,0.001,-0.021,-0.002,0.197,-0.039,-0.004,0.02,-0.762,1.559
2024-09-23 14:54:41.314,173965.78,0.014,0.688,-0.726,0.013,0.028,0.017,0.343,-0.044,0.021,0.019,-0.759,1.559
2024-09-23 14:54:41.324,173965.79,0.014,0.686,-0.728,0.006,0.042,0.021,0.351,-0.076,0.001,0.019,-0.755,1.559
2024-09-23 14:54:41.334,173965.8,0.013,0.683,-0.73,0.017,0.011,0.021,0.357,-0.085,-0.026,0.018,-0.752,1.559
2024-09-23 14:54:41.344,173965.81,0.012,0.68,-0.733,0.001,0.015,0.014,0.372,-0.074,0.02,0.017,-0.748,1.559
2024-09-23 14:54:41.354,173965.82,0.012,0.678,-0.735,-0.011,0.013,0.003,0.28,-0.059,-0.012,0.016,-0.745,1.559
2024-09-23 14:54:41.364,173965.83,0.012,0.676,-0.736,-0.015,-0.009,0.003,0.203,-0.045,0.02,0.016,-0.743,1.559
2024-09-23 14:54:41.374,173965.84,0.011,0.676,-0.737,-0.019,-0.037,-0.013,0.074,-0.04,-0.006,0.015,-0.742,1.559
2024-09-23 14:54:41.384,173965.85,0.011,0.676,-0.737,-0.01,-0.052,-0.01,-0.034,-0.039,-0.001,0.015,-0.742,1.559
2024-09-23 14:54:41.394,173965.86,0.011,0.676,-0.737,-0.01,-0.057,-0.015,-0.091,-0.029,-0.004,0.015,-0.743,1.559
2024-09-23 14:54:41.404,173965.87,0.011,0.677,-0.736,-0.009,-0.056,-0.011,-0.071,-0.03,-0.009,0.014,-0.744,1.559
2024-09-23 14:54:41.414,173965.88,0.01,0.677,-0.736,-0.008,-0.027,0.001,-0.02,-0.031,-0.016,0.014,-0.744,1.559
2024-09-23 14:54:41.424,173965.89,0.01,0.677,-0.736,-0.0,0.009,0.011,0.028,-0.032,0.001,0.014,-0.744,1.558
2024-09-23 14:54:41.434,173965.9,0.01,0.677,-0.736,-0.003,0.021,0.009,0.047,-0.038,0.008,0.013,-0.744,1.559
2024-09-23 14:54:41.444,173965.91,0.01,0.677,-0.736,-0.005,0.028,0.008,0.034,-0.043,0.01,0.013,-0.743,1.559
2024-09-23 14:54:41.454,173965.92,0.009,0.677,-0.736,-0.002,0.02,0.005,-0.04,-0.037,0.005,0.013,-0.743,1.559
2024-09-23 14:54:41.464,173965.93,0.009,0.677,-0.736,-0.0,-0.022,-0.001,-0.136,-0.035,0.03,0.012,-0.744,1.559
2024-09-23 14:54:41.474,173965.94,0.009,0.678,-0.735,-0.009,-0.041,-0.007,-0.192,-0.012,0.035,0.012,-0.745,1.559
2024-09-23 14:54:41.484,173965.95,0.009,0.68,-0.733,-0.015,-0.033,-0.011,-0.239,-0.019,0.043,0.013,-0.747,1.56
2024-09-23 14:54:41.494,173965.96,0.009,0.681,-0.732,-0.014,-0.024,-0.008,-0.236,-0.016,0.056,0.013,-0.75,1.561
2024-09-23 14:54:41.504,173965.97,0.01,0.683,-0.73,-0.006,-0.017,-0.006,-0.303,-0.017,0.044,0.013,-0.753,1.561
2024-09-23 14:54:41.514,173965.98,0.01,0.686,-0.728,-0.007,-0.032,-0.009,-0.316,0.007,0.055,0.014,-0.756,1.562
2024-09-23 14:54:41.524,173965.99,0.01,0.688,-0.726,-0.01,-0.039,-0.017,-0.307,0.032,0.03,0.014,-0.759,1.563
2024-09-23 14:54:41.534,173966.0,0.011,0.69,-0.724,-0.007,-0.029,-0.005,-0.279,0.043,0.011,0.015,-0.762,1.563
2024-09-23 14:54:41.544,173966.01,0.011,0.692,-0.722,-0.003,-0.029,0.002,-0.241,0.05,0.014,0.015,-0.764,1.563
2024-09-23 14:54:41.554,173966.02,0.011,0.693,-0.72,0.001,-0.014,0.002,-0.204,0.054,-0.012,0.016,-0.766,1.563
2024-09-23 14:54:41.564,173966.03,0.012,0.694,-0.72,0.002,0.009,0.001,-0.131,0.045,-0.007,0.016,-0.768,1.563
2024-09-23 14:54:41.574,173966.04,0.012,0.695,-0.719,-0.002,0.022,0.006,-0.089,0.032,-0.029,0.016,-0.768,1.563
2024-09-23 14:54:41.584,173966.05,0.012,0.696,-0.718,0.007,0.014,0.006,-0.111,0.03,-0.03,0.016,-0.769,1.562
2024-09-23 14:54:41.593,173966.06,0.012,0.696,-0.718,0.002,0.013,0.007,-0.161,0.035,-0.007,0.016,-0.77,1.562
2024-09-23 14:54:41.604,173966.07,0.012,0.697,-0.717,-0.009,-0.01,-0.008,-0.172,0.047,-0.007,0.016,-0.772,1.562
2024-09-23 14:54:41.614,173966.08,0.012,0.698,-0.716,-0.013,-0.003,-0.012,-0.124,0.038,-0.008,0.017,-0.773,1.562
2024-09-23 14:54:41.624,173966.09,0.012,0.699,-0.715,-0.01,0.0,0.006,-0.071,0.02,-0.038,0.017,-0.774,1.561
2024-09-23 14:54:41.634,173966.1,0.012,0.699,-0.715,0.009,0.008,0.016,-0.024,-0.002,-0.048,0.016,-0.774,1.561
2024-09-23 14:54:41.643,173966.11,0.011,0.699,-0.715,0.014,0.025,0.009,0.015,-0.019,-0.054,0.016,-0.774,1.56
2024-09-23 14:54:41.653,173966.12,0.011,0.699,-0.715,0.011,0.014,0.014,0.028,-0.033,-0.046,0.015,-0.774,1.559
2024-09-23 14:54:41.664,173966.13,0.01,0.699,-0.715,0.007,0.021,0.008,0.054,-0.034,-0.028,0.014,-0.774,1.559
2024-09-23 14:54:41.673,173966.139,0.01,0.699,-0.716,-0.0,0.018,0.005,0.093,-0.046,-0.023,0.014,-0.773,1.558
2024-09-23 14:54:41.683,173966.149,0.009,0.698,-0.716,-0.001,0.025,0.011,0.146,-0.066,-0.014,0.013,-0.772,1.558
2024-09-23 14:54:41.693,173966.159,0.009,0.696,-0.718,0.003,0.027,0.014,0.171,-0.067,-0.013,0.012,-0.77,1.558
2024-09-23 14:54:41.703,173966.169,0.008,0.695,-0.719,0.004,0.025,0.015,0.157,-0.078,-0.0,0.011,-0.769,1.558
2024-09-23 14:54:41.713,173966.179,0.008,0.695,-0.719,-0.003,0.0,0.011,0.02,-0.054,-0.003,0.011,-0.768,1.558
2024-09-23 14:54:41.723,173966.189,0.008,0.695,-0.719,-0.007,-0.02,0.001,-0.086,-0.004,0.05,0.011,-0.768,1.558
2024-09-23 14:54:41.733,173966.199,0.008,0.696,-0.718,-0.03,-0.048,-0.027,-0.137,0.012,0.061,0.012,-0.77,1.559
2024-09-23 14:54:41.743,173966.209,0.009,0.697,-0.717,-0.026,-0.086,-0.014,-0.221,0.016,0.044,0.012,-0.772,1.56
2024-09-23 14:54:41.754,173966.219,0.01,0.699,-0.715,-0.012,0.002,-0.011,-0.167,0.02,0.09,0.013,-0.774,1.561
2024-09-23 14:54:41.764,173966.229,0.01,0.7,-0.714,-0.005,0.003,-0.011,-0.126,0.017,0.062,0.014,-0.775,1.562
2024-09-23 14:54:41.773,173966.239,0.011,0.701,-0.713,-0.001,0.003,0.01,-0.126,0.019,0.058,0.015,-0.776,1.563
2024-09-23 14:54:41.784,173966.249,0.011,0.702,-0.712,0.004,0.003,0.005,-0.136,0.034,0.031,0.016,-0.778,1.564
2024-09-23 14:54:41.793,173966.259,0.012,0.703,-0.711,-0.002,-0.017,0.0,-0.17,0.011,0.05,0.016,-0.779,1.564
2024-09-23 14:54:41.803,173966.269,0.012,0.704,-0.71,-0.009,-0.038,-0.008,-0.11,0.008,0.029,0.017,-0.781,1.565
2024-09-23 14:54:41.813,173966.279,0.012,0.704,-0.71,0.006,-0.021,0.0,-0.155,-0.001,-0.013,0.017,-0.782,1.565
2024-09-23 14:54:41.823,173966.289,0.012,0.705,-0.709,-0.007,0.001,0.019,-0.085,-0.024,0.078,0.017,-0.783,1.565
2024-09-23 14:54:41.833,173966.299,0.012,0.706,-0.708,-0.003,-0.032,-0.002,-0.065,-0.025,-0.041,0.017,-0.784,1.565
2024-09-23 14:54:41.843,173966.309,0.011,0.706,-0.708,0.006,0.009,0.016,0.04,-0.058,0.025,0.016,-0.784,1.565
2024-09-23 14:54:41.853,173966.319,0.011,0.706,-0.709,-0.002,0.007,0.014,0.054,-0.039,-0.041,0.015,-0.783,1.565
2024-09-23 14:54:41.864,173966.329,0.011,0.705,-0.709,0.012,0.012,0.021,0.057,-0.059,0.016,0.015,-0.783,1.565
2024-09-23 14:54:41.873,173966.339,0.01,0.705,-0.71,-0.012,0.011,0.004,0.093,-0.044,-0.013,0.014,-0.782,1.565
2024-09-23 14:54:41.884,173966.349,0.01,0.704,-0.71,-0.001,0.008,0.009,0.118,-0.057,0.0,0.014,-0.781,1.565
2024-09-23 14:54:41.893,173966.359,0.009,0.703,-0.711,-0.004,0.019,0.016,0.145,-0.059,-0.01,0.013,-0.779,1.565
2024-09-23 14:54:41.903,173966.369,0.009,0.702,-0.712,0.003,0.02,0.014,0.132,-0.05,-0.034,0.012,-0.778,1.564
2024-09-23 14:54:41.913,173966.379,0.008,0.701,-0.713,0.002,0.011,0.013,0.098,-0.042,-0.021,0.012,-0.777,1.564
2024-09-23 14:54:41.922,173966.389,0.008,0.7,-0.714,-0.002,-0.01,0.003,0.091,-0.025,-0.036,0.011,-0.776,1.563
2024-09-23 14:54:41.933,173966.399,0.007,0.7,-0.714,-0.007,-0.008,-0.002,0.08,-0.037,-0.023,0.01,-0.775,1.563
2024-09-23 14:54:41.943,173966.409,0.007,0.699,-0.715,-0.005,0.002,-0.002,0.111,-0.042,-0.01,0.01,-0.775,1.563
2024-09-23 14:54:41.953,173966.419,0.007,0.698,-0.716,0.001,0.016,-0.004,0.169,-0.056,0.005,0.009,-0.773,1.563
2024-09-23 14:54:41.963,173966.429,0.006,0.697,-0.717,-0.001,0.027,0.009,0.192,-0.076,0.029,0.009,-0.772,1.563
2024-09-23 14:54:41.973,173966.439,0.006,0.696,-0.718,0.002,0.035,0.022,0.12,-0.055,0.014,0.008,-0.77,1.563
2024-09-23 14:54:41.983,173966.449,0.006,0.696,-0.718,-0.004,0.026,0.002,0.01,-0.053,0.046,0.008,-0.77,1.564
2024-09-23 14:54:41.992,173966.459,0.006,0.696,-0.718,-0.018,-0.062,-0.008,-0.078,-0.055,0.043,0.008,-0.77,1.564
2024-09-23 14:54:42.003,173966.469,0.006,0.697,-0.717,-0.006,-0.058,-0.021,-0.141,-0.065,0.049,0.008,-0.771,1.565
2024-09-23 14:54:42.013,173966.479,0.006,0.698,-0.716,-0.0,-0.023,-0.019,-0.19,-0.061,0.039,0.008,-0.773,1.566
2024-09-23 14:54:42.023,173966.489,0.005,0.7,-0.714,0.002,-0.033,-0.012,-0.241,-0.042,0.04,0.008,-0.775,1.566
2024-09-23 14:54:42.033,173966.499,0.006,0.702,-0.712,-0.009,-0.051,-0.013,-0.324,-0.015,0.081,0.008,-0.778,1.567
2024-09-23 14:54:42.043,173966.509,0.006,0.704,-0.71,-0.024,-0.054,-0.008,-0.261,-0.003,0.092,0.009,-0.781,1.568
2024-09-23 14:54:42.053,173966.519,0.007,0.705,-0.709,-0.023,-0.031,-0.006,-0.104,-0.019,0.049,0.009,-0.783,1.569
2024-09-23 14:54:42.063,173966.529,0.007,0.706,-0.708,-0.005,0.031,0.027,-0.026,-0.01,0.042,0.01,-0.784,1.57
2024-09-23 14:54:42.073,173966.539,0.007,0.706,-0.709,0.007,0.052,0.031,0.069,-0.0,0.034,0.01,-0.783,1.571
2024-09-23 14:54:42.083,173966.549,0.007,0.705,-0.709,-0.001,0.014,0.014,0.101,0.005,0.001,0.01,-0.782,1.571
2024-09-23 14:54:42.092,173966.559,0.007,0.704,-0.71,-0.0,0.01,0.012,0.074,0.001,-0.005,0.01,-0.781,1.571
2024-09-23 14:54:42.102,173966.569,0.007,0.704,-0.71,0.004,-0.001,0.008,0.02,0.011,0.005,0.01,-0.781,1.571
2024-09-23 14:54:42.113,173966.579,0.007,0.704,-0.71,-0.004,-0.006,-0.008,-0.024,0.024,-0.01,0.01,-0.781,1.571
2024-09-23 14:54:42.123,173966.589,0.007,0.704,-0.71,-0.011,0.002,-0.012,-0.01,0.026,0.001,0.01,-0.781,1.57
2024-09-23 14:54:42.133,173966.599,0.008,0.704,-0.711,-0.007,-0.011,0.0,0.09,0.019,-0.0,0.011,-0.78,1.57
2024-09-23 14:54:42.144,173966.609,0.008,0.703,-0.712,-0.004,0.014,0.012,0.194,-0.016,-0.011,0.011,-0.779,1.57
2024-09-23 14:54:42.153,173966.619,0.007,0.701,-0.713,0.004,0.058,0.026,0.265,-0.037,-0.02,0.01,-0.777,1.57
2024-09-23 14:54:42.163,173966.629,0.007,0.699,-0.715,0.016,0.06,0.023,0.307,-0.039,-0.025,0.009,-0.774,1.57
2024-09-23 14:54:42.172,173966.639,0.006,0.697,-0.717,0.01,0.023,0.012,0.321,-0.04,-0.03,0.009,-0.771,1.569
2024-09-23 14:54:42.182,173966.649,0.006,0.694,-0.72,0.004,0.013,0.008,0.348,-0.038,-0.035,0.008,-0.768,1.569
2024-09-23 14:54:42.192,173966.659,0.005,0.692,-0.722,0.003,0.018,0.009,0.337,-0.038,-0.036,0.007,-0.764,1.568
2024-09-23 14:54:42.203,173966.669,0.005,0.69,-0.724,-0.001,0.005,0.015,0.305,-0.042,-0.028,0.007,-0.761,1.568
2024-09-23 14:54:42.212,173966.679,0.004,0.688,-0.726,-0.004,-0.011,0.007,0.268,-0.054,-0.022,0.006,-0.758,1.567
2024-09-23 14:54:42.222,173966.689,0.004,0.686,-0.728,-0.005,-0.031,0.002,0.222,-0.06,-0.002,0.005,-0.756,1.567
2024-09-23 14:54:42.233,173966.699,0.003,0.685,-0.729,-0.003,-0.012,0.01,0.172,-0.03,0.005,0.005,-0.754,1.567
2024-09-23 14:54:42.242,173966.709,0.003,0.684,-0.73,-0.014,-0.008,-0.009,0.1,-0.029,0.028,0.005,-0.753,1.568
2024-09-23 14:54:42.252,173966.719,0.004,0.683,-0.73,-0.021,-0.052,0.005,0.111,-0.029,0.056,0.005,-0.752,1.568
2024-09-23 14:54:42.263,173966.729,0.004,0.682,-0.731,-0.011,-0.01,-0.011,0.129,-0.045,0.051,0.005,-0.751,1.569
2024-09-23 14:54:42.273,173966.738,0.004,0.682,-0.732,-0.004,0.016,0.009,0.141,-0.055,0.066,0.005,-0.75,1.57
2024-09-23 14:54:42.282,173966.748,0.004,0.681,-0.733,0.002,0.004,0.011,0.109,-0.06,0.074,0.005,-0.749,1.571
2024-09-23 14:54:42.292,173966.758,0.004,0.68,-0.733,-0.001,0.001,0.001,0.029,-0.067,0.089,0.005,-0.748,1.572
2024-09-23 14:54:42.302,173966.768,0.004,0.68,-0.733,-0.005,-0.014,-0.008,-0.064,-0.047,0.086,0.006,-0.748,1.573
2024-09-23 14:54:42.313,173966.778,0.004,0.681,-0.732,-0.006,-0.046,-0.019,-0.216,-0.025,0.085,0.006,-0.75,1.574
2024-09-23 14:54:42.321,173966.788,0.005,0.683,-0.73,-0.018,-0.049,-0.026,-0.257,-0.003,0.109,0.007,-0.752,1.575
2024-09-23 14:54:42.332,173966.798,0.005,0.686,-0.728,-0.017,-0.068,-0.026,-0.337,0.011,0.083,0.007,-0.755,1.577
2024-09-23 14:54:42.342,173966.808,0.006,0.688,-0.725,-0.006,-0.017,-0.015,-0.482,0.044,0.058,0.008,-0.759,1.578
2024-09-23 14:54:42.352,173966.818,0.007,0.692,-0.722,-0.011,-0.017,-0.025,-0.535,0.082,0.123,0.01,-0.764,1.579
2024-09-23 14:54:42.363,173966.828,0.008,0.696,-0.718,-0.023,-0.068,-0.036,-0.556,0.092,0.058,0.012,-0.77,1.58
2024-09-23 14:54:42.372,173966.838,0.01,0.699,-0.715,-0.014,-0.041,-0.026,-0.44,0.101,0.087,0.013,-0.775,1.581
2024-09-23 14:54:42.383,173966.848,0.011,0.702,-0.712,-0.022,-0.004,0.01,-0.331,0.116,0.078,0.015,-0.778,1.583
2024-09-23 14:54:42.393,173966.858,0.012,0.704,-0.71,-0.009,-0.016,0.035,-0.234,0.132,0.027,0.017,-0.781,1.583
2024-09-23 14:54:42.402,173966.868,0.013,0.706,-0.708,-0.007,0.008,0.033,-0.185,0.094,0.029,0.018,-0.784,1.584
2024-09-23 14:54:42.412,173966.878,0.014,0.707,-0.707,0.003,-0.017,0.0,-0.117,0.128,-0.023,0.019,-0.785,1.584
2024-09-23 14:54:42.422,173966.888,0.014,0.707,-0.707,-0.002,0.027,0.022,0.008,0.118,0.005,0.02,-0.786,1.584
2024-09-23 14:54:42.432,173966.898,0.015,0.707,-0.707,-0.024,-0.033,0.02,0.058,0.103,-0.06,0.021,-0.785,1.583
2024-09-23 14:54:42.442,173966.908,0.016,0.706,-0.708,0.005,0.005,0.029,0.163,0.089,0.045,0.022,-0.784,1.583
2024-09-23 14:54:42.452,173966.918,0.017,0.705,-0.709,-0.004,0.017,0.018,0.06,0.125,0.014,0.023,-0.783,1.584
2024-09-23 14:54:42.463,173966.928,0.018,0.705,-0.709,-0.014,0.052,-0.005,-0.059,0.225,0.08,0.025,-0.783,1.584
2024-09-23 14:54:42.472,173966.938,0.021,0.706,-0.708,-0.064,0.042,-0.063,-0.076,0.271,0.129,0.029,-0.784,1.586
2024-09-23 14:54:42.482,173966.948,0.023,0.706,-0.708,-0.058,-0.099,-0.041,-0.007,0.286,0.107,0.033,-0.784,1.587
2024-09-23 14:54:42.492,173966.958,0.026,0.706,-0.708,-0.012,0.005,-0.011,0.142,0.321,0.087,0.037,-0.783,1.589
2024-09-23 14:54:42.502,173966.968,0.025,0.703,-0.71,-0.01,0.101,-0.021,0.416,0.135,-0.009,0.036,-0.78,1.586
2024-09-23 14:54:42.512,173966.978,0.029,0.7,-0.713,-0.092,0.054,0.028,0.507,0.434,0.209,0.041,-0.776,1.589
2024-09-23 14:54:42.523,173966.988,0.032,0.696,-0.718,-0.161,0.097,0.058,0.787,0.063,0.169,0.045,-0.769,1.59
2024-09-23 14:54:42.532,173966.998,0.034,0.689,-0.724,0.093,0.132,0.082,1.058,0.033,0.258,0.047,-0.76,1.593
2024-09-23 14:54:42.542,173967.008,0.036,0.681,-0.732,0.179,0.182,0.112,1.126,-0.177,0.33,0.049,-0.749,1.596
2024-09-23 14:54:42.551,173967.018,0.035,0.673,-0.738,-0.008,0.259,0.069,0.777,-0.521,0.299,0.048,-0.739,1.6
2024-09-23 14:54:42.562,173967.028,0.035,0.673,-0.739,-0.019,0.187,0.087,-0.464,-0.211,0.536,0.047,-0.738,1.605
2024-09-23 14:54:42.572,173967.038,0.037,0.677,-0.735,-0.085,0.089,0.355,-0.547,-0.3,0.622,0.05,-0.743,1.614
2024-09-23 14:54:42.582,173967.048,0.038,0.678,-0.734,-0.102,-0.041,0.473,0.232,-0.554,0.687,0.052,-0.745,1.623
2024-09-23 14:54:42.592,173967.058,0.038,0.673,-0.739,0.161,-0.066,0.18,1.045,-0.55,0.532,0.052,-0.738,1.631
2024-09-23 14:54:42.602,173967.068,0.038,0.664,-0.747,0.188,0.131,0.021,1.297,-0.249,0.42,0.051,-0.726,1.636
2024-09-23 14:54:42.612,173967.078,0.04,0.655,-0.755,-0.082,0.181,-0.2,0.982,0.029,0.319,0.053,-0.714,1.64
2024-09-23 14:54:42.622,173967.088,0.043,0.649,-0.76,-0.179,-0.06,-0.27,0.489,0.208,0.171,0.056,-0.706,1.643
2024-09-23 14:54:42.632,173967.098,0.045,0.646,-0.762,-0.079,-0.328,-0.192,0.218,0.313,-0.021,0.059,-0.703,1.644
2024-09-23 14:54:42.642,173967.108,0.047,0.646,-0.762,0.011,-0.413,-0.155,-0.243,0.332,-0.219,0.061,-0.702,1.642
2024-09-23 14:54:42.652,173967.118,0.048,0.65,-0.758,0.046,-0.377,-0.217,-0.803,0.358,-0.318,0.063,-0.708,1.639
2024-09-23 14:54:42.662,173967.128,0.048,0.658,-0.752,0.043,-0.38,-0.16,-1.032,0.333,-0.388,0.064,-0.718,1.635
2024-09-23 14:54:42.672,173967.138,0.048,0.665,-0.745,0.009,-0.287,-0.076,-0.903,0.299,-0.419,0.064,-0.728,1.63
2024-09-23 14:54:42.682,173967.148,0.047,0.671,-0.74,-0.014,-0.046,-0.026,-0.542,0.179,-0.306,0.063,-0.735,1.626
2024-09-23 14:54:42.691,173967.158,0.046,0.673,-0.738,0.002,0.1,0.032,-0.109,0.008,-0.22,0.062,-0.739,1.623
2024-09-23 14:54:42.702,173967.168,0.044,0.673,-0.738,0.046,0.235,0.075,0.192,-0.138,-0.133,0.06,-0.738,1.62
2024-09-23 14:54:42.712,173967.178,0.042,0.671,-0.74,0.058,0.242,0.081,0.321,-0.172,-0.09,0.057,-0.736,1.619
2024-09-23 14:54:42.722,173967.188,0.041,0.669,-0.742,0.034,0.155,0.052,0.256,-0.127,-0.072,0.055,-0.733,1.617
2024-09-23 14:54:42.731,173967.198,0.039,0.668,-0.743,-0.017,0.043,0.007,0.06,-0.083,-0.059,0.053,-0.731,1.616
2024-09-23 14:54:42.742,173967.208,0.038,0.668,-0.743,-0.032,-0.079,-0.032,-0.158,-0.048,-0.062,0.052,-0.732,1.616
2024-09-23 14:54:42.752,173967.218,0.038,0.67,-0.742,-0.025,-0.104,-0.046,-0.284,-0.011,-0.07,0.051,-0.734,1.615
2024-09-23 14:54:42.762,173967.228,0.037,0.672,-0.74,-0.024,-0.08,-0.033,-0.304,-0.005,-0.075,0.05,-0.737,1.614
2024-09-23 14:54:42.771,173967.238,0.037,0.674,-0.738,-0.013,-0.068,-0.009,-0.217,-0.009,-0.068,0.05,-0.74,1.613
2024-09-23 14:54:42.782,173967.248,0.036,0.675,-0.737,0.0,-0.004,0.007,-0.048,-0.018,-0.056,0.049,-0.741,1.613
2024-09-23 14:54:42.791,173967.258,0.036,0.675,-0.737,0.001,0.062,0.023,0.136,-0.011,-0.052,0.048,-0.741,1.612
2024-09-23 14:54:42.801,173967.268,0.035,0.673,-0.739,0.003,0.09,0.03,0.284,-0.023,-0.042,0.048,-0.738,1.611
2024-09-23 14:54:42.811,173967.278,0.035,0.671,-0.741,0.007,0.075,0.03,0.363,-0.017,-0.04,0.047,-0.735,1.61
2024-09-23 14:54:42.822,173967.288,0.034,0.668,-0.743,0.005,0.061,0.027,0.357,-0.006,-0.03,0.046,-0.732,1.61
2024-09-23 14:54:42.832,173967.298,0.034,0.666,-0.746,-0.006,0.021,0.013,0.315,0.014,-0.023,0.046,-0.728,1.609
2024-09-23 14:54:42.842,173967.308,0.034,0.663,-0.747,-0.012,-0.015,0.001,0.275,0.024,-0.027,0.046,-0.725,1.609
2024-09-23 14:54:42.852,173967.318,0.034,0.662,-0.749,-0.012,-0.031,0.004,0.231,0.026,-0.031,0.046,-0.723,1.608
2024-09-23 14:54:42.862,173967.328,0.034,0.66,-0.751,-0.006,-0.03,0.011,0.212,0.032,-0.028,0.046,-0.721,1.607
2024-09-23 14:54:42.872,173967.338,0.034,0.658,-0.752,-0.005,-0.028,0.0,0.233,0.035,-0.012,0.046,-0.719,1.607
2024-09-23 14:54:42.882,173967.347,0.035,0.656,-0.754,-0.01,-0.009,0.0,0.277,0.019,0.006,0.046,-0.716,1.607
2024-09-23 14:54:42.891,173967.357,0.035,0.654,-0.755,-0.006,0.023,0.006,0.318,-0.001,0.022,0.046,-0.713,1.607
2024-09-23 14:54:42.902,173967.367,0.035,0.652,-0.758,-0.0,0.041,0.01,0.323,-0.011,0.041,0.046,-0.71,1.607
2024-09-23 14:54:42.912,173967.377,0.035,0.65,-0.759,-0.001,0.033,0.018,0.242,0.015,0.033,0.046,-0.707,1.607
2024-09-23 14:54:42.922,173967.387,0.036,0.648,-0.761,-0.01,0.019,-0.006,0.146,0.016,0.072,0.047,-0.705,1.608
2024-09-23 14:54:42.931,173967.397,0.036,0.647,-0.761,-0.022,-0.071,-0.006,0.072,0.029,0.011,0.047,-0.704,1.609
2024-09-23 14:54:42.941,173967.407,0.036,0.647,-0.761,-0.005,-0.081,0.001,-0.033,0.022,0.017,0.048,-0.704,1.609
2024-09-23 14:54:42.952,173967.417,0.037,0.648,-0.761,-0.007,-0.039,-0.006,-0.041,0.012,-0.002,0.048,-0.704,1.609
2024-09-23 14:54:42.962,173967.427,0.036,0.648,-0.761,0.002,-0.052,-0.005,-0.064,-0.015,-0.04,0.048,-0.705,1.608
2024-09-23 14:54:42.970,173967.437,0.036,0.648,-0.76,0.007,-0.003,-0.005,-0.022,-0.049,-0.024,0.047,-0.705,1.608
2024-09-23 14:54:42.981,173967.447,0.035,0.648,-0.76,0.011,-0.009,-0.007,0.016,-0.055,-0.046,0.046,-0.706,1.608
2024-09-23 14:54:42.990,173967.457,0.034,0.648,-0.76,0.007,0.015,0.01,-0.0,-0.072,-0.041,0.045,-0.706,1.607
2024-09-23 14:54:43.001,173967.467,0.034,0.649,-0.76,-0.005,0.011,0.014,-0.081,-0.086,-0.054,0.044,-0.706,1.606
2024-09-23 14:54:43.011,173967.477,0.033,0.65,-0.76,-0.001,-0.052,0.007,-0.173,-0.077,-0.064,0.043,-0.707,1.606
2024-09-23 14:54:43.021,173967.487,0.032,0.651,-0.758,-0.002,-0.076,-0.01,-0.245,-0.044,-0.089,0.042,-0.709,1.605
2024-09-23 14:54:43.031,173967.497,0.031,0.654,-0.756,-0.005,-0.074,-0.021,-0.382,-0.005,-0.105,0.041,-0.712,1.604
2024-09-23 14:54:43.042,173967.507,0.03,0.657,-0.754,-0.014,-0.068,-0.021,-0.446,0.038,-0.081,0.04,-0.716,1.603
2024-09-23 14:54:43.050,173967.517,0.03,0.66,-0.751,-0.022,-0.087,-0.022,-0.434,0.054,-0.076,0.04,-0.721,1.602
2024-09-23 14:54:43.060,173967.527,0.03,0.663,-0.748,-0.02,-0.04,-0.012,-0.378,0.054,-0.063,0.04,-0.725,1.601
2024-09-23 14:54:43.070,173967.537,0.03,0.666,-0.746,-0.011,0.027,0.007,-0.325,0.051,-0.044,0.04,-0.728,1.601
2024-09-23 14:54:43.080,173967.547,0.03,0.668,-0.744,-0.005,0.055,0.011,-0.271,0.076,-0.048,0.041,-0.731,1.6
2024-09-23 14:54:43.090,173967.557,0.031,0.67,-0.742,-0.01,0.053,-0.001,-0.23,0.073,-0.05,0.041,-0.734,1.6
2024-09-23 14:54:43.101,173967.567,0.031,0.671,-0.741,-0.011,0.006,0.012,-0.173,0.066,-0.045,0.041,-0.736,1.599
2024-09-23 14:54:43.111,173967.577,0.031,0.672,-0.74,0.0,-0.001,0.007,-0.096,0.06,-0.036,0.042,-0.737,1.599
2024-09-23 14:54:43.121,173967.587,0.031,0.672,-0.74,-0.004,0.036,-0.006,-0.014,0.05,-0.053,0.042,-0.737,1.598
2024-09-23 14:54:43.131,173967.597,0.031,0.672,-0.74,-0.006,0.042,0.006,0.029,0.009,-0.034,0.042,-0.737,1.598
2024-09-23 14:54:43.141,173967.607,0.031,0.672,-0.74,0.006,0.022,0.012,0.092,0.005,-0.052,0.041,-0.737,1.597
2024-09-23 14:54:43.151,173967.617,0.03,0.671,-0.741,0.012,0.053,0.002,0.114,-0.014,-0.048,0.041,-0.736,1.596
2024-09-23 14:54:43.163,173967.627,0.03,0.67,-0.741,0.001,0.027,0.011,0.109,-0.027,-0.037,0.04,-0.735,1.596
2024-09-23 14:54:43.171,173967.637,0.029,0.669,-0.742,0.003,-0.002,0.005,0.12,-0.024,-0.03,0.04,-0.734,1.595
2024-09-23 14:54:43.180,173967.647,0.029,0.669,-0.743,-0.003,0.014,-0.001,0.103,-0.038,-0.017,0.039,-0.732,1.595
2024-09-23 14:54:43.190,173967.657,0.029,0.668,-0.744,-0.008,0.006,0.007,0.041,-0.009,-0.016,0.039,-0.732,1.595
2024-09-23 14:54:43.200,173967.667,0.029,0.668,-0.744,-0.008,-0.015,0.004,-0.023,0.027,0.031,0.039,-0.732,1.595
2024-09-23 14:54:43.211,173967.677,0.029,0.668,-0.743,-0.027,-0.018,-0.018,-0.067,0.044,0.045,0.04,-0.732,1.595
2024-09-23 14:54:43.220,173967.687,0.03,0.669,-0.743,-0.023,-0.057,0.003,-0.074,0.047,0.074,0.041,-0.733,1.596
2024-09-23 14:54:43.231,173967.697,0.031,0.67,-0.742,-0.012,0.002,-0.009,-0.013,0.065,0.081,0.042,-0.734,1.597
2024-09-23 14:54:43.241,173967.707,0.032,0.67,-0.742,-0.01,0.02,0.003,-0.01,0.054,0.088,0.043,-0.734,1.598
2024-09-23 14:54:43.251,173967.717,0.033,0.67,-0.742,-0.012,0.014,0.016,0.062,0.055,0.128,0.045,-0.734,1.6
2024-09-23 14:54:43.261,173967.727,0.034,0.669,-0.743,-0.004,0.019,-0.0,0.146,0.043,0.124,0.046,-0.733,1.601
2024-09-23 14:54:43.271,173967.737,0.035,0.668,-0.744,-0.006,0.035,0.016,0.221,0.009,0.096,0.047,-0.731,1.603
2024-09-23 14:54:43.280,173967.747,0.036,0.666,-0.745,0.002,0.035,0.021,0.187,-0.026,0.102,0.048,-0.729,1.604
2024-09-23 14:54:43.291,173967.757,0.036,0.664,-0.746,0.01,0.016,0.013,0.227,-0.028,0.091,0.048,-0.727,1.605
2024-09-23 14:54:43.301,173967.767,0.036,0.663,-0.748,0.001,-0.011,0.005,0.197,-0.037,0.05,0.048,-0.724,1.605
2024-09-23 14:54:43.311,173967.777,0.036,0.661,-0.749,-0.003,-0.016,0.014,0.117,-0.047,0.026,0.048,-0.722,1.606
2024-09-23 14:54:43.321,173967.787,0.036,0.661,-0.75,0.002,-0.049,-0.002,0.057,-0.02,-0.021,0.048,-0.722,1.606
2024-09-23 14:54:43.331,173967.797,0.035,0.661,-0.749,0.0,-0.071,-0.011,-0.194,-0.05,-0.055,0.047,-0.722,1.605
2024-09-23 14:54:43.341,173967.807,0.034,0.663,-0.748,-0.001,-0.109,-0.02,-0.294,-0.064,-0.035,0.046,-0.725,1.605
2024-09-23 14:54:43.351,173967.817,0.034,0.665,-0.746,0.008,-0.128,-0.038,-0.221,-0.06,-0.057,0.045,-0.728,1.604
2024-09-23 14:54:43.361,173967.827,0.033,0.666,-0.745,0.001,-0.013,-0.003,-0.097,-0.051,-0.058,0.044,-0.729,1.603
2024-09-23 14:54:43.371,173967.837,0.032,0.667,-0.744,-0.001,0.04,0.019,-0.071,-0.017,-0.059,0.043,-0.73,1.603
2024-09-23 14:54:43.381,173967.847,0.032,0.667,-0.744,-0.006,0.011,0.024,-0.027,-0.015,-0.018,0.043,-0.731,1.602
2024-09-23 14:54:43.391,173967.857,0.032,0.668,-0.744,-0.017,0.013,0.004,-0.015,-0.001,-0.02,0.043,-0.731,1.602
2024-09-23 14:54:43.401,173967.867,0.032,0.668,-0.744,-0.014,0.052,0.003,-0.054,0.016,-0.027,0.042,-0.731,1.602
2024-09-23 14:54:43.411,173967.877,0.032,0.668,-0.743,-0.009,0.013,0.005,-0.107,0.039,-0.024,0.042,-0.732,1.601
2024-09-23 14:54:43.421,173967.887,0.032,0.669,-0.742,-0.011,-0.051,-0.009,-0.132,0.046,-0.029,0.043,-0.733,1.601
2024-09-23 14:54:43.430,173967.897,0.032,0.67,-0.742,-0.012,-0.032,-0.005,-0.141,0.043,-0.025,0.043,-0.734,1.601
2024-09-23 14:54:43.440,173967.907,0.032,0.671,-0.741,-0.005,0.009,0.0,-0.092,0.041,-0.011,0.043,-0.736,1.601
2024-09-23 14:54:43.450,173967.917,0.032,0.671,-0.74,-0.001,0.003,0.0,0.008,0.017,0.001,0.044,-0.736,1.601
2024-09-23 14:54:43.461,173967.927,0.032,0.671,-0.741,0.001,0.03,0.011,0.143,0.001,-0.004,0.044,-0.735,1.601
2024-09-23 14:54:43.470,173967.937,0.032,0.669,-0.742,0.005,0.077,0.019,0.225,-0.016,-0.012,0.043,-0.733,1.6
2024-09-23 14:54:43.480,173967.946,0.032,0.668,-0.744,0.005,0.061,0.017,0.235,-0.054,-0.018,0.043,-0.731,1.6
2024-09-23 14:54:43.490,173967.956,0.031,0.666,-0.745,0.008,0.023,0.015,0.134,-0.055,-0.021,0.042,-0.729,1.6
2024-09-23 14:54:43.500,173967.966,0.031,0.666,-0.746,0.01,0.007,0.005,-0.003,0.018,-0.002,0.042,-0.728,1.599
2024-09-23 14:54:43.511,173967.976,0.031,0.666,-0.745,-0.02,-0.02,-0.04,-0.079,0.037,0.004,0.042,-0.729,1.599
2024-09-23 14:54:43.520,173967.986,0.032,0.667,-0.745,-0.031,-0.144,-0.016,-0.091,0.035,0.004,0.042,-0.73,1.599
2024-09-23 14:54:43.530,173967.996,0.032,0.667,-0.744,-0.008,-0.042,-0.007,-0.045,0.013,0.024,0.043,-0.73,1.6
2024-09-23 14:54:43.540,173968.006,0.032,0.667,-0.744,-0.007,0.028,0.004,-0.017,-0.005,0.044,0.043,-0.731,1.6
2024-09-23 14:54:43.551,173968.016,0.032,0.668,-0.744,-0.005,0.009,0.015,-0.02,-0.015,0.072,0.044,-0.731,1.601
2024-09-23 14:54:43.560,173968.026,0.033,0.668,-0.744,-0.004,0.004,0.005,0.022,0.005,0.085,0.044,-0.731,1.602
2024-09-23 14:54:43.570,173968.036,0.034,0.668,-0.744,-0.014,0.002,-0.001,0.003,-0.022,0.116,0.045,-0.731,1.603
2024-09-23 14:54:43.580,173968.046,0.034,0.667,-0.744,-0.016,-0.017,0.008,0.003,-0.009,0.131,0.046,-0.731,1.605
2024-09-23 14:54:43.590,173968.056,0.035,0.667,-0.744,-0.005,-0.028,0.001,0.019,0.036,0.138,0.047,-0.731,1.607
2024-09-23 14:54:43.600,173968.066,0.037,0.667,-0.744,-0.018,0.008,0.003,0.01,0.099,0.154,0.049,-0.73,1.609
2024-09-23 14:54:43.610,173968.076,0.039,0.667,-0.744,-0.033,0.031,-0.015,0.006,0.151,0.167,0.052,-0.73,1.611
2024-09-23 14:54:43.620,173968.086,0.041,0.667,-0.744,-0.03,-0.028,-0.01,-0.071,0.204,0.168,0.055,-0.73,1.613
2024-09-23 14:54:43.630,173968.096,0.044,0.668,-0.743,-0.023,-0.033,-0.01,-0.124,0.273,0.172,0.059,-0.731,1.616
2024-09-23 14:54:43.640,173968.106,0.047,0.669,-0.742,-0.034,-0.015,-0.032,-0.064,0.32,0.167,0.064,-0.732,1.618
2024-09-23 14:54:43.650,173968.116,0.05,0.669,-0.742,-0.035,-0.027,0.01,0.004,0.305,0.062,0.067,-0.732,1.619
2024-09-23 14:54:43.660,173968.126,0.053,0.669,-0.742,-0.008,-0.028,0.052,0.012,0.193,0.136,0.071,-0.732,1.62
2024-09-23 14:54:43.670,173968.136,0.055,0.668,-0.742,0.007,0.004,0.024,0.247,0.131,0.142,0.073,-0.731,1.622
2024-09-23 14:54:43.681,173968.146,0.056,0.665,-0.745,0.017,0.147,0.016,0.432,0.092,0.099,0.075,-0.728,1.623
2024-09-23 14:54:43.690,173968.156,0.057,0.662,-0.748,0.015,0.141,0.053,0.467,0.067,0.079,0.076,-0.723,1.624
2024-09-23 14:54:43.708,173968.166,0.058,0.658,-0.751,0.023,0.034,0.038,0.434,0.055,0.056,0.077,-0.718,1.624
2024-09-23 14:54:43.714,173968.176,0.059,0.655,-0.753,0.02,-0.03,0.002,0.311,0.057,-0.003,0.078,-0.715,1.624
2024-09-23 14:54:43.720,173968.186,0.059,0.654,-0.755,0.009,-0.02,-0.019,0.138,0.055,-0.057,0.078,-0.712,1.624
2024-09-23 14:54:43.730,173968.196,0.059,0.653,-0.755,0.004,-0.071,-0.028,-0.073,0.073,-0.076,0.078,-0.712,1.623
2024-09-23 14:54:43.740,173968.206,0.059,0.655,-0.754,-0.003,-0.119,-0.013,-0.21,0.083,-0.091,0.078,-0.714,1.622
2024-09-23 14:54:43.750,173968.216,0.059,0.656,-0.752,-0.009,-0.102,-0.01,-0.259,0.076,-0.11,0.078,-0.716,1.621
2024-09-23 14:54:43.760,173968.226,0.059,0.658,-0.75,-0.008,-0.074,-0.007,-0.23,0.072,-0.116,0.078,-0.719,1.62
2024-09-23 14:54:43.770,173968.236,0.059,0.66,-0.749,-0.003,-0.031,0.003,-0.173,0.07,-0.094,0.078,-0.721,1.618
2024-09-23 14:54:43.780,173968.246,0.059,0.661,-0.748,-0.006,0.006,0.003,-0.116,0.067,-0.071,0.078,-0.722,1.617
2024-09-23 14:54:43.790,173968.256,0.059,0.662,-0.747,-0.013,0.045,0.003,-0.063,0.054,-0.035,0.079,-0.723,1.617
2024-09-23 14:54:43.800,173968.266,0.059,0.662,-0.747,-0.009,0.041,0.009,-0.036,0.037,-0.016,0.079,-0.724,1.617
2024-09-23 14:54:43.809,173968.276,0.059,0.662,-0.747,0.002,0.017,0.01,-0.022,0.025,-0.01,0.079,-0.724,1.616
2024-09-23 14:54:43.820,173968.286,0.059,0.662,-0.747,-0.001,0.013,0.005,-0.011,0.0,-0.022,0.079,-0.724,1.616
2024-09-23 14:54:43.830,173968.296,0.059,0.663,-0.747,0.001,-0.004,0.01,-0.027,-0.013,-0.037,0.079,-0.724,1.616
2024-09-23 14:54:43.840,173968.306,0.058,0.663,-0.747,0.007,-0.027,0.007,-0.035,-0.014,-0.049,0.078,-0.725,1.615
2024-09-23 14:54:43.850,173968.316,0.058,0.663,-0.746,0.003,-0.025,-0.001,-0.049,-0.014,-0.054,0.078,-0.725,1.615
2024-09-23 14:54:43.860,173968.326,0.058,0.664,-0.746,-0.003,-0.013,-0.005,-0.053,-0.019,-0.055,0.077,-0.726,1.614
2024-09-23 14:54:43.870,173968.336,0.057,0.664,-0.746,-0.001,-0.01,-0.008,-0.037,-0.017,-0.06,0.076,-0.726,1.613
2024-09-23 14:54:43.880,173968.346,0.056,0.664,-0.745,-0.002,0.005,-0.006,0.001,-0.02,-0.056,0.076,-0.726,1.613
2024-09-23 14:54:43.890,173968.356,0.056,0.664,-0.746,-0.001,0.014,0.005,0.027,-0.022,-0.065,0.075,-0.726,1.612
2024-09-23 14:54:43.900,173968.366,0.055,0.664,-0.746,-0.0,0.017,0.011,0.045,-0.029,-0.051,0.074,-0.726,1.611
2024-09-23 14:54:43.910,173968.376,0.055,0.664,-0.746,-0.002,-0.002,0.012,0.065,-0.029,-0.049,0.073,-0.726,1.61
2024-09-23 14:54:43.920,173968.386,0.054,0.663,-0.747,-0.004,-0.006,0.017,0.058,-0.039,-0.031,0.073,-0.725,1.61
2024-09-23 14:54:43.931,173968.396,0.054,0.662,-0.747,-0.005,0.018,0.008,0.054,-0.04,-0.011,0.072,-0.724,1.609
2024-09-23 14:54:43.940,173968.406,0.054,0.662,-0.748,-0.006,0.013,-0.006,0.069,-0.054,0.011,0.072,-0.723,1.609
2024-09-23 14:54:43.950,173968.416,0.053,0.661,-0.748,-0.006,0.007,0.002,0.079,-0.06,0.02,0.071,-0.723,1.609
2024-09-23 14:54:43.960,173968.426,0.053,0.661,-0.749,0.003,0.029,0.011,0.074,-0.048,0.035,0.071,-0.722,1.61
2024-09-23 14:54:43.970,173968.436,0.053,0.66,-0.749,-0.006,0.018,-0.002,0.071,-0.049,0.032,0.071,-0.721,1.61
2024-09-23 14:54:43.980,173968.446,0.053,0.66,-0.749,-0.007,-0.027,0.007,0.074,-0.038,0.016,0.07,-0.721,1.61
2024-09-23 14:54:43.990,173968.456,0.053,0.659,-0.75,-0.002,-0.015,0.001,0.079,-0.028,0.011,0.07,-0.72,1.611
2024-09-23 14:54:44.000,173968.466,0.053,0.659,-0.75,-0.004,-0.018,0.002,0.082,-0.019,0.016,0.07,-0.719,1.611
2024-09-23 14:54:44.010,173968.476,0.053,0.658,-0.751,-0.009,-0.014,0.005,0.111,-0.021,0.037,0.07,-0.719,1.611
2024-09-23 14:54:44.020,173968.486,0.053,0.657,-0.752,-0.007,0.006,0.005,0.194,-0.004,0.017,0.07,-0.717,1.611
2024-09-23 14:54:44.030,173968.496,0.053,0.656,-0.753,-0.002,0.03,0.009,0.247,-0.026,0.022,0.07,-0.715,1.611
2024-09-23 14:54:44.040,173968.506,0.053,0.654,-0.755,0.002,0.027,0.013,0.275,-0.044,0.033,0.07,-0.713,1.611
2024-09-23 14:54:44.050,173968.516,0.052,0.651,-0.757,0.008,0.029,0.01,0.4,-0.049,0.008,0.069,-0.71,1.611
2024-09-23 14:54:44.060,173968.526,0.052,0.648,-0.76,0.005,0.05,0.02,0.421,-0.086,0.012,0.068,-0.705,1.611
2024-09-23 14:54:44.069,173968.536,0.051,0.645,-0.762,0.005,0.04,0.023,0.385,-0.089,0.02,0.067,-0.701,1.611
2024-09-23 14:54:44.080,173968.545,0.051,0.642,-0.765,0.001,-0.007,0.005,0.347,-0.074,0.024,0.066,-0.698,1.611
2024-09-23 14:54:44.090,173968.555,0.05,0.64,-0.766,-0.014,-0.021,-0.008,0.225,-0.06,-0.002,0.065,-0.695,1.611
2024-09-23 14:54:44.099,173968.565,0.05,0.639,-0.767,-0.016,-0.034,-0.006,0.038,-0.03,-0.007,0.065,-0.694,1.61
2024-09-23 14:54:44.110,173968.575,0.05,0.64,-0.767,-0.014,-0.082,-0.016,-0.075,-0.021,0.006,0.065,-0.694,1.61
2024-09-23 14:54:44.120,173968.585,0.049,0.64,-0.766,-0.019,-0.094,-0.02,-0.089,-0.038,-0.003,0.064,-0.695,1.611
2024-09-23 14:54:44.130,173968.595,0.049,0.641,-0.766,-0.007,-0.034,-0.009,-0.069,-0.045,-0.005,0.064,-0.696,1.611
2024-09-23 14:54:44.139,173968.605,0.049,0.642,-0.765,0.006,0.01,0.006,-0.083,-0.035,-0.017,0.064,-0.697,1.611
2024-09-23 14:54:44.150,173968.615,0.048,0.643,-0.765,-0.004,-0.0,0.01,-0.147,-0.032,-0.012,0.063,-0.698,1.61
2024-09-23 14:54:44.160,173968.625,0.048,0.644,-0.764,-0.009,-0.033,-0.005,-0.182,-0.01,-0.01,0.063,-0.7,1.61
2024-09-23 14:54:44.170,173968.635,0.048,0.646,-0.762,-0.009,-0.043,-0.018,-0.276,0.007,-0.012,0.063,-0.702,1.61
2024-09-23 14:54:44.180,173968.645,0.048,0.648,-0.76,-0.016,-0.043,-0.015,-0.286,0.011,0.026,0.063,-0.705,1.611
2024-09-23 14:54:44.190,173968.655,0.048,0.65,-0.758,-0.014,-0.045,-0.011,-0.291,0.009,0.036,0.064,-0.707,1.611
2024-09-23 14:54:44.200,173968.665,0.049,0.652,-0.757,-0.01,-0.004,0.002,-0.256,0.031,0.023,0.064,-0.71,1.612
2024-09-23 14:54:44.210,173968.675,0.049,0.654,-0.755,-0.006,0.017,0.005,-0.24,0.065,0.036,0.065,-0.712,1.613
2024-09-23 14:54:44.219,173968.685,0.05,0.656,-0.753,-0.012,-0.018,-0.003,-0.253,0.074,0.031,0.066,-0.715,1.613
2024-09-23 14:54:44.229,173968.695,0.051,0.657,-0.752,-0.016,-0.05,-0.005,-0.213,0.087,0.021,0.067,-0.717,1.614
2024-09-23 14:54:44.239,173968.705,0.051,0.659,-0.751,-0.01,-0.015,0.008,-0.167,0.079,0.03,0.068,-0.719,1.614
2024-09-23 14:54:44.249,173968.715,0.052,0.66,-0.75,-0.006,0.008,0.009,-0.136,0.06,0.026,0.069,-0.72,1.615
2024-09-23 14:54:44.259,173968.725,0.053,0.66,-0.749,0.003,0.021,0.01,-0.139,0.061,0.01,0.07,-0.721,1.615
2024-09-23 14:54:44.269,173968.735,0.053,0.662,-0.748,0.003,0.034,0.005,-0.167,0.061,0.002,0.071,-0.723,1.615
2024-09-23 14:54:44.279,173968.745,0.053,0.663,-0.747,-0.004,-0.02,-0.006,-0.196,0.064,-0.027,0.071,-0.725,1.615
2024-09-23 14:54:44.289,173968.755,0.054,0.664,-0.745,-0.002,-0.047,-0.007,-0.197,0.049,-0.03,0.072,-0.727,1.615
2024-09-23 14:54:44.299,173968.765,0.054,0.666,-0.744,-0.0,-0.025,-0.014,-0.128,0.021,-0.034,0.072,-0.728,1.615
2024-09-23 14:54:44.309,173968.775,0.053,0.666,-0.744,0.003,0.008,0.002,-0.026,-0.013,-0.035,0.071,-0.729,1.614
2024-09-23 14:54:44.319,173968.785,0.053,0.666,-0.744,0.01,0.051,0.019,0.034,-0.04,-0.036,0.071,-0.729,1.614
2024-09-23 14:54:44.329,173968.795,0.052,0.666,-0.744,0.011,0.053,0.019,0.063,-0.053,-0.028,0.07,-0.728,1.613
2024-09-23 14:54:44.339,173968.805,0.052,0.665,-0.745,0.004,0.038,0.005,0.059,-0.055,-0.019,0.069,-0.728,1.613
2024-09-23 14:54:44.349,173968.815,0.051,0.665,-0.745,-0.004,0.008,-0.004,0.037,-0.059,-0.008,0.069,-0.727,1.613
2024-09-23 14:54:44.359,173968.825,0.051,0.665,-0.745,-0.005,0.006,-0.004,0.04,-0.061,0.001,0.068,-0.727,1.612
2024-09-23 14:54:44.369,173968.835,0.05,0.664,-0.746,-0.004,0.005,-0.004,0.032,-0.061,0.014,0.067,-0.726,1.613
2024-09-23 14:54:44.379,173968.845,0.05,0.664,-0.746,-0.003,0.003,0.009,-0.069,-0.022,-0.004,0.067,-0.727,1.612
2024-09-23 14:54:44.389,173968.855,0.05,0.665,-0.745,-0.007,0.007,-0.013,-0.114,-0.015,0.059,0.067,-0.728,1.613
2024-09-23 14:54:44.399,173968.865,0.05,0.666,-0.744,-0.025,-0.077,-0.011,-0.145,-0.009,0.043,0.067,-0.729,1.614
2024-09-23 14:54:44.410,173968.875,0.051,0.667,-0.743,-0.011,-0.02,-0.001,-0.084,0.007,0.059,0.068,-0.73,1.615
2024-09-23 14:54:44.419,173968.885,0.051,0.668,-0.742,-0.007,0.036,-0.007,-0.155,0.032,0.034,0.069,-0.732,1.615
2024-09-23 14:54:44.429,173968.895,0.052,0.669,-0.741,-0.01,-0.009,0.008,-0.18,0.044,0.04,0.07,-0.733,1.616
2024-09-23 14:54:44.439,173968.905,0.052,0.671,-0.74,-0.012,-0.074,-0.018,-0.182,0.043,0.017,0.07,-0.735,1.617
2024-09-23 14:54:44.449,173968.915,0.053,0.672,-0.739,-0.007,-0.046,-0.003,-0.214,0.029,-0.012,0.071,-0.737,1.617
2024-09-23 14:54:44.459,173968.925,0.053,0.673,-0.738,-0.005,-0.008,0.007,-0.123,-0.012,0.039,0.071,-0.739,1.617
2024-09-23 14:54:44.469,173968.935,0.053,0.674,-0.737,0.004,-0.024,0.009,-0.097,-0.015,-0.009,0.071,-0.739,1.618
2024-09-23 14:54:44.479,173968.945,0.052,0.674,-0.737,0.005,0.018,0.024,0.034,-0.041,0.036,0.071,-0.74,1.618
2024-09-23 14:54:44.489,173968.955,0.052,0.673,-0.737,-0.005,0.009,0.016,0.093,-0.034,-0.012,0.071,-0.739,1.618
2024-09-23 14:54:44.499,173968.965,0.052,0.673,-0.738,0.006,0.012,0.025,0.109,-0.018,0.003,0.07,-0.738,1.618
2024-09-23 14:54:44.509,173968.975,0.052,0.672,-0.739,-0.008,0.05,0.01,0.094,-0.013,0.006,0.07,-0.737,1.618
2024-09-23 14:54:44.519,173968.985,0.052,0.671,-0.74,-0.008,-0.008,-0.0,0.108,-0.026,-0.006,0.07,-0.736,1.617
2024-09-23 14:54:44.529,173968.995,0.051,0.67,-0.74,-0.0,-0.01,0.001,0.107,-0.035,-0.014,0.069,-0.734,1.617
2024-09-23 14:54:44.539,173969.005,0.051,0.669,-0.741,0.003,0.016,0.006,0.113,-0.031,-0.023,0.069,-0.733,1.617
2024-09-23 14:54:44.549,173969.015,0.05,0.669,-0.742,-0.001,0.004,0.002,0.125,-0.033,-0.033,0.068,-0.732,1.616
2024-09-23 14:54:44.559,173969.025,0.05,0.668,-0.743,-0.003,-0.004,0.002,0.131,-0.048,-0.038,0.067,-0.731,1.616
2024-09-23 14:54:44.569,173969.035,0.049,0.667,-0.744,0.001,0.005,-0.002,0.143,-0.051,-0.03,0.066,-0.73,1.615
2024-09-23 14:54:44.579,173969.045,0.049,0.666,-0.745,0.002,0.014,-0.006,0.145,-0.073,-0.02,0.065,-0.729,1.615
2024-09-23 14:54:44.589,173969.055,0.048,0.665,-0.745,-0.003,0.009,0.001,0.097,-0.088,-0.005,0.064,-0.728,1.614
2024-09-23 14:54:44.599,173969.065,0.048,0.665,-0.746,0.0,0.02,0.005,0.013,-0.067,0.012,0.064,-0.727,1.614
2024-09-23 14:54:44.609,173969.075,0.047,0.665,-0.745,-0.011,0.003,-0.016,-0.077,-0.07,0.021,0.063,-0.727,1.615
2024-09-23 14:54:44.618,173969.085,0.047,0.666,-0.745,-0.013,-0.065,-0.008,-0.121,-0.088,0.042,0.063,-0.728,1.615
2024-09-23 14:54:44.629,173969.095,0.046,0.667,-0.744,-0.002,-0.026,-0.011,-0.194,-0.083,0.032,0.062,-0.73,1.616
2024-09-23 14:54:44.639,173969.105,0.046,0.669,-0.742,-0.002,-0.01,-0.009,-0.283,-0.08,0.064,0.062,-0.732,1.617
2024-09-23 14:54:44.649,173969.115,0.046,0.671,-0.74,-0.01,-0.062,-0.014,-0.375,-0.066,0.047,0.062,-0.735,1.618
2024-09-23 14:54:44.659,173969.125,0.046,0.673,-0.738,-0.011,-0.064,-0.016,-0.318,-0.038,0.075,0.063,-0.739,1.619
2024-09-23 14:54:44.669,173969.135,0.046,0.675,-0.736,-0.017,-0.032,-0.01,-0.269,-0.005,0.031,0.063,-0.741,1.62
2024-09-23 14:54:44.679,173969.145,0.047,0.677,-0.735,-0.007,-0.022,0.015,-0.163,0.01,0.036,0.064,-0.744,1.621
2024-09-23 14:54:44.689,173969.154,0.047,0.678,-0.734,-0.009,0.003,0.024,-0.064,0.029,0.029,0.064,-0.745,1.621
2024-09-23 14:54:44.699,173969.164,0.047,0.678,-0.734,-0.006,0.018,0.02,0.025,0.037,0.024,0.065,-0.744,1.621
2024-09-23 14:54:44.709,173969.174,0.048,0.677,-0.734,-0.009,0.026,0.024,0.105,0.034,0.018,0.065,-0.744,1.622
2024-09-23 14:54:44.718,173969.184,0.048,0.676,-0.735,-0.004,0.013,0.025,0.103,0.027,0.031,0.065,-0.742,1.622
2024-09-23 14:54:44.729,173969.194,0.049,0.675,-0.736,-0.001,0.024,0.015,0.142,0.032,0.026,0.066,-0.741,1.622
2024-09-23 14:54:44.739,173969.204,0.049,0.674,-0.737,-0.007,0.032,-0.004,0.138,0.018,0.019,0.066,-0.739,1.622
2024-09-23 14:54:44.749,173969.214,0.049,0.673,-0.738,-0.005,0.004,0.001,0.139,0.014,0.003,0.066,-0.738,1.622
2024-09-23 14:54:44.759,173969.224,0.049,0.672,-0.739,0.004,0.013,-0.005,0.169,0.013,-0.001,0.066,-0.736,1.622
2024-09-23 14:54:44.768,173969.234,0.049,0.67,-0.74,-0.003,-0.0,0.004,0.213,-0.023,-0.02,0.066,-0.735,1.622
2024-09-23 14:54:44.778,173969.244,0.048,0.669,-0.742,0.007,0.01,0.012,0.252,-0.035,-0.031,0.065,-0.732,1.621
2024-09-23 14:54:44.788,173969.254,0.048,0.667,-0.744,0.013,0.053,0.003,0.272,-0.04,-0.038,0.064,-0.73,1.62
2024-09-23 14:54:44.798,173969.264,0.047,0.665,-0.745,0.004,0.02,0.009,0.271,-0.046,-0.049,0.063,-0.727,1.619
2024-09-23 14:54:44.808,173969.274,0.047,0.663,-0.747,0.002,0.002,0.012,0.254,-0.058,-0.048,0.062,-0.725,1.619
2024-09-23 14:54:44.818,173969.284,0.046,0.662,-0.748,0.002,0.001,0.004,0.22,-0.059,-0.052,0.061,-0.723,1.618
2024-09-23 14:54:44.829,173969.294,0.045,0.66,-0.75,-0.001,-0.008,0.003,0.171,-0.062,-0.026,0.06,-0.721,1.617
2024-09-23 14:54:44.838,173969.304,0.044,0.659,-0.751,-0.003,-0.025,0.002,0.11,-0.036,-0.033,0.059,-0.72,1.617
2024-09-23 14:54:44.848,173969.314,0.044,0.659,-0.751,-0.009,-0.007,-0.011,0.038,-0.035,0.005,0.059,-0.719,1.616
2024-09-23 14:54:44.858,173969.324,0.044,0.659,-0.751,-0.023,-0.044,-0.003,0.017,-0.026,0.016,0.059,-0.719,1.616
2024-09-23 14:54:44.868,173969.334,0.044,0.659,-0.751,-0.01,-0.046,-0.01,0.06,-0.035,0.019,0.058,-0.719,1.617
2024-09-23 14:54:44.878,173969.344,0.044,0.658,-0.752,-0.008,0.014,-0.003,0.097,-0.028,0.029,0.058,-0.718,1.617
2024-09-23 14:54:44.888,173969.354,0.044,0.657,-0.752,-0.001,0.024,0.017,0.073,-0.032,0.045,0.058,-0.717,1.617
2024-09-23 14:54:44.898,173969.364,0.044,0.657,-0.752,-0.003,0.003,0.003,0.011,-0.042,0.093,0.059,-0.717,1.618
2024-09-23 14:54:44.909,173969.374,0.045,0.657,-0.752,-0.011,-0.008,-0.01,-0.082,-0.035,0.092,0.059,-0.717,1.62
2024-09-23 14:54:44.918,173969.384,0.045,0.658,-0.751,-0.009,-0.022,-0.016,-0.272,0.004,0.103,0.06,-0.719,1.621
2024-09-23 14:54:44.928,173969.394,0.046,0.661,-0.749,-0.019,-0.039,-0.029,-0.476,0.087,0.088,0.061,-0.722,1.623
2024-09-23 14:54:44.938,173969.404,0.047,0.665,-0.745,-0.033,-0.096,-0.051,-0.632,0.098,0.115,0.064,-0.727,1.624
2024-09-23 14:54:44.948,173969.414,0.049,0.669,-0.741,-0.035,-0.112,-0.052,-0.617,0.134,0.091,0.066,-0.733,1.626
2024-09-23 14:54:44.959,173969.424,0.051,0.674,-0.737,-0.025,-0.06,-0.019,-0.516,0.167,0.088,0.069,-0.739,1.628
2024-09-23 14:54:44.968,173969.434,0.052,0.677,-0.734,-0.018,-0.044,0.02,-0.318,0.135,0.075,0.071,-0.743,1.629
2024-09-23 14:54:44.978,173969.444,0.054,0.678,-0.733,-0.002,-0.006,0.041,-0.094,0.1,0.05,0.073,-0.745,1.63
2024-09-23 14:54:44.988,173969.454,0.054,0.678,-0.733,0.017,0.058,0.053,0.069,0.116,0.023,0.074,-0.745,1.631
2024-09-23 14:54:44.998,173969.464,0.055,0.677,-0.734,0.006,0.062,0.047,0.247,0.084,0.017,0.075,-0.744,1.631
2024-09-23 14:54:45.008,173969.474,0.056,0.675,-0.736,0.001,0.005,0.028,0.227,0.056,-0.05,0.076,-0.741,1.63
2024-09-23 14:54:45.018,173969.484,0.056,0.674,-0.737,0.015,0.031,0.037,0.138,0.048,0.075,0.076,-0.739,1.63
2024-09-23 14:54:45.028,173969.494,0.057,0.673,-0.737,-0.0,-0.002,-0.023,0.002,0.158,0.085,0.078,-0.738,1.631
2024-09-23 14:54:45.038,173969.504,0.06,0.674,-0.737,-0.044,0.037,-0.052,-0.125,0.196,0.171,0.081,-0.739,1.633
2024-09-23 14:54:45.047,173969.514,0.062,0.674,-0.736,-0.069,-0.042,-0.041,-0.085,0.246,0.145,0.084,-0.74,1.635
2024-09-23 14:54:45.057,173969.524,0.065,0.675,-0.735,-0.019,-0.051,-0.039,0.017,0.24,0.149,0.088,-0.74,1.637
2024-09-23 14:54:45.067,173969.534,0.068,0.674,-0.736,-0.02,0.062,-0.026,0.225,0.155,0.186,0.092,-0.739,1.64
2024-09-23 14:54:45.077,173969.544,0.07,0.671,-0.738,0.004,0.11,0.029,0.512,0.048,0.204,0.094,-0.735,1.642
2024-09-23 14:54:45.087,173969.554,0.071,0.666,-0.743,0.036,0.161,0.063,0.791,-0.081,0.258,0.095,-0.729,1.644
2024-09-23 14:54:45.098,173969.564,0.072,0.659,-0.749,0.042,0.176,0.083,0.973,-0.226,0.396,0.096,-0.719,1.647
2024-09-23 14:54:45.108,173969.574,0.073,0.65,-0.756,0.043,0.196,0.066,1.107,-0.363,0.885,0.097,-0.708,1.653
2024-09-23 14:54:45.118,173969.584,0.07,0.647,-0.759,0.031,0.232,0.065,-0.356,-0.809,-0.93,0.092,-0.704,1.657
2024-09-23 14:54:45.128,173969.594,0.07,0.651,-0.756,-0.015,0.216,0.206,-0.629,0.223,0.748,0.093,-0.709,1.657
2024-09-23 14:54:45.138,173969.604,0.075,0.653,-0.754,-0.517,-0.434,0.352,-0.054,-0.293,0.527,0.099,-0.711,1.667
2024-09-23 14:54:45.148,173969.614,0.074,0.652,-0.755,-0.059,0.138,0.102,0.17,-0.356,0.244,0.098,-0.71,1.671
2024-09-23 14:54:45.158,173969.624,0.074,0.65,-0.756,0.306,0.214,0.059,0.253,-0.168,0.297,0.098,-0.708,1.675
2024-09-23 14:54:45.168,173969.634,0.075,0.648,-0.758,0.022,-0.081,0.047,0.278,0.03,0.089,0.098,-0.705,1.677
2024-09-23 14:54:45.177,173969.644,0.076,0.645,-0.76,-0.159,-0.035,-0.059,0.464,0.164,0.018,0.099,-0.701,1.677
2024-09-23 14:54:45.187,173969.654,0.077,0.641,-0.763,-0.117,-0.14,-0.124,0.515,0.319,-0.128,0.101,-0.696,1.675
2024-09-23 14:54:45.197,173969.664,0.079,0.639,-0.765,0.001,-0.181,-0.206,0.039,0.347,-0.151,0.103,-0.693,1.673
2024-09-23 14:54:45.207,173969.674,0.08,0.641,-0.764,0.053,-0.248,-0.237,-0.394,0.28,-0.149,0.105,-0.695,1.671
2024-09-23 14:54:45.218,173969.684,0.081,0.645,-0.76,0.12,-0.305,-0.115,-0.528,0.308,-0.319,0.106,-0.7,1.669
2024-09-23 14:54:45.228,173969.694,0.081,0.649,-0.756,0.104,-0.266,-0.066,-0.56,0.235,-0.355,0.107,-0.706,1.665
2024-09-23 14:54:45.237,173969.704,0.08,0.653,-0.753,0.046,-0.214,-0.054,-0.404,0.056,-0.266,0.106,-0.712,1.662
2024-09-23 14:54:45.247,173969.714,0.079,0.655,-0.751,0.058,-0.033,0.003,-0.102,-0.056,-0.199,0.104,-0.714,1.659
2024-09-23 14:54:45.258,173969.724,0.077,0.655,-0.752,0.028,0.206,0.026,0.174,-0.134,-0.123,0.102,-0.714,1.657
2024-09-23 14:54:45.267,173969.734,0.075,0.653,-0.754,-0.009,0.242,0.031,0.365,-0.192,-0.097,0.099,-0.711,1.655
2024-09-23 14:54:45.277,173969.744,0.073,0.65,-0.756,0.013,0.131,0.05,0.385,-0.196,-0.094,0.096,-0.708,1.654
2024-09-23 14:54:45.287,173969.753,0.071,0.648,-0.759,0.018,0.046,0.026,0.272,-0.155,-0.08,0.093,-0.704,1.652
2024-09-23 14:54:45.297,173969.763,0.07,0.646,-0.76,-0.01,-0.01,-0.017,0.109,-0.101,-0.07,0.091,-0.703,1.651
2024-09-23 14:54:45.307,173969.773,0.069,0.646,-0.76,-0.029,-0.048,-0.035,-0.057,-0.058,-0.062,0.09,-0.702,1.65
2024-09-23 14:54:45.317,173969.783,0.068,0.647,-0.759,-0.031,-0.078,-0.031,-0.16,-0.028,-0.056,0.089,-0.704,1.649
2024-09-23 14:54:45.327,173969.793,0.067,0.648,-0.758,-0.024,-0.089,-0.019,-0.144,-0.03,-0.036,0.089,-0.705,1.649
2024-09-23 14:54:45.338,173969.803,0.067,0.649,-0.758,-0.017,-0.048,0.0,-0.016,-0.028,-0.022,0.088,-0.706,1.649
2024-09-23 14:54:45.348,173969.813,0.067,0.648,-0.758,-0.011,0.033,0.012,0.161,-0.05,-0.002,0.088,-0.705,1.648
2024-09-23 14:54:45.357,173969.823,0.066,0.646,-0.76,-0.005,0.089,0.021,0.34,-0.064,0.016,0.087,-0.703,1.648
2024-09-23 14:54:45.367,173969.833,0.066,0.643,-0.763,-0.001,0.104,0.027,0.491,-0.071,0.021,0.086,-0.699,1.648
2024-09-23 14:54:45.377,173969.843,0.065,0.639,-0.766,0.002,0.087,0.037,0.539,-0.068,0.007,0.085,-0.693,1.648
2024-09-23 14:54:45.387,173969.853,0.065,0.635,-0.77,-0.0,0.057,0.03,0.494,-0.05,-0.023,0.084,-0.688,1.647
2024-09-23 14:54:45.397,173969.863,0.064,0.632,-0.772,-0.009,0.0,0.018,0.256,-0.022,-0.111,0.083,-0.684,1.646
2024-09-23 14:54:45.407,173969.873,0.064,0.631,-0.773,-0.013,-0.052,0.024,0.184,0.047,-0.083,0.082,-0.682,1.644
2024-09-23 14:54:45.418,173969.883,0.063,0.629,-0.775,-0.031,-0.091,0.033,0.202,-0.013,-0.064,0.082,-0.681,1.643
2024-09-23 14:54:45.428,173969.893,0.063,0.628,-0.776,-0.005,-0.04,-0.006,0.149,-0.027,-0.054,0.081,-0.679,1.642
2024-09-23 14:54:45.438,173969.903,0.062,0.627,-0.777,0.031,0.022,-0.01,0.146,0.031,-0.04,0.08,-0.677,1.641
2024-09-23 14:54:45.447,173969.913,0.063,0.626,-0.777,-0.006,0.002,-0.027,0.146,0.061,-0.008,0.08,-0.676,1.641
2024-09-23 14:54:45.458,173969.923,0.063,0.625,-0.778,-0.036,-0.056,0.006,0.195,0.048,-0.004,0.081,-0.674,1.641
2024-09-23 14:54:45.468,173969.933,0.063,0.623,-0.78,-0.006,-0.023,0.016,0.242,0.047,0.001,0.081,-0.672,1.64
2024-09-23 14:54:45.478,173969.943,0.064,0.621,-0.781,-0.003,0.025,0.013,0.214,0.052,-0.005,0.081,-0.67,1.64
2024-09-23 14:54:45.487,173969.953,0.064,0.62,-0.782,-0.012,0.014,0.016,0.134,0.037,0.017,0.082,-0.668,1.64
2024-09-23 14:54:45.497,173969.963,0.064,0.618,-0.783,-0.012,-0.027,-0.004,0.126,0.026,-0.025,0.082,-0.667,1.64
2024-09-23 14:54:45.507,173969.973,0.064,0.618,-0.784,0.004,-0.03,-0.009,0.011,0.038,-0.064,0.082,-0.666,1.639
2024-09-23 14:54:45.517,173969.983,0.064,0.618,-0.783,0.002,-0.026,-0.013,-0.068,-0.007,-0.027,0.082,-0.667,1.639
2024-09-23 14:54:45.527,173969.993,0.064,0.619,-0.783,0.004,-0.073,-0.033,-0.124,-0.022,-0.04,0.081,-0.668,1.638
2024-09-23 14:54:45.537,173970.003,0.063,0.62,-0.782,0.009,-0.017,-0.021,-0.186,-0.024,-0.024,0.081,-0.669,1.638
2024-09-23 14:54:45.547,173970.013,0.063,0.622,-0.781,-0.009,-0.022,-0.02,-0.243,-0.001,-0.013,0.081,-0.671,1.638
2024-09-23 14:54:45.557,173970.023,0.063,0.624,-0.779,-0.014,-0.05,-0.011,-0.221,0.041,-0.028,0.081,-0.673,1.638
2024-09-23 14:54:45.567,173970.033,0.063,0.626,-0.777,-0.016,-0.063,-0.007,-0.29,0.066,-0.036,0.081,-0.676,1.638
2024-09-23 14:54:45.577,173970.043,0.064,0.628,-0.776,-0.02,-0.053,0.001,-0.264,0.062,-0.01,0.082,-0.679,1.638
2024-09-23 14:54:45.587,173970.053,0.064,0.63,-0.774,-0.012,-0.037,0.001,-0.224,0.055,-0.029,0.083,-0.681,1.638
2024-09-23 14:54:45.597,173970.063,0.064,0.631,-0.773,-0.005,0.039,0.007,-0.195,0.055,-0.038,0.083,-0.683,1.638
2024-09-23 14:54:45.607,173970.073,0.064,0.632,-0.772,-0.003,0.046,0.008,-0.169,0.078,-0.044,0.083,-0.685,1.637
2024-09-23 14:54:45.617,173970.083,0.065,0.633,-0.771,-0.008,0.003,-0.011,-0.128,0.089,-0.057,0.084,-0.686,1.637
2024-09-23 14:54:45.626,173970.093,0.065,0.635,-0.77,-0.013,-0.025,0.003,-0.21,0.085,-0.052,0.084,-0.688,1.636
2024-09-23 14:54:45.637,173970.103,0.065,0.636,-0.769,-0.006,-0.025,0.005,-0.203,0.055,-0.037,0.085,-0.69,1.636
2024-09-23 14:54:45.647,173970.113,0.065,0.637,-0.768,0.002,-0.013,-0.013,-0.112,0.027,-0.055,0.085,-0.691,1.635
2024-09-23 14:54:45.657,173970.123,0.065,0.638,-0.767,0.004,0.04,0.005,-0.024,-0.019,-0.055,0.084,-0.692,1.635
2024-09-23 14:54:45.667,173970.133,0.064,0.638,-0.768,0.013,0.05,0.029,0.056,-0.017,-0.055,0.084,-0.691,1.634
2024-09-23 14:54:45.677,173970.143,0.064,0.637,-0.768,0.01,0.046,0.012,0.09,-0.015,-0.05,0.083,-0.691,1.633
2024-09-23 14:54:45.687,173970.153,0.064,0.637,-0.769,-0.007,0.032,0.01,0.08,-0.022,-0.036,0.083,-0.69,1.633
2024-09-23 14:54:45.697,173970.163,0.063,0.636,-0.769,-0.007,0.003,0.001,0.054,-0.019,-0.032,0.082,-0.689,1.632
2024-09-23 14:54:45.707,173970.173,0.063,0.636,-0.769,-0.006,-0.009,-0.009,0.024,-0.031,-0.017,0.081,-0.689,1.632
2024-09-23 14:54:45.717,173970.183,0.063,0.636,-0.77,-0.007,-0.005,-0.002,0.01,-0.034,-0.002,0.081,-0.689,1.631
2024-09-23 14:54:45.727,173970.193,0.062,0.636,-0.77,-0.006,-0.004,0.003,-0.01,-0.021,0.015,0.081,-0.689,1.632
2024-09-23 14:54:45.736,173970.203,0.062,0.636,-0.769,-0.008,-0.004,0.006,-0.074,0.013,0.011,0.081,-0.689,1.632
2024-09-23 14:54:45.746,173970.213,0.063,0.637,-0.768,-0.014,-0.003,-0.01,-0.101,0.027,0.053,0.082,-0.69,1.632
2024-09-23 14:54:45.757,173970.223,0.063,0.638,-0.768,-0.024,-0.049,-0.011,-0.136,0.044,0.06,0.083,-0.692,1.633
2024-09-23 14:54:45.766,173970.233,0.064,0.639,-0.767,-0.015,-0.025,-0.006,-0.12,0.067,0.086,0.084,-0.693,1.634
2024-09-23 14:54:45.776,173970.243,0.066,0.639,-0.766,-0.02,0.025,-0.012,-0.046,0.083,0.112,0.085,-0.694,1.636
2024-09-23 14:54:45.786,173970.253,0.067,0.639,-0.766,-0.018,0.009,0.005,-0.02,0.085,0.113,0.087,-0.694,1.637
2024-09-23 14:54:45.797,173970.263,0.068,0.639,-0.766,-0.011,0.024,0.015,0.054,0.073,0.124,0.089,-0.693,1.638
2024-09-23 14:54:45.806,173970.273,0.069,0.638,-0.767,-0.013,0.033,0.01,0.103,0.037,0.095,0.09,-0.692,1.64
2024-09-23 14:54:45.816,173970.283,0.07,0.637,-0.767,-0.003,0.011,0.023,0.136,0.017,0.058,0.091,-0.691,1.641
2024-09-23 14:54:45.826,173970.293,0.07,0.637,-0.768,0.011,-0.012,0.019,0.052,0.005,0.024,0.091,-0.69,1.641
2024-09-23 14:54:45.836,173970.303,0.07,0.636,-0.768,0.013,-0.064,0.009,0.054,0.005,0.004,0.091,-0.69,1.641
2024-09-23 14:54:45.846,173970.313,0.07,0.636,-0.768,0.002,-0.05,-0.009,-0.072,0.003,-0.034,0.09,-0.689,1.641
2024-09-23 14:54:45.857,173970.323,0.069,0.637,-0.768,-0.002,-0.042,0.004,-0.177,-0.02,0.007,0.09,-0.691,1.64
2024-09-23 14:54:45.866,173970.333,0.069,0.638,-0.767,0.001,-0.056,-0.012,-0.047,-0.026,0.023,0.09,-0.692,1.641
2024-09-23 14:54:45.876,173970.343,0.069,0.639,-0.766,-0.006,-0.013,-0.002,-0.056,-0.059,-0.002,0.09,-0.693,1.641
2024-09-23 14:54:45.886,173970.353,0.069,0.639,-0.766,-0.003,0.062,0.028,-0.011,-0.06,0.022,0.089,-0.693,1.641
2024-09-23 14:54:45.896,173970.362,0.068,0.639,-0.766,0.006,-0.011,0.006,-0.042,-0.031,-0.003,0.089,-0.693,1.641
2024-09-23 14:54:45.906,173970.372,0.068,0.64,-0.766,-0.009,-0.05,0.006,-0.166,-0.006,0.001,0.089,-0.694,1.641
2024-09-23 14:54:45.916,173970.382,0.068,0.641,-0.764,-0.018,-0.025,0.002,-0.212,0.017,0.004,0.089,-0.696,1.642
2024-09-23 14:54:45.926,173970.392,0.069,0.643,-0.763,-0.009,-0.045,-0.015,-0.223,0.045,-0.001,0.09,-0.698,1.642
2024-09-23 14:54:45.936,173970.402,0.069,0.644,-0.762,-0.019,0.009,-0.016,-0.167,0.034,0.01,0.09,-0.7,1.642
2024-09-23 14:54:45.946,173970.412,0.069,0.645,-0.761,-0.016,-0.012,-0.011,-0.035,-0.006,-0.01,0.09,-0.701,1.642
2024-09-23 14:54:45.956,173970.422,0.069,0.645,-0.761,0.004,0.041,0.005,0.065,-0.031,-0.015,0.09,-0.701,1.642
2024-09-23 14:54:45.966,173970.432,0.068,0.644,-0.762,0.005,0.088,0.017,0.131,-0.037,-0.025,0.09,-0.7,1.642
2024-09-23 14:54:45.977,173970.442,0.068,0.643,-0.763,0.004,0.041,0.015,0.158,-0.043,-0.035,0.089,-0.698,1.641
2024-09-23 14:54:45.986,173970.452,0.067,0.642,-0.764,0.0,0.023,0.006,0.17,-0.052,-0.026,0.088,-0.697,1.641
2024-09-23 14:54:45.996,173970.462,0.067,0.64,-0.765,-0.001,0.012,0.005,0.184,-0.062,-0.018,0.087,-0.695,1.64
2024-09-23 14:54:46.006,173970.472,0.066,0.639,-0.767,-0.001,0.021,0.005,0.199,-0.069,-0.011,0.086,-0.693,1.64
2024-09-23 14:54:46.016,173970.482,0.066,0.637,-0.768,-0.005,0.022,0.004,0.161,-0.055,-0.006,0.085,-0.691,1.639
2024-09-23 14:54:46.026,173970.492,0.065,0.637,-0.768,-0.002,0.009,0.011,0.068,0.007,-0.018,0.085,-0.69,1.639
2024-09-23 14:54:46.036,173970.502,0.065,0.636,-0.769,-0.016,-0.012,-0.026,0.027,0.0,0.006,0.085,-0.69,1.639
2024-09-23 14:54:46.046,173970.512,0.065,0.636,-0.769,-0.022,-0.103,0.002,-0.02,-0.001,0.0,0.085,-0.69,1.639
2024-09-23 14:54:46.057,173970.522,0.065,0.637,-0.768,-0.001,-0.035,-0.001,-0.008,-0.031,0.032,0.085,-0.69,1.639
2024-09-23 14:54:46.066,173970.532,0.065,0.636,-0.769,-0.011,-0.002,-0.003,0.045,-0.051,0.05,0.085,-0.69,1.64
2024-09-23 14:54:46.076,173970.542,0.065,0.636,-0.769,-0.007,-0.005,0.023,0.093,-0.054,0.068,0.084,-0.689,1.64
2024-09-23 14:54:46.086,173970.552,0.065,0.635,-0.77,-0.007,0.011,0.018,0.145,-0.049,0.112,0.085,-0.688,1.641
2024-09-23 14:54:46.096,173970.562,0.066,0.634,-0.771,-0.014,0.0,0.008,0.178,-0.034,0.146,0.085,-0.686,1.643
2024-09-23 14:54:46.107,173970.572,0.067,0.632,-0.772,-0.017,0.033,0.018,0.167,0.023,0.183,0.086,-0.684,1.645
2024-09-23 14:54:46.116,173970.582,0.068,0.631,-0.773,-0.026,0.066,-0.014,0.127,0.075,0.197,0.088,-0.683,1.647
2024-09-23 14:54:46.127,173970.592,0.07,0.63,-0.774,-0.038,0.013,-0.011,0.07,0.12,0.156,0.091,-0.681,1.649
2024-09-23 14:54:46.136,173970.602,0.071,0.631,-0.773,-0.041,-0.039,0.001,-0.362,0.216,-0.112,0.092,-0.683,1.649
2024-09-23 14:54:46.145,173970.612,0.073,0.634,-0.77,-0.078,-0.073,0.008,-0.414,0.322,0.086,0.095,-0.687,1.65
2024-09-23 14:54:46.156,173970.622,0.076,0.637,-0.767,-0.126,-0.16,-0.028,-0.369,0.286,-0.066,0.098,-0.69,1.65
2024-09-23 14:54:46.166,173970.632,0.077,0.64,-0.765,-0.02,-0.027,-0.035,-0.429,0.184,-0.014,0.101,-0.694,1.65
2024-09-23 14:54:46.176,173970.642,0.079,0.643,-0.762,0.008,-0.016,0.082,-0.281,0.184,-0.063,0.103,-0.698,1.65
2024-09-23 14:54:46.186,173970.652,0.079,0.644,-0.761,-0.038,0.029,0.028,-0.104,0.135,-0.02,0.104,-0.7,1.65
2024-09-23 14:54:46.196,173970.662,0.08,0.644,-0.761,-0.073,0.111,0.045,0.105,0.122,-0.036,0.105,-0.7,1.649
2024-09-23 14:54:46.206,173970.672,0.08,0.643,-0.762,-0.033,0.176,0.058,0.224,0.069,-0.044,0.105,-0.698,1.648
2024-09-23 14:54:46.216,173970.682,0.081,0.641,-0.763,0.024,0.05,0.011,0.281,0.072,-0.073,0.105,-0.696,1.647
2024-09-23 14:54:46.226,173970.692,0.081,0.639,-0.765,0.036,0.037,0.022,0.274,0.064,-0.087,0.105,-0.693,1.646
2024-09-23 14:54:46.236,173970.702,0.08,0.637,-0.766,0.027,0.002,0.015,0.191,0.056,-0.111,0.105,-0.691,1.644
2024-09-23 14:54:46.246,173970.712,0.08,0.636,-0.767,0.056,-0.052,-0.005,0.072,0.071,-0.146,0.104,-0.69,1.643
2024-09-23 14:54:46.256,173970.722,0.08,0.636,-0.767,0.077,-0.1,-0.03,-0.02,0.076,-0.167,0.104,-0.69,1.64
2024-09-23 14:54:46.266,173970.732,0.079,0.637,-0.767,0.073,-0.133,-0.039,-0.096,0.063,-0.18,0.103,-0.691,1.638
2024-09-23 14:54:46.276,173970.742,0.078,0.638,-0.766,0.056,-0.093,-0.037,-0.101,0.048,-0.171,0.102,-0.692,1.636
2024-09-23 14:54:46.286,173970.752,0.078,0.639,-0.766,0.033,-0.053,-0.027,-0.025,0.028,-0.143,0.101,-0.693,1.634
2024-09-23 14:54:46.296,173970.762,0.077,0.638,-0.766,0.005,0.008,0.0,0.067,0.001,-0.102,0.1,-0.692,1.633
2024-09-23 14:54:46.305,173970.772,0.077,0.638,-0.766,-0.013,0.081,0.011,0.129,-0.013,-0.072,0.1,-0.692,1.631
2024-09-23 14:54:46.315,173970.782,0.076,0.637,-0.767,-0.011,0.062,0.014,0.147,-0.015,-0.055,0.099,-0.69,1.63
2024-09-23 14:54:46.326,173970.792,0.076,0.636,-0.768,-0.01,0.022,0.012,0.111,-0.019,-0.051,0.098,-0.689,1.63
2024-09-23 14:54:46.335,173970.802,0.075,0.635,-0.769,-0.007,-0.007,0.004,0.029,-0.017,-0.057,0.097,-0.688,1.629
2024-09-23 14:54:46.346,173970.812,0.075,0.635,-0.769,-0.005,-0.027,-0.006,-0.038,-0.016,-0.067,0.097,-0.688,1.628
2024-09-23 14:54:46.356,173970.822,0.074,0.636,-0.768,-0.003,-0.055,-0.013,-0.078,-0.014,-0.065,0.096,-0.689,1.627
2024-09-23 14:54:46.366,173970.832,0.074,0.636,-0.768,0.0,-0.041,-0.018,-0.064,-0.014,-0.057,0.096,-0.69,1.627
2024-09-23 14:54:46.375,173970.842,0.073,0.637,-0.768,-0.006,-0.01,-0.01,-0.015,-0.026,-0.049,0.095,-0.69,1.626
2024-09-23 14:54:46.385,173970.852,0.073,0.637,-0.768,-0.006,0.015,0.007,0.061,-0.041,-0.042,0.094,-0.69,1.626
2024-09-23 14:54:46.395,173970.862,0.072,0.636,-0.768,-0.004,0.027,0.016,0.131,-0.048,-0.037,0.094,-0.689,1.625
2024-09-23 14:54:46.405,173970.872,0.071,0.635,-0.769,-0.004,0.04,0.016,0.168,-0.056,-0.025,0.093,-0.688,1.624
2024-09-23 14:54:46.415,173970.882,0.071,0.634,-0.77,-0.007,0.031,0.01,0.172,-0.058,-0.016,0.092,-0.686,1.624
2024-09-23 14:54:46.426,173970.892,0.07,0.632,-0.772,-0.006,0.017,0.009,0.162,-0.056,-0.012,0.091,-0.684,1.623
2024-09-23 14:54:46.436,173970.902,0.07,0.631,-0.773,-0.006,0.001,0.006,0.132,-0.059,-0.003,0.09,-0.683,1.623
2024-09-23 14:54:46.445,173970.912,0.07,0.63,-0.773,-0.005,-0.006,0.009,0.099,-0.042,0.0,0.09,-0.682,1.623
2024-09-23 14:54:46.456,173970.922,0.069,0.629,-0.774,-0.003,0.004,0.006,0.101,-0.025,0.015,0.089,-0.681,1.623
2024-09-23 14:54:46.465,173970.932,0.069,0.629,-0.775,-0.012,-0.013,0.0,0.12,-0.014,0.006,0.089,-0.68,1.623
2024-09-23 14:54:46.476,173970.942,0.069,0.628,-0.775,-0.009,-0.022,0.012,0.14,0.001,0.003,0.089,-0.679,1.623
2024-09-23 14:54:46.486,173970.952,0.069,0.627,-0.776,-0.008,0.003,0.008,0.152,0.011,0.004,0.089,-0.677,1.623
2024-09-23 14:54:46.496,173970.961,0.069,0.626,-0.777,-0.011,-0.002,0.013,0.131,0.016,0.004,0.089,-0.676,1.623
2024-09-23 14:54:46.505,173970.971,0.07,0.625,-0.778,-0.007,-0.005,0.008,0.141,0.021,0.018,0.089,-0.675,1.623
2024-09-23 14:54:46.516,173970.981,0.07,0.624,-0.779,-0.006,0.003,0.0,0.21,0.035,-0.003,0.089,-0.673,1.623
2024-09-23 14:54:46.525,173970.991,0.07,0.622,-0.78,-0.009,0.027,0.011,0.241,0.031,-0.015,0.089,-0.671,1.622
2024-09-23 14:54:46.535,173971.001,0.07,0.62,-0.781,-0.006,0.011,0.016,0.251,0.014,-0.022,0.089,-0.669,1.622
2024-09-23 14:54:46.545,173971.011,0.07,0.618,-0.783,-0.0,0.005,0.008,0.332,0.001,-0.039,0.089,-0.666,1.621
2024-09-23 14:54:46.555,173971.021,0.069,0.616,-0.784,-0.001,0.024,0.015,0.048,-0.112,-0.082,0.088,-0.664,1.62
2024-09-23 14:54:46.565,173971.031,0.068,0.616,-0.785,0.005,0.012,0.031,0.142,0.04,-0.103,0.087,-0.663,1.619
2024-09-23 14:54:46.575,173971.041,0.068,0.614,-0.786,-0.036,-0.064,0.046,0.218,0.004,-0.021,0.087,-0.662,1.618
2024-09-23 14:54:46.585,173971.051,0.068,0.613,-0.787,-0.049,0.038,-0.022,0.164,-0.026,-0.048,0.086,-0.66,1.617
2024-09-23 14:54:46.595,173971.061,0.067,0.612,-0.788,0.034,0.015,-0.013,0.069,-0.0,-0.048,0.085,-0.659,1.616
2024-09-23 14:54:46.605,173971.071,0.067,0.612,-0.788,0.007,-0.051,-0.008,0.021,0.016,-0.035,0.085,-0.659,1.616
2024-09-23 14:54:46.615,173971.081,0.067,0.612,-0.788,-0.026,-0.045,-0.017,-0.034,0.009,-0.044,0.085,-0.659,1.615
2024-09-23 14:54:46.626,173971.091,0.067,0.613,-0.787,-0.007,-0.038,-0.009,-0.079,0.009,-0.029,0.085,-0.66,1.615
2024-09-23 14:54:46.635,173971.101,0.067,0.614,-0.787,0.003,-0.033,-0.013,-0.089,0.024,-0.026,0.085,-0.661,1.615
2024-09-23 14:54:46.645,173971.111,0.067,0.614,-0.786,-0.005,-0.037,-0.017,-0.121,0.03,-0.014,0.085,-0.662,1.614
2024-09-23 14:54:46.655,173971.121,0.067,0.615,-0.785,-0.008,-0.036,-0.009,-0.142,0.035,0.012,0.085,-0.663,1.614
2024-09-23 14:54:46.665,173971.131,0.067,0.617,-0.784,-0.009,-0.027,-0.011,-0.106,0.043,0.016,0.086,-0.664,1.615
2024-09-23 14:54:46.675,173971.141,0.068,0.617,-0.784,-0.01,-0.015,-0.001,-0.065,0.017,0.014,0.086,-0.665,1.615
2024-09-23 14:54:46.685,173971.151,0.068,0.617,-0.784,-0.002,0.011,0.015,-0.035,0.01,0.017,0.087,-0.665,1.615
2024-09-23 14:54:46.695,173971.161,0.068,0.618,-0.783,0.002,0.029,0.007,-0.067,-0.005,0.024,0.087,-0.666,1.616
2024-09-23 14:54:46.705,173971.171,0.068,0.618,-0.783,0.001,0.006,0.002,-0.12,-0.007,0.015,0.087,-0.667,1.616
2024-09-23 14:54:46.715,173971.181,0.068,0.619,-0.782,0.001,-0.02,-0.002,-0.194,-0.007,0.023,0.087,-0.668,1.616
2024-09-23 14:54:46.725,173971.191,0.068,0.621,-0.781,0.001,-0.038,-0.008,-0.253,-0.02,0.029,0.087,-0.67,1.617
2024-09-23 14:54:46.735,173971.201,0.068,0.623,-0.779,-0.001,-0.035,-0.014,-0.241,-0.051,0.04,0.087,-0.672,1.617
2024-09-23 14:54:46.746,173971.211,0.068,0.625,-0.778,0.005,-0.028,-0.012,-0.302,-0.065,0.057,0.087,-0.675,1.618
2024-09-23 14:54:46.755,173971.221,0.068,0.627,-0.776,-0.001,-0.001,0.0,-0.262,-0.032,0.064,0.087,-0.678,1.619
2024-09-23 14:54:46.765,173971.231,0.068,0.629,-0.775,-0.015,-0.03,-0.007,-0.268,0.004,0.036,0.088,-0.68,1.62
2024-09-23 14:54:46.775,173971.241,0.068,0.631,-0.773,-0.013,-0.019,-0.002,-0.31,0.031,0.038,0.088,-0.683,1.621
2024-09-23 14:54:46.785,173971.251,0.069,0.634,-0.771,-0.01,-0.043,-0.012,-0.361,0.068,0.045,0.089,-0.686,1.622
2024-09-23 14:54:46.795,173971.261,0.07,0.636,-0.768,-0.016,-0.058,-0.016,-0.352,0.073,0.037,0.091,-0.689,1.623
2024-09-23 14:54:46.805,173971.271,0.071,0.638,-0.767,-0.016,-0.032,-0.011,-0.263,0.07,0.028,0.092,-0.692,1.624
2024-09-23 14:54:46.815,173971.281,0.071,0.64,-0.765,-0.007,0.005,0.006,-0.205,0.058,0.014,0.093,-0.694,1.624
2024-09-23 14:54:46.825,173971.291,0.072,0.641,-0.764,-0.005,0.035,0.021,-0.127,0.042,0.018,0.093,-0.695,1.625
2024-09-23 14:54:46.835,173971.301,0.072,0.641,-0.764,-0.002,0.028,0.008,-0.076,0.044,0.015,0.094,-0.696,1.625
2024-09-23 14:54:46.845,173971.311,0.072,0.642,-0.763,-0.007,0.039,0.006,-0.071,0.05,0.008,0.095,-0.697,1.625
2024-09-23 14:54:46.855,173971.321,0.073,0.642,-0.763,-0.012,0.001,0.015,-0.066,0.046,-0.013,0.095,-0.697,1.625
2024-09-23 14:54:46.865,173971.331,0.073,0.643,-0.763,-0.004,-0.019,-0.002,-0.068,0.029,-0.041,0.095,-0.698,1.625
2024-09-23 14:54:46.875,173971.341,0.073,0.643,-0.762,0.003,0.01,0.005,-0.068,0.029,-0.055,0.095,-0.699,1.624
2024-09-23 14:54:46.885,173971.351,0.072,0.644,-0.762,0.005,-0.001,0.001,-0.084,0.003,-0.044,0.095,-0.699,1.624
2024-09-23 14:54:46.895,173971.361,0.072,0.644,-0.762,0.002,-0.012,-0.006,-0.011,-0.023,-0.027,0.094,-0.7,1.623
2024-09-23 14:54:46.904,173971.371,0.072,0.644,-0.762,0.004,0.025,0.007,0.06,-0.04,-0.027,0.094,-0.7,1.623
2024-09-23 14:54:46.915,173971.381,0.071,0.643,-0.762,0.002,0.059,0.015,0.106,-0.052,-0.031,0.093,-0.699,1.622
2024-09-23 14:54:46.924,173971.391,0.07,0.643,-0.763,0.0,0.035,0.018,0.12,-0.068,-0.02,0.092,-0.698,1.622
2024-09-23 14:54:46.935,173971.401,0.07,0.642,-0.764,0.002,0.015,0.007,0.103,-0.059,-0.024,0.091,-0.697,1.621
2024-09-23 14:54:46.944,173971.411,0.069,0.641,-0.764,-0.001,0.018,0.005,0.026,-0.047,-0.016,0.09,-0.696,1.621
2024-09-23 14:54:46.955,173971.421,0.069,0.641,-0.764,-0.006,-0.012,-0.002,-0.047,-0.032,-0.011,0.09,-0.696,1.621
2024-09-23 14:54:46.965,173971.431,0.069,0.642,-0.763,-0.005,-0.037,-0.003,-0.211,0.005,0.01,0.09,-0.698,1.621
2024-09-23 14:54:46.975,173971.441,0.069,0.644,-0.762,-0.016,-0.017,-0.02,-0.264,0.035,0.043,0.091,-0.7,1.622
2024-09-23 14:54:46.984,173971.451,0.07,0.646,-0.76,-0.023,-0.106,-0.015,-0.312,0.055,0.023,0.092,-0.703,1.623
2024-09-23 14:54:46.994,173971.461,0.07,0.648,-0.758,-0.015,-0.023,-0.008,-0.261,0.061,0.036,0.093,-0.706,1.623
2024-09-23 14:54:47.005,173971.471,0.071,0.65,-0.756,-0.006,0.011,-0.008,-0.21,0.062,0.039,0.094,-0.708,1.624
2024-09-23 14:54:47.014,173971.481,0.072,0.651,-0.755,-0.007,-0.025,0.006,-0.035,0.045,0.02,0.095,-0.709,1.625
2024-09-23 14:54:47.024,173971.491,0.072,0.652,-0.755,-0.006,0.025,0.022,-0.163,0.027,-0.013,0.095,-0.71,1.625
2024-09-23 14:54:47.034,173971.501,0.072,0.653,-0.754,-0.002,0.019,0.028,-0.04,0.017,0.036,0.095,-0.711,1.625
2024-09-23 14:54:47.044,173971.511,0.072,0.652,-0.754,-0.001,-0.051,-0.016,0.04,0.006,0.009,0.096,-0.711,1.625
2024-09-23 14:54:47.055,173971.521,0.072,0.652,-0.754,-0.011,0.025,0.02,-0.022,0.002,0.023,0.096,-0.711,1.625
2024-09-23 14:54:47.065,173971.531,0.073,0.653,-0.754,-0.007,0.02,0.016,-0.056,0.028,0.032,0.096,-0.711,1.626
2024-09-23 14:54:47.075,173971.541,0.073,0.653,-0.754,-0.006,-0.07,-0.014,-0.078,0.017,0.011,0.097,-0.712,1.626
2024-09-23 14:54:47.084,173971.551,0.073,0.654,-0.753,-0.016,-0.011,0.001,-0.032,0.001,0.002,0.097,-0.712,1.626
2024-09-23 14:54:47.095,173971.56,0.073,0.654,-0.753,0.004,0.011,0.008,-0.022,-0.004,-0.011,0.097,-0.712,1.626
2024-09-23 14:54:47.104,173971.57,0.073,0.654,-0.753,0.004,-0.003,0.01,-0.02,-0.012,-0.004,0.097,-0.713,1.626
2024-09-23 14:54:47.114,173971.58,0.073,0.654,-0.753,-0.004,0.015,0.011,0.03,-0.028,-0.001,0.096,-0.713,1.626
2024-09-23 14:54:47.124,173971.59,0.073,0.653,-0.753,-0.005,0.006,0.011,0.064,-0.034,0.001,0.096,-0.712,1.626
2024-09-23 14:54:47.136,173971.6,0.072,0.653,-0.754,-0.004,0.026,0.017,0.104,-0.04,0.007,0.096,-0.711,1.626
2024-09-23 14:54:47.144,173971.61,0.072,0.652,-0.755,-0.005,0.027,0.008,0.12,-0.054,-0.011,0.095,-0.71,1.626
2024-09-23 14:54:47.154,173971.62,0.071,0.651,-0.756,0.002,0.014,0.005,0.126,-0.058,-0.027,0.094,-0.709,1.625
2024-09-23 14:54:47.164,173971.63,0.071,0.65,-0.757,0.004,0.012,0.001,0.125,-0.062,-0.027,0.093,-0.708,1.625
2024-09-23 14:54:47.174,173971.64,0.07,0.649,-0.757,0.002,-0.001,-0.004,0.13,-0.071,-0.026,0.092,-0.707,1.624
2024-09-23 14:54:47.184,173971.65,0.069,0.648,-0.758,-0.001,0.009,-0.0,0.13,-0.087,-0.018,0.091,-0.705,1.624
2024-09-23 14:54:47.195,173971.66,0.068,0.647,-0.759,-0.001,0.015,0.009,0.1,-0.107,-0.01,0.09,-0.704,1.624
2024-09-23 14:54:47.204,173971.67,0.068,0.647,-0.759,0.001,0.008,0.01,-0.009,-0.084,-0.017,0.089,-0.704,1.623
2024-09-23 14:54:47.214,173971.68,0.067,0.648,-0.759,-0.001,0.001,-0.009,-0.09,-0.081,0.004,0.088,-0.705,1.623
2024-09-23 14:54:47.224,173971.69,0.066,0.649,-0.758,-0.01,-0.076,-0.014,-0.158,-0.075,0.002,0.087,-0.706,1.624
2024-09-23 14:54:47.235,173971.7,0.066,0.65,-0.757,-0.002,-0.058,-0.012,-0.22,-0.069,0.01,0.087,-0.708,1.624
2024-09-23 14:54:47.244,173971.71,0.066,0.652,-0.755,-0.009,-0.012,-0.021,-0.272,-0.056,0.021,0.087,-0.71,1.624
2024-09-23 14:54:47.255,173971.72,0.065,0.654,-0.753,-0.009,-0.057,-0.012,-0.376,-0.036,0.037,0.087,-0.713,1.625
2024-09-23 14:54:47.265,173971.73,0.066,0.657,-0.751,-0.015,-0.044,-0.008,-0.313,-0.02,0.068,0.087,-0.717,1.626
2024-09-23 14:54:47.274,173971.74,0.066,0.659,-0.749,-0.022,-0.039,-0.011,-0.177,-0.02,0.052,0.088,-0.719,1.627
2024-09-23 14:54:47.284,173971.75,0.066,0.66,-0.749,-0.01,0.003,0.019,-0.063,-0.006,0.046,0.088,-0.72,1.628
2024-09-23 14:54:47.294,173971.76,0.066,0.66,-0.748,-0.004,0.056,0.035,-0.011,0.027,0.05,0.089,-0.721,1.629
2024-09-23 14:54:47.304,173971.77,0.067,0.66,-0.749,-0.015,0.032,0.018,0.055,0.03,0.041,0.089,-0.72,1.629
2024-09-23 14:54:47.314,173971.78,0.067,0.659,-0.749,-0.013,0.013,0.014,0.051,0.027,0.03,0.09,-0.719,1.63
2024-09-23 14:54:47.324,173971.79,0.068,0.659,-0.749,-0.001,0.02,0.012,0.029,0.038,0.029,0.09,-0.719,1.63
2024-09-23 14:54:47.334,173971.8,0.068,0.658,-0.75,-0.006,0.008,0.002,-0.011,0.054,0.022,0.091,-0.719,1.63
2024-09-23 14:54:47.344,173971.81,0.069,0.659,-0.749,-0.012,-0.019,-0.002,-0.033,0.053,0.009,0.092,-0.719,1.631
2024-09-23 14:54:47.354,173971.82,0.069,0.659,-0.749,-0.007,-0.027,-0.003,0.033,0.035,0.009,0.092,-0.719,1.631
2024-09-23 14:54:47.364,173971.83,0.069,0.658,-0.75,-0.0,-0.008,0.003,0.115,0.006,-0.001,0.092,-0.718,1.631
2024-09-23 14:54:47.374,173971.84,0.069,0.657,-0.751,0.001,0.049,0.016,0.186,-0.012,-0.01,0.092,-0.717,1.63
2024-09-23 14:54:47.385,173971.85,0.069,0.655,-0.752,0.002,0.06,0.017,0.235,-0.03,-0.028,0.091,-0.715,1.63
2024-09-23 14:54:47.394,173971.86,0.068,0.654,-0.754,0.005,0.032,0.009,0.271,-0.037,-0.037,0.091,-0.712,1.629
2024-09-23 14:54:47.404,173971.87,0.068,0.651,-0.756,0.003,0.028,0.012,0.289,-0.042,-0.053,0.09,-0.71,1.628
2024-09-23 14:54:47.414,173971.88,0.067,0.649,-0.757,0.001,0.012,0.013,0.252,-0.046,-0.069,0.088,-0.707,1.627
2024-09-23 14:54:47.424,173971.89,0.066,0.648,-0.759,0.002,-0.002,0.007,0.189,-0.044,-0.062,0.087,-0.705,1.626
2024-09-23 14:54:47.434,173971.9,0.066,0.647,-0.76,-0.002,-0.029,-0.005,0.154,-0.055,-0.058,0.086,-0.703,1.625
2024-09-23 14:54:47.444,173971.91,0.065,0.646,-0.761,-0.004,-0.035,-0.005,0.13,-0.063,-0.035,0.085,-0.702,1.624
2024-09-23 14:54:47.454,173971.92,0.064,0.645,-0.762,-0.005,0.0,0.006,0.125,-0.06,-0.015,0.084,-0.701,1.624
2024-09-23 14:54:47.464,173971.93,0.064,0.644,-0.762,-0.005,0.007,0.005,0.016,-0.049,0.001,0.084,-0.7,1.624
2024-09-23 14:54:47.474,173971.94,0.064,0.645,-0.762,-0.012,-0.003,-0.005,-0.036,-0.034,0.027,0.083,-0.701,1.624
2024-09-23 14:54:47.483,173971.95,0.064,0.645,-0.762,-0.012,-0.077,-0.006,0.027,-0.059,0.04,0.083,-0.701,1.624
2024-09-23 14:54:47.494,173971.96,0.063,0.644,-0.762,-0.006,-0.001,-0.009,0.037,-0.07,0.039,0.083,-0.7,1.625
2024-09-23 14:54:47.504,173971.97,0.063,0.645,-0.762,0.003,0.057,0.02,-0.054,-0.068,0.055,0.083,-0.7,1.625
2024-09-23 14:54:47.515,173971.98,0.063,0.645,-0.761,0.0,-0.027,-0.004,-0.175,-0.066,0.074,0.083,-0.702,1.626
2024-09-23 14:54:47.523,173971.99,0.063,0.647,-0.76,-0.009,-0.057,-0.019,-0.293,-0.018,0.043,0.083,-0.704,1.627
2024-09-23 14:54:47.533,173972.0,0.063,0.65,-0.757,-0.013,-0.046,-0.016,-0.446,0.04,0.042,0.084,-0.707,1.628
2024-09-23 14:54:47.543,173972.01,0.064,0.653,-0.754,-0.018,-0.076,-0.031,-0.496,0.084,0.044,0.085,-0.712,1.63
2024-09-23 14:54:47.553,173972.02,0.065,0.657,-0.751,-0.019,-0.101,-0.038,-0.529,0.117,0.024,0.087,-0.717,1.631
2024-09-23 14:54:47.564,173972.03,0.066,0.661,-0.747,-0.02,-0.025,-0.011,-0.484,0.127,0.039,0.088,-0.723,1.632
2024-09-23 14:54:47.574,173972.04,0.067,0.665,-0.744,-0.013,-0.034,-0.002,-0.376,0.142,0.037,0.09,-0.727,1.633
2024-09-23 14:54:47.584,173972.05,0.069,0.667,-0.742,-0.011,-0.001,0.012,-0.275,0.14,0.023,0.092,-0.73,1.633
2024-09-23 14:54:47.594,173972.06,0.07,0.669,-0.74,-0.013,0.038,0.043,-0.204,0.128,0.014,0.094,-0.733,1.634
2024-09-23 14:54:47.604,173972.07,0.071,0.669,-0.739,-0.006,-0.016,0.028,-0.007,0.121,0.009,0.095,-0.734,1.634
2024-09-23 14:54:47.614,173972.08,0.072,0.669,-0.74,-0.009,0.013,0.019,0.097,0.103,0.0,0.096,-0.733,1.634
2024-09-23 14:54:47.624,173972.09,0.072,0.668,-0.74,-0.014,0.07,0.043,0.053,0.097,0.039,0.097,-0.732,1.634
2024-09-23 14:54:47.634,173972.1,0.074,0.668,-0.74,-0.013,0.03,0.023,-0.034,0.093,0.08,0.099,-0.732,1.635
2024-09-23 14:54:47.644,173972.11,0.075,0.669,-0.739,-0.024,0.005,-0.017,-0.228,0.106,0.055,0.101,-0.733,1.636
2024-09-23 14:54:47.654,173972.12,0.076,0.672,-0.737,-0.018,0.034,-0.026,-0.463,0.148,0.054,0.103,-0.736,1.637
2024-09-23 14:54:47.664,173972.13,0.077,0.676,-0.733,-0.013,-0.07,-0.051,-0.663,0.161,0.041,0.105,-0.742,1.639
2024-09-23 14:54:47.673,173972.14,0.079,0.681,-0.728,-0.015,-0.142,-0.053,-0.787,0.168,0.022,0.108,-0.749,1.64
2024-09-23 14:54:47.684,173972.15,0.08,0.687,-0.722,-0.016,-0.049,-0.049,-0.901,0.18,-0.022,0.111,-0.758,1.642
2024-09-23 14:54:47.693,173972.16,0.081,0.694,-0.715,-0.008,-0.065,-0.047,-0.994,0.211,-0.106,0.113,-0.767,1.642
2024-09-23 14:54:47.703,173972.169,0.082,0.701,-0.708,-0.008,-0.115,-0.042,-1.063,0.238,-0.055,0.115,-0.777,1.643
2024-09-23 14:54:47.713,173972.179,0.083,0.709,-0.7,-0.019,-0.103,-0.032,-1.082,0.254,-0.094,0.118,-0.788,1.643
2024-09-23 14:54:47.723,173972.189,0.084,0.717,-0.692,-0.009,-0.01,-0.013,-1.11,0.253,-0.138,0.121,-0.799,1.644
2024-09-23 14:54:47.734,173972.199,0.085,0.725,-0.684,-0.006,-0.012,-0.004,-1.123,0.258,-0.173,0.123,-0.81,1.643
2024-09-23 14:54:47.744,173972.209,0.085,0.732,-0.676,-0.019,-0.042,-0.016,-1.109,0.279,-0.194,0.126,-0.822,1.643
2024-09-23 14:54:47.754,173972.219,0.086,0.74,-0.667,-0.07,0.005,-0.015,-1.124,0.3,-0.107,0.128,-0.833,1.642
2024-09-23 14:54:47.764,173972.229,0.087,0.748,-0.658,-0.09,0.007,-0.014,-1.159,0.316,-0.088,0.132,-0.844,1.643
2024-09-23 14:54:47.774,173972.239,0.089,0.755,-0.649,-0.057,-0.012,-0.021,-1.177,0.345,-0.066,0.136,-0.856,1.644
2024-09-23 14:54:47.783,173972.249,0.091,0.763,-0.64,-0.04,-0.027,-0.022,-1.228,0.371,-0.057,0.141,-0.868,1.646
2024-09-23 14:54:47.793,173972.259,0.093,0.771,-0.63,-0.049,-0.03,-0.025,-1.258,0.404,-0.06,0.146,-0.88,1.648
2024-09-23 14:54:47.803,173972.269,0.095,0.779,-0.62,-0.06,-0.031,-0.029,-1.238,0.386,-0.015,0.152,-0.893,1.65
2024-09-23 14:54:47.814,173972.279,0.097,0.786,-0.61,-0.052,-0.04,-0.031,-1.263,0.287,0.03,0.158,-0.905,1.653
2024-09-23 14:54:47.823,173972.289,0.099,0.794,-0.6,-0.02,0.007,-0.011,-1.22,0.312,-0.036,0.163,-0.917,1.657
2024-09-23 14:54:47.834,173972.299,0.101,0.801,-0.59,-0.007,0.07,0.021,-1.247,0.362,-0.008,0.169,-0.929,1.659
2024-09-23 14:54:47.843,173972.309,0.103,0.809,-0.579,-0.054,0.012,-0.038,-1.322,0.366,0.011,0.176,-0.942,1.663
2024-09-23 14:54:47.853,173972.319,0.105,0.817,-0.568,-0.048,-0.01,-0.022,-1.419,0.418,-0.002,0.183,-0.955,1.667
2024-09-23 14:54:47.863,173972.329,0.108,0.825,-0.555,-0.037,0.003,-0.039,-1.517,0.481,0.03,0.191,-0.97,1.672
2024-09-23 14:54:47.873,173972.339,0.111,0.833,-0.542,-0.049,-0.029,-0.067,-1.6,0.499,0.064,0.202,-0.985,1.679
2024-09-23 14:54:47.883,173972.349,0.115,0.841,-0.528,-0.033,-0.047,-0.075,-1.538,0.549,0.231,0.214,-1.0,1.687
2024-09-23 14:54:47.893,173972.359,0.119,0.849,-0.514,-0.007,-0.041,-0.084,-1.619,0.538,0.195,0.228,-1.015,1.698
2024-09-23 14:54:47.904,173972.369,0.123,0.858,-0.499,0.061,0.007,-0.109,-1.693,0.411,0.175,0.242,-1.031,1.708
2024-09-23 14:54:47.913,173972.379,0.127,0.866,-0.484,0.116,0.03,-0.042,-1.775,0.441,0.159,0.256,-1.047,1.72
2024-09-23 14:54:47.923,173972.389,0.13,0.874,-0.468,0.094,0.004,0.003,-1.809,0.483,0.133,0.272,-1.064,1.733
2024-09-23 14:54:47.933,173972.399,0.134,0.882,-0.452,0.036,-0.024,-0.005,-1.688,0.5,0.134,0.288,-1.08,1.745
2024-09-23 14:54:47.943,173972.409,0.137,0.889,-0.437,0.021,-0.019,-0.033,-1.412,0.469,0.162,0.304,-1.095,1.758
2024-09-23 14:54:47.953,173972.419,0.141,0.894,-0.425,0.034,0.024,-0.078,-1.092,0.4,0.188,0.32,-1.106,1.77
2024-09-23 14:54:47.964,173972.429,0.144,0.897,-0.417,0.05,0.104,-0.094,-0.607,0.379,0.213,0.333,-1.114,1.781
2024-09-23 14:54:47.973,173972.439,0.148,0.898,-0.413,0.065,0.152,-0.07,-0.095,0.35,0.261,0.343,-1.116,1.788
2024-09-23 14:54:47.983,173972.449,0.152,0.897,-0.414,0.082,0.162,-0.084,0.421,0.308,0.306,0.351,-1.114,1.793
2024-09-23 14:54:47.993,173972.459,0.156,0.894,-0.419,0.109,0.184,-0.108,0.794,0.274,0.353,0.356,-1.107,1.795
2024-09-23 14:54:48.003,173972.469,0.16,0.89,-0.427,0.13,0.188,-0.115,1.059,0.272,0.39,0.359,-1.097,1.796
2024-09-23 14:54:48.013,173972.479,0.165,0.884,-0.437,0.139,0.17,-0.102,1.229,0.249,0.414,0.361,-1.085,1.795
2024-09-23 14:54:48.023,173972.489,0.17,0.878,-0.448,0.14,0.127,-0.083,1.353,0.216,0.431,0.362,-1.071,1.794
2024-09-23 14:54:48.033,173972.499,0.174,0.871,-0.46,0.148,0.081,-0.046,1.429,0.183,0.421,0.362,-1.057,1.792
2024-09-23 14:54:48.043,173972.509,0.179,0.863,-0.472,0.161,0.038,-0.011,1.498,0.114,0.397,0.362,-1.042,1.789
2024-09-23 14:54:48.053,173972.519,0.182,0.855,-0.485,0.176,-0.006,0.012,1.526,0.02,0.365,0.359,-1.026,1.786
2024-09-23 14:54:48.063,173972.529,0.185,0.847,-0.498,0.187,-0.058,0.026,1.504,-0.062,0.322,0.356,-1.011,1.782
2024-09-23 14:54:48.073,173972.539,0.187,0.839,-0.511,0.187,-0.111,0.05,1.462,-0.125,0.242,0.351,-0.996,1.777
2024-09-23 14:54:48.083,173972.549,0.188,0.831,-0.523,0.177,-0.157,0.07,1.429,-0.211,0.156,0.345,-0.981,1.772
2024-09-23 14:54:48.093,173972.559,0.187,0.824,-0.535,0.156,-0.198,0.076,1.36,-0.301,0.083,0.337,-0.968,1.765
2024-09-23 14:54:48.103,173972.569,0.186,0.817,-0.546,0.14,-0.218,0.074,1.206,-0.399,0.015,0.328,-0.956,1.759
2024-09-23 14:54:48.113,173972.579,0.183,0.811,-0.556,0.124,-0.217,0.087,0.967,-0.469,-0.034,0.319,-0.945,1.753
2024-09-23 14:54:48.123,173972.589,0.18,0.806,-0.564,0.107,-0.21,0.113,0.688,-0.542,-0.105,0.309,-0.938,1.747
2024-09-23 14:54:48.133,173972.599,0.176,0.803,-0.569,0.088,-0.201,0.141,0.476,-0.601,-0.19,0.299,-0.933,1.742
2024-09-23 14:54:48.143,173972.609,0.17,0.801,-0.574,0.058,-0.194,0.146,0.352,-0.667,-0.313,0.288,-0.929,1.736
2024-09-23 14:54:48.154,173972.619,0.163,0.8,-0.577,0.018,-0.174,0.132,0.318,-0.713,-0.432,0.275,-0.927,1.729
2024-09-23 14:54:48.162,173972.629,0.155,0.799,-0.581,-0.026,-0.154,0.127,0.343,-0.744,-0.517,0.261,-0.925,1.72
2024-09-23 14:54:48.172,173972.639,0.146,0.798,-0.585,-0.064,-0.137,0.126,0.368,-0.761,-0.575,0.245,-0.923,1.709
2024-09-23 14:54:48.182,173972.649,0.137,0.796,-0.589,-0.092,-0.114,0.121,0.27,-0.8,-0.591,0.229,-0.921,1.699
2024-09-23 14:54:48.192,173972.659,0.128,0.796,-0.591,-0.113,-0.089,0.123,0.08,-0.807,-0.581,0.213,-0.921,1.688
2024-09-23 14:54:48.202,173972.669,0.118,0.797,-0.592,-0.136,-0.046,0.147,-0.126,-0.786,-0.59,0.197,-0.922,1.679
2024-09-23 14:54:48.212,173972.679,0.109,0.799,-0.591,-0.182,-0.008,0.167,-0.316,-0.741,-0.616,0.182,-0.926,1.67
2024-09-23 14:54:48.222,173972.689,0.1,0.802,-0.589,-0.239,0.02,0.178,-0.407,-0.658,-0.655,0.168,-0.93,1.661
2024-09-23 14:54:48.232,173972.699,0.091,0.805,-0.587,-0.267,0.031,0.182,-0.35,-0.598,-0.658,0.154,-0.935,1.651
2024-09-23 14:54:48.242,173972.709,0.082,0.807,-0.585,-0.268,0.027,0.148,-0.11,-0.574,-0.638,0.14,-0.939,1.641
2024-09-23 14:54:48.253,173972.719,0.074,0.807,-0.586,-0.245,0.033,0.084,0.203,-0.533,-0.606,0.126,-0.939,1.63
2024-09-23 14:54:48.262,173972.729,0.066,0.805,-0.589,-0.235,0.034,0.019,0.488,-0.501,-0.561,0.112,-0.936,1.62
2024-09-23 14:54:48.272,173972.739,0.059,0.802,-0.594,-0.233,0.036,-0.001,0.681,-0.477,-0.551,0.099,-0.931,1.609
2024-09-23 14:54:48.283,173972.749,0.052,0.798,-0.6,-0.2,0.039,0.039,0.77,-0.465,-0.599,0.086,-0.924,1.599
2024-09-23 14:54:48.293,173972.759,0.044,0.794,-0.606,-0.167,0.024,0.062,0.692,-0.437,-0.647,0.072,-0.917,1.588
2024-09-23 14:54:48.303,173972.768,0.037,0.79,-0.611,-0.146,-0.007,0.06,0.565,-0.268,-0.585,0.06,-0.912,1.576
2024-09-23 14:54:48.312,173972.778,0.032,0.788,-0.615,-0.121,-0.019,0.07,0.457,0.075,-0.409,0.052,-0.907,1.568
2024-09-23 14:54:48.322,173972.788,0.03,0.784,-0.619,-0.094,0.089,-0.028,0.598,0.203,-0.258,0.049,-0.902,1.562
2024-09-23 14:54:48.333,173972.798,0.03,0.781,-0.624,-0.084,0.331,-0.19,0.65,0.131,-0.111,0.048,-0.896,1.559
2024-09-23 14:54:48.343,173972.808,0.03,0.777,-0.629,-0.023,0.509,-0.211,0.607,0.051,-0.05,0.048,-0.889,1.557
2024-09-23 14:54:48.353,173972.818,0.03,0.773,-0.634,0.076,0.398,-0.108,0.537,-0.018,-0.096,0.047,-0.884,1.556
2024-09-23 14:54:48.362,173972.828,0.029,0.77,-0.637,0.106,0.083,0.006,0.48,-0.061,-0.134,0.045,-0.879,1.554
2024-09-23 14:54:48.372,173972.838,0.027,0.767,-0.641,0.071,-0.142,0.133,0.532,0.01,-0.192,0.042,-0.874,1.551
2024-09-23 14:54:48.382,173972.848,0.026,0.763,-0.646,0.04,-0.141,0.192,0.803,-0.0,-0.197,0.04,-0.867,1.547
2024-09-23 14:54:48.392,173972.858,0.024,0.757,-0.653,0.024,-0.014,0.122,1.106,-0.038,-0.136,0.037,-0.858,1.544
2024-09-23 14:54:48.402,173972.868,0.023,0.749,-0.663,0.053,0.135,0.041,1.265,-0.13,-0.072,0.035,-0.846,1.542
2024-09-23 14:54:48.413,173972.878,0.022,0.741,-0.672,0.071,0.189,-0.007,1.123,-0.134,-0.009,0.033,-0.834,1.541
2024-09-23 14:54:48.423,173972.888,0.021,0.734,-0.679,0.062,0.129,-0.011,0.827,-0.108,-0.02,0.031,-0.824,1.54
2024-09-23 14:54:48.433,173972.898,0.02,0.729,-0.684,0.02,0.052,-0.01,0.532,-0.092,0.006,0.03,-0.817,1.54
2024-09-23 14:54:48.443,173972.908,0.02,0.727,-0.687,-0.016,-0.04,-0.026,0.312,-0.066,-0.009,0.029,-0.813,1.539
2024-09-23 14:54:48.452,173972.918,0.019,0.725,-0.689,-0.008,-0.09,-0.037,0.175,-0.01,-0.053,0.028,-0.811,1.539
2024-09-23 14:54:48.462,173972.928,0.019,0.724,-0.69,-0.0,-0.082,-0.038,0.121,0.038,-0.092,0.027,-0.81,1.538
2024-09-23 14:54:48.472,173972.938,0.018,0.723,-0.69,-0.017,-0.069,-0.047,0.116,0.054,-0.092,0.027,-0.808,1.536
2024-09-23 14:54:48.482,173972.948,0.018,0.722,-0.691,-0.028,-0.084,-0.072,0.117,0.059,-0.068,0.026,-0.807,1.535
2024-09-23 14:54:48.492,173972.958,0.018,0.722,-0.692,-0.022,-0.068,-0.07,0.099,0.051,-0.076,0.026,-0.806,1.534
2024-09-23 14:54:48.502,173972.968,0.018,0.721,-0.693,-0.009,-0.016,-0.036,0.048,0.066,-0.074,0.026,-0.805,1.533
2024-09-23 14:54:48.512,173972.978,0.018,0.721,-0.693,0.013,0.002,0.007,-0.041,0.06,-0.071,0.026,-0.805,1.532
2024-09-23 14:54:48.522,173972.988,0.018,0.722,-0.692,0.028,-0.004,0.01,-0.127,0.055,-0.076,0.026,-0.806,1.531
2024-09-23 14:54:48.532,173972.998,0.017,0.723,-0.691,0.036,0.001,0.005,-0.205,0.042,-0.082,0.025,-0.808,1.53
2024-09-23 14:54:48.543,173973.008,0.017,0.724,-0.689,0.025,-0.004,0.004,-0.234,0.041,-0.084,0.025,-0.81,1.529
2024-09-23 14:54:48.552,173973.018,0.017,0.726,-0.687,-0.003,-0.032,-0.002,-0.207,0.043,-0.094,0.024,-0.812,1.527
2024-09-23 14:54:48.562,173973.028,0.016,0.727,-0.686,-0.022,-0.043,-0.007,-0.149,0.034,-0.091,0.024,-0.814,1.526
2024-09-23 14:54:48.572,173973.038,0.016,0.728,-0.685,-0.027,-0.019,-0.006,-0.112,0.044,-0.098,0.023,-0.816,1.525
2024-09-23 14:54:48.582,173973.048,0.016,0.729,-0.685,-0.02,0.003,0.006,-0.119,0.05,-0.098,0.023,-0.817,1.523
2024-09-23 14:54:48.592,173973.058,0.015,0.73,-0.683,-0.014,0.004,-0.001,-0.194,0.057,-0.084,0.022,-0.818,1.522
2024-09-23 14:54:48.602,173973.068,0.015,0.731,-0.682,-0.013,0.001,-0.001,-0.251,0.065,-0.104,0.022,-0.82,1.521
2024-09-23 14:54:48.612,173973.078,0.015,0.733,-0.68,-0.01,-0.001,0.019,-0.253,0.046,-0.099,0.022,-0.823,1.52
2024-09-23 14:54:48.622,173973.088,0.014,0.735,-0.678,-0.012,-0.01,0.024,-0.184,0.023,-0.093,0.021,-0.825,1.519
2024-09-23 14:54:48.632,173973.098,0.014,0.736,-0.677,-0.019,0.005,0.006,-0.113,0.006,-0.086,0.021,-0.826,1.517
2024-09-23 14:54:48.642,173973.108,0.013,0.736,-0.677,-0.025,0.019,-0.005,-0.075,0.008,-0.086,0.019,-0.827,1.516
2024-09-23 14:54:48.652,173973.118,0.012,0.736,-0.677,-0.023,0.014,0.001,-0.033,-0.007,-0.068,0.018,-0.827,1.514
2024-09-23 14:54:48.662,173973.128,0.012,0.736,-0.677,-0.017,0.001,-0.006,-0.02,-0.013,-0.073,0.017,-0.828,1.513
2024-09-23 14:54:48.672,173973.138,0.011,0.736,-0.676,0.001,0.011,-0.007,-0.034,-0.006,-0.077,0.016,-0.828,1.512
2024-09-23 14:54:48.681,173973.148,0.01,0.737,-0.676,0.005,0.014,-0.002,-0.055,-0.005,-0.068,0.015,-0.828,1.511
2024-09-23 14:54:48.692,173973.158,0.01,0.737,-0.676,-0.002,-0.009,-0.004,-0.049,-0.015,-0.07,0.014,-0.829,1.51
2024-09-23 14:54:48.702,173973.168,0.009,0.737,-0.675,0.002,-0.011,0.007,-0.018,-0.025,-0.066,0.013,-0.829,1.509
2024-09-23 14:54:48.712,173973.178,0.008,0.737,-0.675,0.007,0.004,0.01,0.025,-0.025,-0.064,0.012,-0.829,1.508
2024-09-23 14:54:48.722,173973.188,0.007,0.737,-0.676,0.005,0.015,0.007,0.073,-0.025,-0.065,0.011,-0.829,1.507
2024-09-23 14:54:48.732,173973.198,0.007,0.737,-0.676,-0.001,0.016,0.002,0.096,-0.015,-0.066,0.01,-0.828,1.505
2024-09-23 14:54:48.742,173973.208,0.006,0.736,-0.677,-0.006,0.009,0.0,0.105,-0.005,-0.066,0.009,-0.827,1.504
2024-09-23 14:54:48.752,173973.218,0.006,0.735,-0.678,-0.007,0.0,-0.003,0.109,-0.008,-0.058,0.008,-0.826,1.503
2024-09-23 14:54:48.762,173973.228,0.005,0.734,-0.679,-0.003,0.004,0.001,0.138,-0.019,-0.044,0.008,-0.825,1.503
