Date,TimeStamp,GravityX,GravityY,GravityZ,UserAccelerationX,UserAccelerationY,UserAccelerationZ,RotationRateX,RotationRateY,RotationRateZ,AttitudeRoll,AttitudePitch,AttitudeYaw
2024-10-15 14:03:45.252,74976.688,0.1,0.485,-0.869,0.003,-0.041,0.04,0.07,-0.028,-0.004,0.114,-0.506,0.557
2024-10-15 14:03:45.355,74976.808,0.113,0.487,-0.866,-0.005,-0.002,0.001,-0.114,0.09,0.068,0.13,-0.509,0.573
2024-10-15 14:03:45.473,74976.928,0.136,0.514,-0.847,-0.003,0.003,0.001,-0.291,0.266,-0.017,0.159,-0.54,0.59
2024-10-15 14:03:45.593,74977.048,0.144,0.522,-0.841,-0.024,0.036,0.013,0.189,0.023,0.194,0.17,-0.549,0.581
2024-10-15 14:03:45.712,74977.167,0.145,0.528,-0.837,0.027,-0.004,0.012,-0.067,-0.043,-0.013,0.172,-0.556,0.584
2024-10-15 14:03:45.833,74977.287,0.147,0.533,-0.834,0.004,-0.007,0.011,-0.061,-0.006,-0.012,0.175,-0.562,0.586
2024-10-15 14:03:45.953,74977.407,0.148,0.534,-0.832,0.005,-0.004,0.003,-0.007,-0.014,-0.003,0.176,-0.563,0.587
2024-10-15 14:03:46.072,74977.527,0.147,0.526,-0.838,-0.005,-0.016,0.002,0.035,0.025,0.006,0.174,-0.554,0.586
2024-10-15 14:03:46.192,74977.646,0.149,0.525,-0.838,0.001,-0.009,0.012,0.019,0.009,-0.012,0.176,-0.553,0.587
2024-10-15 14:03:46.312,74977.766,0.148,0.504,-0.851,-0.01,0.031,0.017,0.461,-0.072,0.071,0.173,-0.528,0.585
2024-10-15 14:03:46.431,74977.886,0.145,0.473,-0.869,0.003,-0.02,0.012,0.109,-0.035,0.049,0.166,-0.493,0.586
2024-10-15 14:03:46.552,74978.006,0.158,0.475,-0.866,-0.014,-0.043,0.001,-0.382,0.238,0.015,0.181,-0.495,0.592
2024-10-15 14:03:46.671,74978.126,0.179,0.529,-0.829,0.023,0.003,-0.004,-0.442,-0.033,0.062,0.212,-0.558,0.612
2024-10-15 14:03:46.791,74978.245,0.175,0.557,-0.812,-0.021,-0.023,-0.001,-0.413,-0.07,0.146,0.213,-0.591,0.636
2024-10-15 14:03:46.911,74978.365,0.169,0.62,-0.766,-0.008,-0.016,0.004,-0.72,-0.11,0.066,0.217,-0.669,0.672
2024-10-15 14:03:47.030,74978.485,0.156,0.656,-0.738,0.001,0.02,0.014,-0.092,-0.162,-0.052,0.209,-0.716,0.684
2024-10-15 14:03:47.150,74978.605,0.144,0.653,-0.743,-0.001,-0.044,0.061,0.098,-0.042,-0.003,0.192,-0.711,0.682
2024-10-15 14:03:47.270,74978.725,0.145,0.642,-0.753,-0.01,-0.014,0.009,0.074,0.054,-0.018,0.19,-0.698,0.677
2024-10-15 14:03:47.390,74978.844,0.146,0.636,-0.758,0.001,-0.016,-0.011,-0.032,0.037,-0.037,0.19,-0.689,0.671
2024-10-15 14:03:47.510,74978.964,0.106,0.661,-0.743,0.091,0.016,-0.064,-0.641,-1.214,-0.149,0.142,-0.722,0.669
2024-10-15 14:03:47.629,74979.084,0.044,0.696,-0.716,0.182,0.084,-0.036,0.424,-0.742,0.285,0.061,-0.77,0.693
2024-10-15 14:03:47.750,74979.204,-0.015,0.595,-0.803,0.202,0.132,0.115,1.524,-1.278,0.422,-0.019,-0.638,0.739
2024-10-15 14:03:47.869,74979.324,-0.13,0.43,-0.893,-0.214,-0.133,0.008,-0.142,-1.049,-0.053,-0.145,-0.445,0.783
2024-10-15 14:03:47.989,74979.443,-0.245,0.325,-0.913,-0.215,-0.047,0.191,1.116,-1.019,0.194,-0.263,-0.331,0.81
2024-10-15 14:03:48.109,74979.563,-0.3,0.236,-0.924,0.438,-0.009,0.231,1.164,-0.464,0.372,-0.314,-0.238,0.864
2024-10-15 14:03:48.228,74979.683,-0.311,0.117,-0.943,0.409,-0.189,0.113,0.574,-0.198,-0.051,-0.318,-0.118,0.923
2024-10-15 14:03:48.348,74979.803,-0.344,0.133,-0.929,-0.443,0.111,0.053,-0.11,-0.491,0.122,-0.355,-0.133,0.884
2024-10-15 14:03:48.468,74979.923,-0.387,0.148,-0.91,0.095,0.044,0.09,0.383,-0.095,0.117,-0.402,-0.149,0.877
2024-10-15 14:03:48.588,74980.042,-0.385,0.107,-0.917,0.084,0.06,-0.247,0.158,0.28,-0.128,-0.398,-0.107,0.888
2024-10-15 14:03:48.708,74980.162,-0.356,0.078,-0.931,-0.272,-0.157,-0.065,-0.258,0.111,-0.344,-0.365,-0.078,0.87
2024-10-15 14:03:48.828,74980.282,-0.375,0.096,-0.922,-0.158,0.065,-0.078,-0.349,-0.255,0.083,-0.386,-0.096,0.83
2024-10-15 14:03:48.947,74980.402,-0.376,0.107,-0.92,0.303,-0.044,0.098,0.091,0.075,0.119,-0.388,-0.107,0.829
2024-10-15 14:03:49.067,74980.522,-0.351,0.1,-0.931,0.269,0.195,0.041,0.38,0.24,-0.126,-0.361,-0.1,0.826
2024-10-15 14:03:49.187,74980.641,-0.351,0.096,-0.931,-0.484,-0.009,0.009,-0.031,-0.197,-0.18,-0.361,-0.096,0.793
2024-10-15 14:03:49.306,74980.761,-0.38,0.116,-0.918,-0.03,0.187,-0.139,0.367,0.142,0.207,-0.392,-0.116,0.797
2024-10-15 14:03:49.426,74980.881,-0.367,0.085,-0.926,0.301,-0.134,-0.087,-0.276,0.185,-0.182,-0.377,-0.085,0.81
2024-10-15 14:03:49.546,74981.001,-0.343,0.093,-0.935,-0.176,-0.076,0.072,-0.652,-0.01,-0.365,-0.351,-0.093,0.776
2024-10-15 14:03:49.666,74981.121,-0.352,0.17,-0.92,-0.176,-0.034,-0.153,-0.748,-0.097,0.206,-0.365,-0.171,0.739
2024-10-15 14:03:49.786,74981.24,-0.338,0.194,-0.921,0.24,-0.047,0.043,-0.049,0.235,0.075,-0.352,-0.196,0.742
2024-10-15 14:03:49.906,74981.36,-0.314,0.216,-0.925,0.143,-0.005,-0.145,-0.224,0.226,0.002,-0.327,-0.217,0.735
2024-10-15 14:03:50.025,74981.48,-0.301,0.209,-0.93,-0.126,0.018,0.046,0.0,-0.087,-0.186,-0.313,-0.21,0.731
2024-10-15 14:03:50.145,74981.6,-0.333,0.198,-0.922,-0.284,-0.027,-0.029,0.069,-0.338,0.332,-0.346,-0.2,0.732
2024-10-15 14:03:50.265,74981.719,-0.343,0.182,-0.922,0.346,-0.096,0.032,0.386,-0.015,0.162,-0.356,-0.183,0.767
2024-10-15 14:03:50.387,74981.839,-0.335,0.196,-0.922,-0.146,0.111,-0.151,-0.005,0.525,0.165,-0.348,-0.197,0.761
2024-10-15 14:03:50.504,74981.959,-0.312,0.197,-0.929,-0.219,-0.02,0.044,-0.116,-0.086,-0.242,-0.323,-0.199,0.751
2024-10-15 14:03:50.624,74982.079,-0.342,0.216,-0.915,-0.136,-0.007,-0.052,-0.601,-0.397,0.09,-0.357,-0.218,0.739
2024-10-15 14:03:50.744,74982.199,-0.339,0.206,-0.918,0.329,-0.091,0.011,0.259,0.125,0.166,-0.353,-0.207,0.763
2024-10-15 14:03:50.864,74982.318,-0.314,0.21,-0.926,-0.139,0.271,-0.084,1.298,0.847,0.156,-0.327,-0.212,0.759
2024-10-15 14:03:50.984,74982.438,-0.296,0.191,-0.936,-0.357,0.027,0.065,-0.132,-0.234,-0.286,-0.306,-0.192,0.755
2024-10-15 14:03:51.104,74982.558,-0.326,0.164,-0.931,-0.124,-0.05,-0.056,-0.168,0.028,-0.096,-0.337,-0.165,0.748
2024-10-15 14:03:51.224,74982.678,-0.319,0.201,-0.926,0.145,-0.0,-0.024,-0.134,0.267,-0.056,-0.331,-0.202,0.716
2024-10-15 14:03:51.343,74982.798,-0.278,0.22,-0.935,0.092,-0.047,-0.066,-0.054,0.322,-0.008,-0.289,-0.222,0.713
2024-10-15 14:03:51.463,74982.917,-0.258,0.253,-0.932,0.009,-0.103,-0.006,-0.452,0.064,-0.157,-0.27,-0.256,0.706
2024-10-15 14:03:51.583,74983.037,-0.284,0.299,-0.911,-0.378,0.106,-0.012,-0.197,-0.361,-0.071,-0.302,-0.304,0.672
2024-10-15 14:03:51.703,74983.157,-0.283,0.353,-0.892,0.136,0.042,0.141,0.15,-0.019,0.398,-0.307,-0.361,0.695
2024-10-15 14:03:51.822,74983.277,-0.27,0.331,-0.904,0.229,-0.248,-0.211,-1.547,-0.024,-0.152,-0.29,-0.338,0.71
2024-10-15 14:03:51.942,74983.397,-0.263,0.311,-0.913,-0.097,-0.017,-0.029,0.101,-0.059,-0.37,-0.28,-0.316,0.686
2024-10-15 14:03:52.062,74983.516,-0.283,0.33,-0.901,-0.225,0.042,0.072,0.058,-0.278,0.179,-0.305,-0.336,0.669
2024-10-15 14:03:52.182,74983.636,-0.284,0.352,-0.892,0.168,-0.116,0.0,0.199,0.04,0.213,-0.309,-0.36,0.71
2024-10-15 14:03:52.301,74983.756,-0.283,0.353,-0.892,0.036,0.156,-0.185,-0.334,0.11,-0.118,-0.308,-0.361,0.701
2024-10-15 14:03:52.421,74983.876,-0.276,0.303,-0.912,-0.192,0.098,-0.017,-0.092,0.076,-0.197,-0.294,-0.308,0.68
2024-10-15 14:03:52.541,74983.996,-0.288,0.316,-0.904,-0.14,-0.015,0.02,-0.072,-0.102,0.276,-0.308,-0.321,0.681
2024-10-15 14:03:52.661,74984.115,-0.282,0.337,-0.899,0.246,-0.184,-0.016,0.318,0.027,0.058,-0.304,-0.343,0.712
2024-10-15 14:03:52.780,74984.235,-0.28,0.312,-0.908,0.288,-0.054,0.009,0.877,0.192,-0.437,-0.299,-0.317,0.696
2024-10-15 14:03:52.901,74984.355,-0.305,0.316,-0.898,-0.166,-0.15,-0.006,-0.333,-0.247,0.293,-0.327,-0.322,0.676
2024-10-15 14:03:53.020,74984.475,-0.296,0.38,-0.877,0.344,-0.264,-0.017,0.187,0.009,-0.056,-0.326,-0.39,0.701
2024-10-15 14:03:53.140,74984.595,-0.306,0.332,-0.892,-0.139,-0.017,-0.111,-0.291,-0.006,-0.423,-0.33,-0.338,0.671
2024-10-15 14:03:53.260,74984.714,-0.252,0.545,-0.8,-0.163,-0.099,0.182,-3.94,1.351,0.647,-0.305,-0.577,0.6
2024-10-15 14:03:53.379,74984.834,-0.15,0.704,-0.694,0.208,0.153,0.084,1.576,0.116,-0.426,-0.213,-0.781,0.593
2024-10-15 14:03:53.499,74984.954,-0.186,0.518,-0.834,0.026,-0.16,0.045,1.038,0.023,-0.43,-0.22,-0.545,0.581
2024-10-15 14:03:53.619,74985.074,-0.174,0.503,-0.846,-0.102,-0.129,-0.053,-0.722,0.032,0.27,-0.203,-0.527,0.577
2024-10-15 14:03:53.739,74985.194,-0.183,0.467,-0.865,0.03,0.132,0.007,1.603,0.31,-0.422,-0.208,-0.486,0.588
2024-10-15 14:03:53.859,74985.313,-0.176,0.447,-0.877,-0.055,-0.072,-0.045,-0.321,0.042,0.25,-0.198,-0.463,0.57
2024-10-15 14:03:53.979,74985.433,-0.167,0.52,-0.838,0.168,-0.081,0.087,0.117,-0.057,-0.323,-0.197,-0.547,0.567
2024-10-15 14:03:54.100,74985.553,-0.144,0.626,-0.767,-0.171,-0.139,0.131,-2.377,0.709,0.237,-0.186,-0.676,0.524
2024-10-15 14:03:54.218,74985.673,-0.061,0.755,-0.653,0.042,0.221,0.002,0.086,0.186,0.261,-0.093,-0.856,0.541
2024-10-15 14:03:54.338,74985.793,-0.063,0.653,-0.755,0.172,-0.07,-0.103,1.427,-0.108,-0.159,-0.084,-0.712,0.569
2024-10-15 14:03:54.458,74985.912,-0.076,0.559,-0.826,-0.058,0.144,0.128,1.893,0.181,-0.325,-0.092,-0.593,0.56
2024-10-15 14:03:54.577,74986.032,-0.072,0.558,-0.827,0.07,-0.104,-0.045,-0.093,-0.106,0.532,-0.087,-0.592,0.611
2024-10-15 14:03:54.697,74986.152,-0.081,0.508,-0.857,0.173,0.076,0.066,0.655,0.139,-0.237,-0.095,-0.533,0.618
2024-10-15 14:03:54.817,74986.272,-0.097,0.535,-0.839,-0.081,-0.126,-0.043,-0.722,-0.469,0.389,-0.115,-0.564,0.638
2024-10-15 14:03:54.937,74986.391,-0.102,0.513,-0.852,0.098,0.003,0.026,0.662,0.254,-0.199,-0.12,-0.539,0.644
2024-10-15 14:03:55.057,74986.511,-0.107,0.504,-0.857,-0.02,-0.141,-0.193,-0.706,-0.223,0.412,-0.125,-0.529,0.643
2024-10-15 14:03:55.177,74986.631,-0.123,0.512,-0.85,-0.042,0.058,-0.03,0.36,0.111,-0.162,-0.143,-0.538,0.648
2024-10-15 14:03:55.296,74986.751,-0.125,0.489,-0.863,-0.243,-0.141,-0.04,-0.488,-0.333,0.271,-0.143,-0.511,0.63
2024-10-15 14:03:55.416,74986.871,-0.141,0.506,-0.851,0.246,0.059,0.069,0.551,-0.037,-0.244,-0.164,-0.531,0.641
2024-10-15 14:03:55.536,74986.99,-0.149,0.451,-0.88,-0.402,0.179,0.082,0.295,-0.039,0.003,-0.167,-0.468,0.607
2024-10-15 14:03:55.656,74987.11,-0.166,0.485,-0.858,0.264,-0.044,0.107,-0.032,-0.207,0.083,-0.192,-0.507,0.631
2024-10-15 14:03:55.776,74987.23,-0.175,0.466,-0.867,-0.179,0.189,0.118,-0.115,-0.133,-0.128,-0.2,-0.485,0.603
2024-10-15 14:03:55.896,74987.35,-0.193,0.49,-0.85,0.025,-0.052,0.021,0.051,-0.14,0.143,-0.224,-0.512,0.621
2024-10-15 14:03:56.015,74987.47,-0.184,0.467,-0.865,0.004,-0.061,0.035,0.184,0.425,-0.336,-0.209,-0.486,0.608
2024-10-15 14:03:56.135,74987.589,-0.174,0.5,-0.849,0.075,-0.12,-0.015,-0.41,-0.392,0.235,-0.202,-0.523,0.617
2024-10-15 14:03:56.255,74987.709,-0.17,0.501,-0.848,-0.117,0.056,0.089,-0.034,0.573,-0.458,-0.198,-0.525,0.614
2024-10-15 14:03:56.374,74987.829,-0.171,0.534,-0.828,0.061,-0.094,-0.154,-0.266,-0.338,0.205,-0.204,-0.563,0.613
2024-10-15 14:03:56.494,74987.949,-0.18,0.537,-0.824,0.044,0.106,-0.007,0.378,0.151,-0.232,-0.215,-0.567,0.622
2024-10-15 14:03:56.614,74988.069,-0.167,0.526,-0.834,-0.17,-0.05,-0.05,-0.185,-0.084,0.224,-0.198,-0.553,0.604
2024-10-15 14:03:56.734,74988.188,-0.17,0.547,-0.82,0.185,-0.043,0.031,0.238,-0.054,-0.204,-0.205,-0.579,0.625
2024-10-15 14:03:56.854,74988.308,-0.177,0.519,-0.836,-0.282,0.256,0.12,0.252,-0.044,-0.051,-0.209,-0.545,0.596
2024-10-15 14:03:56.973,74988.428,-0.182,0.53,-0.828,0.094,-0.265,0.053,-0.394,-0.095,0.229,-0.216,-0.559,0.627
2024-10-15 14:03:57.093,74988.548,-0.183,0.501,-0.846,0.196,-0.112,0.048,0.262,0.041,-0.329,-0.212,-0.525,0.617
2024-10-15 14:03:57.213,74988.668,-0.181,0.582,-0.793,-0.08,-0.345,-0.011,-2.798,0.093,0.168,-0.224,-0.621,0.583
2024-10-15 14:03:57.333,74988.787,-0.101,0.807,-0.582,-0.091,0.034,0.082,-2.581,1.369,0.325,-0.172,-0.939,0.539
2024-10-15 14:03:57.453,74988.907,0.01,0.904,-0.428,0.064,0.032,0.059,-0.515,0.743,0.335,0.024,-1.128,0.596
2024-10-15 14:03:57.572,74989.027,0.037,0.895,-0.444,0.165,0.044,-0.026,1.069,-0.274,-0.026,0.083,-1.109,0.63
2024-10-15 14:03:57.692,74989.147,-0.012,0.842,-0.539,0.003,0.013,-0.037,0.781,-0.434,-0.049,-0.022,-1.001,0.582
2024-10-15 14:03:57.812,74989.267,-0.05,0.755,-0.653,0.053,0.092,0.119,1.848,-0.232,-0.302,-0.077,-0.856,0.571
2024-10-15 14:03:57.932,74989.386,-0.091,0.685,-0.723,-0.146,0.134,-0.175,0.927,-0.323,0.23,-0.126,-0.754,0.564
2024-10-15 14:03:58.052,74989.506,-0.093,0.693,-0.715,0.205,-0.162,0.104,-0.225,-0.431,-0.213,-0.129,-0.766,0.597
2024-10-15 14:03:58.171,74989.626,-0.115,0.652,-0.75,-0.313,0.041,-0.156,0.075,-0.213,0.179,-0.152,-0.71,0.584
2024-10-15 14:03:58.291,74989.746,-0.111,0.682,-0.723,0.259,-0.212,0.305,-0.072,-0.293,-0.125,-0.152,-0.751,0.607
2024-10-15 14:03:58.410,74989.866,-0.132,0.656,-0.743,-0.354,0.201,-0.265,-0.072,-0.207,0.276,-0.176,-0.715,0.585
2024-10-15 14:03:58.531,74989.985,-0.13,0.691,-0.711,0.218,-0.277,0.322,0.118,-0.329,-0.19,-0.181,-0.763,0.607
2024-10-15 14:03:58.651,74990.105,-0.151,0.666,-0.73,-0.126,0.279,-0.01,0.005,-0.021,-0.129,-0.204,-0.729,0.567
2024-10-15 14:03:58.770,74990.225,-0.146,0.678,-0.721,0.176,-0.141,0.256,-0.359,-0.012,0.033,-0.2,-0.744,0.59
2024-10-15 14:03:58.890,74990.345,-0.147,0.63,-0.762,-0.102,0.01,-0.191,-0.275,-0.007,-0.254,-0.191,-0.682,0.561
2024-10-15 14:03:59.010,74990.464,-0.159,0.669,-0.726,0.156,0.224,0.27,0.034,-0.107,-0.094,-0.216,-0.733,0.583
2024-10-15 14:03:59.129,74990.584,-0.161,0.625,-0.764,0.205,-0.236,-0.092,-0.025,0.053,-0.188,-0.208,-0.675,0.561
2024-10-15 14:03:59.250,74990.704,-0.162,0.651,-0.742,0.062,-0.147,-0.417,-1.503,-0.017,0.393,-0.215,-0.708,0.579
2024-10-15 14:03:59.369,74990.824,-0.162,0.612,-0.774,0.128,-0.311,-0.281,0.004,0.01,0.09,-0.206,-0.658,0.556
2024-10-15 14:03:59.489,74990.944,-0.183,0.632,-0.753,-0.045,-0.229,-0.328,-1.238,0.101,0.051,-0.238,-0.684,0.559
2024-10-15 14:03:59.609,74991.063,-0.176,0.614,-0.77,-0.237,0.14,-0.106,1.871,0.487,-0.679,-0.224,-0.661,0.557
2024-10-15 14:03:59.729,74991.183,-0.173,0.616,-0.768,-0.059,-0.121,-0.351,-0.764,0.079,0.437,-0.222,-0.664,0.562
2024-10-15 14:03:59.848,74991.303,-0.173,0.653,-0.738,-0.099,0.122,-0.025,0.475,0.077,-0.396,-0.23,-0.711,0.565
2024-10-15 14:03:59.968,74991.423,-0.18,0.62,-0.763,-0.096,-0.032,-0.185,-0.505,-0.377,0.43,-0.232,-0.669,0.558
2024-10-15 14:04:00.088,74991.543,-0.171,0.648,-0.742,0.095,0.034,0.037,-0.476,-0.036,-0.034,-0.226,-0.705,0.58
2024-10-15 14:04:00.208,74991.662,-0.167,0.62,-0.767,-0.292,0.277,-0.093,0.347,-0.338,0.333,-0.214,-0.668,0.56
2024-10-15 14:04:00.328,74991.782,-0.169,0.649,-0.742,0.323,-0.343,0.264,-0.175,-0.034,-0.063,-0.225,-0.706,0.583
2024-10-15 14:04:00.447,74991.902,-0.157,0.626,-0.764,-0.268,0.244,-0.086,0.016,0.352,-0.048,-0.203,-0.676,0.552
2024-10-15 14:04:00.567,74992.022,-0.156,0.649,-0.745,0.286,-0.11,0.136,-0.899,-0.576,0.126,-0.206,-0.706,0.583
2024-10-15 14:04:00.687,74992.142,-0.161,0.629,-0.761,0.054,0.192,-0.127,0.896,0.327,-0.029,-0.209,-0.68,0.586
2024-10-15 14:04:00.806,74992.261,-0.135,0.581,-0.803,-0.1,-0.011,0.058,0.661,0.315,-0.138,-0.167,-0.62,0.585
2024-10-15 14:04:00.927,74992.381,-0.127,0.59,-0.797,-0.249,0.011,0.059,-0.225,-0.134,0.061,-0.158,-0.631,0.57
2024-10-15 14:04:01.046,74992.501,-0.14,0.563,-0.815,0.047,-0.019,-0.04,0.16,-0.166,0.033,-0.17,-0.598,0.59
2024-10-15 14:04:01.166,74992.621,-0.14,0.607,-0.782,0.149,-0.151,0.268,0.006,-0.022,0.192,-0.177,-0.652,0.6
2024-10-15 14:04:01.285,74992.741,-0.129,0.601,-0.789,0.121,0.204,0.06,1.232,0.598,-0.396,-0.162,-0.645,0.58
2024-10-15 14:04:01.406,74992.86,-0.128,0.578,-0.806,-0.343,0.038,0.018,0.06,-0.312,0.036,-0.158,-0.616,0.554
2024-10-15 14:04:01.526,74992.98,-0.153,0.566,-0.81,0.052,0.055,-0.026,0.197,0.096,-0.053,-0.187,-0.602,0.577
2024-10-15 14:04:01.645,74993.1,-0.142,0.564,-0.813,0.013,0.02,-0.073,-0.051,0.273,-0.021,-0.172,-0.599,0.567
2024-10-15 14:04:01.765,74993.22,-0.109,0.635,-0.765,-0.007,-0.031,0.023,-1.391,0.199,0.132,-0.142,-0.688,0.569
2024-10-15 14:04:01.885,74993.34,-0.098,0.707,-0.7,0.006,0.042,0.056,-0.434,-0.242,0.208,-0.14,-0.786,0.568
2024-10-15 14:04:02.005,74993.459,-0.083,0.736,-0.671,0.05,-0.048,0.07,0.268,0.245,-0.081,-0.123,-0.828,0.599
2024-10-15 14:04:02.124,74993.579,-0.067,0.669,-0.741,-0.04,0.045,0.081,0.436,0.016,-0.058,-0.091,-0.732,0.586
2024-10-15 14:04:02.244,74993.699,-0.064,0.619,-0.782,-0.046,-0.105,-0.078,-0.726,-0.276,0.565,-0.082,-0.668,0.64
2024-10-15 14:04:02.364,74993.819,-0.065,0.63,-0.774,0.003,0.139,0.036,1.272,0.071,-0.28,-0.084,-0.682,0.651
2024-10-15 14:04:02.484,74993.939,-0.063,0.591,-0.804,-0.087,-0.027,-0.054,0.408,-0.24,0.54,-0.079,-0.632,0.64
2024-10-15 14:04:02.604,74994.058,-0.057,0.658,-0.751,0.117,0.056,0.036,-0.069,-0.104,-0.128,-0.075,-0.718,0.667
2024-10-15 14:04:02.723,74994.178,-0.065,0.576,-0.815,-0.133,0.169,-0.047,0.872,0.008,0.232,-0.079,-0.613,0.641
2024-10-15 14:04:02.843,74994.298,-0.075,0.671,-0.737,0.047,0.195,0.195,-0.485,-0.059,0.373,-0.101,-0.736,0.669
2024-10-15 14:04:02.963,74994.418,-0.086,0.599,-0.796,0.195,-0.066,0.006,1.207,0.283,-0.365,-0.108,-0.643,0.655
2024-10-15 14:04:03.083,74994.538,-0.095,0.6,-0.794,-0.164,-0.129,-0.048,-0.86,-0.226,0.053,-0.12,-0.643,0.636
2024-10-15 14:04:03.203,74994.657,-0.087,0.696,-0.713,0.109,0.167,-0.128,-0.499,0.198,-0.11,-0.121,-0.769,0.646
2024-10-15 14:04:03.323,74994.777,-0.069,0.74,-0.669,-0.074,0.148,0.113,0.517,0.202,-0.277,-0.103,-0.833,0.619
2024-10-15 14:04:03.443,74994.897,-0.087,0.653,-0.753,-0.051,-0.094,-0.233,-0.074,-0.601,0.358,-0.115,-0.711,0.645
2024-10-15 14:04:03.562,74995.017,-0.093,0.742,-0.664,0.329,0.081,0.179,-0.345,-0.115,-0.181,-0.139,-0.836,0.636
2024-10-15 14:04:03.682,74995.136,-0.101,0.666,-0.739,-0.131,0.06,0.047,0.419,0.306,-0.199,-0.136,-0.729,0.609
2024-10-15 14:04:03.802,74995.256,-0.113,0.676,-0.729,0.021,-0.319,-0.156,-2.236,-0.53,0.347,-0.154,-0.742,0.619
2024-10-15 14:04:03.921,74995.376,-0.112,0.736,-0.668,0.08,0.079,-0.167,0.308,0.398,-0.074,-0.166,-0.827,0.616
2024-10-15 14:04:04.041,74995.496,-0.128,0.689,-0.714,-0.172,0.271,0.06,1.181,-0.407,-0.277,-0.178,-0.76,0.593
2024-10-15 14:04:04.161,74995.616,-0.143,0.703,-0.697,0.05,0.049,0.096,-1.331,0.139,0.287,-0.202,-0.779,0.595
2024-10-15 14:04:04.281,74995.735,-0.127,0.76,-0.637,0.062,0.028,-0.056,0.467,0.256,-0.266,-0.197,-0.863,0.571
2024-10-15 14:04:04.401,74995.855,-0.152,0.688,-0.709,-0.117,0.03,-0.166,1.468,-0.497,0.047,-0.212,-0.759,0.577
2024-10-15 14:04:04.520,74995.975,-0.143,0.764,-0.629,0.138,0.03,0.062,-1.75,0.091,0.152,-0.224,-0.869,0.57
2024-10-15 14:04:04.640,74996.095,-0.152,0.737,-0.658,-0.046,0.131,0.12,1.084,-0.161,-0.349,-0.227,-0.829,0.543
2024-10-15 14:04:04.760,74996.215,-0.171,0.68,-0.713,0.014,-0.01,0.036,-0.967,-0.393,0.047,-0.235,-0.748,0.576
2024-10-15 14:04:04.879,74996.334,-0.162,0.747,-0.645,-0.084,0.242,-0.041,-0.413,0.536,-0.014,-0.247,-0.843,0.558
2024-10-15 14:04:04.999,74996.454,-0.134,0.739,-0.66,-0.021,0.253,0.16,2.636,-0.105,-0.327,-0.201,-0.831,0.544
2024-10-15 14:04:05.119,74996.574,-0.143,0.601,-0.787,0.059,-0.182,-0.16,-0.453,0.065,0.06,-0.18,-0.644,0.592
2024-10-15 14:04:05.240,74996.694,-0.102,0.76,-0.642,-0.117,0.119,0.019,-1.39,0.616,0.407,-0.158,-0.863,0.6
2024-10-15 14:04:05.359,74996.814,-0.035,0.875,-0.484,0.061,0.077,-0.002,-1.151,0.861,0.07,-0.072,-1.064,0.596
2024-10-15 14:04:05.479,74996.933,0.005,0.896,-0.445,0.016,0.071,0.064,0.514,0.174,-0.018,0.01,-1.11,0.614
2024-10-15 14:04:05.599,74997.053,-0.0,0.86,-0.51,0.095,0.058,-0.075,0.782,-0.441,0.012,-0.001,-1.036,0.626
2024-10-15 14:04:05.718,74997.173,-0.039,0.763,-0.645,-0.02,-0.076,-0.028,0.902,-0.324,-0.043,-0.06,-0.868,0.617
2024-10-15 14:04:05.838,74997.293,-0.08,0.647,-0.758,-0.159,0.04,0.2,1.812,-0.359,0.16,-0.105,-0.703,0.617
2024-10-15 14:04:05.958,74997.413,-0.137,0.628,-0.766,-0.203,-0.057,0.02,-1.003,-0.671,0.279,-0.178,-0.679,0.655
2024-10-15 14:04:06.078,74997.532,-0.178,0.646,-0.743,0.169,0.352,-0.218,-0.062,-0.012,-0.092,-0.235,-0.702,0.626
2024-10-15 14:04:06.197,74997.652,-0.153,0.667,-0.729,0.026,-0.062,0.012,-0.529,0.349,0.173,-0.207,-0.73,0.643
2024-10-15 14:04:06.317,74997.772,-0.115,0.688,-0.716,-0.073,0.14,0.064,1.424,0.0,-0.476,-0.159,-0.759,0.63
2024-10-15 14:04:06.437,74997.892,-0.148,0.604,-0.783,-0.213,-0.061,0.113,0.187,-0.573,0.018,-0.187,-0.649,0.639
2024-10-15 14:04:06.557,74998.012,-0.194,0.623,-0.758,0.181,-0.061,0.001,-0.073,-0.223,-0.052,-0.251,-0.673,0.632
2024-10-15 14:04:06.677,74998.131,-0.176,0.729,-0.661,0.092,0.202,0.013,-1.075,0.427,0.023,-0.261,-0.817,0.589
2024-10-15 14:04:06.796,74998.251,-0.158,0.726,-0.669,-0.095,0.07,0.164,2.684,-0.082,-0.736,-0.232,-0.813,0.567
2024-10-15 14:04:06.916,74998.371,-0.181,0.646,-0.742,-0.188,0.011,0.009,0.055,-0.387,0.203,-0.24,-0.702,0.604
2024-10-15 14:04:07.037,74998.491,-0.227,0.703,-0.674,0.329,-0.042,-0.189,-1.093,0.203,0.08,-0.325,-0.779,0.58
2024-10-15 14:04:07.156,74998.611,-0.163,0.811,-0.562,0.07,0.237,-0.039,-0.308,0.693,0.297,-0.283,-0.946,0.557
2024-10-15 14:04:07.276,74998.73,-0.18,0.668,-0.722,-0.315,-0.264,-0.188,0.282,-0.217,-0.135,-0.244,-0.731,0.559
2024-10-15 14:04:07.395,74998.85,-0.203,0.647,-0.734,0.033,-0.191,-0.106,-1.164,-0.788,0.296,-0.27,-0.704,0.606
2024-10-15 14:04:07.515,74998.97,-0.228,0.707,-0.669,0.156,-0.106,0.008,-1.243,0.019,0.203,-0.328,-0.786,0.578
2024-10-15 14:04:07.635,74999.09,-0.165,0.782,-0.601,0.045,0.068,-0.102,-0.783,0.962,0.53,-0.268,-0.898,0.584
2024-10-15 14:04:07.755,74999.21,-0.074,0.805,-0.588,0.083,-0.105,0.083,0.035,0.461,0.15,-0.125,-0.936,0.625
2024-10-15 14:04:07.875,74999.329,-0.064,0.777,-0.627,-0.15,-0.115,0.039,0.612,-0.099,-0.091,-0.101,-0.889,0.642
2024-10-15 14:04:07.994,74999.449,-0.06,0.744,-0.666,0.01,-0.026,0.008,-0.854,0.059,0.111,-0.09,-0.839,0.634
2024-10-15 14:04:08.115,74999.569,-0.071,0.722,-0.688,-0.175,0.224,-0.08,1.717,-0.245,-0.031,-0.103,-0.807,0.637
2024-10-15 14:04:08.234,74999.689,-0.086,0.681,-0.727,0.021,-0.08,-0.028,-0.807,-0.189,0.147,-0.117,-0.749,0.671
2024-10-15 14:04:08.354,74999.808,-0.095,0.634,-0.767,0.21,-0.02,0.192,2.191,0.343,-0.374,-0.123,-0.687,0.671
2024-10-15 14:04:08.474,74999.928,-0.108,0.613,-0.783,-0.109,-0.118,-0.173,-0.282,-0.012,0.436,-0.137,-0.66,0.673
2024-10-15 14:04:08.593,75000.048,-0.09,0.689,-0.72,0.249,0.178,0.029,-0.234,0.042,-0.129,-0.125,-0.759,0.686
2024-10-15 14:04:08.713,75000.168,-0.09,0.658,-0.747,-0.345,0.198,-0.001,0.076,0.108,0.044,-0.12,-0.718,0.655
2024-10-15 14:04:08.832,75000.288,-0.068,0.717,-0.694,0.234,0.147,0.176,-0.052,0.033,0.049,-0.098,-0.799,0.695
2024-10-15 14:04:08.953,75000.407,-0.081,0.695,-0.715,0.031,-0.1,-0.034,0.052,-0.096,-0.123,-0.113,-0.768,0.654
2024-10-15 14:04:09.073,75000.527,-0.066,0.722,-0.689,0.006,-0.28,0.009,-2.782,-0.164,0.223,-0.095,-0.807,0.694
2024-10-15 14:04:09.192,75000.647,-0.079,0.745,-0.663,-0.146,0.249,0.246,2.199,0.371,-0.727,-0.118,-0.84,0.664
2024-10-15 14:04:09.312,75000.767,-0.074,0.72,-0.69,0.002,-0.338,-0.317,-2.41,-0.101,0.464,-0.107,-0.804,0.684
2024-10-15 14:04:09.432,75000.887,-0.09,0.764,-0.638,-0.099,0.265,0.064,0.55,-0.007,-0.283,-0.14,-0.87,0.672
2024-10-15 14:04:09.552,75001.006,-0.101,0.703,-0.704,-0.188,-0.008,-0.054,0.393,-0.344,0.368,-0.143,-0.78,0.635
2024-10-15 14:04:09.672,75001.126,-0.095,0.758,-0.645,0.276,-0.074,0.21,0.249,-0.041,-0.091,-0.146,-0.86,0.668
2024-10-15 14:04:09.791,75001.246,-0.124,0.69,-0.713,-0.192,0.28,-0.076,0.696,0.4,-0.343,-0.173,-0.762,0.607
2024-10-15 14:04:09.911,75001.366,-0.111,0.729,-0.675,0.096,0.262,-0.027,-0.855,-0.177,0.222,-0.163,-0.817,0.654
2024-10-15 14:04:10.031,75001.486,-0.125,0.692,-0.711,0.047,-0.118,-0.065,0.9,0.673,-0.545,-0.174,-0.764,0.623
2024-10-15 14:04:10.151,75001.605,-0.116,0.717,-0.687,-0.016,-0.188,-0.134,-1.484,-0.183,0.221,-0.168,-0.8,0.624
2024-10-15 14:04:10.270,75001.725,-0.115,0.675,-0.729,0.052,-0.273,-0.139,0.772,0.388,-0.247,-0.156,-0.741,0.594
2024-10-15 14:04:10.390,75001.845,-0.126,0.687,-0.716,0.046,-0.253,0.249,-1.49,-0.471,0.009,-0.175,-0.757,0.622
2024-10-15 14:04:10.510,75001.965,-0.124,0.677,-0.726,0.055,0.076,-0.102,0.921,0.309,-0.155,-0.169,-0.743,0.607
2024-10-15 14:04:10.630,75002.085,-0.126,0.707,-0.696,0.181,-0.102,0.257,-1.528,-0.109,0.103,-0.18,-0.785,0.604
2024-10-15 14:04:10.750,75002.204,-0.111,0.811,-0.575,0.022,-0.059,-0.124,-1.197,0.272,0.095,-0.19,-0.945,0.565
2024-10-15 14:04:10.870,75002.324,-0.079,0.846,-0.527,-0.026,0.047,0.069,0.254,0.09,0.213,-0.15,-1.009,0.58
2024-10-15 14:04:10.989,75002.444,-0.054,0.797,-0.601,-0.031,-0.009,-0.027,1.577,0.033,0.168,-0.089,-0.923,0.656
2024-10-15 14:04:11.109,75002.564,-0.047,0.718,-0.695,-0.021,0.008,0.008,-0.071,0.324,0.059,-0.067,-0.801,0.659
2024-10-15 14:04:11.229,75002.684,-0.038,0.73,-0.682,-0.023,0.162,0.015,0.515,-0.014,0.011,-0.056,-0.819,0.647
2024-10-15 14:04:11.349,75002.803,-0.056,0.667,-0.743,-0.129,-0.088,-0.145,0.292,-0.279,0.407,-0.076,-0.73,0.652
2024-10-15 14:04:11.469,75002.923,-0.057,0.722,-0.69,0.383,-0.132,0.094,-0.359,-0.262,-0.166,-0.082,-0.806,0.7
2024-10-15 14:04:11.588,75003.043,-0.077,0.69,-0.719,-0.128,0.023,0.057,-0.375,0.198,-0.289,-0.107,-0.762,0.646
2024-10-15 14:04:11.708,75003.163,-0.071,0.709,-0.702,-0.007,-0.265,0.128,-1.55,-0.451,0.532,-0.1,-0.787,0.677
2024-10-15 14:04:11.828,75003.283,-0.078,0.744,-0.663,-0.024,0.195,0.033,0.233,0.091,-0.278,-0.117,-0.839,0.68
2024-10-15 14:04:11.948,75003.402,-0.08,0.717,-0.693,-0.166,-0.08,-0.183,0.414,-0.136,0.284,-0.116,-0.799,0.674
2024-10-15 14:04:12.067,75003.522,-0.075,0.746,-0.662,0.238,0.069,0.177,0.321,-0.121,-0.21,-0.112,-0.842,0.687
2024-10-15 14:04:12.187,75003.642,-0.094,0.729,-0.678,-0.256,0.119,-0.116,0.188,-0.158,0.208,-0.137,-0.817,0.652
2024-10-15 14:04:12.307,75003.762,-0.072,0.791,-0.608,0.152,0.063,0.116,0.001,0.109,0.029,-0.118,-0.912,0.677
2024-10-15 14:04:12.427,75003.882,-0.099,0.757,-0.646,-0.049,-0.154,-0.056,-0.022,-0.189,-0.203,-0.153,-0.858,0.635
2024-10-15 14:04:12.546,75004.001,-0.091,0.772,-0.63,0.028,-0.035,-0.025,-0.962,-0.054,0.031,-0.143,-0.881,0.665
2024-10-15 14:04:12.666,75004.121,-0.105,0.744,-0.66,-0.031,-0.064,-0.03,1.371,0.662,-0.582,-0.157,-0.839,0.626
2024-10-15 14:04:12.787,75004.241,-0.101,0.744,-0.661,-0.029,-0.31,-0.035,-2.278,-0.342,0.148,-0.151,-0.839,0.651
2024-10-15 14:04:12.906,75004.361,-0.111,0.747,-0.656,-0.248,0.226,-0.062,1.561,0.573,-0.527,-0.168,-0.843,0.63
2024-10-15 14:04:13.026,75004.48,-0.115,0.705,-0.7,0.029,-0.181,-0.234,0.019,-0.244,0.395,-0.163,-0.782,0.636
2024-10-15 14:04:13.146,75004.6,-0.118,0.746,-0.655,0.029,0.095,0.107,-0.219,-0.001,-0.299,-0.179,-0.843,0.636
2024-10-15 14:04:13.265,75004.72,-0.12,0.691,-0.713,-0.112,0.065,-0.056,0.566,-0.333,0.245,-0.167,-0.763,0.611
2024-10-15 14:04:13.385,75004.84,-0.119,0.734,-0.668,0.215,-0.079,0.254,0.061,0.012,0.094,-0.177,-0.825,0.629
2024-10-15 14:04:13.505,75004.96,-0.123,0.705,-0.698,-0.101,0.131,-0.129,0.338,0.213,-0.025,-0.175,-0.783,0.606
2024-10-15 14:04:13.625,75005.079,-0.118,0.721,-0.683,0.091,-0.083,0.134,-0.386,-0.025,0.106,-0.171,-0.805,0.626
2024-10-15 14:04:13.745,75005.199,-0.126,0.702,-0.701,-0.063,-0.024,-0.003,-0.111,-0.117,-0.016,-0.177,-0.779,0.608
2024-10-15 14:04:13.865,75005.319,-0.125,0.742,-0.658,-0.024,-0.097,0.138,-0.882,-0.059,0.284,-0.187,-0.836,0.62
2024-10-15 14:04:13.984,75005.439,-0.076,0.86,-0.504,0.028,0.042,-0.059,-1.771,0.617,0.254,-0.149,-1.036,0.608
2024-10-15 14:04:14.104,75005.559,-0.042,0.904,-0.425,-0.007,0.073,0.071,0.464,-0.007,-0.07,-0.099,-1.13,0.619
2024-10-15 14:04:14.224,75005.678,-0.069,0.804,-0.59,-0.008,0.054,0.037,2.307,-0.24,-0.035,-0.117,-0.934,0.63
2024-10-15 14:04:14.344,75005.798,-0.087,0.713,-0.696,-0.219,-0.013,-0.075,0.662,-0.184,0.105,-0.125,-0.794,0.649
2024-10-15 14:04:14.463,75005.918,-0.078,0.776,-0.625,0.213,0.006,0.128,0.208,-0.135,0.049,-0.124,-0.889,0.689
2024-10-15 14:04:14.584,75006.038,-0.087,0.72,-0.688,0.137,-0.062,0.099,0.857,0.523,-0.131,-0.126,-0.804,0.676
2024-10-15 14:04:14.703,75006.158,-0.077,0.715,-0.695,-0.056,-0.31,-0.29,-1.786,-0.078,0.336,-0.111,-0.796,0.702
2024-10-15 14:04:14.823,75006.277,-0.096,0.762,-0.64,-0.053,0.246,0.037,0.301,-0.157,-0.221,-0.149,-0.867,0.689
2024-10-15 14:04:14.942,75006.397,-0.11,0.716,-0.689,-0.228,0.047,-0.283,0.616,-0.163,0.306,-0.159,-0.799,0.695
2024-10-15 14:04:15.062,75006.517,-0.1,0.758,-0.645,0.327,-0.099,0.235,-0.14,-0.273,-0.186,-0.154,-0.86,0.701
2024-10-15 14:04:15.182,75006.637,-0.107,0.721,-0.684,-0.128,-0.069,0.076,0.175,-0.091,-0.006,-0.156,-0.805,0.676
2024-10-15 14:04:15.302,75006.757,-0.09,0.727,-0.681,0.032,-0.164,-0.127,-1.524,-0.046,0.092,-0.131,-0.813,0.703
2024-10-15 14:04:15.422,75006.876,-0.099,0.739,-0.666,-0.142,0.159,0.055,1.128,0.211,-0.511,-0.147,-0.832,0.679
2024-10-15 14:04:15.542,75006.996,-0.108,0.684,-0.722,-0.035,-0.145,-0.147,0.553,-0.324,0.375,-0.149,-0.753,0.664
2024-10-15 14:04:15.661,75007.116,-0.095,0.729,-0.677,0.283,-0.28,0.247,-0.649,-0.278,-0.251,-0.14,-0.818,0.684
2024-10-15 14:04:15.781,75007.236,-0.119,0.704,-0.7,-0.195,0.289,-0.07,0.311,-0.268,0.117,-0.169,-0.781,0.648
2024-10-15 14:04:15.901,75007.356,-0.122,0.719,-0.685,0.134,0.055,0.353,0.151,0.164,0.244,-0.177,-0.802,0.668
2024-10-15 14:04:16.021,75007.475,-0.129,0.706,-0.697,-0.199,0.293,-0.038,0.164,-0.164,-0.156,-0.183,-0.784,0.637
2024-10-15 14:04:16.140,75007.595,-0.137,0.713,-0.688,0.078,0.118,0.214,0.173,0.151,0.17,-0.196,-0.793,0.661
2024-10-15 14:04:16.260,75007.715,-0.137,0.682,-0.718,-0.169,0.215,-0.055,0.485,-0.284,-0.046,-0.189,-0.751,0.639
2024-10-15 14:04:16.380,75007.835,-0.145,0.691,-0.708,0.167,-0.016,0.196,-0.724,0.271,0.155,-0.202,-0.762,0.657
2024-10-15 14:04:16.500,75007.955,-0.151,0.677,-0.72,-0.187,0.344,0.016,1.128,-0.213,-0.073,-0.207,-0.744,0.625
2024-10-15 14:04:16.620,75008.074,-0.152,0.714,-0.683,0.055,-0.562,0.265,-2.524,0.423,0.164,-0.219,-0.796,0.629
2024-10-15 14:04:16.739,75008.194,-0.103,0.877,-0.47,-0.007,0.139,-0.021,-1.75,0.947,0.009,-0.216,-1.069,0.532
2024-10-15 14:04:16.859,75008.314,-0.071,0.901,-0.428,-0.015,0.072,0.068,0.605,0.035,0.272,-0.164,-1.122,0.523
2024-10-15 14:04:16.979,75008.434,-0.065,0.863,-0.5,0.051,-0.011,-0.035,0.79,-0.14,-0.06,-0.129,-1.042,0.576
2024-10-15 14:04:17.099,75008.553,-0.092,0.808,-0.583,0.069,0.038,-0.117,0.975,-0.259,-0.11,-0.157,-0.94,0.582
2024-10-15 14:04:17.219,75008.673,-0.119,0.733,-0.67,-0.021,0.115,0.108,0.865,-0.091,-0.573,-0.176,-0.823,0.575
2024-10-15 14:04:17.338,75008.793,-0.142,0.62,-0.772,-0.248,-0.152,0.084,0.587,-0.143,0.136,-0.182,-0.669,0.583
2024-10-15 14:04:17.458,75008.913,-0.146,0.673,-0.725,-0.003,0.065,0.051,-0.891,-0.377,0.427,-0.199,-0.739,0.612
2024-10-15 14:04:17.578,75009.033,-0.124,0.712,-0.691,0.272,-0.011,-0.043,-0.912,0.112,-0.007,-0.177,-0.793,0.632
2024-10-15 14:04:17.698,75009.152,-0.121,0.685,-0.719,-0.012,0.167,-0.011,1.234,0.196,-0.457,-0.167,-0.754,0.617
2024-10-15 14:04:17.818,75009.272,-0.13,0.614,-0.779,-0.306,-0.047,0.075,0.939,-0.243,0.116,-0.166,-0.661,0.622
2024-10-15 14:04:17.937,75009.392,-0.15,0.659,-0.737,-0.072,0.183,-0.013,-0.547,-0.564,0.501,-0.201,-0.719,0.67
2024-10-15 14:04:18.057,75009.512,-0.162,0.643,-0.749,0.343,-0.087,-0.093,-0.001,0.022,-0.161,-0.213,-0.698,0.693
2024-10-15 14:04:18.177,75009.632,-0.152,0.619,-0.771,-0.047,-0.302,0.164,-0.011,0.241,-0.255,-0.195,-0.667,0.68
2024-10-15 14:04:18.297,75009.751,-0.138,0.639,-0.757,-0.082,-0.063,-0.069,-0.204,-0.014,0.259,-0.18,-0.693,0.676
2024-10-15 14:04:18.417,75009.871,-0.121,0.709,-0.695,0.335,-0.087,0.031,0.157,0.047,-0.066,-0.172,-0.788,0.697
2024-10-15 14:04:18.536,75009.991,-0.126,0.706,-0.697,-0.143,0.097,-0.024,-0.42,0.136,-0.21,-0.179,-0.784,0.651
2024-10-15 14:04:18.656,75010.111,-0.112,0.728,-0.676,0.06,-0.082,-0.022,-1.374,-0.264,0.158,-0.164,-0.816,0.682
2024-10-15 14:04:18.776,75010.231,-0.127,0.724,-0.678,-0.099,0.09,0.039,1.572,0.769,-0.778,-0.185,-0.809,0.653
2024-10-15 14:04:18.896,75010.35,-0.123,0.707,-0.696,-0.008,-0.239,-0.165,-0.538,0.067,0.313,-0.175,-0.785,0.655
2024-10-15 14:04:19.016,75010.47,-0.126,0.744,-0.656,0.015,0.05,0.034,-0.037,0.15,-0.249,-0.19,-0.839,0.651
2024-10-15 14:04:19.136,75010.59,-0.127,0.705,-0.697,-0.047,0.113,-0.22,0.926,-0.206,0.241,-0.179,-0.783,0.645
2024-10-15 14:04:19.255,75010.71,-0.13,0.731,-0.67,0.159,-0.083,0.156,-0.351,-0.027,-0.218,-0.192,-0.82,0.651
2024-10-15 14:04:19.375,75010.83,-0.127,0.715,-0.688,-0.191,0.316,-0.022,0.877,-0.08,0.101,-0.183,-0.796,0.624
2024-10-15 14:04:19.495,75010.949,-0.129,0.722,-0.68,0.145,-0.064,0.18,0.055,0.098,-0.107,-0.188,-0.806,0.646
2024-10-15 14:04:19.615,75011.069,-0.128,0.705,-0.698,-0.119,0.403,-0.084,0.531,-0.032,0.016,-0.181,-0.782,0.621
2024-10-15 14:04:19.734,75011.189,-0.131,0.724,-0.677,0.169,-0.123,0.279,-0.194,0.022,-0.151,-0.191,-0.81,0.635
2024-10-15 14:04:19.854,75011.309,-0.133,0.705,-0.697,-0.132,0.246,-0.007,0.605,-0.143,0.069,-0.188,-0.782,0.608
2024-10-15 14:04:19.974,75011.429,-0.135,0.723,-0.677,0.128,-0.167,0.244,-0.219,0.077,-0.111,-0.197,-0.808,0.623
2024-10-15 14:04:20.094,75011.548,-0.125,0.703,-0.7,-0.152,0.284,-0.059,0.624,-0.161,-0.001,-0.177,-0.78,0.607
2024-10-15 14:04:20.213,75011.668,-0.13,0.722,-0.679,0.049,-0.044,0.131,0.026,0.112,-0.059,-0.189,-0.807,0.623
2024-10-15 14:04:20.333,75011.788,-0.103,0.774,-0.625,0.016,-0.064,-0.111,-1.459,0.665,0.115,-0.163,-0.885,0.602
2024-10-15 14:04:20.453,75011.908,-0.046,0.841,-0.539,-0.024,0.239,0.134,0.648,0.073,0.203,-0.086,-0.999,0.606
2024-10-15 14:04:20.573,75012.028,-0.054,0.787,-0.614,0.003,-0.07,-0.105,0.828,-0.238,0.02,-0.087,-0.906,0.665
2024-10-15 14:04:20.693,75012.147,-0.071,0.759,-0.648,0.048,-0.005,-0.0,-0.089,0.099,-0.086,-0.109,-0.861,0.641
2024-10-15 14:04:20.813,75012.267,-0.076,0.758,-0.648,-0.004,0.123,-0.102,0.709,-0.463,0.193,-0.117,-0.86,0.655
2024-10-15 14:04:20.932,75012.387,-0.082,0.764,-0.64,0.253,-0.348,0.172,0.038,-0.22,-0.034,-0.128,-0.869,0.686
2024-10-15 14:04:21.052,75012.507,-0.095,0.756,-0.648,0.007,-0.095,0.012,-0.754,0.411,-0.297,-0.146,-0.857,0.646
2024-10-15 14:04:21.172,75012.627,-0.087,0.735,-0.672,-0.095,-0.015,-0.228,0.548,-0.243,0.2,-0.129,-0.826,0.656
2024-10-15 14:04:21.292,75012.746,-0.084,0.754,-0.651,0.274,-0.391,0.152,-0.495,-0.357,-0.14,-0.128,-0.854,0.688
2024-10-15 14:04:21.412,75012.866,-0.099,0.738,-0.668,-0.096,0.202,-0.122,0.181,0.324,-0.167,-0.147,-0.83,0.642
2024-10-15 14:04:21.531,75012.986,-0.089,0.751,-0.654,0.062,-0.037,0.048,-1.75,-0.525,0.31,-0.135,-0.85,0.676
2024-10-15 14:04:21.651,75013.106,-0.108,0.766,-0.634,-0.121,0.338,0.059,0.705,0.261,-0.266,-0.169,-0.873,0.662
2024-10-15 14:04:21.771,75013.225,-0.111,0.743,-0.66,-0.173,0.075,0.03,0.579,-0.06,0.075,-0.166,-0.837,0.635
2024-10-15 14:04:21.891,75013.345,-0.1,0.749,-0.655,0.27,-0.217,0.166,-0.191,-0.02,0.037,-0.152,-0.847,0.666
2024-10-15 14:04:22.011,75013.465,-0.117,0.726,-0.677,-0.173,0.178,-0.146,-0.014,0.21,-0.16,-0.171,-0.813,0.613
2024-10-15 14:04:22.131,75013.585,-0.122,0.711,-0.692,0.163,-0.197,0.198,-1.99,-0.692,0.249,-0.175,-0.792,0.662
2024-10-15 14:04:22.250,75013.705,-0.134,0.721,-0.68,-0.197,0.225,0.044,1.117,0.823,-0.6,-0.195,-0.805,0.635
2024-10-15 14:04:22.370,75013.824,-0.139,0.681,-0.719,-0.083,-0.128,-0.313,-0.008,-0.341,0.426,-0.191,-0.749,0.638
2024-10-15 14:04:22.490,75013.944,-0.14,0.725,-0.675,0.347,-0.242,0.26,-0.673,-0.27,-0.24,-0.205,-0.81,0.642
2024-10-15 14:04:22.609,75014.064,-0.14,0.693,-0.707,-0.285,0.496,-0.061,0.991,-0.153,0.172,-0.195,-0.766,0.591
2024-10-15 14:04:22.729,75014.184,-0.154,0.725,-0.671,0.017,0.426,-0.049,0.51,-0.036,0.069,-0.226,-0.811,0.64
2024-10-15 14:04:22.848,75014.304,-0.154,0.713,-0.684,-0.072,-0.031,0.103,0.706,1.111,-0.633,-0.222,-0.794,0.607
2024-10-15 14:04:22.969,75014.423,-0.147,0.687,-0.712,0.022,-0.211,-0.372,-0.846,-0.285,0.476,-0.204,-0.757,0.633
2024-10-15 14:04:23.088,75014.543,-0.16,0.746,-0.646,-0.104,0.147,0.069,-0.658,0.315,-0.469,-0.243,-0.842,0.608
2024-10-15 14:04:23.208,75014.663,-0.153,0.707,-0.691,-0.064,-0.127,-0.159,0.688,-0.363,0.439,-0.218,-0.785,0.59
2024-10-15 14:04:23.328,75014.783,-0.152,0.725,-0.672,0.187,-0.637,0.192,-0.402,0.021,-0.276,-0.223,-0.811,0.646
2024-10-15 14:04:23.448,75014.903,-0.159,0.75,-0.643,-0.191,0.333,-0.019,0.686,-0.127,0.106,-0.243,-0.847,0.571
2024-10-15 14:04:23.568,75015.022,-0.153,0.733,-0.663,0.127,-0.022,0.059,-0.233,0.053,0.077,-0.227,-0.822,0.64
2024-10-15 14:04:23.688,75015.142,-0.156,0.737,-0.657,0.07,0.249,-0.164,0.535,-0.279,0.23,-0.233,-0.829,0.581
2024-10-15 14:04:23.808,75015.262,-0.162,0.735,-0.659,0.068,-0.284,0.16,-1.693,0.05,0.259,-0.241,-0.825,0.633
2024-10-15 14:04:23.928,75015.382,-0.094,0.888,-0.45,-0.023,0.114,-0.188,-2.287,1.251,0.218,-0.206,-1.093,0.565
2024-10-15 14:04:24.047,75015.502,-0.058,0.888,-0.455,0.08,0.105,0.086,1.564,-0.185,-0.003,-0.126,-1.094,0.592
2024-10-15 14:04:24.167,75015.621,-0.079,0.815,-0.574,0.008,0.067,0.078,1.304,-0.216,-0.268,-0.137,-0.953,0.618
2024-10-15 14:04:24.286,75015.741,-0.126,0.702,-0.701,-0.055,-0.204,-0.313,0.723,-0.547,0.2,-0.178,-0.779,0.629
2024-10-15 14:04:24.407,75015.861,-0.135,0.714,-0.686,0.046,-0.198,0.036,-0.659,0.201,0.025,-0.195,-0.796,0.645
2024-10-15 14:04:24.526,75015.981,-0.137,0.703,-0.698,-0.273,0.507,0.106,1.8,-0.069,0.034,-0.194,-0.779,0.607
2024-10-15 14:04:24.646,75016.101,-0.149,0.7,-0.699,0.131,-0.293,0.149,-0.879,-0.156,0.196,-0.21,-0.775,0.647
2024-10-15 14:04:24.766,75016.22,-0.108,0.845,-0.524,0.105,-0.208,-0.159,-3.276,0.817,0.341,-0.203,-1.006,0.596
2024-10-15 14:04:24.886,75016.34,-0.01,0.909,-0.416,0.172,0.112,0.107,1.523,0.577,0.341,-0.025,-1.142,0.658
2024-10-15 14:04:25.005,75016.46,-0.029,0.804,-0.594,-0.069,0.199,0.108,3.627,-0.478,-0.629,-0.048,-0.933,0.637
2024-10-15 14:04:25.125,75016.58,-0.148,0.511,-0.847,-0.19,-0.139,0.238,1.073,-1.339,-0.159,-0.173,-0.537,0.621
2024-10-15 14:04:25.247,75016.7,-0.255,0.463,-0.849,-0.506,0.099,-0.211,0.133,-0.363,0.468,-0.292,-0.481,0.652
2024-10-15 14:04:25.365,75016.819,-0.25,0.575,-0.779,-0.078,0.007,-0.136,-2.724,-0.075,1.15,-0.31,-0.612,0.72
2024-10-15 14:04:25.485,75016.939,-0.143,0.866,-0.479,0.44,-0.011,-0.182,-1.53,0.955,0.167,-0.29,-1.047,0.663
2024-10-15 14:04:25.604,75017.059,-0.057,0.874,-0.482,0.232,0.07,0.03,1.651,0.583,0.04,-0.117,-1.064,0.725
2024-10-15 14:04:25.724,75017.179,-0.094,0.694,-0.714,0.055,-0.09,0.159,2.217,-0.604,-0.649,-0.131,-0.767,0.719
2024-10-15 14:04:25.844,75017.299,-0.208,0.503,-0.839,-0.498,0.222,0.286,0.33,-0.859,0.184,-0.242,-0.527,0.674
2024-10-15 14:04:25.963,75017.418,-0.233,0.561,-0.794,-0.117,-0.005,0.147,-1.524,-1.049,1.789,-0.285,-0.596,0.812
2024-10-15 14:04:26.084,75017.538,-0.174,0.767,-0.618,0.125,-0.219,-0.473,-1.511,0.746,0.588,-0.274,-0.874,0.894
2024-10-15 14:04:26.204,75017.658,-0.07,0.8,-0.596,0.106,-0.139,-0.035,1.047,1.377,-0.775,-0.117,-0.928,0.877
2024-10-15 14:04:26.323,75017.778,-0.121,0.561,-0.819,-0.016,0.165,0.261,2.167,0.098,-1.466,-0.147,-0.595,0.704
2024-10-15 14:04:26.443,75017.897,-0.178,0.579,-0.796,-0.169,0.281,-0.113,-0.333,-0.575,1.227,-0.22,-0.617,0.722
2024-10-15 14:04:26.563,75018.017,-0.076,0.808,-0.584,-0.003,-0.067,-0.338,-1.069,0.664,0.605,-0.13,-0.941,0.866
2024-10-15 14:04:26.683,75018.137,-0.016,0.79,-0.613,0.054,-0.007,0.004,0.808,1.382,-0.69,-0.026,-0.91,0.816
2024-10-15 14:04:26.802,75018.257,0.004,0.773,-0.635,0.112,-0.031,0.097,-0.22,0.411,-0.212,0.006,-0.883,0.722
2024-10-15 14:04:26.922,75018.377,-0.027,0.765,-0.644,-0.041,0.1,0.047,0.675,-0.14,-0.364,-0.042,-0.871,0.656
2024-10-15 14:04:27.042,75018.496,-0.057,0.732,-0.679,-0.049,0.034,0.013,0.234,-0.25,-0.111,-0.084,-0.821,0.638
2024-10-15 14:04:27.162,75018.616,-0.091,0.666,-0.741,-0.052,-0.013,0.049,0.745,-0.302,-0.334,-0.123,-0.728,0.62
2024-10-15 14:04:27.281,75018.736,-0.127,0.602,-0.789,-0.156,0.041,-0.063,0.935,-0.277,0.107,-0.159,-0.646,0.629
2024-10-15 14:04:27.401,75018.856,-0.158,0.576,-0.802,-0.152,0.109,-0.0,0.08,-0.449,0.204,-0.194,-0.614,0.653
2024-10-15 14:04:27.521,75018.976,-0.188,0.582,-0.792,-0.04,-0.004,0.034,-0.334,-0.37,0.224,-0.233,-0.621,0.679
2024-10-15 14:04:27.641,75019.095,-0.201,0.607,-0.769,0.211,-0.118,-0.229,-0.427,0.082,0.058,-0.256,-0.652,0.687
2024-10-15 14:04:27.760,75019.215,-0.156,0.728,-0.667,0.187,0.243,0.123,-0.291,0.832,0.118,-0.23,-0.816,0.651
2024-10-15 14:04:27.880,75019.335,-0.094,0.758,-0.645,0.006,0.164,-0.01,1.307,0.433,-0.729,-0.145,-0.86,0.65
2024-10-15 14:04:28.000,75019.455,-0.132,0.621,-0.772,-0.297,0.05,-0.066,0.348,-0.235,-0.01,-0.169,-0.67,0.593
2024-10-15 14:04:28.120,75019.575,-0.159,0.562,-0.812,-0.172,-0.003,-0.001,0.152,-0.354,0.099,-0.193,-0.597,0.612
2024-10-15 14:04:28.240,75019.694,-0.182,0.58,-0.794,-0.103,-0.001,0.212,-0.281,-0.398,0.224,-0.225,-0.618,0.634
2024-10-15 14:04:28.359,75019.814,-0.19,0.608,-0.771,0.216,-0.102,-0.143,-0.524,-0.147,0.092,-0.242,-0.654,0.649
2024-10-15 14:04:28.479,75019.934,-0.157,0.74,-0.654,0.268,0.239,-0.104,-0.776,0.613,-0.188,-0.235,-0.833,0.611
2024-10-15 14:04:28.599,75020.054,-0.075,0.796,-0.601,0.187,-0.211,0.207,-0.445,0.352,-0.333,-0.124,-0.921,0.624
2024-10-15 14:04:28.719,75020.174,-0.14,0.628,-0.766,-0.281,0.041,0.117,1.539,-0.265,-0.437,-0.181,-0.679,0.555
2024-10-15 14:04:28.839,75020.293,-0.157,0.561,-0.813,-0.18,-0.142,0.097,0.299,-0.302,0.034,-0.191,-0.596,0.57
2024-10-15 14:04:28.958,75020.413,-0.182,0.547,-0.817,-0.098,0.01,0.099,0.109,-0.367,0.218,-0.219,-0.579,0.601
2024-10-15 14:04:29.078,75020.533,-0.202,0.573,-0.794,0.168,-0.025,-0.08,-0.275,-0.13,0.041,-0.249,-0.61,0.618
2024-10-15 14:04:29.199,75020.653,-0.179,0.692,-0.699,0.348,-0.182,-0.093,-2.718,0.272,0.174,-0.25,-0.765,0.586
2024-10-15 14:04:29.317,75020.773,-0.074,0.814,-0.576,0.189,0.065,0.079,-0.43,0.604,0.784,-0.127,-0.951,0.649
2024-10-15 14:04:29.438,75020.892,-0.065,0.715,-0.696,-0.094,0.058,0.07,2.609,-0.294,-0.549,-0.093,-0.797,0.664
2024-10-15 14:04:29.558,75021.012,-0.12,0.57,-0.813,-0.3,0.079,-0.06,0.476,0.257,-0.149,-0.147,-0.607,0.628
2024-10-15 14:04:29.677,75021.132,-0.129,0.534,-0.836,-0.145,-0.083,0.031,-0.176,-0.328,0.092,-0.153,-0.563,0.634
2024-10-15 14:04:29.797,75021.252,-0.143,0.574,-0.807,0.038,-0.038,0.034,-0.333,-0.195,0.094,-0.175,-0.611,0.65
2024-10-15 14:04:29.917,75021.372,-0.141,0.618,-0.773,0.273,-0.113,-0.099,-0.823,0.228,-0.089,-0.181,-0.667,0.636
2024-10-15 14:04:30.037,75021.491,-0.112,0.736,-0.668,0.019,0.198,-0.139,-0.667,0.354,0.038,-0.166,-0.827,0.602
2024-10-15 14:04:30.156,75021.611,-0.041,0.799,-0.6,0.086,0.038,0.081,-0.827,0.571,0.671,-0.069,-0.926,0.649
2024-10-15 14:04:30.276,75021.731,0.018,0.838,-0.545,0.066,-0.119,0.102,-0.148,-0.133,0.066,0.034,-0.994,0.743
2024-10-15 14:04:30.396,75021.851,-0.008,0.751,-0.66,-0.116,-0.026,0.099,2.273,-0.037,-0.283,-0.013,-0.85,0.728
2024-10-15 14:04:30.516,75021.971,-0.046,0.675,-0.737,-0.243,0.282,-0.255,0.829,0.16,-0.347,-0.062,-0.741,0.682
2024-10-15 14:04:30.636,75022.09,-0.031,0.628,-0.778,0.003,0.027,-0.025,0.094,-0.302,0.21,-0.04,-0.678,0.693
2024-10-15 14:04:30.756,75022.21,-0.022,0.68,-0.733,0.054,-0.042,0.097,-0.818,0.123,0.269,-0.03,-0.748,0.751
2024-10-15 14:04:30.876,75022.33,-0.009,0.665,-0.747,-0.005,-0.013,-0.095,0.547,0.332,-0.324,-0.013,-0.728,0.729
2024-10-15 14:04:30.995,75022.45,-0.007,0.662,-0.75,0.049,-0.213,-0.258,-1.342,-0.304,0.332,-0.009,-0.723,0.752
2024-10-15 14:04:31.115,75022.569,-0.017,0.699,-0.715,-0.136,0.119,0.115,0.598,0.261,-0.383,-0.024,-0.774,0.747
2024-10-15 14:04:31.234,75022.689,-0.027,0.646,-0.763,-0.041,-0.077,-0.154,0.302,-0.39,0.45,-0.035,-0.702,0.72
2024-10-15 14:04:31.355,75022.809,-0.026,0.694,-0.72,0.193,-0.059,0.093,-0.168,0.177,-0.194,-0.036,-0.767,0.745
2024-10-15 14:04:31.475,75022.929,-0.029,0.661,-0.75,-0.095,0.098,0.043,0.406,-0.105,0.171,-0.039,-0.722,0.69
2024-10-15 14:04:31.594,75023.049,-0.036,0.691,-0.722,-0.045,0.129,0.129,0.067,0.255,0.022,-0.05,-0.763,0.732
2024-10-15 14:04:31.714,75023.168,-0.03,0.654,-0.756,0.056,0.065,0.071,0.337,-0.025,-0.081,-0.04,-0.713,0.678
2024-10-15 14:04:31.834,75023.288,-0.047,0.655,-0.754,0.041,0.077,0.101,-1.012,-0.449,0.263,-0.062,-0.714,0.725
2024-10-15 14:04:31.954,75023.408,-0.04,0.644,-0.764,-0.085,0.03,-0.087,0.808,0.726,-0.567,-0.053,-0.699,0.691
2024-10-15 14:04:32.073,75023.528,-0.055,0.596,-0.801,0.054,-0.299,-0.143,-0.377,-1.019,0.219,-0.068,-0.639,0.715
2024-10-15 14:04:32.193,75023.648,-0.058,0.615,-0.787,-0.08,0.222,0.121,0.808,0.654,-0.405,-0.074,-0.662,0.703
2024-10-15 14:04:32.313,75023.767,-0.049,0.585,-0.81,0.037,-0.15,-0.251,-0.245,-0.429,0.411,-0.061,-0.625,0.703
2024-10-15 14:04:32.433,75023.887,-0.058,0.625,-0.778,-0.106,0.213,0.006,0.009,0.334,-0.26,-0.074,-0.676,0.707
2024-10-15 14:04:32.553,75024.007,-0.037,0.553,-0.832,-0.098,-0.128,-0.053,0.876,-0.071,0.351,-0.044,-0.586,0.686
2024-10-15 14:04:32.672,75024.127,-0.056,0.587,-0.808,0.228,-0.183,0.122,-0.345,-0.009,-0.134,-0.069,-0.627,0.709
2024-10-15 14:04:32.792,75024.247,-0.049,0.497,-0.866,-0.161,0.322,0.012,1.616,0.423,-0.092,-0.056,-0.52,0.661
2024-10-15 14:04:32.912,75024.366,-0.062,0.532,-0.844,0.004,0.106,0.034,-1.264,-0.608,0.373,-0.073,-0.561,0.692
2024-10-15 14:04:33.032,75024.486,-0.057,0.508,-0.86,-0.085,0.079,0.077,1.146,0.457,-0.619,-0.067,-0.532,0.66
2024-10-15 14:04:33.151,75024.606,-0.066,0.522,-0.85,0.104,-0.164,-0.27,-1.33,-0.701,0.312,-0.078,-0.55,0.68
2024-10-15 14:04:33.271,75024.726,-0.078,0.58,-0.811,-0.131,0.16,0.143,0.696,0.52,-0.579,-0.096,-0.618,0.658
2024-10-15 14:04:33.391,75024.846,-0.075,0.525,-0.848,0.026,-0.351,-0.287,-1.138,-0.387,0.33,-0.088,-0.553,0.663
2024-10-15 14:04:33.511,75024.965,-0.091,0.629,-0.772,0.022,0.042,0.193,-0.393,0.061,-0.482,-0.118,-0.68,0.645
2024-10-15 14:04:33.630,75025.085,-0.088,0.577,-0.812,-0.061,-0.241,-0.156,0.007,-0.259,0.42,-0.108,-0.615,0.636
2024-10-15 14:04:33.750,75025.205,-0.089,0.694,-0.714,0.032,-0.077,0.04,-1.288,0.135,-0.232,-0.124,-0.767,0.63
2024-10-15 14:04:33.870,75025.325,-0.089,0.764,-0.639,0.053,0.002,0.02,0.807,0.514,-0.653,-0.139,-0.869,0.554
2024-10-15 14:04:33.990,75025.445,-0.106,0.731,-0.675,-0.048,0.096,0.006,-0.226,0.033,-0.191,-0.156,-0.819,0.493
2024-10-15 14:04:34.109,75025.564,-0.081,0.708,-0.702,-0.062,-0.066,0.136,0.768,0.181,0.526,-0.115,-0.786,0.536
2024-10-15 14:04:34.230,75025.684,-0.071,0.596,-0.8,0.042,0.054,-0.081,1.028,0.098,-0.165,-0.089,-0.639,0.569
2024-10-15 14:04:34.349,75025.804,-0.087,0.519,-0.85,-0.203,0.246,0.043,1.075,-0.104,0.311,-0.102,-0.546,0.584
2024-10-15 14:04:34.469,75025.924,-0.1,0.579,-0.809,0.173,-0.02,-0.107,-0.432,-0.063,0.114,-0.123,-0.618,0.643
2024-10-15 14:04:34.589,75026.044,-0.103,0.566,-0.818,0.072,-0.144,0.111,-0.064,0.486,-0.72,-0.125,-0.602,0.577
2024-10-15 14:04:34.709,75026.163,-0.105,0.513,-0.852,-0.025,-0.356,-0.224,-1.003,-0.689,0.519,-0.122,-0.538,0.617
2024-10-15 14:04:34.829,75026.283,-0.12,0.632,-0.766,0.027,0.145,0.033,-0.824,0.41,-0.235,-0.155,-0.683,0.608
2024-10-15 14:04:34.948,75026.403,-0.093,0.754,-0.651,-0.025,0.05,0.086,-0.929,0.353,-0.079,-0.142,-0.853,0.525
2024-10-15 14:04:35.068,75026.523,-0.083,0.767,-0.637,0.064,-0.054,-0.08,-0.343,0.146,-0.135,-0.129,-0.874,0.51
2024-10-15 14:04:35.188,75026.643,-0.069,0.761,-0.646,0.0,0.059,0.138,0.922,-0.128,0.318,-0.106,-0.864,0.527
2024-10-15 14:04:35.308,75026.762,-0.066,0.668,-0.741,0.061,-0.03,-0.003,1.655,-0.338,0.06,-0.088,-0.732,0.585
2024-10-15 14:04:35.428,75026.882,-0.104,0.475,-0.874,-0.119,0.205,-0.121,1.795,-0.315,-0.095,-0.118,-0.495,0.609
2024-10-15 14:04:35.547,75027.002,-0.115,0.428,-0.896,-0.185,0.105,-0.049,0.493,-0.203,0.338,-0.128,-0.442,0.635
2024-10-15 14:04:35.667,75027.122,-0.133,0.435,-0.89,0.093,-0.002,-0.025,0.24,-0.401,0.262,-0.148,-0.45,0.69
2024-10-15 14:04:35.787,75027.242,-0.113,0.47,-0.875,-0.112,0.064,0.006,-0.053,0.966,-0.93,-0.128,-0.49,0.643
2024-10-15 14:04:35.906,75027.361,-0.081,0.458,-0.885,-0.108,-0.086,-0.141,0.544,-0.274,0.4,-0.092,-0.476,0.613
2024-10-15 14:04:36.027,75027.481,-0.125,0.465,-0.877,-0.005,0.048,0.067,0.0,-0.264,0.194,-0.142,-0.483,0.671
2024-10-15 14:04:36.146,75027.601,-0.11,0.551,-0.827,-0.091,-0.041,0.036,-1.26,0.67,-0.239,-0.132,-0.584,0.649
2024-10-15 14:04:36.266,75027.721,-0.054,0.681,-0.73,0.022,0.012,0.227,-0.532,0.409,-0.138,-0.074,-0.749,0.573
2024-10-15 14:04:36.386,75027.84,-0.068,0.575,-0.816,0.004,0.167,0.145,2.874,-0.453,0.01,-0.083,-0.612,0.613
2024-10-15 14:04:36.506,75027.96,-0.065,0.501,-0.863,0.079,-0.464,0.031,-2.36,0.218,-0.149,-0.075,-0.525,0.614
2024-10-15 14:04:36.625,75028.08,-0.017,0.666,-0.746,-0.028,0.048,0.087,-1.405,0.295,0.068,-0.023,-0.728,0.611
2024-10-15 14:04:36.745,75028.2,0.008,0.724,-0.689,0.021,0.075,-0.02,-0.08,-0.032,0.129,0.012,-0.81,0.635
2024-10-15 14:04:36.865,75028.32,0.019,0.725,-0.688,0.017,0.081,-0.042,0.006,-0.079,-0.15,0.028,-0.812,0.648
2024-10-15 14:04:36.985,75028.439,-0.009,0.582,-0.813,0.022,0.084,0.069,1.707,0.266,0.106,-0.011,-0.622,0.593
