Date,TimeStamp,GravityX,GravityY,GravityZ,UserAccelerationX,UserAccelerationY,UserAccelerationZ,RotationRateX,RotationRateY,RotationRateZ,AttitudeRoll,AttitudePitch,AttitudeYaw
2024-10-15 13:53:52.836,74383.932,-0.118,-0.38,-0.917,-0.02,0.002,0.002,-0.084,0.026,-0.002,-0.128,0.39,1.393
2024-10-15 13:53:52.868,74384.052,-0.115,-0.375,-0.92,0.011,-0.008,0.011,-0.036,-0.005,-0.026,-0.124,0.384,1.39
2024-10-15 13:53:52.884,74384.171,-0.112,-0.367,-0.924,0.005,0.003,0.015,-0.115,0.018,-0.028,-0.121,0.375,1.385
2024-10-15 13:53:52.900,74384.291,-0.111,-0.355,-0.928,-0.0,-0.004,0.014,-0.116,-0.014,-0.015,-0.119,0.363,1.381
2024-10-15 13:53:52.957,74384.411,-0.103,-0.334,-0.937,-0.059,-0.095,0.019,-0.35,0.149,-0.346,-0.109,0.341,1.362
2024-10-15 13:53:53.078,74384.531,-0.052,-0.239,-0.97,-0.13,-0.131,0.146,-1.491,0.313,-0.817,-0.054,0.241,1.28
2024-10-15 13:53:53.198,74384.651,0.01,0.128,-0.992,-0.186,-0.121,0.127,-4.533,0.786,-1.236,0.01,-0.128,1.143
2024-10-15 13:53:53.317,74384.77,0.098,0.723,-0.684,0.073,0.114,0.006,-5.775,1.387,-0.762,0.143,-0.808,1.077
2024-10-15 13:53:53.437,74384.89,0.089,0.888,-0.452,0.118,0.262,0.036,0.196,0.351,-0.177,0.194,-1.093,1.012
2024-10-15 13:53:53.557,74385.01,0.064,0.85,-0.523,0.098,-0.121,0.037,0.989,0.032,-0.505,0.123,-1.016,0.91
2024-10-15 13:53:53.677,74385.13,0.038,0.803,-0.595,-0.072,0.159,0.09,0.127,-0.251,0.191,0.064,-0.932,0.833
2024-10-15 13:53:53.797,74385.25,0.035,0.758,-0.651,0.041,-0.0,0.144,0.62,-0.79,0.272,0.053,-0.861,0.893
2024-10-15 13:53:53.916,74385.369,0.007,0.67,-0.743,0.051,-0.037,0.053,1.286,-0.303,0.003,0.009,-0.734,0.928
2024-10-15 13:53:54.036,74385.489,-0.005,0.596,-0.803,0.017,-0.046,0.077,-0.089,0.063,-0.009,-0.007,-0.639,0.916
2024-10-15 13:53:54.156,74385.609,0.024,0.565,-0.825,0.01,0.215,-0.049,0.241,0.127,0.157,0.03,-0.6,0.929
2024-10-15 13:53:54.276,74385.729,0.013,0.548,-0.836,-0.009,0.013,-0.046,-0.294,-0.301,-0.053,0.015,-0.581,0.918
2024-10-15 13:53:54.396,74385.849,-0.006,0.547,-0.837,-0.006,0.088,0.01,0.221,-0.03,0.16,-0.007,-0.579,0.917
2024-10-15 13:53:54.515,74385.968,-0.017,0.566,-0.824,-0.034,0.097,0.007,0.055,0.169,-0.051,-0.02,-0.602,0.912
2024-10-15 13:53:54.635,74386.088,-0.002,0.5,-0.866,0.008,-0.257,-0.088,-0.382,-0.529,0.054,-0.003,-0.523,0.92
2024-10-15 13:53:54.754,74386.208,-0.03,0.497,-0.867,-0.02,0.207,0.035,0.754,0.186,-0.016,-0.035,-0.52,0.915
2024-10-15 13:53:54.874,74386.328,-0.035,0.47,-0.882,0.04,-0.059,-0.042,0.019,-0.042,0.069,-0.039,-0.489,0.916
2024-10-15 13:53:54.995,74386.448,-0.038,0.453,-0.891,0.01,0.185,0.041,0.561,-0.016,-0.137,-0.043,-0.47,0.912
2024-10-15 13:53:55.115,74386.567,-0.045,0.448,-0.893,0.036,-0.099,0.057,-0.143,-0.138,0.03,-0.051,-0.465,0.917
2024-10-15 13:53:55.234,74386.687,-0.055,0.437,-0.898,-0.01,0.117,0.039,0.306,-0.109,-0.085,-0.061,-0.453,0.906
2024-10-15 13:53:55.354,74386.807,-0.062,0.437,-0.897,0.06,0.004,0.146,-0.178,-0.084,0.006,-0.069,-0.452,0.908
2024-10-15 13:53:55.474,74386.927,-0.064,0.434,-0.899,-0.033,0.085,0.011,0.259,-0.004,-0.13,-0.071,-0.449,0.897
2024-10-15 13:53:55.593,74387.047,-0.062,0.443,-0.894,0.041,-0.035,0.103,-0.056,0.03,0.018,-0.07,-0.459,0.895
2024-10-15 13:53:55.713,74387.166,-0.061,0.433,-0.899,-0.033,-0.009,0.015,0.278,0.065,-0.223,-0.068,-0.448,0.893
2024-10-15 13:53:55.833,74387.286,-0.06,0.442,-0.895,-0.008,-0.026,0.054,-0.211,-0.106,0.237,-0.067,-0.458,0.899
2024-10-15 13:53:55.953,74387.406,-0.066,0.422,-0.904,-0.008,0.069,0.062,-0.053,-0.03,-0.128,-0.073,-0.435,0.888
2024-10-15 13:53:56.073,74387.526,-0.066,0.431,-0.9,0.056,-0.009,0.006,0.315,0.151,-0.165,-0.073,-0.446,0.893
2024-10-15 13:53:56.192,74387.646,-0.073,0.422,-0.904,-0.014,0.028,-0.037,-0.049,0.002,-0.001,-0.08,-0.436,0.879
2024-10-15 13:53:56.312,74387.765,-0.06,0.523,-0.85,-0.055,0.016,-0.002,-0.995,-0.068,0.216,-0.071,-0.55,0.886
2024-10-15 13:53:56.432,74387.885,-0.081,0.458,-0.885,0.078,0.072,0.001,1.007,0.161,0.037,-0.091,-0.476,0.896
2024-10-15 13:53:56.552,74388.005,-0.088,0.419,-0.904,-0.006,0.052,-0.032,0.14,0.01,0.086,-0.097,-0.433,0.89
2024-10-15 13:53:56.672,74388.125,-0.084,0.408,-0.909,-0.006,0.106,0.036,0.426,-0.042,-0.022,-0.092,-0.42,0.902
2024-10-15 13:53:56.792,74388.245,-0.089,0.387,-0.918,-0.036,0.163,-0.099,0.194,-0.003,0.148,-0.097,-0.397,0.887
2024-10-15 13:53:56.911,74388.364,-0.093,0.371,-0.924,0.017,-0.154,0.104,0.371,0.031,-0.223,-0.101,-0.38,0.901
2024-10-15 13:53:57.031,74388.484,-0.094,0.366,-0.926,-0.04,-0.024,-0.041,-0.258,0.08,0.168,-0.101,-0.374,0.887
2024-10-15 13:53:57.151,74388.604,-0.085,0.366,-0.927,-0.016,0.031,0.009,0.141,0.055,-0.143,-0.091,-0.375,0.891
2024-10-15 13:53:57.271,74388.724,-0.083,0.37,-0.925,-0.005,0.12,-0.047,-0.069,0.097,0.138,-0.09,-0.379,0.875
2024-10-15 13:53:57.391,74388.844,-0.073,0.359,-0.931,0.018,0.064,-0.028,0.48,0.057,-0.023,-0.078,-0.367,0.893
2024-10-15 13:53:57.510,74388.963,-0.075,0.344,-0.936,-0.015,0.051,-0.005,-0.148,0.052,0.005,-0.08,-0.351,0.865
2024-10-15 13:53:57.630,74389.083,-0.071,0.348,-0.935,0.02,-0.087,0.045,0.317,0.043,-0.096,-0.076,-0.356,0.882
2024-10-15 13:53:57.749,74389.203,-0.073,0.329,-0.942,-0.001,0.027,0.016,-0.313,-0.103,0.144,-0.077,-0.335,0.867
2024-10-15 13:53:57.870,74389.323,-0.067,0.343,-0.937,0.04,0.005,0.062,0.213,0.038,-0.123,-0.072,-0.351,0.879
2024-10-15 13:53:57.989,74389.443,-0.067,0.343,-0.937,-0.001,-0.002,-0.014,-0.204,0.027,0.13,-0.071,-0.35,0.865
2024-10-15 13:53:58.109,74389.562,-0.067,0.34,-0.938,0.007,0.148,0.009,0.302,-0.144,-0.049,-0.071,-0.347,0.871
2024-10-15 13:53:58.229,74389.682,-0.056,0.435,-0.899,-0.197,-0.114,-0.054,-2.348,0.281,0.159,-0.062,-0.45,0.87
2024-10-15 13:53:58.349,74389.802,-0.055,0.486,-0.872,0.115,0.145,-0.018,0.992,-0.174,-0.061,-0.063,-0.507,0.875
2024-10-15 13:53:58.469,74389.922,-0.071,0.404,-0.912,-0.061,-0.085,-0.043,0.58,-0.03,-0.131,-0.078,-0.416,0.881
2024-10-15 13:53:58.589,74390.042,-0.08,0.381,-0.921,0.071,-0.06,0.029,-0.153,-0.06,0.129,-0.086,-0.391,0.88
2024-10-15 13:53:58.708,74390.161,-0.077,0.356,-0.931,-0.088,-0.038,0.032,0.201,-0.108,-0.167,-0.083,-0.364,0.881
2024-10-15 13:53:58.828,74390.281,-0.085,0.352,-0.932,0.058,0.058,0.044,0.004,-0.096,0.18,-0.091,-0.36,0.884
2024-10-15 13:53:58.948,74390.401,-0.083,0.328,-0.941,-0.081,-0.105,-0.012,0.25,0.068,-0.342,-0.088,-0.334,0.888
2024-10-15 13:53:59.068,74390.521,-0.085,0.325,-0.942,0.082,0.109,0.047,-0.057,-0.124,0.22,-0.091,-0.331,0.878
2024-10-15 13:53:59.187,74390.641,-0.085,0.309,-0.947,-0.056,-0.056,0.037,0.01,-0.01,-0.279,-0.089,-0.314,0.874
2024-10-15 13:53:59.307,74390.76,-0.088,0.313,-0.946,0.092,0.058,-0.044,0.017,-0.01,0.187,-0.092,-0.318,0.88
2024-10-15 13:53:59.427,74390.88,-0.084,0.296,-0.951,-0.144,-0.075,-0.038,0.411,0.107,-0.362,-0.088,-0.301,0.885
2024-10-15 13:53:59.547,74391.0,-0.081,0.301,-0.95,0.162,0.159,0.044,-0.28,-0.105,0.343,-0.085,-0.306,0.874
2024-10-15 13:53:59.667,74391.12,-0.08,0.302,-0.95,-0.128,-0.033,-0.015,-0.263,0.045,-0.256,-0.084,-0.307,0.872
2024-10-15 13:53:59.786,74391.24,-0.074,0.331,-0.941,0.068,0.052,-0.011,0.167,0.07,0.088,-0.078,-0.338,0.876
2024-10-15 13:53:59.906,74391.359,-0.073,0.322,-0.944,-0.039,0.049,-0.01,-0.047,0.1,-0.113,-0.078,-0.327,0.862
2024-10-15 13:54:00.025,74391.479,-0.071,0.333,-0.94,-0.016,-0.02,-0.055,0.119,0.055,-0.071,-0.075,-0.34,0.869
2024-10-15 13:54:00.146,74391.599,-0.079,0.326,-0.942,-0.014,0.039,-0.044,-0.165,0.062,0.001,-0.083,-0.332,0.852
2024-10-15 13:54:00.265,74391.719,-0.061,0.486,-0.872,-0.18,-0.032,-0.198,-1.668,0.271,0.049,-0.07,-0.508,0.853
2024-10-15 13:54:00.385,74391.839,-0.074,0.493,-0.867,0.121,0.113,-0.027,1.222,-0.291,-0.038,-0.086,-0.516,0.85
2024-10-15 13:54:00.505,74391.958,-0.085,0.405,-0.91,0.006,-0.207,0.001,0.131,-0.158,0.14,-0.094,-0.417,0.858
2024-10-15 13:54:00.626,74392.078,-0.081,0.393,-0.916,0.022,0.018,0.153,0.358,0.072,-0.225,-0.088,-0.403,0.863
2024-10-15 13:54:00.745,74392.198,-0.086,0.378,-0.922,0.02,-0.055,-0.079,-0.298,-0.113,0.281,-0.093,-0.387,0.866
2024-10-15 13:54:00.865,74392.318,-0.085,0.364,-0.928,-0.01,0.096,-0.031,0.268,0.073,-0.267,-0.092,-0.372,0.856
2024-10-15 13:54:00.984,74392.438,-0.087,0.365,-0.927,0.043,-0.036,-0.01,-0.073,0.074,0.053,-0.094,-0.374,0.855
2024-10-15 13:54:01.104,74392.557,-0.081,0.361,-0.929,-0.006,-0.047,-0.047,0.255,0.034,-0.207,-0.087,-0.37,0.858
2024-10-15 13:54:01.224,74392.677,-0.078,0.37,-0.926,0.045,-0.076,0.0,-0.534,-0.125,0.39,-0.084,-0.379,0.864
2024-10-15 13:54:01.344,74392.797,-0.079,0.361,-0.929,-0.002,-0.01,0.047,-0.041,0.027,-0.213,-0.085,-0.369,0.861
2024-10-15 13:54:01.464,74392.917,-0.071,0.378,-0.923,-0.015,0.001,-0.009,-0.074,0.134,0.047,-0.077,-0.388,0.866
2024-10-15 13:54:01.583,74393.036,-0.07,0.363,-0.929,-0.009,0.032,0.049,-0.011,-0.07,-0.165,-0.075,-0.372,0.843
2024-10-15 13:54:01.703,74393.156,-0.074,0.368,-0.927,0.022,-0.063,-0.014,0.197,0.102,-0.032,-0.08,-0.377,0.86
2024-10-15 13:54:01.823,74393.276,-0.081,0.349,-0.934,-0.044,0.093,0.041,-0.122,-0.056,0.073,-0.087,-0.356,0.844
2024-10-15 13:54:01.943,74393.396,-0.082,0.362,-0.928,-0.011,0.019,-0.027,0.164,-0.02,-0.01,-0.088,-0.371,0.864
2024-10-15 13:54:02.062,74393.516,-0.089,0.343,-0.935,0.027,0.004,0.082,-0.222,-0.161,0.115,-0.095,-0.35,0.84
2024-10-15 13:54:02.182,74393.635,-0.088,0.349,-0.933,-0.02,-0.219,0.035,-0.021,0.077,-0.289,-0.094,-0.357,0.847
2024-10-15 13:54:02.302,74393.755,-0.089,0.363,-0.928,-0.089,0.095,-0.11,-0.146,0.019,0.019,-0.095,-0.371,0.828
2024-10-15 13:54:02.422,74393.875,-0.061,0.53,-0.846,-0.06,0.06,-0.046,-2.323,0.284,0.264,-0.072,-0.558,0.834
2024-10-15 13:54:02.542,74393.995,-0.043,0.595,-0.802,0.019,0.145,0.055,0.368,-0.032,-0.187,-0.054,-0.637,0.818
2024-10-15 13:54:02.661,74394.115,-0.055,0.561,-0.826,0.049,0.101,-0.012,0.908,-0.11,0.048,-0.066,-0.596,0.818
2024-10-15 13:54:02.781,74394.234,-0.081,0.445,-0.892,0.033,0.082,0.114,1.218,-0.314,0.031,-0.09,-0.461,0.831
2024-10-15 13:54:02.901,74394.354,-0.101,0.367,-0.925,-0.05,-0.008,-0.075,0.464,0.003,0.227,-0.109,-0.376,0.85
2024-10-15 13:54:03.021,74394.474,-0.097,0.303,-0.948,-0.052,-0.008,0.006,0.865,0.003,-0.128,-0.102,-0.308,0.873
2024-10-15 13:54:03.140,74394.594,-0.104,0.236,-0.966,-0.053,-0.114,-0.002,-0.219,-0.112,0.243,-0.108,-0.238,0.869
2024-10-15 13:54:03.260,74394.714,-0.098,0.238,-0.966,0.085,0.113,0.033,0.227,0.124,-0.171,-0.101,-0.24,0.869
2024-10-15 13:54:03.380,74394.833,-0.1,0.238,-0.966,-0.014,-0.08,-0.083,-0.53,-0.01,0.264,-0.103,-0.241,0.871
2024-10-15 13:54:03.500,74394.953,-0.098,0.243,-0.965,-0.031,0.113,-0.051,0.347,0.013,-0.223,-0.101,-0.245,0.871
2024-10-15 13:54:03.620,74395.073,-0.102,0.249,-0.963,0.105,0.029,-0.066,-0.668,-0.121,0.438,-0.106,-0.252,0.868
2024-10-15 13:54:03.740,74395.193,-0.101,0.24,-0.965,-0.067,0.03,-0.005,0.218,0.06,-0.351,-0.105,-0.242,0.865
2024-10-15 13:54:03.859,74395.313,-0.108,0.265,-0.958,0.048,0.081,-0.026,0.134,-0.035,0.102,-0.112,-0.269,0.874
2024-10-15 13:54:03.979,74395.432,-0.107,0.233,-0.966,-0.082,0.08,0.045,0.272,0.101,-0.3,-0.11,-0.236,0.855
2024-10-15 13:54:04.098,74395.552,-0.105,0.29,-0.951,0.105,-0.095,0.058,-0.204,-0.03,0.034,-0.11,-0.294,0.863
2024-10-15 13:54:04.219,74395.672,-0.102,0.298,-0.949,-0.13,0.17,-0.06,0.222,0.095,-0.206,-0.108,-0.303,0.846
2024-10-15 13:54:04.339,74395.792,-0.099,0.296,-0.95,0.07,0.118,0.14,0.055,-0.012,0.161,-0.104,-0.301,0.85
2024-10-15 13:54:04.459,74395.912,-0.103,0.292,-0.951,-0.076,0.05,-0.124,0.756,0.091,-0.306,-0.108,-0.296,0.853
2024-10-15 13:54:04.578,74396.031,-0.109,0.284,-0.953,-0.095,0.188,-0.233,-0.354,-0.014,0.404,-0.114,-0.287,0.841
2024-10-15 13:54:04.698,74396.151,-0.095,0.398,-0.912,-0.053,0.105,0.038,-1.177,0.383,-0.043,-0.104,-0.41,0.827
2024-10-15 13:54:04.818,74396.271,-0.067,0.439,-0.896,0.137,0.041,0.128,0.608,-0.363,0.081,-0.075,-0.454,0.839
2024-10-15 13:54:04.938,74396.391,-0.087,0.394,-0.915,-0.17,0.096,-0.136,1.033,0.186,-0.315,-0.095,-0.405,0.851
2024-10-15 13:54:05.057,74396.511,-0.1,0.377,-0.921,0.091,0.327,0.054,0.302,-0.178,0.376,-0.108,-0.387,0.857
2024-10-15 13:54:05.177,74396.63,-0.1,0.348,-0.932,-0.074,0.163,0.037,0.308,-0.001,-0.172,-0.107,-0.356,0.845
2024-10-15 13:54:05.297,74396.75,-0.1,0.344,-0.934,0.035,-0.042,-0.01,0.162,0.059,0.103,-0.107,-0.351,0.867
2024-10-15 13:54:05.417,74396.87,-0.097,0.327,-0.94,-0.136,-0.015,-0.023,0.205,-0.017,-0.253,-0.103,-0.333,0.86
2024-10-15 13:54:05.537,74396.99,-0.104,0.318,-0.943,0.153,0.088,0.019,0.07,-0.08,0.251,-0.109,-0.323,0.858
2024-10-15 13:54:05.657,74397.11,-0.103,0.311,-0.945,-0.215,-0.082,-0.07,0.399,0.079,-0.376,-0.109,-0.316,0.872
2024-10-15 13:54:05.776,74397.229,-0.102,0.308,-0.946,0.134,0.121,0.004,-0.695,-0.055,0.401,-0.107,-0.313,0.847
2024-10-15 13:54:05.896,74397.349,-0.083,0.337,-0.938,-0.023,-0.025,0.009,0.17,0.227,-0.316,-0.089,-0.344,0.861
2024-10-15 13:54:06.016,74397.469,-0.083,0.335,-0.939,0.02,0.037,0.031,-0.179,-0.185,0.255,-0.088,-0.341,0.847
2024-10-15 13:54:06.136,74397.589,-0.084,0.335,-0.939,0.005,0.053,0.058,0.384,0.171,-0.305,-0.09,-0.341,0.849
2024-10-15 13:54:06.256,74397.709,-0.082,0.327,-0.942,-0.101,-0.089,-0.092,-0.592,-0.148,0.356,-0.087,-0.333,0.849
2024-10-15 13:54:06.375,74397.828,-0.08,0.313,-0.946,0.048,0.105,0.043,0.584,0.319,-0.417,-0.084,-0.319,0.844
2024-10-15 13:54:06.495,74397.948,-0.083,0.328,-0.941,0.01,-0.095,0.008,-0.745,-0.237,0.386,-0.088,-0.334,0.846
2024-10-15 13:54:06.615,74398.068,-0.084,0.33,-0.94,-0.064,0.003,-0.036,0.012,-0.09,-0.215,-0.09,-0.336,0.851
2024-10-15 13:54:06.735,74398.188,-0.085,0.337,-0.938,0.054,0.096,-0.054,-0.158,0.124,0.133,-0.091,-0.344,0.833
2024-10-15 13:54:06.854,74398.308,-0.028,0.502,-0.864,0.251,0.2,-0.122,-0.337,0.655,0.343,-0.032,-0.526,0.866
2024-10-15 13:54:06.974,74398.427,-0.008,0.473,-0.881,-0.069,-0.004,0.01,0.711,-0.506,-0.15,-0.009,-0.493,0.889
2024-10-15 13:54:07.094,74398.547,-0.048,0.398,-0.916,-0.116,0.016,0.053,0.632,-0.261,-0.047,-0.053,-0.409,0.891
2024-10-15 13:54:07.215,74398.667,-0.061,0.352,-0.934,-0.004,0.084,0.014,0.194,0.135,0.034,-0.065,-0.359,0.882
2024-10-15 13:54:07.334,74398.787,-0.049,0.35,-0.936,-0.017,0.104,0.108,0.73,0.152,-0.204,-0.052,-0.357,0.884
2024-10-15 13:54:07.454,74398.907,-0.05,0.297,-0.954,-0.032,0.038,0.019,0.195,-0.054,0.209,-0.052,-0.301,0.874
2024-10-15 13:54:07.573,74399.026,-0.049,0.26,-0.964,0.058,-0.213,0.13,0.216,-0.044,-0.024,-0.051,-0.263,0.904
2024-10-15 13:54:07.693,74399.146,-0.049,0.227,-0.973,-0.096,0.005,0.059,-0.254,0.067,-0.078,-0.05,-0.229,0.873
2024-10-15 13:54:07.813,74399.266,-0.048,0.255,-0.966,0.091,-0.062,0.032,0.387,-0.035,-0.067,-0.05,-0.258,0.894
2024-10-15 13:54:07.933,74399.386,-0.049,0.224,-0.973,-0.072,0.183,0.088,-0.125,-0.061,0.171,-0.05,-0.226,0.866
2024-10-15 13:54:08.053,74399.506,-0.048,0.237,-0.97,0.081,-0.23,-0.039,-0.045,-0.048,-0.031,-0.049,-0.239,0.894
2024-10-15 13:54:08.172,74399.625,-0.055,0.21,-0.976,-0.115,0.027,0.017,0.477,0.117,-0.29,-0.056,-0.212,0.88
2024-10-15 13:54:08.293,74399.745,-0.049,0.225,-0.973,0.121,0.042,-0.034,-0.446,0.068,0.283,-0.05,-0.227,0.883
2024-10-15 13:54:08.412,74399.865,-0.043,0.224,-0.974,-0.149,-0.002,-0.038,0.524,0.284,-0.561,-0.044,-0.226,0.877
2024-10-15 13:54:08.532,74399.985,-0.037,0.23,-0.972,0.088,0.002,0.027,-0.387,-0.123,0.371,-0.038,-0.232,0.868
2024-10-15 13:54:08.652,74400.105,-0.039,0.247,-0.968,0.001,-0.105,-0.028,0.456,0.14,-0.274,-0.04,-0.25,0.886
2024-10-15 13:54:08.771,74400.224,-0.037,0.217,-0.975,-0.088,0.094,-0.083,-0.071,0.071,0.122,-0.038,-0.219,0.862
2024-10-15 13:54:08.891,74400.344,-0.039,0.26,-0.965,0.069,-0.22,0.097,-0.232,-0.148,-0.071,-0.04,-0.263,0.877
2024-10-15 13:54:09.011,74400.464,-0.03,0.266,-0.963,-0.139,-0.143,0.026,-0.646,0.261,-0.228,-0.031,-0.27,0.857
2024-10-15 13:54:09.131,74400.584,0.004,0.431,-0.902,0.086,0.098,0.06,-0.479,-0.024,0.335,0.004,-0.446,0.862
2024-10-15 13:54:09.250,74400.704,-0.028,0.365,-0.931,-0.04,-0.088,0.108,0.565,-0.232,0.001,-0.031,-0.373,0.877
2024-10-15 13:54:09.370,74400.823,-0.034,0.329,-0.944,-0.085,0.037,-0.032,-0.198,-0.234,0.501,-0.036,-0.335,0.894
2024-10-15 13:54:09.490,74400.943,-0.038,0.261,-0.965,-0.076,0.024,-0.08,0.54,0.055,-0.34,-0.04,-0.264,0.887
2024-10-15 13:54:09.610,74401.063,-0.045,0.26,-0.964,0.036,-0.067,0.024,-0.598,-0.262,0.401,-0.046,-0.263,0.899
2024-10-15 13:54:09.730,74401.183,-0.048,0.265,-0.963,-0.095,0.008,-0.108,0.154,-0.047,-0.274,-0.05,-0.268,0.899
2024-10-15 13:54:09.850,74401.303,-0.046,0.244,-0.969,0.04,0.207,-0.069,-0.304,0.007,0.328,-0.047,-0.246,0.876
2024-10-15 13:54:09.970,74401.422,-0.044,0.25,-0.967,-0.036,-0.114,-0.074,0.318,0.039,-0.17,-0.046,-0.253,0.903
2024-10-15 13:54:10.089,74401.542,-0.04,0.221,-0.974,0.033,0.283,0.12,0.024,-0.04,0.248,-0.041,-0.223,0.876
2024-10-15 13:54:10.209,74401.662,-0.038,0.234,-0.972,0.011,-0.396,-0.075,-0.16,-0.063,-0.134,-0.039,-0.236,0.91
2024-10-15 13:54:10.329,74401.782,-0.039,0.211,-0.977,-0.052,0.14,0.077,0.119,-0.02,-0.063,-0.039,-0.212,0.875
2024-10-15 13:54:10.449,74401.902,-0.039,0.237,-0.971,0.08,-0.108,-0.1,-0.419,-0.028,0.185,-0.04,-0.239,0.902
2024-10-15 13:54:10.568,74402.021,-0.034,0.221,-0.975,-0.148,-0.061,-0.049,0.599,0.395,-0.768,-0.035,-0.223,0.876
2024-10-15 13:54:10.688,74402.141,-0.044,0.273,-0.961,0.08,-0.165,0.112,-1.271,-0.688,0.792,-0.046,-0.276,0.892
2024-10-15 13:54:10.808,74402.261,-0.044,0.242,-0.969,-0.071,-0.004,-0.034,0.384,0.171,-0.57,-0.046,-0.245,0.874
2024-10-15 13:54:10.927,74402.381,-0.048,0.249,-0.967,0.036,-0.112,-0.004,-0.75,-0.204,0.481,-0.049,-0.252,0.883
2024-10-15 13:54:11.048,74402.501,-0.046,0.3,-0.953,-0.132,-0.139,-0.029,-0.966,0.276,-0.17,-0.049,-0.304,0.891
2024-10-15 13:54:11.167,74402.62,-0.002,0.391,-0.921,0.058,0.05,0.162,-0.472,-0.196,0.219,-0.002,-0.401,0.881
2024-10-15 13:54:11.287,74402.74,-0.039,0.353,-0.935,-0.095,-0.066,-0.393,0.935,0.134,-0.163,-0.041,-0.36,0.892
2024-10-15 13:54:11.407,74402.86,-0.044,0.301,-0.953,0.005,0.049,-0.019,-0.374,-0.131,0.323,-0.046,-0.305,0.889
2024-10-15 13:54:11.527,74402.98,-0.048,0.29,-0.956,0.056,-0.004,0.052,0.157,-0.018,-0.185,-0.051,-0.295,0.898
2024-10-15 13:54:11.646,74403.1,-0.05,0.27,-0.962,-0.01,-0.003,-0.061,-0.067,-0.029,0.286,-0.052,-0.273,0.906
2024-10-15 13:54:11.766,74403.219,-0.051,0.254,-0.966,-0.02,0.123,0.066,0.469,-0.058,-0.147,-0.053,-0.257,0.915
2024-10-15 13:54:11.886,74403.339,-0.052,0.229,-0.972,-0.009,0.098,0.068,-0.361,-0.041,0.163,-0.054,-0.231,0.893
2024-10-15 13:54:12.005,74403.459,-0.05,0.25,-0.967,0.037,-0.149,-0.071,0.204,0.03,-0.174,-0.051,-0.252,0.911
2024-10-15 13:54:12.126,74403.579,-0.052,0.216,-0.975,-0.03,0.105,0.101,0.042,-0.079,0.021,-0.054,-0.218,0.88
2024-10-15 13:54:12.245,74403.699,-0.052,0.232,-0.971,0.065,-0.131,-0.054,-0.028,0.055,-0.01,-0.053,-0.234,0.905
2024-10-15 13:54:12.365,74403.818,-0.049,0.204,-0.978,-0.058,0.027,0.085,0.134,-0.02,-0.242,-0.05,-0.205,0.877
2024-10-15 13:54:12.485,74403.938,-0.056,0.24,-0.969,0.123,0.063,0.143,0.339,0.018,0.169,-0.057,-0.243,0.904
2024-10-15 13:54:12.604,74404.058,-0.062,0.233,-0.97,-0.1,0.073,-0.017,0.244,-0.013,-0.131,-0.064,-0.236,0.907
2024-10-15 13:54:12.724,74404.178,-0.063,0.218,-0.974,0.019,0.367,0.063,0.161,0.019,0.207,-0.065,-0.22,0.88
2024-10-15 13:54:12.844,74404.298,-0.055,0.249,-0.967,0.084,0.028,0.002,-0.014,0.069,0.198,-0.057,-0.251,0.907
2024-10-15 13:54:12.964,74404.417,-0.053,0.234,-0.971,-0.171,0.055,-0.112,0.699,0.242,-0.549,-0.055,-0.237,0.892
2024-10-15 13:54:13.084,74404.537,-0.054,0.227,-0.972,0.019,0.227,-0.11,-0.352,-0.043,0.403,-0.055,-0.229,0.872
2024-10-15 13:54:13.204,74404.657,-0.053,0.25,-0.967,-0.025,-0.135,0.101,0.111,0.229,-0.192,-0.055,-0.253,0.891
2024-10-15 13:54:13.323,74404.777,-0.039,0.326,-0.944,-0.086,-0.296,0.048,-2.0,0.155,-0.04,-0.041,-0.332,0.879
2024-10-15 13:54:13.442,74404.897,-0.035,0.5,-0.865,0.007,0.111,-0.123,-1.029,0.203,0.107,-0.041,-0.524,0.866
2024-10-15 13:54:13.563,74405.016,-0.026,0.515,-0.857,0.169,0.063,0.057,1.037,-0.274,-0.031,-0.031,-0.541,0.868
2024-10-15 13:54:13.684,74405.136,-0.065,0.355,-0.933,-0.051,0.066,0.01,1.399,-0.206,0.109,-0.07,-0.362,0.884
2024-10-15 13:54:13.803,74405.256,-0.069,0.27,-0.96,0.044,-0.126,0.064,0.819,-0.127,-0.134,-0.072,-0.274,0.913
2024-10-15 13:54:13.922,74405.376,-0.077,0.199,-0.977,-0.047,0.287,0.017,0.404,0.02,0.128,-0.078,-0.2,0.9
2024-10-15 13:54:14.042,74405.496,-0.073,0.194,-0.978,0.013,-0.332,-0.045,0.078,-0.068,-0.28,-0.075,-0.195,0.917
2024-10-15 13:54:14.162,74405.615,-0.075,0.15,-0.986,-0.059,0.205,0.03,0.328,0.061,0.107,-0.076,-0.15,0.895
2024-10-15 13:54:14.282,74405.735,-0.071,0.167,-0.983,0.128,0.019,0.038,0.273,0.072,-0.004,-0.072,-0.168,0.917
2024-10-15 13:54:14.402,74405.855,-0.07,0.134,-0.988,-0.133,-0.039,-0.021,0.193,0.019,-0.262,-0.071,-0.135,0.895
2024-10-15 13:54:14.521,74405.975,-0.064,0.152,-0.986,0.157,-0.047,0.098,-0.333,-0.057,0.285,-0.064,-0.152,0.911
2024-10-15 13:54:14.642,74406.095,-0.066,0.138,-0.988,-0.166,-0.041,-0.096,0.34,0.089,-0.299,-0.067,-0.138,0.911
2024-10-15 13:54:14.761,74406.214,-0.067,0.124,-0.99,0.063,0.042,-0.011,-0.39,-0.018,0.364,-0.067,-0.125,0.906
2024-10-15 13:54:14.880,74406.334,-0.07,0.15,-0.986,0.028,-0.041,0.021,0.095,-0.107,-0.046,-0.07,-0.15,0.929
2024-10-15 13:54:15.001,74406.454,-0.074,0.124,-0.989,-0.025,0.257,0.018,-0.251,-0.112,0.094,-0.075,-0.125,0.89
2024-10-15 13:54:15.121,74406.574,-0.076,0.157,-0.985,-0.003,-0.46,-0.145,-0.185,0.035,-0.275,-0.077,-0.157,0.921
2024-10-15 13:54:15.240,74406.694,-0.071,0.137,-0.988,-0.106,0.311,-0.041,0.475,0.167,0.013,-0.072,-0.137,0.895
2024-10-15 13:54:15.360,74406.813,-0.071,0.154,-0.985,0.102,-0.218,0.003,-0.234,-0.025,0.118,-0.072,-0.155,0.922
2024-10-15 13:54:15.481,74406.933,-0.067,0.144,-0.987,-0.13,-0.041,0.037,-0.195,0.132,-0.289,-0.068,-0.144,0.904
2024-10-15 13:54:15.600,74407.053,-0.048,0.277,-0.96,-0.04,-0.165,0.061,-2.383,0.208,0.178,-0.05,-0.281,0.891
2024-10-15 13:54:15.720,74407.173,-0.058,0.3,-0.952,0.065,0.142,-0.005,1.333,-0.329,-0.175,-0.061,-0.305,0.901
2024-10-15 13:54:15.839,74407.293,-0.069,0.237,-0.969,0.059,-0.032,0.052,-0.295,-0.144,0.39,-0.071,-0.239,0.9
2024-10-15 13:54:15.959,74407.412,-0.072,0.223,-0.972,0.033,-0.066,0.221,0.525,0.022,-0.317,-0.074,-0.225,0.91
2024-10-15 13:54:16.079,74407.532,-0.075,0.186,-0.98,-0.008,-0.087,0.005,-0.076,-0.022,0.271,-0.076,-0.187,0.914
2024-10-15 13:54:16.199,74407.652,-0.085,0.188,-0.979,0.067,0.162,0.081,0.344,-0.095,-0.126,-0.086,-0.189,0.918
2024-10-15 13:54:16.319,74407.772,-0.087,0.165,-0.982,-0.071,0.027,0.049,-0.292,-0.108,0.114,-0.088,-0.166,0.886
2024-10-15 13:54:16.438,74407.891,-0.083,0.178,-0.98,0.036,-0.097,-0.022,0.166,0.14,-0.209,-0.085,-0.179,0.908
2024-10-15 13:54:16.558,74408.011,-0.077,0.155,-0.985,-0.056,0.199,0.019,0.349,0.105,0.041,-0.078,-0.155,0.881
2024-10-15 13:54:16.678,74408.131,-0.072,0.166,-0.983,0.102,-0.205,-0.024,-0.366,0.115,0.064,-0.073,-0.167,0.899
2024-10-15 13:54:16.798,74408.251,-0.07,0.149,-0.986,-0.157,-0.143,0.074,0.043,0.063,-0.475,-0.071,-0.15,0.882
2024-10-15 13:54:16.917,74408.371,-0.073,0.206,-0.976,0.208,-0.043,0.167,0.031,-0.103,0.235,-0.074,-0.207,0.9
2024-10-15 13:54:17.037,74408.49,-0.066,0.19,-0.98,-0.168,0.029,-0.068,0.202,0.067,-0.24,-0.067,-0.191,0.883
2024-10-15 13:54:17.157,74408.61,-0.068,0.18,-0.981,0.101,-0.008,0.046,-0.127,-0.057,0.18,-0.069,-0.181,0.888
2024-10-15 13:54:17.277,74408.73,-0.07,0.179,-0.981,-0.141,0.019,-0.128,0.267,-0.004,-0.149,-0.071,-0.18,0.897
2024-10-15 13:54:17.397,74408.85,-0.068,0.167,-0.984,0.017,0.367,0.011,-0.172,0.001,0.285,-0.069,-0.168,0.856
2024-10-15 13:54:17.517,74408.97,-0.065,0.193,-0.979,0.112,-0.501,-0.019,-0.417,-0.021,-0.256,-0.066,-0.194,0.887
2024-10-15 13:54:17.636,74409.089,-0.064,0.179,-0.982,-0.123,0.075,-0.0,0.228,0.01,-0.183,-0.065,-0.18,0.855
2024-10-15 13:54:17.756,74409.209,-0.062,0.206,-0.977,0.049,-0.226,0.029,-1.009,0.01,0.041,-0.064,-0.207,0.865
2024-10-15 13:54:17.876,74409.329,-0.052,0.277,-0.96,0.037,0.03,0.125,-0.043,-0.191,0.112,-0.054,-0.28,0.87
2024-10-15 13:54:17.996,74409.449,-0.058,0.234,-0.97,0.047,0.043,0.025,0.231,0.177,-0.024,-0.059,-0.237,0.866
2024-10-15 13:54:18.115,74409.569,-0.054,0.246,-0.968,-0.021,-0.063,-0.135,0.238,0.146,-0.039,-0.056,-0.248,0.888
2024-10-15 13:54:18.235,74409.688,-0.062,0.222,-0.973,-0.072,0.174,0.008,0.254,-0.078,0.077,-0.064,-0.224,0.869
2024-10-15 13:54:18.355,74409.808,-0.063,0.195,-0.979,0.071,0.044,-0.076,0.511,0.036,0.09,-0.064,-0.196,0.892
2024-10-15 13:54:18.475,74409.928,-0.073,0.197,-0.978,-0.095,-0.108,-0.058,0.164,0.016,-0.309,-0.074,-0.198,0.897
2024-10-15 13:54:18.594,74410.048,-0.071,0.193,-0.979,0.077,0.24,0.044,-0.169,0.033,0.337,-0.072,-0.195,0.869
2024-10-15 13:54:18.714,74410.168,-0.068,0.212,-0.975,-0.006,-0.151,0.053,-0.099,-0.04,-0.062,-0.069,-0.214,0.894
2024-10-15 13:54:18.835,74410.287,-0.065,0.19,-0.98,-0.06,0.186,0.073,0.297,-0.022,0.061,-0.066,-0.191,0.871
2024-10-15 13:54:18.954,74410.407,-0.066,0.178,-0.982,0.081,-0.103,0.026,0.209,-0.054,0.231,-0.067,-0.178,0.908
2024-10-15 13:54:19.074,74410.527,-0.069,0.166,-0.984,-0.104,0.009,-0.044,0.003,0.049,-0.371,-0.07,-0.167,0.879
2024-10-15 13:54:19.194,74410.647,-0.068,0.168,-0.983,0.039,-0.116,0.063,-0.016,-0.038,0.304,-0.069,-0.169,0.899
2024-10-15 13:54:19.314,74410.767,-0.072,0.168,-0.983,-0.128,-0.045,-0.038,0.102,0.044,-0.367,-0.073,-0.169,0.895
2024-10-15 13:54:19.433,74410.886,-0.068,0.158,-0.985,0.054,0.265,-0.091,0.127,-0.001,0.511,-0.069,-0.159,0.882
2024-10-15 13:54:19.553,74411.006,-0.076,0.164,-0.984,-0.062,-0.031,0.031,0.093,-0.068,-0.214,-0.077,-0.164,0.897
2024-10-15 13:54:19.673,74411.126,-0.079,0.142,-0.987,-0.048,0.163,0.015,-0.066,0.043,0.128,-0.08,-0.143,0.874
2024-10-15 13:54:19.793,74411.246,-0.079,0.172,-0.982,0.008,-0.193,-0.017,-0.16,-0.087,0.038,-0.08,-0.173,0.906
2024-10-15 13:54:19.913,74411.366,-0.085,0.194,-0.977,-0.014,0.079,0.044,-0.558,0.129,-0.026,-0.087,-0.195,0.885
2024-10-15 13:54:20.032,74411.485,-0.067,0.36,-0.93,-0.033,0.201,-0.086,-0.448,0.417,-0.086,-0.072,-0.368,0.861
2024-10-15 13:54:20.152,74411.605,-0.008,0.48,-0.877,0.161,0.077,-0.053,-0.854,0.419,0.287,-0.009,-0.501,0.885
2024-10-15 13:54:20.272,74411.725,0.011,0.468,-0.884,-0.041,0.048,-0.011,0.845,-0.112,-0.238,0.012,-0.487,0.883
2024-10-15 13:54:20.392,74411.845,-0.016,0.421,-0.907,-0.088,0.134,0.055,0.44,-0.433,0.119,-0.017,-0.435,0.883
2024-10-15 13:54:20.512,74411.965,-0.041,0.325,-0.945,-0.199,0.024,0.025,0.617,-0.01,0.06,-0.044,-0.331,0.888
2024-10-15 13:54:20.632,74412.084,-0.035,0.332,-0.943,0.073,-0.043,0.048,0.24,-0.04,-0.066,-0.037,-0.339,0.91
2024-10-15 13:54:20.750,74412.204,-0.047,0.268,-0.962,-0.137,0.131,0.033,0.429,-0.012,0.146,-0.049,-0.271,0.902
2024-10-15 13:54:20.871,74412.324,-0.049,0.254,-0.966,0.194,-0.377,-0.015,-0.249,-0.332,-0.172,-0.05,-0.256,0.922
2024-10-15 13:54:20.991,74412.444,-0.063,0.233,-0.971,-0.198,-0.069,0.003,0.491,0.024,-0.379,-0.064,-0.235,0.908
2024-10-15 13:54:21.111,74412.564,-0.05,0.225,-0.973,0.202,0.077,0.127,-0.361,0.081,0.404,-0.051,-0.227,0.898
2024-10-15 13:54:21.230,74412.683,-0.043,0.26,-0.965,-0.03,-0.076,-0.02,0.25,0.133,-0.26,-0.045,-0.263,0.916
2024-10-15 13:54:21.350,74412.803,-0.038,0.241,-0.97,0.017,0.021,0.013,-0.48,0.037,0.195,-0.039,-0.243,0.895
2024-10-15 13:54:21.470,74412.923,-0.037,0.271,-0.962,0.066,-0.179,0.066,0.073,-0.096,-0.067,-0.039,-0.275,0.916
2024-10-15 13:54:21.590,74413.043,-0.041,0.231,-0.972,-0.101,0.12,0.05,0.1,-0.002,-0.017,-0.042,-0.233,0.887
2024-10-15 13:54:21.709,74413.163,-0.034,0.261,-0.965,0.103,0.067,0.015,0.408,0.118,0.178,-0.035,-0.264,0.926
2024-10-15 13:54:21.829,74413.282,-0.036,0.231,-0.972,-0.155,0.043,-0.066,0.447,0.229,-0.62,-0.037,-0.234,0.887
2024-10-15 13:54:21.950,74413.402,-0.03,0.241,-0.97,0.107,-0.22,0.101,-0.518,-0.199,0.377,-0.031,-0.243,0.907
2024-10-15 13:54:22.069,74413.522,-0.035,0.263,-0.964,-0.112,0.085,-0.049,0.024,0.016,-0.226,-0.036,-0.266,0.895
2024-10-15 13:54:22.189,74413.642,-0.027,0.252,-0.967,-0.023,0.219,-0.063,0.031,0.114,0.245,-0.028,-0.254,0.873
2024-10-15 13:54:22.308,74413.762,-0.026,0.274,-0.961,0.031,-0.226,0.045,-0.044,-0.094,-0.04,-0.027,-0.277,0.903
2024-10-15 13:54:22.428,74413.881,-0.023,0.239,-0.971,-0.124,-0.023,0.092,-0.177,0.024,-0.267,-0.024,-0.241,0.864
2024-10-15 13:54:22.548,74414.001,-0.022,0.276,-0.961,0.146,0.04,0.14,0.17,-0.019,0.301,-0.023,-0.28,0.902
2024-10-15 13:54:22.668,74414.121,-0.012,0.294,-0.956,-0.156,0.004,-0.056,-0.7,0.437,-0.188,-0.012,-0.299,0.882
2024-10-15 13:54:22.787,74414.241,0.019,0.358,-0.934,0.12,0.0,0.16,-0.115,-0.336,0.112,0.02,-0.366,0.884
