Date,TimeStamp,GravityX,GravityY,GravityZ,UserAccelerationX,UserAccelerationY,UserAccelerationZ,RotationRateX,RotationRateY,RotationRateZ,AttitudeRoll,AttitudePitch,AttitudeYaw
2024-10-15 13:50:03.425,74154.865,-0.263,-0.278,-0.924,-0.017,0.044,-0.022,-0.031,0.079,0.063,-0.278,0.281,1.55
2024-10-15 13:50:03.532,74154.985,-0.258,-0.281,-0.924,0.002,-0.001,0.016,0.063,0.025,0.012,-0.273,0.285,1.55
2024-10-15 13:50:03.653,74155.105,-0.253,-0.286,-0.924,-0.018,0.003,-0.002,-0.112,-0.141,0.458,-0.268,0.29,1.552
2024-10-15 13:50:03.773,74155.225,-0.254,-0.282,-0.925,-0.007,0.003,0.009,0.036,0.027,-0.021,-0.268,0.286,1.552
2024-10-15 13:50:03.891,74155.345,-0.252,-0.285,-0.925,0.002,0.001,0.012,0.008,0.0,-0.004,-0.266,0.289,1.552
2024-10-15 13:50:04.012,74155.464,-0.251,-0.286,-0.925,0.003,0.012,0.008,0.023,0.019,-0.009,-0.265,0.29,1.552
2024-10-15 13:50:04.131,74155.584,-0.251,-0.286,-0.925,0.001,-0.001,0.007,0.01,-0.003,0.003,-0.265,0.29,1.553
2024-10-15 13:50:04.251,74155.704,-0.25,-0.286,-0.925,0.0,0.0,0.007,-0.023,0.007,0.017,-0.264,0.29,1.553
2024-10-15 13:50:04.371,74155.824,-0.252,-0.285,-0.925,0.001,0.004,0.013,-0.04,-0.025,0.011,-0.266,0.289,1.553
2024-10-15 13:50:04.491,74155.944,-0.253,-0.269,-0.929,0.06,-0.014,0.022,-0.223,-0.04,0.023,-0.266,0.272,1.552
2024-10-15 13:50:04.611,74156.063,-0.253,-0.232,-0.939,0.128,-0.023,-0.032,-0.345,0.072,0.014,-0.263,0.235,1.544
2024-10-15 13:50:04.730,74156.183,-0.238,-0.195,-0.951,0.147,-0.024,-0.068,-0.369,0.19,0.166,-0.245,0.197,1.546
2024-10-15 13:50:04.850,74156.303,-0.238,-0.078,-0.968,-0.084,-0.029,-0.054,-0.53,0.01,-0.057,-0.242,0.078,1.536
2024-10-15 13:50:04.970,74156.423,-0.252,0.001,-0.968,-0.308,0.154,0.028,-0.794,-0.145,0.314,-0.255,-0.001,1.516
2024-10-15 13:50:05.090,74156.543,-0.278,0.205,-0.938,-0.018,0.245,0.382,-0.204,-0.211,0.491,-0.288,-0.206,1.56
2024-10-15 13:50:05.210,74156.662,-0.257,0.297,-0.92,0.086,-0.171,0.018,-0.78,-0.174,0.048,-0.273,-0.301,1.611
2024-10-15 13:50:05.329,74156.782,-0.189,0.372,-0.909,-0.251,-0.215,-0.092,-0.204,0.774,0.02,-0.205,-0.382,1.621
2024-10-15 13:50:05.449,74156.902,-0.1,0.344,-0.934,-0.204,-0.391,-0.023,-0.909,1.178,-0.999,-0.107,-0.351,1.532
2024-10-15 13:50:05.569,74157.022,-0.021,0.364,-0.931,0.076,-0.109,0.144,-1.147,1.201,-1.468,-0.023,-0.372,1.322
2024-10-15 13:50:05.689,74157.142,0.106,0.642,-0.759,0.301,-0.062,0.176,-3.882,1.257,0.066,0.138,-0.698,1.266
2024-10-15 13:50:05.808,74157.261,0.135,0.827,-0.545,0.042,0.443,0.043,0.466,-0.326,-0.222,0.243,-0.974,1.32
2024-10-15 13:50:05.929,74157.381,0.057,0.776,-0.628,-0.062,0.143,0.049,1.796,-0.784,-0.218,0.09,-0.888,1.262
2024-10-15 13:50:06.048,74157.501,0.078,0.703,-0.707,-0.081,0.117,-0.145,1.54,0.834,0.012,0.109,-0.779,1.274
2024-10-15 13:50:06.168,74157.621,0.121,0.621,-0.774,0.037,0.115,0.057,1.198,0.276,-0.086,0.154,-0.671,1.259
2024-10-15 13:50:06.288,74157.741,0.136,0.558,-0.819,-0.025,0.029,0.036,0.361,0.078,0.062,0.165,-0.591,1.246
2024-10-15 13:50:06.407,74157.86,0.145,0.531,-0.835,0.034,-0.052,0.072,-0.051,-0.251,0.341,0.173,-0.56,1.274
2024-10-15 13:50:06.528,74157.98,0.119,0.523,-0.844,0.036,0.012,0.058,0.119,-0.42,-0.124,0.141,-0.55,1.293
2024-10-15 13:50:06.647,74158.1,0.069,0.515,-0.854,0.019,0.036,-0.006,0.186,-0.259,-0.272,0.08,-0.541,1.275
2024-10-15 13:50:06.767,74158.22,0.042,0.502,-0.864,0.005,0.103,-0.022,0.03,-0.164,-0.202,0.049,-0.525,1.231
2024-10-15 13:50:06.887,74158.339,0.053,0.492,-0.869,0.008,-0.058,-0.02,-0.102,0.095,0.007,0.061,-0.515,1.227
2024-10-15 13:50:07.007,74158.459,0.065,0.514,-0.856,0.081,-0.081,0.014,0.115,0.121,-0.272,0.076,-0.539,1.23
2024-10-15 13:50:07.127,74158.579,0.043,0.428,-0.903,-0.035,-0.139,-0.007,0.771,-0.215,-0.202,0.048,-0.442,1.18
2024-10-15 13:50:07.246,74158.699,0.023,0.363,-0.931,-0.107,-0.182,-0.151,-0.345,0.094,0.075,0.024,-0.372,1.155
2024-10-15 13:50:07.366,74158.819,0.036,0.399,-0.916,0.103,0.223,0.033,0.262,-0.16,0.084,0.039,-0.411,1.157
2024-10-15 13:50:07.486,74158.938,0.022,0.353,-0.935,-0.205,-0.094,0.083,-0.216,-0.031,0.146,0.023,-0.361,1.155
2024-10-15 13:50:07.605,74159.058,0.013,0.442,-0.897,0.155,-0.144,-0.153,0.319,0.093,-0.292,0.015,-0.458,1.186
2024-10-15 13:50:07.725,74159.178,-0.015,0.404,-0.915,0.141,-0.146,0.135,0.258,-0.524,-0.21,-0.016,-0.416,1.155
2024-10-15 13:50:07.845,74159.298,-0.059,0.376,-0.925,-0.163,-0.238,-0.035,-0.498,-0.04,0.0,-0.064,-0.385,1.162
2024-10-15 13:50:07.965,74159.418,-0.082,0.42,-0.904,0.37,-0.045,0.037,-0.398,-0.108,-0.169,-0.09,-0.434,1.149
2024-10-15 13:50:08.085,74159.537,-0.094,0.407,-0.908,-0.36,0.087,0.02,0.363,-0.038,0.012,-0.103,-0.419,1.137
2024-10-15 13:50:08.205,74159.657,-0.102,0.416,-0.904,0.139,-0.211,-0.121,-0.325,0.098,-0.168,-0.112,-0.429,1.139
2024-10-15 13:50:08.325,74159.777,-0.095,0.418,-0.903,0.09,0.082,0.106,0.087,-0.227,0.095,-0.104,-0.432,1.113
2024-10-15 13:50:08.444,74159.897,-0.106,0.391,-0.914,-0.056,-0.293,-0.05,-0.884,-0.353,0.237,-0.116,-0.402,1.129
2024-10-15 13:50:08.564,74160.017,-0.131,0.46,-0.878,0.124,0.249,-0.036,-0.092,0.136,-0.246,-0.148,-0.478,1.098
2024-10-15 13:50:08.684,74160.136,-0.122,0.404,-0.906,-0.281,-0.104,-0.16,0.639,-0.004,-0.083,-0.133,-0.416,1.1
2024-10-15 13:50:08.804,74160.256,-0.089,0.415,-0.905,-0.064,0.136,-0.045,0.183,0.442,0.142,-0.098,-0.428,1.12
2024-10-15 13:50:08.923,74160.376,-0.113,0.39,-0.914,0.124,-0.114,0.12,-0.235,-0.344,-0.037,-0.123,-0.4,1.104
2024-10-15 13:50:09.043,74160.496,-0.104,0.417,-0.903,0.092,0.089,-0.076,-0.196,-0.141,0.093,-0.114,-0.431,1.117
2024-10-15 13:50:09.163,74160.616,-0.115,0.375,-0.92,-0.117,-0.154,-0.001,-0.006,0.079,-0.159,-0.125,-0.385,1.103
2024-10-15 13:50:09.283,74160.735,-0.105,0.426,-0.899,0.212,0.045,0.188,-0.13,-0.168,0.308,-0.116,-0.44,1.127
2024-10-15 13:50:09.402,74160.855,-0.115,0.409,-0.905,-0.143,0.029,-0.125,0.218,-0.127,-0.168,-0.126,-0.421,1.137
2024-10-15 13:50:09.522,74160.975,-0.113,0.4,-0.909,-0.14,0.05,0.034,-0.267,0.318,0.004,-0.124,-0.412,1.106
2024-10-15 13:50:09.641,74161.095,-0.1,0.43,-0.897,0.227,-0.064,0.009,0.021,-0.33,0.264,-0.111,-0.444,1.142
2024-10-15 13:50:09.762,74161.215,-0.124,0.376,-0.918,-0.217,0.058,-0.045,0.556,0.066,-0.381,-0.134,-0.386,1.125
2024-10-15 13:50:09.882,74161.334,-0.116,0.396,-0.911,0.04,-0.015,0.071,-0.819,-0.004,0.416,-0.127,-0.407,1.13
2024-10-15 13:50:10.002,74161.454,-0.118,0.41,-0.905,0.081,0.133,-0.007,0.361,-0.33,-0.102,-0.129,-0.422,1.151
2024-10-15 13:50:10.121,74161.574,-0.125,0.372,-0.92,-0.173,-0.011,0.083,-0.182,0.261,-0.205,-0.135,-0.381,1.113
2024-10-15 13:50:10.241,74161.694,-0.106,0.405,-0.908,0.218,0.071,0.03,0.452,0.069,0.143,-0.116,-0.417,1.144
2024-10-15 13:50:10.361,74161.814,-0.12,0.369,-0.922,-0.206,-0.022,-0.073,0.434,-0.035,-0.185,-0.129,-0.378,1.143
2024-10-15 13:50:10.481,74161.933,-0.109,0.391,-0.914,0.023,0.048,0.105,-0.639,0.147,0.146,-0.118,-0.401,1.114
2024-10-15 13:50:10.600,74162.053,-0.103,0.407,-0.908,0.115,-0.247,0.037,-0.03,-0.364,-0.053,-0.113,-0.419,1.143
2024-10-15 13:50:10.720,74162.173,-0.118,0.369,-0.922,-0.272,-0.09,-0.005,0.269,0.182,-0.366,-0.128,-0.378,1.124
2024-10-15 13:50:10.840,74162.293,-0.099,0.39,-0.915,0.298,0.28,0.059,-0.167,-0.039,0.45,-0.108,-0.401,1.125
2024-10-15 13:50:10.959,74162.413,-0.122,0.389,-0.913,-0.108,0.049,0.022,0.333,-0.2,-0.241,-0.133,-0.4,1.141
2024-10-15 13:50:11.080,74162.532,-0.125,0.365,-0.922,-0.112,-0.165,0.006,-0.16,0.276,-0.29,-0.135,-0.374,1.13
2024-10-15 13:50:11.199,74162.652,-0.093,0.427,-0.899,0.2,0.046,0.224,0.007,-0.244,-0.007,-0.103,-0.441,1.111
2024-10-15 13:50:11.319,74162.772,-0.12,0.413,-0.903,-0.024,0.01,-0.023,0.177,0.152,-0.1,-0.132,-0.425,1.112
2024-10-15 13:50:11.438,74162.892,-0.106,0.425,-0.899,0.141,-0.068,0.191,-0.478,-0.278,0.555,-0.118,-0.439,1.134
2024-10-15 13:50:11.559,74163.012,-0.119,0.368,-0.922,-0.007,0.078,-0.009,0.564,-0.221,-0.195,-0.129,-0.377,1.145
2024-10-15 13:50:11.679,74163.131,-0.124,0.352,-0.928,-0.138,-0.029,-0.013,-0.346,0.229,0.027,-0.133,-0.36,1.131
2024-10-15 13:50:11.799,74163.251,-0.103,0.396,-0.913,0.248,0.023,-0.093,0.087,-0.097,0.09,-0.113,-0.407,1.154
2024-10-15 13:50:11.918,74163.371,-0.127,0.363,-0.923,-0.226,-0.21,0.008,0.018,0.002,-0.387,-0.136,-0.372,1.139
2024-10-15 13:50:12.038,74163.491,-0.108,0.393,-0.913,0.19,0.094,0.037,-0.586,0.021,0.461,-0.118,-0.404,1.136
2024-10-15 13:50:12.158,74163.611,-0.116,0.401,-0.909,-0.201,-0.509,-0.11,0.034,-0.177,-0.385,-0.127,-0.412,1.166
2024-10-15 13:50:12.278,74163.73,-0.115,0.367,-0.923,-0.051,-0.032,0.146,-0.346,0.168,0.041,-0.124,-0.376,1.134
2024-10-15 13:50:12.398,74163.85,-0.099,0.408,-0.908,0.217,0.014,-0.111,-0.032,-0.172,0.099,-0.108,-0.42,1.163
2024-10-15 13:50:12.517,74163.97,-0.121,0.38,-0.917,-0.276,0.243,-0.034,0.669,0.216,-0.366,-0.131,-0.39,1.135
2024-10-15 13:50:12.637,74164.09,-0.103,0.39,-0.915,0.106,0.023,0.011,-0.796,0.112,0.338,-0.112,-0.401,1.125
2024-10-15 13:50:12.757,74164.21,-0.1,0.404,-0.909,0.197,-0.144,0.179,0.01,-0.18,0.099,-0.11,-0.416,1.149
2024-10-15 13:50:12.877,74164.329,-0.12,0.379,-0.917,-0.191,-0.09,0.048,-0.005,-0.068,-0.314,-0.13,-0.389,1.137
2024-10-15 13:50:12.996,74164.449,-0.126,0.378,-0.917,0.188,0.192,0.1,-0.262,-0.095,0.119,-0.137,-0.388,1.113
2024-10-15 13:50:13.116,74164.569,-0.137,0.401,-0.906,-0.151,-0.192,-0.203,0.294,-0.037,-0.02,-0.15,-0.413,1.146
2024-10-15 13:50:13.236,74164.689,-0.094,0.396,-0.913,-0.067,0.113,0.075,-0.326,0.262,0.177,-0.103,-0.407,1.134
2024-10-15 13:50:13.356,74164.809,-0.131,0.414,-0.901,-0.019,-0.006,0.004,0.217,-0.338,-0.092,-0.145,-0.427,1.148
2024-10-15 13:50:13.476,74164.928,-0.135,0.39,-0.911,0.127,0.058,-0.074,0.204,0.313,0.087,-0.148,-0.401,1.146
2024-10-15 13:50:13.596,74165.048,-0.146,0.368,-0.918,-0.127,0.009,-0.169,0.595,-0.07,-0.416,-0.158,-0.377,1.144
2024-10-15 13:50:13.715,74165.168,-0.145,0.346,-0.927,0.035,0.178,0.217,-0.419,-0.184,0.469,-0.155,-0.353,1.131
2024-10-15 13:50:13.835,74165.288,-0.152,0.352,-0.923,0.157,-0.235,0.182,0.251,-0.285,-0.214,-0.163,-0.36,1.162
2024-10-15 13:50:13.955,74165.407,-0.161,0.312,-0.936,-0.259,-0.093,0.143,-0.181,0.089,-0.251,-0.17,-0.318,1.138
2024-10-15 13:50:14.075,74165.527,-0.155,0.366,-0.917,0.397,0.218,0.034,0.337,-0.172,0.191,-0.168,-0.375,1.146
2024-10-15 13:50:14.194,74165.647,-0.173,0.325,-0.93,-0.315,-0.08,-0.102,0.592,0.115,-0.482,-0.184,-0.331,1.146
2024-10-15 13:50:14.314,74165.767,-0.162,0.329,-0.93,0.117,0.186,0.003,-0.451,0.093,0.269,-0.172,-0.335,1.12
2024-10-15 13:50:14.434,74165.887,-0.162,0.342,-0.926,0.181,-0.228,0.095,0.126,-0.321,-0.052,-0.173,-0.349,1.159
2024-10-15 13:50:14.553,74166.006,-0.17,0.283,-0.944,-0.231,-0.029,0.136,0.055,0.142,-0.275,-0.178,-0.287,1.125
2024-10-15 13:50:14.674,74166.126,-0.165,0.311,-0.936,0.342,0.261,-0.021,0.305,-0.041,0.261,-0.175,-0.316,1.136
2024-10-15 13:50:14.793,74166.246,-0.177,0.292,-0.94,-0.311,-0.108,-0.023,0.363,0.107,-0.547,-0.187,-0.297,1.134
2024-10-15 13:50:14.913,74166.366,-0.166,0.301,-0.939,0.092,0.175,0.026,-0.369,0.045,0.284,-0.175,-0.306,1.106
2024-10-15 13:50:15.033,74166.486,-0.172,0.315,-0.933,0.027,-0.151,0.054,0.024,-0.281,0.075,-0.182,-0.32,1.129
2024-10-15 13:50:15.153,74166.605,-0.164,0.299,-0.94,-0.145,-0.32,0.049,-1.363,0.637,0.001,-0.173,-0.303,1.107
2024-10-15 13:50:15.273,74166.725,-0.093,0.355,-0.93,0.056,0.027,0.129,-0.261,0.13,-0.258,-0.1,-0.363,1.074
2024-10-15 13:50:15.392,74166.845,-0.105,0.384,-0.917,0.026,-0.003,0.011,-0.763,-0.049,0.361,-0.114,-0.395,1.073
2024-10-15 13:50:15.512,74166.965,-0.086,0.471,-0.878,0.03,-0.011,-0.013,-0.129,-0.09,0.172,-0.098,-0.491,1.116
2024-10-15 13:50:15.632,74167.085,-0.111,0.46,-0.881,-0.024,-0.013,-0.062,0.362,-0.138,-0.244,-0.126,-0.478,1.114
2024-10-15 13:50:15.751,74167.204,-0.116,0.385,-0.916,0.039,-0.144,-0.056,0.195,0.072,-0.007,-0.126,-0.395,1.096
2024-10-15 13:50:15.872,74167.324,-0.132,0.305,-0.943,-0.035,0.024,-0.04,0.952,-0.049,-0.251,-0.139,-0.309,1.078
2024-10-15 13:50:15.991,74167.444,-0.15,0.218,-0.964,-0.012,-0.004,0.055,0.52,-0.157,-0.054,-0.154,-0.22,1.061
2024-10-15 13:50:16.111,74167.564,-0.152,0.223,-0.963,0.0,0.02,-0.011,0.062,-0.044,0.014,-0.157,-0.225,1.057
2024-10-15 13:50:16.231,74167.684,-0.157,0.224,-0.962,0.025,-0.031,0.04,-0.124,-0.135,-0.04,-0.162,-0.226,1.05
2024-10-15 13:50:16.351,74167.803,-0.169,0.254,-0.952,-0.018,-0.023,-0.011,-0.007,-0.152,-0.08,-0.175,-0.257,1.037
2024-10-15 13:50:16.470,74167.923,-0.166,0.272,-0.948,0.023,0.015,0.068,-0.428,0.131,0.181,-0.173,-0.275,1.021
2024-10-15 13:50:16.590,74168.043,-0.15,0.294,-0.944,0.059,-0.053,0.111,-0.297,-0.252,0.472,-0.158,-0.298,1.054
2024-10-15 13:50:16.711,74168.163,-0.163,0.239,-0.957,-0.01,0.108,-0.122,1.098,-0.043,-0.101,-0.168,-0.242,1.075
2024-10-15 13:50:16.830,74168.283,-0.172,0.177,-0.969,-0.122,-0.066,0.077,-0.585,-0.109,0.189,-0.176,-0.178,1.067
2024-10-15 13:50:16.949,74168.402,-0.167,0.244,-0.955,0.196,0.288,0.018,0.547,0.113,0.001,-0.173,-0.247,1.084
2024-10-15 13:50:17.070,74168.522,-0.177,0.204,-0.963,-0.251,-0.185,-0.064,0.225,-0.03,-0.303,-0.182,-0.205,1.073
2024-10-15 13:50:17.189,74168.642,-0.169,0.243,-0.955,0.103,0.073,0.046,-0.658,0.054,0.321,-0.175,-0.246,1.05
2024-10-15 13:50:17.310,74168.762,-0.165,0.26,-0.951,-0.127,-0.03,-0.293,0.589,-0.212,0.217,-0.172,-0.263,1.097
2024-10-15 13:50:17.429,74168.882,-0.179,0.183,-0.967,-0.21,0.126,-0.032,0.635,0.221,-0.451,-0.183,-0.184,1.066
2024-10-15 13:50:17.548,74169.001,-0.168,0.246,-0.955,0.202,0.128,-0.05,-0.178,-0.102,0.382,-0.174,-0.249,1.077
2024-10-15 13:50:17.668,74169.121,-0.183,0.18,-0.967,-0.077,0.029,-0.059,1.086,-0.062,-0.418,-0.187,-0.181,1.084
2024-10-15 13:50:17.788,74169.241,-0.189,0.157,-0.969,-0.105,-0.279,0.161,-1.123,-0.031,0.295,-0.192,-0.158,1.071
2024-10-15 13:50:17.908,74169.361,-0.184,0.191,-0.964,0.218,-0.219,0.016,0.15,-0.152,0.118,-0.189,-0.192,1.088
2024-10-15 13:50:18.027,74169.481,-0.199,0.127,-0.972,-0.249,-0.262,0.113,-0.365,0.008,-0.447,-0.202,-0.128,1.049
2024-10-15 13:50:18.147,74169.6,-0.19,0.21,-0.959,0.219,0.178,0.015,-0.457,-0.203,0.72,-0.196,-0.212,1.068
2024-10-15 13:50:18.268,74169.72,-0.211,0.191,-0.959,-0.23,0.214,-0.09,0.872,0.071,-0.314,-0.216,-0.192,1.063
2024-10-15 13:50:18.387,74169.84,-0.208,0.168,-0.964,0.007,-0.007,0.039,-0.73,0.046,-0.114,-0.212,-0.169,1.029
2024-10-15 13:50:18.507,74169.96,-0.181,0.26,-0.948,-0.044,0.222,-0.208,-0.057,0.479,0.132,-0.189,-0.263,1.027
2024-10-15 13:50:18.627,74170.08,-0.167,0.269,-0.948,-0.032,0.12,0.027,0.432,-0.228,-0.081,-0.174,-0.273,1.035
2024-10-15 13:50:18.747,74170.199,-0.187,0.259,-0.948,0.023,-0.003,0.023,0.44,-0.095,-0.252,-0.195,-0.262,1.028
2024-10-15 13:50:18.867,74170.319,-0.179,0.267,-0.947,0.102,0.099,0.013,0.169,0.165,0.161,-0.187,-0.271,1.03
2024-10-15 13:50:18.986,74170.439,-0.184,0.252,-0.95,-0.078,0.024,-0.167,0.644,-0.105,-0.179,-0.191,-0.255,1.058
2024-10-15 13:50:19.106,74170.559,-0.193,0.23,-0.954,-0.104,0.047,0.062,-0.281,0.074,-0.032,-0.2,-0.232,1.031
2024-10-15 13:50:19.226,74170.679,-0.182,0.273,-0.945,0.234,0.072,0.047,0.024,-0.09,0.19,-0.19,-0.276,1.05
2024-10-15 13:50:19.346,74170.798,-0.21,0.256,-0.944,-0.241,-0.161,0.024,0.236,0.084,-0.469,-0.219,-0.259,1.042
2024-10-15 13:50:19.466,74170.918,-0.199,0.289,-0.936,0.104,-0.014,-0.02,-0.856,-0.122,0.675,-0.21,-0.293,1.051
2024-10-15 13:50:19.585,74171.038,-0.211,0.275,-0.938,-0.056,0.048,0.0,0.794,0.14,-0.638,-0.222,-0.279,1.053
2024-10-15 13:50:19.705,74171.158,-0.205,0.266,-0.942,-0.032,0.066,-0.042,-0.214,0.029,0.257,-0.214,-0.269,1.038
2024-10-15 13:50:19.825,74171.278,-0.203,0.252,-0.946,0.22,-0.212,0.019,0.531,-0.019,-0.155,-0.211,-0.255,1.07
2024-10-15 13:50:19.944,74171.397,-0.2,0.216,-0.956,-0.17,-0.161,0.158,-0.672,-0.132,0.031,-0.207,-0.218,1.04
2024-10-15 13:50:20.065,74171.517,-0.212,0.235,-0.949,0.131,0.055,-0.06,-0.011,-0.159,0.3,-0.219,-0.238,1.053
2024-10-15 13:50:20.184,74171.637,-0.212,0.247,-0.946,-0.109,-0.182,-0.119,-0.113,-0.071,0.053,-0.22,-0.249,1.092
2024-10-15 13:50:20.304,74171.757,-0.211,0.257,-0.943,-0.182,0.322,0.009,0.075,0.169,-0.187,-0.22,-0.26,1.055
