Date,TimeStamp,GravityX,GravityY,GravityZ,UserAccelerationX,UserAccelerationY,UserAccelerationZ,RotationRateX,RotationRateY,RotationRateZ,AttitudeRoll,AttitudePitch,AttitudeYaw
2024-10-15 11:30:48.910,65800.286,0.142,0.007,-0.99,0.02,0.016,0.007,0.023,-0.028,0.04,0.143,-0.007,1.489
2024-10-15 11:30:49.017,65800.406,0.142,0.012,-0.99,-0.001,0.02,0.014,-0.013,-0.012,0.09,0.143,-0.012,1.498
2024-10-15 11:30:49.136,65800.526,0.143,0.012,-0.99,-0.004,-0.005,0.007,0.004,0.001,-0.003,0.143,-0.012,1.499
2024-10-15 11:30:49.258,65800.645,0.143,0.012,-0.99,-0.002,-0.003,0.007,-0.012,0.006,0.005,0.144,-0.012,1.499
2024-10-15 11:30:49.376,65800.765,0.143,0.012,-0.99,-0.007,-0.016,0.006,-0.02,0.009,-0.011,0.144,-0.012,1.5
2024-10-15 11:30:49.496,65800.885,0.144,0.012,-0.99,-0.0,0.0,0.008,0.008,0.003,0.01,0.144,-0.012,1.5
2024-10-15 11:30:49.616,65801.005,0.144,0.012,-0.99,0.0,-0.0,0.007,0.001,0.001,-0.002,0.144,-0.012,1.5
2024-10-15 11:30:49.736,65801.125,0.144,0.012,-0.99,-0.005,-0.001,0.01,-0.005,0.004,-0.0,0.144,-0.012,1.5
2024-10-15 11:30:49.856,65801.244,0.144,0.012,-0.99,0.002,0.01,0.009,0.017,-0.009,0.007,0.144,-0.012,1.5
2024-10-15 11:30:49.975,65801.364,0.144,0.012,-0.989,-0.0,0.013,0.008,0.008,0.0,0.006,0.145,-0.012,1.5
2024-10-15 11:30:50.096,65801.484,0.143,0.027,-0.989,0.005,-0.025,0.02,-0.45,-0.052,-0.075,0.143,-0.027,1.5
2024-10-15 11:30:50.215,65801.604,0.147,0.128,-0.981,-0.003,-0.029,-0.006,-1.1,0.175,-0.054,0.148,-0.128,1.506
2024-10-15 11:30:50.335,65801.724,0.161,0.217,-0.963,-0.018,-0.052,0.019,-0.438,0.06,-0.153,0.166,-0.219,1.507
2024-10-15 11:30:50.455,65801.843,0.153,0.25,-0.956,0.009,-0.077,-0.023,-0.232,-0.012,-0.218,0.159,-0.252,1.488
2024-10-15 11:30:50.575,65801.963,0.179,0.266,-0.947,-0.033,0.09,0.065,0.141,0.283,-0.047,0.187,-0.27,1.476
2024-10-15 11:30:50.694,65802.083,0.184,0.212,-0.96,0.034,-0.304,-0.077,-0.035,0.24,0.129,0.189,-0.214,1.461
2024-10-15 11:30:50.814,65802.203,0.182,0.173,-0.968,0.028,-0.011,0.013,0.368,-0.187,0.295,0.186,-0.174,1.476
2024-10-15 11:30:50.935,65802.323,0.153,0.195,-0.969,0.013,0.042,0.021,-0.156,-0.355,-0.028,0.157,-0.196,1.495
2024-10-15 11:30:51.054,65802.442,0.126,0.253,-0.959,-0.001,-0.009,-0.019,-0.614,-0.101,0.136,0.131,-0.255,1.505
2024-10-15 11:30:51.174,65802.562,0.111,0.317,-0.942,-0.02,0.116,0.013,-0.149,-0.294,-0.089,0.118,-0.323,1.503
2024-10-15 11:30:51.293,65802.682,0.093,0.305,-0.948,-0.009,0.031,0.0,0.111,-0.019,0.109,0.098,-0.31,1.505
2024-10-15 11:30:51.413,65802.802,0.092,0.337,-0.937,-0.05,0.045,0.018,-0.225,0.023,-0.113,0.098,-0.344,1.503
2024-10-15 11:30:51.533,65802.922,0.097,0.304,-0.948,-0.035,0.021,-0.158,0.157,0.251,0.259,0.102,-0.309,1.503
2024-10-15 11:30:51.653,65803.041,0.114,0.322,-0.94,0.023,0.057,0.104,-0.04,0.035,-0.117,0.121,-0.328,1.507
2024-10-15 11:30:51.773,65803.161,0.114,0.317,-0.942,0.029,-0.05,-0.114,-0.397,-0.006,0.225,0.12,-0.323,1.502
2024-10-15 11:30:51.893,65803.281,0.128,0.326,-0.937,0.039,0.106,0.139,0.387,-0.003,-0.151,0.135,-0.332,1.503
2024-10-15 11:30:52.012,65803.401,0.126,0.301,-0.945,-0.102,-0.053,-0.128,-0.5,-0.053,0.353,0.132,-0.305,1.502
2024-10-15 11:30:52.132,65803.521,0.134,0.319,-0.938,0.073,0.288,0.14,0.622,-0.022,-0.057,0.142,-0.325,1.501
2024-10-15 11:30:52.252,65803.64,0.139,0.309,-0.941,-0.063,-0.098,-0.14,-0.682,-0.023,0.304,0.147,-0.315,1.507
2024-10-15 11:30:52.372,65803.76,0.145,0.323,-0.935,0.06,0.126,0.139,0.142,-0.047,-0.114,0.154,-0.329,1.501
2024-10-15 11:30:52.491,65803.88,0.147,0.34,-0.929,-0.003,-0.047,-0.126,-1.134,0.013,0.34,0.157,-0.347,1.523
2024-10-15 11:30:52.611,65804.0,0.148,0.314,-0.938,-0.023,0.244,0.012,1.182,-0.428,-0.341,0.156,-0.319,1.503
2024-10-15 11:30:52.731,65804.12,0.157,0.329,-0.931,0.013,-0.231,-0.028,-0.884,0.35,0.289,0.167,-0.335,1.521
2024-10-15 11:30:52.851,65804.239,0.154,0.297,-0.943,0.011,0.204,0.055,0.796,-0.409,-0.172,0.162,-0.301,1.501
2024-10-15 11:30:52.971,65804.359,0.165,0.317,-0.934,0.097,-0.313,-0.008,-1.133,0.359,0.133,0.175,-0.323,1.525
2024-10-15 11:30:53.090,65804.479,0.149,0.296,-0.943,0.1,0.003,-0.131,0.077,-0.237,-0.348,0.156,-0.301,1.491
2024-10-15 11:30:53.210,65804.599,0.161,0.334,-0.929,0.048,-0.351,0.126,-0.576,0.649,0.057,0.171,-0.34,1.519
2024-10-15 11:30:53.330,65804.719,0.15,0.293,-0.944,0.063,-0.047,-0.11,-0.192,-0.0,0.221,0.157,-0.297,1.495
2024-10-15 11:30:53.450,65804.838,0.159,0.347,-0.924,-0.022,-0.002,0.031,0.479,0.009,-0.18,0.17,-0.354,1.537
2024-10-15 11:30:53.570,65804.958,0.14,0.304,-0.942,-0.086,0.068,0.028,0.339,0.065,0.291,0.148,-0.309,1.512
2024-10-15 11:30:53.689,65805.078,0.157,0.323,-0.933,0.106,-0.07,-0.038,0.13,-0.024,-0.322,0.167,-0.329,1.518
2024-10-15 11:30:53.811,65805.198,0.141,0.309,-0.941,-0.008,0.237,0.026,0.297,-0.053,0.219,0.149,-0.314,1.507
2024-10-15 11:30:53.929,65805.318,0.151,0.333,-0.931,-0.045,-0.012,0.079,-0.194,-0.047,-0.08,0.161,-0.339,1.51
2024-10-15 11:30:54.049,65805.437,0.145,0.309,-0.94,-0.003,0.011,0.047,0.265,0.053,0.097,0.153,-0.315,1.51
2024-10-15 11:30:54.168,65805.557,0.176,0.398,-0.901,0.093,-0.039,-0.055,-0.927,0.311,0.232,0.193,-0.409,1.546
2024-10-15 11:30:54.288,65805.677,0.172,0.362,-0.916,0.002,0.01,0.035,0.82,-0.275,-0.06,0.186,-0.371,1.557
2024-10-15 11:30:54.408,65805.797,0.158,0.328,-0.931,0.082,0.166,0.033,0.092,-0.139,-0.084,0.168,-0.334,1.528
2024-10-15 11:30:54.528,65805.917,0.165,0.331,-0.929,-0.028,0.001,0.182,-0.23,0.007,0.223,0.176,-0.338,1.554
2024-10-15 11:30:54.648,65806.036,0.158,0.305,-0.939,-0.054,0.149,0.032,0.847,-0.165,-0.175,0.167,-0.31,1.532
2024-10-15 11:30:54.767,65806.156,0.166,0.27,-0.948,0.031,-0.065,-0.066,-0.395,-0.084,0.408,0.174,-0.274,1.546
2024-10-15 11:30:54.888,65806.276,0.178,0.287,-0.941,0.064,0.094,0.037,0.131,-0.084,-0.235,0.186,-0.291,1.544
2024-10-15 11:30:55.007,65806.396,0.172,0.275,-0.946,-0.038,-0.269,-0.123,-1.014,0.107,0.185,0.18,-0.279,1.544
2024-10-15 11:30:55.127,65806.516,0.176,0.295,-0.939,0.057,0.184,0.073,0.334,-0.171,-0.017,0.185,-0.299,1.548
2024-10-15 11:30:55.247,65806.635,0.174,0.275,-0.946,-0.004,0.086,-0.09,-0.051,-0.07,0.372,0.182,-0.279,1.552
2024-10-15 11:30:55.367,65806.755,0.177,0.268,-0.947,-0.019,0.187,0.115,0.553,-0.044,-0.122,0.185,-0.271,1.554
2024-10-15 11:30:55.487,65806.875,0.176,0.262,-0.949,0.04,-0.044,-0.103,-0.532,0.087,0.176,0.184,-0.265,1.548
2024-10-15 11:30:55.606,65806.995,0.185,0.29,-0.939,-0.024,0.109,0.086,0.454,-0.13,-0.087,0.194,-0.294,1.55
2024-10-15 11:30:55.726,65807.115,0.179,0.277,-0.944,0.006,0.025,-0.106,-0.662,-0.041,0.267,0.188,-0.281,1.55
2024-10-15 11:30:55.846,65807.234,0.184,0.315,-0.931,-0.021,0.205,0.138,0.663,-0.195,-0.157,0.195,-0.32,1.561
2024-10-15 11:30:55.966,65807.354,0.179,0.291,-0.94,-0.012,-0.152,-0.077,-0.637,0.205,0.234,0.189,-0.295,1.555
2024-10-15 11:30:56.085,65807.474,0.186,0.315,-0.931,-0.026,0.132,0.143,0.267,-0.235,-0.094,0.197,-0.32,1.561
2024-10-15 11:30:56.205,65807.594,0.178,0.304,-0.936,-0.015,-0.051,-0.078,-0.589,0.007,0.197,0.188,-0.309,1.559
2024-10-15 11:30:56.325,65807.714,0.185,0.335,-0.924,-0.057,0.105,0.09,0.682,-0.187,-0.055,0.198,-0.342,1.565
2024-10-15 11:30:56.445,65807.833,0.181,0.298,-0.937,-0.025,-0.012,-0.064,-0.216,0.091,0.226,0.191,-0.302,1.559
2024-10-15 11:30:56.565,65807.953,0.188,0.323,-0.928,-0.077,-0.106,0.116,0.202,-0.111,-0.123,0.2,-0.329,1.566
2024-10-15 11:30:56.685,65808.073,0.177,0.28,-0.944,0.043,0.098,-0.027,0.22,-0.014,0.221,0.186,-0.284,1.557
2024-10-15 11:30:56.804,65808.193,0.184,0.309,-0.933,-0.044,-0.128,0.107,-0.099,-0.025,-0.13,0.195,-0.314,1.565
2024-10-15 11:30:56.924,65808.313,0.176,0.28,-0.944,-0.043,0.039,0.051,-0.139,0.059,0.12,0.184,-0.284,1.559
2024-10-15 11:30:57.044,65808.432,0.182,0.314,-0.932,0.005,-0.075,0.073,-0.073,0.091,-0.1,0.193,-0.319,1.563
2024-10-15 11:30:57.164,65808.552,0.179,0.293,-0.939,0.005,0.009,0.046,-0.074,0.04,0.185,0.188,-0.297,1.56
2024-10-15 11:30:57.284,65808.672,0.181,0.329,-0.927,-0.016,-0.07,0.096,0.055,0.065,-0.122,0.193,-0.335,1.564
2024-10-15 11:30:57.403,65808.792,0.181,0.288,-0.94,0.028,0.026,-0.124,-0.067,0.033,0.28,0.19,-0.292,1.56
2024-10-15 11:30:57.523,65808.912,0.19,0.319,-0.929,-0.054,0.036,0.136,0.36,-0.026,-0.19,0.201,-0.324,1.562
2024-10-15 11:30:57.643,65809.031,0.188,0.269,-0.945,0.05,-0.047,-0.142,0.104,-0.069,0.272,0.196,-0.272,1.552
2024-10-15 11:30:57.763,65809.151,0.197,0.309,-0.93,-0.025,0.041,0.075,-0.222,-0.087,-0.115,0.209,-0.314,1.559
2024-10-15 11:30:57.882,65809.271,0.241,0.359,-0.902,-0.04,0.145,0.086,-0.128,0.279,0.361,0.261,-0.367,1.585
2024-10-15 11:30:58.003,65809.391,0.242,0.272,-0.931,0.11,-0.023,0.006,2.104,-0.348,-0.354,0.254,-0.276,1.572
2024-10-15 11:30:58.122,65809.511,0.227,0.205,-0.952,-0.122,0.208,-0.065,0.843,0.135,0.161,0.234,-0.207,1.547
2024-10-15 11:30:58.242,65809.63,0.274,0.152,-0.95,-0.135,0.26,-0.098,0.404,0.388,0.564,0.281,-0.152,1.573
2024-10-15 11:30:58.362,65809.75,0.328,0.07,-0.942,0.091,-0.087,0.129,0.068,0.301,0.269,0.335,-0.07,1.574
2024-10-15 11:30:58.482,65809.87,0.364,0.107,-0.925,-0.039,-0.379,-0.121,-0.449,0.41,-0.337,0.375,-0.107,1.596
2024-10-15 11:30:58.601,65809.99,0.364,0.111,-0.925,0.058,-0.093,0.051,0.374,-0.222,-0.615,0.374,-0.111,1.518
2024-10-15 11:30:58.721,65810.11,0.323,0.075,-0.943,-0.03,-0.204,-0.052,0.6,-0.493,0.564,0.33,-0.075,1.55
2024-10-15 11:30:58.841,65810.229,0.251,0.004,-0.968,0.059,0.178,0.026,0.91,-0.609,-0.139,0.254,-0.004,1.525
2024-10-15 11:30:58.960,65810.349,0.238,-0.029,-0.971,-0.08,0.013,0.189,0.32,-0.065,0.674,0.241,0.029,1.592
2024-10-15 11:30:59.081,65810.469,0.221,-0.068,-0.973,0.028,0.011,0.133,0.447,-0.279,-0.596,0.223,0.068,1.571
2024-10-15 11:30:59.200,65810.589,0.236,-0.015,-0.972,-0.076,-0.231,-0.171,-0.56,0.417,0.53,0.238,0.015,1.605
2024-10-15 11:30:59.320,65810.709,0.226,-0.06,-0.972,0.047,-0.012,0.221,0.787,-0.49,-0.564,0.228,0.06,1.593
2024-10-15 11:30:59.440,65810.828,0.224,-0.041,-0.974,-0.117,-0.196,-0.203,-0.769,0.435,0.671,0.226,0.041,1.614
2024-10-15 11:30:59.559,65810.948,0.226,-0.075,-0.971,0.005,-0.121,-0.078,0.583,-0.167,-0.405,0.228,0.075,1.609
2024-10-15 11:30:59.679,65811.068,0.227,-0.077,-0.971,-0.092,-0.004,-0.087,-0.763,0.257,0.653,0.229,0.077,1.612
2024-10-15 11:30:59.800,65811.188,0.218,-0.099,-0.971,0.11,-0.388,0.053,-0.034,-0.183,-0.334,0.221,0.099,1.62
2024-10-15 11:30:59.919,65811.308,0.204,-0.092,-0.975,-0.034,0.348,-0.05,-0.242,0.201,0.658,0.206,0.092,1.613
2024-10-15 11:31:00.038,65811.427,0.214,-0.103,-0.971,0.027,-0.435,0.185,-0.189,-0.06,-0.514,0.217,0.103,1.62
2024-10-15 11:31:00.158,65811.547,0.229,-0.069,-0.971,-0.023,0.371,-0.057,-0.375,0.359,0.403,0.231,0.069,1.589
2024-10-15 11:31:00.279,65811.667,0.242,-0.069,-0.968,0.067,-0.574,0.082,-0.399,0.065,-0.393,0.245,0.069,1.602
2024-10-15 11:31:00.398,65811.787,0.24,-0.046,-0.97,-0.014,0.239,-0.04,-0.57,0.133,0.273,0.242,0.046,1.575
2024-10-15 11:31:00.518,65811.907,0.255,-0.036,-0.966,-0.001,-0.124,0.138,0.868,0.017,0.592,0.258,0.036,1.656
2024-10-15 11:31:00.638,65812.026,0.251,-0.086,-0.964,-0.041,0.167,-0.053,-0.216,-0.175,0.848,0.255,0.086,1.713
2024-10-15 11:31:00.757,65812.146,0.232,-0.063,-0.971,0.102,0.085,0.073,0.036,-0.108,0.351,0.234,0.063,1.817
2024-10-15 11:31:00.877,65812.266,0.217,-0.055,-0.975,-0.039,-0.024,0.122,-0.42,-0.164,-0.823,0.219,0.055,1.765
2024-10-15 11:31:00.997,65812.386,0.201,-0.032,-0.979,0.004,-0.068,0.009,0.577,-0.241,-0.281,0.202,0.032,1.721
2024-10-15 11:31:01.117,65812.506,0.179,-0.054,-0.982,0.037,0.036,0.072,0.481,-0.392,-0.469,0.18,0.054,1.652
2024-10-15 11:31:01.237,65812.625,0.153,-0.032,-0.988,-0.092,0.265,-0.065,-0.434,-0.134,0.104,0.154,0.032,1.6
2024-10-15 11:31:01.356,65812.745,0.156,-0.026,-0.987,0.166,-0.175,0.247,0.221,-0.009,-0.364,0.156,0.026,1.597
2024-10-15 11:31:01.477,65812.865,0.172,-0.012,-0.985,-0.264,0.268,-0.214,-0.829,0.217,-0.195,0.173,0.012,1.516
2024-10-15 11:31:01.596,65812.985,0.16,-0.017,-0.987,0.094,0.075,0.144,0.529,-0.343,-0.009,0.161,0.017,1.534
2024-10-15 11:31:01.716,65813.105,0.11,-0.053,-0.992,0.179,-0.105,0.06,-0.0,-0.191,-0.78,0.111,0.053,1.459
2024-10-15 11:31:01.836,65813.224,0.114,-0.019,-0.993,-0.123,0.074,-0.169,0.54,0.009,0.638,0.115,0.019,1.459
2024-10-15 11:31:01.956,65813.344,0.097,-0.102,-0.99,0.096,-0.223,0.035,0.198,-0.179,-0.441,0.098,0.102,1.466
2024-10-15 11:31:02.076,65813.464,0.107,-0.07,-0.992,-0.092,0.377,-0.156,-0.585,0.193,0.864,0.107,0.07,1.465
2024-10-15 11:31:02.195,65813.584,0.092,-0.096,-0.991,0.007,-0.133,-0.044,-0.081,0.006,-0.448,0.093,0.097,1.493
2024-10-15 11:31:02.315,65813.704,0.116,-0.021,-0.993,-0.055,-0.079,-0.036,-0.743,0.188,0.07,0.116,0.021,1.47
2024-10-15 11:31:02.435,65813.823,0.121,-0.012,-0.993,0.076,0.088,0.064,0.05,-0.017,0.455,0.122,0.012,1.509
2024-10-15 11:31:02.554,65813.943,0.114,-0.04,-0.993,-0.058,-0.1,-0.151,-0.226,0.23,0.049,0.114,0.04,1.511
2024-10-15 11:31:02.674,65814.063,0.127,-0.071,-0.989,0.147,-0.219,0.252,0.736,-0.143,0.073,0.128,0.071,1.531
2024-10-15 11:31:02.794,65814.183,0.111,-0.11,-0.988,-0.323,0.253,-0.294,-0.783,0.254,0.012,0.112,0.111,1.486
2024-10-15 11:31:02.914,65814.303,0.117,-0.074,-0.99,0.132,-0.398,0.145,0.065,0.006,0.129,0.117,0.074,1.544
2024-10-15 11:31:03.034,65814.422,0.099,-0.072,-0.993,-0.207,0.009,-0.217,-0.814,0.028,-0.365,0.099,0.072,1.482
2024-10-15 11:31:03.153,65814.542,0.102,-0.009,-0.995,-0.061,0.057,0.045,0.644,-0.101,0.449,0.102,0.009,1.518
2024-10-15 11:31:03.273,65814.662,0.104,-0.058,-0.993,0.134,0.031,0.182,0.252,-0.096,-0.468,0.105,0.058,1.49
2024-10-15 11:31:03.393,65814.782,0.111,-0.051,-0.992,-0.079,-0.137,-0.309,-0.126,0.246,0.705,0.111,0.051,1.525
2024-10-15 11:31:03.513,65814.902,0.105,-0.067,-0.992,-0.061,0.208,-0.175,0.747,-0.204,-0.385,0.105,0.067,1.52
2024-10-15 11:31:03.632,65815.021,0.115,-0.062,-0.991,-0.11,0.264,-0.067,-0.334,0.32,0.639,0.115,0.062,1.513
2024-10-15 11:31:03.752,65815.141,0.126,-0.066,-0.99,0.223,-0.47,0.167,-0.361,0.091,-0.389,0.127,0.066,1.536
2024-10-15 11:31:03.872,65815.261,0.123,-0.085,-0.989,-0.154,0.229,-0.253,-0.576,0.106,0.272,0.124,0.085,1.503
2024-10-15 11:31:03.992,65815.381,0.124,-0.08,-0.989,0.165,-0.268,0.352,0.423,-0.202,-0.163,0.125,0.08,1.548
2024-10-15 11:31:04.112,65815.501,0.115,-0.066,-0.991,-0.202,0.446,-0.202,-0.548,0.018,0.019,0.116,0.066,1.512
2024-10-15 11:31:04.232,65815.62,0.122,-0.045,-0.992,0.166,-0.162,0.187,-0.003,0.032,0.039,0.122,0.045,1.558
2024-10-15 11:31:04.351,65815.74,0.105,-0.082,-0.991,0.002,-0.166,0.239,0.289,-0.324,-0.456,0.106,0.082,1.507
2024-10-15 11:31:04.471,65815.86,0.114,-0.035,-0.993,-0.118,0.004,-0.14,0.291,0.101,0.516,0.115,0.035,1.542
2024-10-15 11:31:04.591,65815.98,0.111,-0.067,-0.992,0.095,0.278,0.27,0.976,-0.432,-0.477,0.112,0.067,1.522
2024-10-15 11:31:04.711,65816.1,0.115,-0.051,-0.992,-0.082,0.048,-0.27,-0.27,0.319,0.718,0.116,0.051,1.548
2024-10-15 11:31:04.831,65816.219,0.117,-0.078,-0.99,-0.085,0.108,-0.257,0.823,-0.012,-0.622,0.118,0.078,1.545
2024-10-15 11:31:04.951,65816.339,0.128,-0.109,-0.986,-0.073,0.304,0.12,0.325,0.048,0.572,0.129,0.109,1.527
2024-10-15 11:31:05.070,65816.459,0.137,-0.139,-0.981,0.149,-0.349,0.373,0.07,-0.005,-0.362,0.139,0.139,1.563
2024-10-15 11:31:05.190,65816.579,0.163,-0.117,-0.98,-0.296,0.378,-0.35,-0.132,0.239,-0.017,0.165,0.117,1.509
2024-10-15 11:31:05.310,65816.699,0.182,-0.148,-0.972,0.104,-0.222,0.179,0.08,0.077,0.003,0.185,0.148,1.539
2024-10-15 11:31:05.430,65816.818,0.212,-0.105,-0.972,0.025,-0.049,0.104,-0.795,0.16,-0.379,0.215,0.105,1.502
2024-10-15 11:31:05.550,65816.938,0.207,-0.086,-0.974,0.053,0.04,0.124,0.384,-0.291,0.253,0.21,0.086,1.514
2024-10-15 11:31:05.669,65817.058,0.186,-0.136,-0.973,-0.005,-0.202,0.157,0.004,-0.08,-0.159,0.189,0.137,1.5
2024-10-15 11:31:05.789,65817.178,0.184,-0.15,-0.971,-0.007,-0.114,-0.385,0.06,0.078,0.232,0.187,0.15,1.53
2024-10-15 11:31:05.910,65817.298,0.18,-0.137,-0.974,0.128,0.067,0.315,0.382,-0.496,-0.86,0.183,0.138,1.494
2024-10-15 11:31:06.029,65817.417,0.21,-0.011,-0.978,-0.191,0.011,0.18,-1.557,0.561,-0.441,0.212,0.011,1.459
2024-10-15 11:31:06.149,65817.537,0.27,0.176,-0.947,0.03,-0.054,0.019,-0.636,0.136,-0.292,0.278,-0.177,1.452
2024-10-15 11:31:06.268,65817.657,0.29,0.168,-0.942,0.085,0.037,-0.267,0.535,0.497,0.422,0.298,-0.168,1.441
2024-10-15 11:31:06.388,65817.777,0.307,0.077,-0.949,0.158,-0.411,0.116,0.27,-0.015,-0.069,0.313,-0.077,1.443
2024-10-15 11:31:06.508,65817.897,0.311,0.072,-0.948,-0.266,0.326,-0.328,-1.015,0.588,0.087,0.317,-0.072,1.402
2024-10-15 11:31:06.628,65818.016,0.362,0.065,-0.93,0.084,-0.428,0.273,0.269,0.046,-0.242,0.372,-0.065,1.426
2024-10-15 11:31:06.748,65818.136,0.353,0.091,-0.931,-0.063,0.08,-0.071,-0.204,-0.002,-0.285,0.362,-0.091,1.364
2024-10-15 11:31:06.868,65818.256,0.37,0.099,-0.924,0.031,0.139,0.041,0.379,0.074,0.372,0.381,-0.099,1.381
2024-10-15 11:31:06.987,65818.376,0.354,0.089,-0.931,0.088,-0.131,0.08,0.133,-0.268,-0.387,0.363,-0.089,1.351
2024-10-15 11:31:07.108,65818.496,0.34,0.07,-0.938,-0.107,0.005,-0.115,0.276,-0.025,0.698,0.348,-0.07,1.385
2024-10-15 11:31:07.226,65818.615,0.337,0.044,-0.94,0.065,-0.254,-0.096,-0.024,0.002,-0.446,0.345,-0.044,1.392
2024-10-15 11:31:07.346,65818.735,0.323,0.035,-0.946,-0.023,0.442,-0.039,0.321,-0.078,0.671,0.329,-0.035,1.383
2024-10-15 11:31:07.466,65818.855,0.316,-0.007,-0.949,0.224,-0.689,0.393,-0.267,-0.175,-0.264,0.321,0.007,1.422
2024-10-15 11:31:07.586,65818.975,0.31,0.026,-0.95,-0.204,0.544,-0.368,-0.355,0.036,0.431,0.316,-0.026,1.391
2024-10-15 11:31:07.706,65819.095,0.315,-0.033,-0.948,-0.006,-0.241,0.232,0.273,0.136,0.144,0.321,0.033,1.444
2024-10-15 11:31:07.826,65819.214,0.327,0.018,-0.945,-0.123,0.183,-0.143,-0.544,0.19,-0.443,0.333,-0.018,1.39
2024-10-15 11:31:07.945,65819.334,0.331,-0.012,-0.944,0.022,-0.284,0.07,0.066,0.121,0.276,0.337,0.012,1.433
2024-10-15 11:31:08.066,65819.454,0.315,-0.009,-0.949,0.054,-0.232,0.162,-0.078,-0.184,-0.394,0.32,0.009,1.407
2024-10-15 11:31:08.185,65819.574,0.306,-0.029,-0.952,-0.075,0.06,-0.073,0.185,-0.045,0.605,0.311,0.029,1.446
2024-10-15 11:31:08.305,65819.694,0.286,-0.025,-0.958,0.2,-0.179,0.512,0.199,-0.482,-0.627,0.29,0.025,1.429
2024-10-15 11:31:08.425,65819.813,0.29,0.015,-0.957,-0.041,0.099,-0.062,-0.33,0.191,0.605,0.294,-0.015,1.436
2024-10-15 11:31:08.544,65819.933,0.283,-0.009,-0.959,0.023,-0.396,-0.153,0.068,0.004,-0.416,0.287,0.009,1.458
2024-10-15 11:31:08.665,65820.053,0.278,-0.003,-0.961,-0.066,0.451,-0.102,0.251,-0.021,0.466,0.282,0.003,1.438
2024-10-15 11:31:08.784,65820.173,0.275,-0.001,-0.961,0.181,-0.703,0.243,-0.48,-0.09,-0.386,0.279,0.001,1.461
2024-10-15 11:31:08.904,65820.293,0.261,0.0,-0.965,-0.231,0.505,-0.449,0.061,-0.034,0.452,0.264,-0.0,1.419
2024-10-15 11:31:09.024,65820.412,0.263,-0.032,-0.964,0.124,-0.15,0.48,0.455,-0.216,-0.058,0.266,0.032,1.47
2024-10-15 11:31:09.143,65820.532,0.253,-0.019,-0.967,-0.281,0.389,-0.437,-0.658,0.245,-0.027,0.256,0.019,1.427
2024-10-15 11:31:09.263,65820.652,0.259,-0.035,-0.965,0.11,-0.324,0.469,0.293,-0.217,0.131,0.262,0.035,1.473
2024-10-15 11:31:09.383,65820.772,0.237,-0.032,-0.971,-0.188,0.148,-0.48,-0.378,0.17,-0.4,0.24,0.032,1.424
2024-10-15 11:31:09.503,65820.892,0.247,-0.01,-0.969,-0.046,0.048,-0.062,0.193,-0.058,0.678,0.25,0.01,1.476
2024-10-15 11:31:09.623,65821.011,0.233,-0.032,-0.972,0.255,-0.028,0.471,0.511,-0.389,-0.654,0.235,0.032,1.446
2024-10-15 11:31:09.743,65821.131,0.23,-0.023,-0.973,-0.064,0.142,-0.048,-0.245,0.045,0.571,0.232,0.023,1.437
2024-10-15 11:31:09.863,65821.251,0.224,-0.021,-0.974,0.144,-0.597,0.092,-0.672,0.077,-0.443,0.226,0.021,1.468
2024-10-15 11:31:09.982,65821.371,0.258,0.032,-0.966,-0.014,0.316,-0.116,-0.324,0.413,-0.107,0.261,-0.032,1.412
2024-10-15 11:31:10.102,65821.491,0.285,0.039,-0.958,-0.032,-0.045,0.043,-0.21,0.206,-0.125,0.289,-0.039,1.406
2024-10-15 11:31:10.222,65821.61,0.314,0.096,-0.944,-0.109,0.137,-0.021,-0.596,0.295,-0.119,0.321,-0.096,1.398
2024-10-15 11:31:10.341,65821.73,0.329,0.108,-0.938,0.117,-0.018,0.104,0.27,-0.429,0.094,0.338,-0.109,1.425
2024-10-15 11:31:10.461,65821.85,0.299,0.066,-0.952,0.076,0.194,-0.096,0.485,-0.167,0.639,0.304,-0.066,1.448
2024-10-15 11:31:10.581,65821.97,0.265,0.006,-0.964,0.019,0.051,-0.046,0.679,-0.43,-0.186,0.268,-0.006,1.45
2024-10-15 11:31:10.701,65822.09,0.239,0.022,-0.971,-0.087,0.408,-0.003,-0.567,-0.142,0.76,0.241,-0.022,1.455
2024-10-15 11:31:10.821,65822.209,0.218,0.004,-0.976,0.174,-0.216,-0.014,-0.368,0.124,-0.378,0.22,-0.004,1.483
2024-10-15 11:31:10.940,65822.329,0.217,0.058,-0.975,-0.124,0.266,0.012,-0.64,-0.074,0.341,0.219,-0.058,1.445
2024-10-15 11:31:11.061,65822.449,0.213,0.056,-0.975,0.524,-0.556,0.365,0.121,0.031,-0.313,0.215,-0.056,1.479
2024-10-15 11:31:11.180,65822.569,0.217,0.061,-0.974,-0.339,0.247,-0.635,-0.971,0.291,0.133,0.219,-0.061,1.439
2024-10-15 11:31:11.300,65822.689,0.227,0.077,-0.971,0.306,-0.061,0.477,0.886,-0.126,0.256,0.23,-0.077,1.486
2024-10-15 11:31:11.420,65822.808,0.221,0.027,-0.975,-0.16,-0.255,-0.015,-0.368,0.073,-0.342,0.223,-0.027,1.446
2024-10-15 11:31:11.539,65822.928,0.239,0.061,-0.969,-0.066,0.117,-0.021,0.652,-0.158,0.523,0.241,-0.061,1.49
2024-10-15 11:31:11.659,65823.048,0.239,0.014,-0.971,0.299,-0.147,0.282,0.106,-0.02,-0.55,0.241,-0.014,1.466
2024-10-15 11:31:11.779,65823.168,0.244,0.034,-0.969,-0.196,-0.069,-0.199,-0.498,0.214,0.388,0.247,-0.034,1.478
2024-10-15 11:31:11.899,65823.288,0.251,0.04,-0.967,0.266,-0.366,-0.08,-0.38,0.214,-0.252,0.254,-0.04,1.49
2024-10-15 11:31:12.019,65823.407,0.244,0.027,-0.969,-0.248,0.534,-0.014,0.69,-0.136,0.442,0.247,-0.027,1.46
2024-10-15 11:31:12.138,65823.527,0.245,0.023,-0.969,0.428,-0.535,0.478,-0.196,-0.001,-0.376,0.248,-0.023,1.488
2024-10-15 11:31:12.259,65823.647,0.255,0.053,-0.966,-0.343,0.283,-0.291,-0.902,0.138,0.073,0.258,-0.053,1.444
2024-10-15 11:31:12.378,65823.767,0.262,0.058,-0.963,0.212,-0.004,0.391,0.478,-0.107,0.235,0.266,-0.058,1.486
2024-10-15 11:31:12.498,65823.887,0.261,0.027,-0.965,-0.318,-0.203,-0.28,-0.512,0.22,-0.483,0.264,-0.027,1.435
2024-10-15 11:31:12.618,65824.006,0.271,0.063,-0.96,-0.126,0.127,-0.252,0.179,-0.041,0.588,0.275,-0.063,1.466
2024-10-15 11:31:12.737,65824.126,0.278,0.054,-0.959,0.022,0.039,-0.152,0.589,0.055,-0.485,0.283,-0.054,1.464
2024-10-15 11:31:12.858,65824.246,0.269,0.021,-0.963,-0.189,0.338,0.011,0.362,-0.128,0.926,0.272,-0.021,1.451
2024-10-15 11:31:12.977,65824.366,0.266,0.021,-0.964,0.38,-0.268,0.128,-0.485,0.161,-0.073,0.269,-0.021,1.483
2024-10-15 11:31:13.097,65824.486,0.274,0.019,-0.962,-0.311,0.28,-0.2,-0.131,0.306,0.159,0.277,-0.019,1.455
2024-10-15 11:31:13.216,65824.605,0.36,0.124,-0.925,0.042,-0.428,-0.084,-1.816,1.311,-0.702,0.371,-0.125,1.475
2024-10-15 11:31:13.336,65824.725,0.449,0.23,-0.863,0.198,-0.1,0.162,0.076,0.444,-0.886,0.48,-0.232,1.411
2024-10-15 11:31:13.457,65824.845,0.407,0.241,-0.881,-0.003,0.091,0.044,-0.027,-0.796,0.07,0.433,-0.243,1.351
2024-10-15 11:31:13.576,65824.965,0.33,0.227,-0.916,-0.135,0.037,-0.03,0.282,-0.5,0.103,0.345,-0.229,1.357
2024-10-15 11:31:13.696,65825.085,0.306,0.21,-0.929,-0.112,-0.014,0.04,0.055,-0.113,-0.033,0.318,-0.211,1.355
2024-10-15 11:31:13.816,65825.204,0.308,0.185,-0.933,-0.056,0.084,-0.034,0.264,0.107,0.211,0.319,-0.186,1.349
2024-10-15 11:31:13.936,65825.324,0.331,0.111,-0.937,0.064,-0.065,0.097,0.643,-0.069,0.25,0.339,-0.112,1.375
2024-10-15 11:31:14.056,65825.444,0.287,0.096,-0.953,0.038,-0.055,-0.034,0.223,-0.352,-0.471,0.292,-0.096,1.328
2024-10-15 11:31:14.175,65825.564,0.292,0.079,-0.953,-0.074,-0.073,-0.147,0.092,0.132,0.665,0.298,-0.079,1.366
2024-10-15 11:31:14.295,65825.684,0.261,0.045,-0.964,0.185,-0.047,-0.042,0.217,-0.34,-0.586,0.264,-0.045,1.333
2024-10-15 11:31:14.415,65825.803,0.248,0.035,-0.968,-0.238,0.141,-0.376,0.495,-0.002,0.946,0.251,-0.035,1.366
2024-10-15 11:31:14.535,65825.923,0.226,-0.005,-0.974,0.201,0.245,0.119,0.27,-0.308,-0.46,0.228,0.005,1.354
2024-10-15 11:31:14.654,65826.043,0.233,0.085,-0.969,-0.218,0.33,-0.01,-0.674,-0.017,0.563,0.236,-0.085,1.36
2024-10-15 11:31:14.774,65826.163,0.226,0.068,-0.972,-0.009,0.037,-0.275,0.558,0.065,-0.576,0.228,-0.068,1.369
2024-10-15 11:31:14.894,65826.283,0.235,0.138,-0.962,-0.149,0.282,-0.13,-0.536,0.272,0.162,0.239,-0.139,1.325
2024-10-15 11:31:15.014,65826.402,0.244,0.095,-0.965,0.422,-0.59,0.52,0.458,-0.297,-0.209,0.247,-0.096,1.369
2024-10-15 11:31:15.134,65826.522,0.218,0.065,-0.974,-0.244,0.273,-0.436,-0.572,0.224,-0.09,0.22,-0.065,1.317
2024-10-15 11:31:15.255,65826.642,0.245,0.068,-0.967,0.004,-0.087,0.191,0.017,0.099,0.41,0.248,-0.068,1.385
2024-10-15 11:31:15.373,65826.762,0.231,0.043,-0.972,0.019,-0.121,0.212,0.397,-0.329,-0.526,0.233,-0.043,1.331
2024-10-15 11:31:15.493,65826.882,0.26,0.089,-0.962,-0.269,0.245,-0.259,-0.457,0.374,0.843,0.264,-0.089,1.366
2024-10-15 11:31:15.613,65827.001,0.256,0.068,-0.964,-0.033,0.116,-0.289,0.838,-0.268,-0.646,0.259,-0.068,1.371
2024-10-15 11:31:15.732,65827.121,0.236,0.075,-0.969,-0.105,0.373,-0.11,-0.394,0.036,0.488,0.239,-0.075,1.336
2024-10-15 11:31:15.852,65827.241,0.235,0.055,-0.97,0.333,-0.666,0.388,0.014,-0.081,-0.354,0.238,-0.055,1.394
2024-10-15 11:31:15.972,65827.361,0.221,0.027,-0.975,-0.203,0.359,-0.36,-0.425,0.128,-0.031,0.223,-0.027,1.324
2024-10-15 11:31:16.092,65827.481,0.241,0.036,-0.97,-0.038,-0.07,-0.069,-0.253,0.61,-0.056,0.243,-0.036,1.337
2024-10-15 11:31:16.212,65827.6,0.336,0.049,-0.941,0.166,-0.01,0.332,0.228,0.29,-0.125,0.343,-0.049,1.328
2024-10-15 11:31:16.332,65827.72,0.282,0.032,-0.959,-0.41,0.362,-0.429,0.308,-0.248,0.374,0.286,-0.032,1.308
2024-10-15 11:31:16.451,65827.84,0.282,0.054,-0.958,-0.143,0.18,-0.169,-0.341,-0.005,0.644,0.287,-0.054,1.375
2024-10-15 11:31:16.571,65827.96,0.256,0.034,-0.966,0.155,-0.452,0.074,-0.715,0.013,-0.456,0.259,-0.034,1.388
2024-10-15 11:31:16.691,65828.08,0.223,0.026,-0.974,-0.361,0.388,-0.645,-0.833,0.259,0.228,0.225,-0.026,1.331
2024-10-15 11:31:16.811,65828.199,0.232,0.074,-0.97,0.19,-0.086,0.323,0.317,-0.257,0.474,0.234,-0.074,1.427
2024-10-15 11:31:16.931,65828.319,0.179,0.023,-0.983,0.003,-0.309,0.174,-0.063,-0.451,-0.446,0.181,-0.023,1.383
2024-10-15 11:31:17.051,65828.439,0.183,0.099,-0.978,-0.062,0.147,-0.021,-0.592,0.266,0.461,0.185,-0.099,1.386
2024-10-15 11:31:17.170,65828.559,0.185,0.08,-0.979,-0.08,0.083,-0.316,0.876,-0.119,-0.629,0.187,-0.08,1.384
2024-10-15 11:31:17.290,65828.678,0.183,0.079,-0.98,-0.068,0.166,0.15,-0.135,0.144,0.522,0.184,-0.079,1.36
2024-10-15 11:31:17.410,65828.798,0.197,0.072,-0.978,0.297,-0.774,0.385,-0.324,0.016,-0.588,0.198,-0.072,1.411
2024-10-15 11:31:17.529,65828.918,0.196,0.08,-0.977,-0.241,0.295,-0.427,-0.778,0.344,0.049,0.198,-0.08,1.355
2024-10-15 11:31:17.649,65829.038,0.222,0.086,-0.971,0.063,0.169,0.107,0.138,0.114,0.602,0.225,-0.086,1.415
2024-10-15 11:31:17.769,65829.158,0.222,0.084,-0.972,0.411,-0.067,0.502,0.393,-0.191,-0.781,0.224,-0.084,1.375
2024-10-15 11:31:17.889,65829.277,0.215,0.065,-0.974,-0.188,0.146,0.015,-0.117,0.058,1.036,0.217,-0.065,1.392
2024-10-15 11:31:18.009,65829.397,0.217,0.056,-0.975,0.255,-0.847,-0.028,-0.432,0.029,-0.43,0.219,-0.056,1.436
2024-10-15 11:31:18.129,65829.517,0.2,0.068,-0.978,-0.238,0.308,0.048,-0.084,-0.064,0.22,0.201,-0.068,1.397
2024-10-15 11:31:18.248,65829.637,0.203,0.035,-0.979,0.281,-0.741,0.505,-0.194,-0.044,-0.509,0.205,-0.035,1.442
2024-10-15 11:31:18.368,65829.757,0.193,0.059,-0.979,-0.208,0.329,-0.347,-1.167,0.27,-0.015,0.195,-0.059,1.374
2024-10-15 11:31:18.488,65829.876,0.208,0.049,-0.977,0.137,-0.079,0.181,0.06,0.049,0.393,0.21,-0.049,1.441
2024-10-15 11:31:18.607,65829.996,0.194,0.055,-0.979,-0.129,-0.089,-0.197,-0.272,0.035,-0.569,0.196,-0.056,1.373
2024-10-15 11:31:18.727,65830.116,0.204,0.054,-0.977,-0.26,0.154,-0.306,0.201,0.125,1.016,0.206,-0.054,1.411
2024-10-15 11:31:18.847,65830.236,0.193,0.02,-0.981,0.035,0.241,0.156,1.354,-0.581,-0.918,0.194,-0.02,1.4
2024-10-15 11:31:18.967,65830.356,0.193,0.005,-0.981,-0.182,0.307,0.027,-0.023,0.108,1.085,0.194,-0.005,1.393
2024-10-15 11:31:19.087,65830.475,0.191,0.023,-0.981,0.152,-0.596,-0.063,-0.718,0.152,-0.647,0.192,-0.023,1.428
2024-10-15 11:31:19.207,65830.595,0.182,0.03,-0.983,-0.203,0.537,0.062,0.655,-0.046,0.575,0.183,-0.03,1.386
2024-10-15 11:31:19.327,65830.715,0.185,-0.012,-0.983,0.242,-0.678,0.471,-0.288,-0.225,-0.506,0.186,0.012,1.446
2024-10-15 11:31:19.447,65830.835,0.175,0.017,-0.984,-0.218,0.83,-0.406,-0.001,0.024,0.291,0.176,-0.017,1.381
2024-10-15 11:31:19.566,65830.955,0.188,-0.016,-0.982,0.074,-0.671,0.382,-0.136,-0.063,-0.188,0.189,0.016,1.452
2024-10-15 11:31:19.686,65831.074,0.182,0.01,-0.983,0.026,0.808,0.102,0.692,-0.252,-0.131,0.183,-0.01,1.368
2024-10-15 11:31:19.806,65831.194,0.193,-0.032,-0.981,-0.191,0.027,-0.224,-0.379,0.23,0.723,0.194,0.032,1.424
2024-10-15 11:31:19.925,65831.314,0.186,-0.006,-0.983,0.442,0.09,0.631,0.704,-0.476,-1.069,0.187,0.006,1.389
2024-10-15 11:31:20.046,65831.434,0.185,-0.02,-0.982,-0.2,0.132,-0.101,-0.111,0.211,0.939,0.186,0.02,1.394
2024-10-15 11:31:20.165,65831.554,0.205,0.029,-0.978,0.219,-0.687,-0.197,-0.936,0.378,-0.717,0.206,-0.029,1.418
2024-10-15 11:31:20.285,65831.673,0.195,0.047,-0.98,-0.234,0.196,-0.267,-0.318,0.244,0.149,0.197,-0.047,1.347
2024-10-15 11:31:20.404,65831.793,0.25,0.104,-0.963,-0.158,0.209,0.091,-0.938,0.54,0.384,0.254,-0.104,1.372
2024-10-15 11:31:20.525,65831.913,0.289,0.074,-0.955,0.037,-0.049,-0.035,0.949,0.08,0.229,0.294,-0.074,1.419
2024-10-15 11:31:20.644,65832.033,0.312,0.054,-0.948,0.111,-0.054,0.054,-0.004,0.068,0.12,0.318,-0.054,1.434
2024-10-15 11:31:20.765,65832.153,0.292,0.043,-0.955,0.094,0.018,0.128,0.585,-0.62,-0.142,0.296,-0.043,1.431
2024-10-15 11:31:20.884,65832.272,0.25,0.049,-0.967,-0.142,-0.051,0.019,-0.96,0.049,0.163,0.253,-0.049,1.433
2024-10-15 11:31:21.004,65832.392,0.248,0.067,-0.967,0.243,-0.387,0.56,0.069,-0.17,-0.196,0.251,-0.068,1.468
2024-10-15 11:31:21.123,65832.512,0.213,0.059,-0.975,-0.122,0.277,-0.187,0.292,-0.251,-0.223,0.215,-0.059,1.415
2024-10-15 11:31:21.243,65832.632,0.213,0.066,-0.975,-0.092,-0.01,-0.189,-0.371,0.139,0.374,0.215,-0.066,1.464
2024-10-15 11:31:21.363,65832.752,0.217,0.071,-0.974,0.179,0.208,0.548,0.879,-0.564,-0.655,0.219,-0.071,1.442
2024-10-15 11:31:21.483,65832.871,0.204,0.055,-0.977,-0.081,0.241,-0.056,-0.261,0.225,0.407,0.206,-0.055,1.419
2024-10-15 11:31:21.603,65832.991,0.211,0.049,-0.976,0.348,-0.85,0.554,-0.164,-0.1,-0.311,0.213,-0.049,1.472
2024-10-15 11:31:21.723,65833.111,0.175,-0.014,-0.985,-0.077,-0.076,-0.2,0.462,-0.151,-0.584,0.176,0.014,1.401
2024-10-15 11:31:21.842,65833.231,0.199,0.049,-0.979,0.018,0.068,0.053,0.078,-0.079,0.56,0.201,-0.049,1.469
2024-10-15 11:31:21.962,65833.351,0.195,0.045,-0.98,0.138,0.377,0.259,0.945,-0.328,-0.524,0.196,-0.045,1.44
2024-10-15 11:31:22.082,65833.47,0.195,0.059,-0.979,-0.144,0.091,-0.074,-0.356,0.1,0.599,0.197,-0.059,1.448
2024-10-15 11:31:22.201,65833.59,0.198,0.053,-0.979,0.041,0.29,-0.355,0.334,0.105,-0.065,0.199,-0.053,1.453
2024-10-15 11:31:22.321,65833.71,0.189,0.021,-0.982,-0.165,0.048,0.003,-0.445,0.093,0.074,0.19,-0.021,1.429
2024-10-15 11:31:22.441,65833.83,0.197,0.055,-0.979,0.305,-0.457,0.437,-0.029,-0.109,-0.29,0.198,-0.055,1.466
2024-10-15 11:31:22.561,65833.95,0.186,0.051,-0.981,-0.265,0.292,-0.258,-0.202,0.093,-0.17,0.187,-0.051,1.416
2024-10-15 11:31:22.681,65834.069,0.197,0.064,-0.978,-0.114,0.052,-0.169,-0.343,-0.016,0.498,0.198,-0.064,1.47
2024-10-15 11:31:22.800,65834.189,0.206,0.095,-0.974,0.386,0.445,0.704,1.157,-0.492,-0.568,0.208,-0.095,1.432
2024-10-15 11:31:22.920,65834.309,0.202,0.074,-0.976,-0.207,0.068,-0.026,0.254,0.093,0.468,0.204,-0.074,1.439
2024-10-15 11:31:23.040,65834.429,0.225,0.111,-0.968,0.343,-0.61,0.265,-0.61,0.385,-0.44,0.229,-0.111,1.466
2024-10-15 11:31:23.160,65834.549,0.214,0.074,-0.974,-0.338,0.351,-0.41,-0.004,-0.008,0.2,0.217,-0.074,1.43
2024-10-15 11:31:23.280,65834.668,0.224,0.084,-0.971,0.165,-0.331,0.332,0.163,0.035,-0.018,0.226,-0.084,1.483
2024-10-15 11:31:23.400,65834.788,0.212,0.05,-0.976,-0.065,0.125,-0.034,0.666,-0.269,-0.157,0.214,-0.05,1.44
2024-10-15 11:31:23.519,65834.908,0.209,0.082,-0.974,-0.131,0.122,-0.285,-0.936,0.103,0.465,0.212,-0.083,1.459
2024-10-15 11:31:23.640,65835.028,0.206,0.082,-0.975,0.004,0.392,-0.349,1.483,-0.415,-0.19,0.208,-0.082,1.47
2024-10-15 11:31:23.759,65835.148,0.19,0.067,-0.979,-0.235,0.204,0.119,-0.276,0.073,0.346,0.192,-0.067,1.448
2024-10-15 11:31:23.879,65835.267,0.199,0.083,-0.977,0.331,-0.658,0.263,-0.671,0.312,-0.442,0.201,-0.083,1.475
2024-10-15 11:31:23.999,65835.387,0.196,0.066,-0.978,-0.169,0.187,-0.278,-0.301,0.087,0.034,0.197,-0.066,1.432
2024-10-15 11:31:24.119,65835.507,0.2,0.058,-0.978,0.159,-0.244,0.241,0.335,-0.059,0.051,0.202,-0.058,1.482
2024-10-15 11:31:24.238,65835.627,0.202,0.09,-0.975,-0.206,0.216,-0.263,-0.202,0.18,-0.597,0.205,-0.09,1.409
2024-10-15 11:31:24.358,65835.747,0.217,0.089,-0.972,-0.147,0.065,0.036,0.651,0.051,0.167,0.219,-0.09,1.399
2024-10-15 11:31:24.477,65835.866,0.242,0.08,-0.967,-0.05,-0.02,-0.034,-0.152,0.425,-0.158,0.245,-0.08,1.39
2024-10-15 11:31:24.599,65835.986,0.284,0.109,-0.953,-0.109,0.284,0.004,-0.144,0.502,0.358,0.29,-0.11,1.384
2024-10-15 11:31:24.718,65836.106,0.271,0.082,-0.959,-0.061,-0.107,0.166,0.389,-0.049,-0.324,0.276,-0.082,1.409
2024-10-15 11:31:24.837,65836.226,0.265,0.047,-0.963,0.331,-0.197,0.611,0.599,-0.464,0.046,0.269,-0.047,1.447
2024-10-15 11:31:24.957,65836.346,0.221,0.007,-0.975,-0.337,0.392,-0.271,0.122,-0.139,-0.106,0.223,-0.007,1.405
2024-10-15 11:31:25.077,65836.465,0.216,0.021,-0.976,-0.072,0.036,-0.205,-0.61,-0.088,0.589,0.218,-0.021,1.455
2024-10-15 11:31:25.197,65836.585,0.196,-0.027,-0.98,0.187,0.356,0.362,1.191,-0.374,-0.456,0.198,0.027,1.451
2024-10-15 11:31:25.316,65836.705,0.174,-0.025,-0.985,-0.234,-0.281,-0.014,-0.921,0.075,-0.013,0.175,0.025,1.446
2024-10-15 11:31:25.437,65836.825,0.185,0.039,-0.982,0.374,-0.233,0.511,0.144,0.062,-0.31,0.187,-0.039,1.462
2024-10-15 11:31:25.556,65836.945,0.177,0.011,-0.984,-0.531,0.124,-0.647,-0.293,-0.02,-0.194,0.178,-0.011,1.425
2024-10-15 11:31:25.676,65837.064,0.185,0.097,-0.978,-0.166,0.026,-0.28,-0.898,0.055,0.355,0.187,-0.097,1.456
2024-10-15 11:31:25.796,65837.184,0.186,0.06,-0.981,0.093,0.128,-0.13,1.42,-0.232,-0.423,0.187,-0.06,1.452
2024-10-15 11:31:25.916,65837.304,0.166,0.047,-0.985,-0.19,0.145,0.08,-0.231,-0.071,0.547,0.167,-0.047,1.434
2024-10-15 11:31:26.035,65837.424,0.155,0.049,-0.987,0.36,-0.428,0.506,0.445,-0.312,0.002,0.156,-0.049,1.484
2024-10-15 11:31:26.155,65837.544,0.146,0.021,-0.989,-0.084,0.296,-0.186,-0.715,0.237,-0.159,0.147,-0.021,1.431
2024-10-15 11:31:26.275,65837.663,0.154,0.038,-0.987,-0.103,0.033,-0.133,-0.168,0.011,0.493,0.155,-0.038,1.471
2024-10-15 11:31:26.395,65837.783,0.148,0.026,-0.989,0.392,-0.386,0.212,-0.708,0.22,-0.739,0.148,-0.026,1.436
2024-10-15 11:31:26.515,65837.903,0.155,0.038,-0.987,-0.177,0.144,-0.277,-0.364,0.114,0.633,0.155,-0.038,1.447
2024-10-15 11:31:26.635,65838.023,0.16,0.046,-0.986,0.294,-0.576,-0.166,-0.857,0.465,-0.477,0.161,-0.046,1.473
2024-10-15 11:31:26.754,65838.143,0.163,0.051,-0.985,-0.373,0.132,-0.191,0.127,-0.114,0.207,0.164,-0.051,1.429
2024-10-15 11:31:26.874,65838.262,0.161,0.027,-0.987,0.214,-0.101,0.361,0.189,-0.004,0.244,0.161,-0.027,1.477
2024-10-15 11:31:26.994,65838.382,0.162,0.033,-0.986,-0.231,-0.166,-0.548,0.008,0.168,-0.085,0.163,-0.033,1.436
2024-10-15 11:31:27.114,65838.502,0.165,0.013,-0.986,-0.12,-0.016,-0.255,-0.588,0.23,0.428,0.166,-0.013,1.446
2024-10-15 11:31:27.233,65838.622,0.166,0.024,-0.986,0.246,-0.563,-0.218,-0.909,0.363,-0.441,0.167,-0.024,1.473
2024-10-15 11:31:27.353,65838.742,0.162,0.031,-0.986,-0.299,0.152,0.059,0.093,-0.113,0.117,0.163,-0.031,1.434
2024-10-15 11:31:27.473,65838.861,0.163,0.037,-0.986,0.236,-0.158,0.474,0.756,-0.272,0.209,0.164,-0.037,1.484
2024-10-15 11:31:27.593,65838.981,0.146,0.005,-0.989,-0.198,-0.148,-0.369,-0.122,0.142,-0.055,0.146,-0.005,1.445
2024-10-15 11:31:27.712,65839.101,0.16,0.024,-0.987,-0.079,-0.016,-0.332,-1.102,0.329,0.354,0.161,-0.024,1.46
2024-10-15 11:31:27.833,65839.221,0.161,0.037,-0.986,0.044,0.103,-0.302,1.141,-0.281,-0.496,0.162,-0.037,1.467
2024-10-15 11:31:27.952,65839.341,0.157,0.04,-0.987,-0.248,0.109,0.06,0.195,0.026,0.315,0.158,-0.04,1.445
2024-10-15 11:31:28.072,65839.46,0.164,0.021,-0.986,0.329,-0.363,0.609,-0.016,-0.117,-0.202,0.165,-0.021,1.482
2024-10-15 11:31:28.192,65839.58,0.169,0.046,-0.984,-0.142,0.334,-0.063,-0.515,0.084,0.006,0.17,-0.046,1.441
2024-10-15 11:31:28.312,65839.7,0.178,0.046,-0.983,-0.067,0.085,-0.122,-0.359,0.113,0.507,0.18,-0.046,1.479
2024-10-15 11:31:28.431,65839.82,0.179,0.049,-0.983,0.277,-0.226,0.028,-0.661,0.217,-0.553,0.18,-0.049,1.455
2024-10-15 11:31:28.551,65839.94,0.185,0.072,-0.98,-0.222,0.163,-0.143,0.187,0.171,0.299,0.187,-0.072,1.457
2024-10-15 11:31:28.671,65840.059,0.201,0.092,-0.975,0.28,-0.53,-0.114,-0.831,0.457,-0.397,0.203,-0.092,1.48
2024-10-15 11:31:28.790,65840.179,0.188,0.08,-0.979,-0.247,0.21,0.004,0.147,-0.149,0.229,0.19,-0.08,1.436
2024-10-15 11:31:28.910,65840.299,0.194,0.036,-0.98,0.092,-0.114,0.461,0.623,-0.035,0.198,0.196,-0.036,1.492
2024-10-15 11:31:29.030,65840.419,0.199,0.087,-0.976,-0.093,-0.297,0.071,-0.941,0.185,-0.71,0.201,-0.087,1.417
2024-10-15 11:31:29.150,65840.539,0.22,0.165,-0.962,-0.157,-0.046,0.027,-1.456,0.336,-0.134,0.225,-0.166,1.398
2024-10-15 11:31:29.270,65840.658,0.294,0.293,-0.91,0.11,0.057,0.095,0.179,0.508,0.182,0.313,-0.297,1.443
2024-10-15 11:31:29.389,65840.778,0.268,0.26,-0.928,0.077,0.051,-0.099,1.444,-0.063,-0.111,0.281,-0.263,1.425
2024-10-15 11:31:29.509,65840.898,0.296,0.114,-0.948,-0.027,0.048,0.001,1.075,0.212,0.37,0.302,-0.114,1.41
2024-10-15 11:31:29.629,65841.018,0.279,-0.005,-0.96,0.04,-0.03,0.053,0.8,-0.415,0.16,0.282,0.005,1.41
2024-10-15 11:31:29.749,65841.138,0.236,-0.028,-0.971,0.114,-0.102,0.153,-0.094,-0.396,-0.521,0.238,0.028,1.383
2024-10-15 11:31:29.869,65841.257,0.226,0.052,-0.973,-0.208,0.219,-0.296,-0.416,0.094,0.251,0.228,-0.052,1.374
2024-10-15 11:31:29.989,65841.377,0.237,0.074,-0.969,0.115,0.026,0.147,-0.365,0.134,0.018,0.24,-0.074,1.393
2024-10-15 11:31:30.109,65841.497,0.275,0.137,-0.952,-0.062,-0.073,0.111,-0.689,0.413,-0.127,0.281,-0.137,1.401
2024-10-15 11:31:30.228,65841.617,0.293,0.138,-0.946,0.138,0.161,0.093,0.736,-0.134,0.149,0.3,-0.139,1.401
2024-10-15 11:31:30.348,65841.737,0.251,0.072,-0.965,-0.118,-0.097,-0.083,0.391,-0.447,-0.236,0.255,-0.072,1.379
2024-10-15 11:31:30.468,65841.856,0.28,0.152,-0.948,-0.094,-0.008,-0.033,-0.699,0.294,0.455,0.288,-0.153,1.427
2024-10-15 11:31:30.588,65841.976,0.261,0.11,-0.959,-0.039,0.113,-0.179,0.607,-0.227,-0.048,0.266,-0.11,1.432
2024-10-15 11:31:30.707,65842.096,0.243,0.115,-0.963,-0.157,0.064,-0.283,-0.695,0.227,0.052,0.247,-0.115,1.408
2024-10-15 11:31:30.827,65842.216,0.245,0.126,-0.961,0.401,-0.154,0.545,0.393,-0.343,-0.054,0.249,-0.126,1.423
2024-10-15 11:31:30.947,65842.336,0.214,0.089,-0.973,-0.362,-0.07,-0.449,-0.541,0.193,-0.311,0.217,-0.089,1.389
2024-10-15 11:31:31.067,65842.455,0.254,0.154,-0.955,0.187,0.167,0.414,0.689,-0.156,0.216,0.26,-0.155,1.412
2024-10-15 11:31:31.186,65842.575,0.22,0.1,-0.97,0.274,-0.217,0.056,0.112,-0.15,-0.243,0.223,-0.1,1.39
2024-10-15 11:31:31.306,65842.695,0.221,0.12,-0.968,-0.106,0.045,-0.093,-0.462,-0.002,0.123,0.224,-0.12,1.392
2024-10-15 11:31:31.426,65842.815,0.225,0.106,-0.969,0.502,-0.417,0.212,-0.054,0.247,-0.224,0.228,-0.106,1.411
2024-10-15 11:31:31.546,65842.935,0.238,0.096,-0.967,-0.424,0.037,-0.381,-0.078,0.087,0.133,0.241,-0.096,1.382
2024-10-15 11:31:31.666,65843.054,0.245,0.118,-0.962,0.057,0.116,0.15,0.111,-0.142,0.366,0.249,-0.119,1.411
2024-10-15 11:31:31.786,65843.174,0.244,0.092,-0.965,0.208,0.26,0.572,0.954,-0.2,-0.389,0.247,-0.092,1.405
2024-10-15 11:31:31.906,65843.294,0.237,0.079,-0.968,-0.215,-0.118,0.132,-0.072,-0.105,0.17,0.24,-0.079,1.394
2024-10-15 11:31:32.026,65843.414,0.236,0.09,-0.967,0.445,-0.155,0.532,0.432,-0.199,0.015,0.24,-0.091,1.42
2024-10-15 11:31:32.145,65843.534,0.233,0.065,-0.97,-0.399,0.006,-0.503,-0.002,0.129,-0.15,0.236,-0.065,1.397
2024-10-15 11:31:32.265,65843.653,0.23,0.109,-0.967,-0.132,-0.246,-0.551,-1.191,0.154,0.041,0.233,-0.109,1.412
2024-10-15 11:31:32.385,65843.773,0.216,0.104,-0.971,0.355,-0.152,-0.192,-0.459,0.401,-0.091,0.219,-0.104,1.422
2024-10-15 11:31:32.504,65843.893,0.216,0.08,-0.973,-0.706,0.194,-0.826,-0.114,0.188,0.106,0.218,-0.08,1.403
2024-10-15 11:31:32.624,65844.013,0.218,0.093,-0.971,0.062,0.104,0.263,0.167,-0.107,0.298,0.221,-0.094,1.436
2024-10-15 11:31:32.744,65844.133,0.22,0.078,-0.972,0.505,0.07,0.838,0.986,-0.266,-0.606,0.223,-0.079,1.426
2024-10-15 11:31:32.864,65844.252,0.212,0.072,-0.975,-0.271,-0.0,0.056,0.298,-0.1,0.178,0.214,-0.072,1.405
2024-10-15 11:31:32.984,65844.372,0.218,0.079,-0.973,0.387,-0.171,0.472,0.119,-0.075,0.034,0.221,-0.079,1.435
2024-10-15 11:31:33.103,65844.492,0.23,0.087,-0.969,-0.148,-0.343,-0.337,-0.415,0.14,-0.259,0.233,-0.087,1.403
2024-10-15 11:31:33.223,65844.612,0.222,0.071,-0.972,-0.194,-0.128,-0.262,-0.385,0.066,0.235,0.225,-0.071,1.417
2024-10-15 11:31:33.343,65844.732,0.228,0.066,-0.972,0.547,-0.353,0.073,-0.288,0.293,-0.174,0.23,-0.066,1.439
2024-10-15 11:31:33.463,65844.851,0.221,0.058,-0.974,-0.318,0.039,-0.202,-0.274,-0.124,0.025,0.223,-0.058,1.412
2024-10-15 11:31:33.583,65844.971,0.218,0.058,-0.974,-0.029,0.193,0.079,0.345,-0.087,0.473,0.22,-0.058,1.447
2024-10-15 11:31:33.703,65845.091,0.222,0.045,-0.974,0.291,0.296,0.647,1.048,-0.311,-0.548,0.224,-0.045,1.435
2024-10-15 11:31:33.822,65845.211,0.209,0.027,-0.977,-0.277,-0.079,0.07,0.005,-0.079,0.277,0.211,-0.027,1.432
2024-10-15 11:31:33.943,65845.331,0.215,0.025,-0.976,0.46,-0.138,0.407,0.475,-0.072,-0.059,0.217,-0.025,1.47
2024-10-15 11:31:34.062,65845.45,0.226,0.041,-0.973,-0.568,0.426,-0.416,0.061,-0.024,-0.005,0.228,-0.041,1.432
2024-10-15 11:31:34.181,65845.57,0.244,0.058,-0.968,-0.126,-0.008,-0.134,-0.003,0.294,0.364,0.247,-0.058,1.48
2024-10-15 11:31:34.302,65845.69,0.265,0.064,-0.962,0.232,0.004,0.645,0.494,-0.21,-0.518,0.269,-0.064,1.456
2024-10-15 11:31:34.422,65845.81,0.278,0.143,-0.95,-0.149,-0.137,0.039,-0.984,0.253,-0.278,0.285,-0.144,1.439
2024-10-15 11:31:34.541,65845.93,0.341,0.317,-0.885,-0.037,0.208,0.04,-0.834,1.262,-0.326,0.368,-0.323,1.436
2024-10-15 11:31:34.661,65846.049,0.428,0.351,-0.832,0.058,0.036,0.068,-0.089,0.318,-0.073,0.475,-0.359,1.422
2024-10-15 11:31:34.781,65846.169,0.447,0.338,-0.828,-0.143,0.039,0.043,-0.186,0.172,0.273,0.495,-0.344,1.433
2024-10-15 11:31:34.901,65846.289,0.465,0.358,-0.81,-0.031,-0.048,0.047,-0.061,0.05,0.05,0.521,-0.366,1.486
2024-10-15 11:31:35.020,65846.409,0.461,0.313,-0.831,0.08,-0.155,-0.064,0.134,0.139,-0.317,0.506,-0.318,1.434
2024-10-15 11:31:35.140,65846.529,0.475,0.271,-0.837,0.071,0.024,0.03,0.637,-0.022,0.244,0.516,-0.274,1.415
2024-10-15 11:31:35.260,65846.648,0.474,0.204,-0.857,0.016,-0.036,-0.019,0.25,0.059,0.165,0.505,-0.205,1.406
2024-10-15 11:31:35.379,65846.768,0.477,0.191,-0.858,0.003,0.027,0.086,0.008,-0.085,0.205,0.508,-0.192,1.432
2024-10-15 11:31:35.499,65846.888,0.443,0.207,-0.873,-0.094,-0.047,0.007,-0.431,-0.589,-0.012,0.469,-0.209,1.451
2024-10-15 11:31:35.619,65847.008,0.386,0.216,-0.897,0.045,0.231,-0.118,0.573,-0.322,-0.003,0.407,-0.218,1.465
2024-10-15 11:31:35.740,65847.128,0.372,0.201,-0.906,0.01,0.035,0.013,0.028,-0.119,-0.097,0.389,-0.202,1.448
2024-10-15 11:31:35.859,65847.247,0.346,0.195,-0.918,-0.113,-0.028,-0.02,-0.129,-0.155,-0.253,0.361,-0.196,1.417
2024-10-15 11:31:35.979,65847.367,0.367,0.204,-0.908,0.04,-0.069,-0.054,0.11,0.195,0.286,0.384,-0.205,1.451
2024-10-15 11:31:36.098,65847.487,0.333,0.182,-0.925,0.001,-0.066,0.0,0.15,-0.457,-0.622,0.346,-0.183,1.413
2024-10-15 11:31:36.219,65847.607,0.315,0.191,-0.929,-0.046,-0.058,-0.244,-0.495,0.361,0.012,0.327,-0.193,1.398
2024-10-15 11:31:36.338,65847.727,0.311,0.206,-0.928,0.373,-0.358,0.21,-0.455,-0.056,-0.46,0.324,-0.208,1.393
2024-10-15 11:31:36.458,65847.846,0.291,0.167,-0.942,-0.273,-0.011,-0.238,0.652,-0.182,0.231,0.3,-0.168,1.365
2024-10-15 11:31:36.578,65847.966,0.283,0.058,-0.957,0.125,-0.171,0.308,0.489,-0.164,0.469,0.288,-0.058,1.397
2024-10-15 11:31:36.697,65848.086,0.265,0.05,-0.963,-0.104,0.007,-0.045,-0.027,-0.096,-0.046,0.268,-0.05,1.385
2024-10-15 11:31:36.817,65848.206,0.253,0.034,-0.967,-0.093,-0.055,-0.095,-0.127,-0.059,0.298,0.256,-0.034,1.404
2024-10-15 11:31:36.937,65848.326,0.246,0.001,-0.969,0.395,-0.418,0.203,-0.01,0.083,-0.198,0.248,-0.001,1.428
2024-10-15 11:31:37.057,65848.445,0.248,0.001,-0.969,-0.394,0.213,-0.129,0.006,-0.023,0.226,0.251,-0.001,1.409
2024-10-15 11:31:37.177,65848.565,0.251,0.033,-0.968,0.024,0.085,0.036,0.154,-0.045,0.228,0.253,-0.033,1.446
2024-10-15 11:31:37.297,65848.685,0.25,0.017,-0.968,0.023,0.158,-0.252,0.189,0.072,-0.151,0.253,-0.017,1.435
2024-10-15 11:31:37.416,65848.805,0.258,0.039,-0.965,-0.196,0.014,-0.031,-0.479,0.151,-0.084,0.261,-0.039,1.42
2024-10-15 11:31:37.536,65848.925,0.268,0.072,-0.961,0.352,-0.25,0.293,-0.012,-0.146,-0.006,0.272,-0.072,1.436
2024-10-15 11:31:37.656,65849.044,0.254,0.057,-0.965,-0.258,-0.096,-0.207,0.057,-0.029,-0.318,0.258,-0.057,1.414
2024-10-15 11:31:37.776,65849.164,0.253,0.064,-0.965,-0.159,0.018,-0.252,-0.315,0.146,0.244,0.257,-0.064,1.434
2024-10-15 11:31:37.895,65849.284,0.251,0.056,-0.966,0.195,-0.105,-0.132,-0.002,0.117,-0.256,0.254,-0.056,1.437
2024-10-15 11:31:38.016,65849.404,0.253,0.058,-0.966,-0.432,0.125,-0.227,-0.194,-0.001,0.221,0.256,-0.058,1.417
2024-10-15 11:31:38.135,65849.524,0.259,0.09,-0.962,0.237,0.136,0.249,0.207,-0.097,0.192,0.263,-0.09,1.444
2024-10-15 11:31:38.255,65849.643,0.251,0.068,-0.966,0.033,-0.218,-0.01,-0.248,0.074,-0.225,0.254,-0.068,1.422
2024-10-15 11:31:38.375,65849.763,0.245,0.076,-0.967,-0.199,-0.141,-0.089,-0.382,0.039,0.245,0.248,-0.076,1.438
2024-10-15 11:31:38.495,65849.883,0.239,0.079,-0.968,0.506,-0.312,0.421,0.087,-0.09,-0.22,0.242,-0.079,1.459
2024-10-15 11:31:38.615,65850.003,0.239,0.06,-0.969,-0.351,0.198,-0.289,-0.039,0.027,-0.106,0.242,-0.06,1.426
2024-10-15 11:31:38.734,65850.123,0.249,0.095,-0.964,-0.127,0.031,-0.086,-0.339,-0.005,0.334,0.253,-0.095,1.455
2024-10-15 11:31:38.854,65850.242,0.25,0.108,-0.962,0.108,0.088,-0.114,0.377,0.027,-0.147,0.255,-0.108,1.453
2024-10-15 11:31:38.974,65850.362,0.247,0.085,-0.965,-0.35,0.101,0.026,0.266,-0.158,0.337,0.251,-0.085,1.443
2024-10-15 11:31:39.093,65850.482,0.248,0.088,-0.965,0.455,-0.018,0.549,0.154,-0.155,-0.133,0.251,-0.088,1.467
2024-10-15 11:31:39.213,65850.602,0.258,0.099,-0.961,-0.18,-0.053,-0.411,-0.142,0.177,-0.091,0.262,-0.099,1.427
2024-10-15 11:31:39.333,65850.722,0.253,0.085,-0.964,-0.177,-0.192,-0.498,-1.003,0.19,0.3,0.257,-0.085,1.457
2024-10-15 11:31:39.453,65850.841,0.254,0.106,-0.961,0.1,-0.014,-0.371,-0.138,0.263,-0.206,0.258,-0.106,1.456
2024-10-15 11:31:39.574,65850.961,0.273,0.144,-0.951,-0.294,0.067,-0.01,-0.188,0.084,0.07,0.279,-0.144,1.436
2024-10-15 11:31:39.693,65851.081,0.289,0.192,-0.938,0.046,0.089,0.054,-0.243,0.196,-0.138,0.299,-0.193,1.406
2024-10-15 11:31:39.812,65851.201,0.338,0.176,-0.924,0.016,-0.118,-0.108,-0.157,0.702,0.111,0.351,-0.177,1.402
2024-10-15 11:31:39.932,65851.321,0.389,0.238,-0.89,0.038,0.05,0.129,-0.481,0.021,0.219,0.412,-0.24,1.45
2024-10-15 11:31:40.052,65851.44,0.374,0.194,-0.907,-0.088,-0.043,0.011,0.626,0.093,0.038,0.391,-0.195,1.452
2024-10-15 11:31:40.172,65851.56,0.378,0.118,-0.918,-0.034,0.079,-0.048,0.307,-0.068,-0.089,0.39,-0.118,1.408
2024-10-15 11:31:40.291,65851.68,0.358,0.083,-0.93,0.419,-0.149,0.254,-0.002,-0.165,0.068,0.368,-0.083,1.395
2024-10-15 11:31:40.412,65851.8,0.318,0.097,-0.943,-0.213,0.045,0.001,-0.192,-0.571,-0.28,0.326,-0.097,1.375
2024-10-15 11:31:40.531,65851.92,0.329,0.128,-0.936,-0.123,0.124,0.161,0.173,0.058,0.144,0.338,-0.128,1.399
2024-10-15 11:31:40.651,65852.039,0.333,0.14,-0.932,0.265,-0.101,0.031,-0.033,0.404,-0.294,0.343,-0.14,1.395
2024-10-15 11:31:40.771,65852.159,0.331,0.14,-0.933,-0.359,-0.05,-0.522,-0.178,-0.039,-0.042,0.341,-0.14,1.368
2024-10-15 11:31:40.890,65852.279,0.349,0.162,-0.923,0.092,0.092,0.282,-0.321,0.144,-0.058,0.361,-0.163,1.373
2024-10-15 11:31:41.010,65852.399,0.374,0.167,-0.912,0.083,-0.021,0.187,0.203,0.102,0.108,0.389,-0.168,1.387
2024-10-15 11:31:41.130,65852.519,0.36,0.179,-0.916,-0.345,0.13,-0.44,-0.16,0.062,0.049,0.374,-0.18,1.377
2024-10-15 11:31:41.250,65852.638,0.364,0.179,-0.914,0.515,0.111,0.504,0.159,-0.196,0.127,0.379,-0.18,1.387
2024-10-15 11:31:41.370,65852.758,0.362,0.151,-0.92,-0.248,-0.142,-0.121,0.139,-0.155,-0.138,0.375,-0.152,1.378
2024-10-15 11:31:41.490,65852.878,0.364,0.156,-0.918,-0.089,-0.107,-0.169,-0.352,0.231,-0.026,0.378,-0.157,1.381
2024-10-15 11:31:41.609,65852.998,0.364,0.171,-0.915,0.349,-0.089,0.028,-0.112,0.2,-0.017,0.379,-0.172,1.385
2024-10-15 11:31:41.729,65853.118,0.358,0.162,-0.92,-0.503,0.08,-0.321,-0.192,-0.115,0.113,0.371,-0.163,1.372
2024-10-15 11:31:41.849,65853.237,0.365,0.175,-0.914,-0.07,0.084,0.017,0.006,0.048,0.012,0.38,-0.176,1.39
2024-10-15 11:31:41.969,65853.357,0.372,0.184,-0.91,0.247,0.034,-0.09,0.309,0.013,0.235,0.389,-0.185,1.408
2024-10-15 11:31:42.088,65853.477,0.349,0.164,-0.923,-0.592,0.09,-0.373,-0.199,-0.15,0.054,0.362,-0.164,1.397
2024-10-15 11:31:42.208,65853.597,0.35,0.18,-0.92,0.116,0.044,0.279,-0.233,0.107,-0.041,0.363,-0.181,1.405
2024-10-15 11:31:42.328,65853.717,0.378,0.179,-0.908,0.29,0.009,0.283,0.412,0.171,0.027,0.395,-0.18,1.419
2024-10-15 11:31:42.448,65853.836,0.372,0.164,-0.914,-0.433,0.192,-0.286,0.156,-0.101,0.202,0.386,-0.164,1.409
2024-10-15 11:31:42.568,65853.956,0.379,0.168,-0.91,0.273,-0.095,0.365,-0.104,-0.09,-0.075,0.395,-0.169,1.424
2024-10-15 11:31:42.688,65854.076,0.379,0.159,-0.912,0.181,-0.151,0.358,0.389,-0.186,-0.218,0.394,-0.159,1.404
2024-10-15 11:31:42.807,65854.196,0.368,0.134,-0.92,-0.266,0.013,-0.093,0.197,-0.086,0.314,0.38,-0.135,1.411
2024-10-15 11:31:42.927,65854.316,0.374,0.133,-0.918,0.589,-0.208,0.534,-0.105,-0.056,-0.105,0.387,-0.133,1.421
2024-10-15 11:31:43.047,65854.435,0.379,0.133,-0.916,-0.2,0.067,0.023,0.114,-0.124,-0.231,0.392,-0.134,1.401
2024-10-15 11:31:43.167,65854.555,0.383,0.157,-0.91,-0.123,-0.056,-0.326,-0.524,0.327,-0.014,0.398,-0.158,1.408
2024-10-15 11:31:43.287,65854.675,0.386,0.171,-0.907,0.255,-0.057,-0.095,0.041,0.287,-0.026,0.402,-0.172,1.413
2024-10-15 11:31:43.406,65854.795,0.377,0.151,-0.914,-0.509,0.169,-0.39,-0.014,-0.089,0.152,0.391,-0.152,1.394
2024-10-15 11:31:43.526,65854.915,0.385,0.144,-0.912,0.158,0.1,0.178,0.191,-0.074,0.325,0.399,-0.144,1.419
2024-10-15 11:31:43.646,65855.034,0.376,0.125,-0.918,0.111,0.009,0.217,0.342,-0.127,-0.191,0.388,-0.125,1.412
2024-10-15 11:31:43.766,65855.154,0.373,0.13,-0.918,-0.184,0.098,-0.082,0.066,-0.02,0.276,0.386,-0.13,1.415
2024-10-15 11:31:43.885,65855.274,0.379,0.133,-0.916,0.478,-0.19,0.493,0.159,-0.24,-0.121,0.393,-0.134,1.429
2024-10-15 11:31:44.005,65855.394,0.365,0.129,-0.922,-0.289,0.177,-0.088,-0.201,-0.084,-0.134,0.376,-0.129,1.399
2024-10-15 11:31:44.125,65855.514,0.369,0.149,-0.917,-0.114,0.003,-0.093,-0.042,0.138,0.081,0.382,-0.15,1.424
2024-10-15 11:31:44.245,65855.633,0.373,0.15,-0.916,0.185,-0.041,-0.008,0.19,0.043,-0.172,0.387,-0.151,1.419
2024-10-15 11:31:44.364,65855.753,0.368,0.149,-0.918,-0.416,0.209,-0.272,0.17,-0.122,0.27,0.382,-0.15,1.407
2024-10-15 11:31:44.484,65855.873,0.367,0.15,-0.918,0.371,-0.145,0.437,0.175,-0.253,-0.078,0.38,-0.15,1.427
2024-10-15 11:31:44.605,65855.993,0.359,0.145,-0.922,-0.133,-0.114,0.049,-0.05,-0.032,-0.106,0.371,-0.146,1.405
2024-10-15 11:31:44.724,65856.113,0.364,0.153,-0.919,-0.111,0.034,-0.23,-0.288,0.126,0.252,0.377,-0.154,1.42
2024-10-15 11:31:44.844,65856.232,0.362,0.167,-0.917,0.344,-0.212,0.17,-0.396,0.259,-0.278,0.376,-0.168,1.422
2024-10-15 11:31:44.964,65856.352,0.368,0.181,-0.912,-0.374,0.148,-0.237,-0.128,-0.057,-0.002,0.383,-0.182,1.401
2024-10-15 11:31:45.084,65856.472,0.371,0.185,-0.91,0.086,0.082,0.164,0.173,-0.059,0.07,0.387,-0.186,1.422
2024-10-15 11:31:45.204,65856.592,0.378,0.189,-0.906,0.124,0.171,0.385,0.588,-0.187,-0.263,0.395,-0.191,1.407
2024-10-15 11:31:45.323,65856.712,0.372,0.188,-0.909,-0.194,0.124,-0.019,0.283,-0.223,0.24,0.388,-0.189,1.4
2024-10-15 11:31:45.443,65856.831,0.376,0.17,-0.911,0.432,-0.123,0.416,0.076,-0.023,-0.142,0.391,-0.17,1.412
2024-10-15 11:31:45.562,65856.951,0.389,0.181,-0.903,-0.347,0.079,-0.198,-0.285,0.153,-0.133,0.407,-0.182,1.385
2024-10-15 11:31:45.682,65857.071,0.428,0.265,-0.864,-0.036,-0.302,-0.229,-1.637,0.695,-0.245,0.46,-0.268,1.423
2024-10-15 11:31:45.802,65857.191,0.487,0.275,-0.829,0.166,0.124,0.145,0.669,0.344,-0.138,0.531,-0.279,1.382
2024-10-15 11:31:45.922,65857.311,0.455,0.241,-0.857,0.064,0.097,0.08,0.405,-0.798,0.362,0.488,-0.243,1.387
2024-10-15 11:31:46.042,65857.43,0.371,0.213,-0.904,-0.038,-0.001,0.118,0.008,-0.989,0.09,0.39,-0.215,1.406
2024-10-15 11:31:46.162,65857.55,0.306,0.17,-0.937,-0.149,0.102,-0.411,0.558,0.083,0.197,0.316,-0.171,1.391
2024-10-15 11:31:46.281,65857.67,0.327,0.098,-0.94,0.047,0.053,-0.001,0.842,-0.051,0.484,0.335,-0.098,1.418
2024-10-15 11:31:46.402,65857.79,0.299,0.007,-0.954,0.128,-0.124,-0.022,0.466,-0.398,-0.405,0.304,-0.007,1.384
2024-10-15 11:31:46.521,65857.91,0.282,0.066,-0.957,-0.23,0.273,-0.215,-1.336,0.062,0.315,0.287,-0.066,1.369
2024-10-15 11:31:46.641,65858.029,0.287,0.05,-0.957,0.233,-0.227,0.389,0.766,-0.415,0.189,0.292,-0.05,1.437
2024-10-15 11:31:46.760,65858.149,0.239,0.027,-0.971,-0.266,-0.091,-0.283,-0.2,-0.171,-0.294,0.242,-0.027,1.4
2024-10-15 11:31:46.881,65858.269,0.215,0.096,-0.972,-0.112,0.356,-0.09,-0.49,-0.098,0.846,0.218,-0.097,1.437
2024-10-15 11:31:47.001,65858.389,0.17,-0.031,-0.985,0.051,-0.153,-0.244,1.212,-0.418,-0.272,0.171,0.031,1.464
2024-10-15 11:31:47.120,65858.509,0.147,-0.014,-0.989,-0.301,0.274,-0.069,-1.112,0.136,0.176,0.147,0.014,1.421
2024-10-15 11:31:47.240,65858.628,0.148,-0.027,-0.989,0.188,-0.478,0.341,1.029,-0.341,0.136,0.149,0.027,1.503
2024-10-15 11:31:47.360,65858.748,0.107,-0.091,-0.99,-0.07,0.386,0.058,1.439,-0.73,-0.595,0.107,0.091,1.419
2024-10-15 11:31:47.480,65858.868,0.122,-0.055,-0.991,-0.22,0.406,0.122,1.549,-0.24,1.417,0.122,0.055,1.489
2024-10-15 11:31:47.600,65858.988,0.102,-0.076,-0.992,-0.079,0.182,-0.326,-0.117,-0.05,-0.584,0.102,0.076,1.496
2024-10-15 11:31:47.719,65859.108,0.095,-0.063,-0.993,-0.134,0.176,0.091,-0.658,0.166,0.462,0.096,0.063,1.466
2024-10-15 11:31:47.839,65859.227,0.091,-0.068,-0.994,0.276,-0.722,0.342,-0.174,-0.154,-0.427,0.091,0.068,1.522
2024-10-15 11:31:47.959,65859.347,0.088,-0.056,-0.995,-0.061,0.094,-0.087,-0.723,0.178,-0.057,0.088,0.056,1.466
2024-10-15 11:31:48.079,65859.467,0.095,-0.056,-0.994,0.043,0.21,0.051,0.71,-0.232,0.614,0.096,0.056,1.52
2024-10-15 11:31:48.198,65859.587,0.072,-0.103,-0.992,0.177,-0.299,0.208,-0.705,0.086,-0.42,0.073,0.103,1.476
2024-10-15 11:31:48.318,65859.707,0.082,-0.038,-0.996,-0.167,0.294,-0.101,-0.662,0.278,1.005,0.082,0.038,1.498
2024-10-15 11:31:48.438,65859.826,0.074,-0.059,-0.996,0.041,-0.336,-0.442,-0.275,0.371,-1.058,0.074,0.059,1.51
2024-10-15 11:31:48.558,65859.946,0.084,-0.023,-0.996,-0.202,0.403,0.07,0.115,0.043,0.214,0.084,0.023,1.46
2024-10-15 11:31:48.677,65860.066,0.089,-0.048,-0.995,0.203,-0.682,0.272,0.311,-0.208,-0.171,0.09,0.048,1.53
2024-10-15 11:31:48.798,65860.186,0.079,-0.055,-0.995,0.044,0.778,0.036,0.844,-0.338,-0.073,0.079,0.055,1.452
2024-10-15 11:31:48.918,65860.306,0.084,-0.085,-0.993,-0.221,0.373,-0.175,0.767,0.067,0.989,0.084,0.085,1.515
2024-10-15 11:31:49.037,65860.425,0.076,-0.082,-0.994,0.189,0.125,0.265,0.41,-0.317,-1.017,0.077,0.082,1.48
2024-10-15 11:31:49.157,65860.545,0.078,-0.062,-0.995,-0.216,0.089,0.033,-0.185,0.07,0.816,0.078,0.062,1.475
2024-10-15 11:31:49.277,65860.665,0.075,-0.071,-0.995,0.285,-0.968,0.349,-0.393,-0.027,-0.774,0.075,0.071,1.537
2024-10-15 11:31:49.397,65860.785,0.072,-0.065,-0.995,-0.089,0.093,-0.258,-1.024,0.273,0.009,0.072,0.065,1.453
2024-10-15 11:31:49.516,65860.905,0.085,-0.049,-0.995,-0.051,-0.027,-0.052,-0.326,0.164,0.777,0.085,0.049,1.523
2024-10-15 11:31:49.636,65861.024,0.084,-0.046,-0.995,0.283,-0.102,0.05,-0.306,0.042,-0.909,0.084,0.046,1.473
2024-10-15 11:31:49.756,65861.144,0.079,-0.051,-0.996,-0.235,0.094,0.04,0.253,0.003,0.937,0.079,0.051,1.485
2024-10-15 11:31:49.875,65861.264,0.081,-0.072,-0.994,0.182,-0.568,-0.091,-0.489,0.355,-0.876,0.081,0.072,1.511
2024-10-15 11:31:49.996,65861.384,0.085,-0.09,-0.992,-0.333,0.325,-0.354,-0.26,0.258,0.352,0.086,0.09,1.447
2024-10-15 11:31:50.115,65861.504,0.104,-0.092,-0.99,0.164,-0.276,0.356,0.1,0.043,0.208,0.104,0.092,1.547
2024-10-15 11:31:50.235,65861.623,0.122,-0.043,-0.992,-0.308,-0.046,-0.365,-1.474,0.772,-1.113,0.123,0.043,1.422
2024-10-15 11:31:50.355,65861.743,0.257,0.222,-0.941,-0.305,-0.037,0.256,-2.761,1.197,-0.666,0.266,-0.224,1.383
2024-10-15 11:31:50.474,65861.863,0.365,0.421,-0.83,0.189,0.252,-0.08,0.159,0.853,0.0,0.414,-0.434,1.43
2024-10-15 11:31:50.594,65861.983,0.425,0.366,-0.828,0.084,0.002,-0.233,-0.581,0.777,0.278,0.475,-0.375,1.423
2024-10-15 11:31:50.715,65862.103,0.488,0.408,-0.772,0.084,0.119,0.055,0.573,0.29,-0.005,0.563,-0.421,1.465
2024-10-15 11:31:50.834,65862.222,0.502,0.403,-0.765,-0.03,-0.079,-0.09,0.35,0.179,-0.05,0.581,-0.414,1.457
2024-10-15 11:31:50.954,65862.342,0.509,0.323,-0.798,0.079,0.077,-0.119,1.332,0.077,0.065,0.568,-0.329,1.387
2024-10-15 11:31:51.074,65862.462,0.503,0.276,-0.819,0.009,0.099,0.0,0.138,-0.237,0.065,0.55,-0.279,1.369
2024-10-15 11:31:51.194,65862.582,0.493,0.307,-0.814,-0.153,0.037,0.039,-0.561,-0.075,0.212,0.545,-0.312,1.392
2024-10-15 11:31:51.312,65862.702,0.489,0.281,-0.826,0.021,-0.096,-0.016,0.33,-0.169,0.213,0.534,-0.285,1.41
2024-10-15 11:31:51.432,65862.821,0.467,0.249,-0.849,0.08,-0.047,0.012,0.221,-0.279,-0.064,0.503,-0.252,1.402
2024-10-15 11:31:51.552,65862.941,0.412,0.247,-0.877,-0.141,-0.023,-0.106,0.125,-0.514,-0.334,0.44,-0.249,1.377
2024-10-15 11:31:51.672,65863.061,0.389,0.247,-0.888,-0.116,0.246,-0.084,0.444,-0.232,0.546,0.413,-0.25,1.399
2024-10-15 11:31:51.792,65863.181,0.394,0.245,-0.886,0.316,-0.238,0.341,0.096,0.542,-0.761,0.418,-0.247,1.413
2024-10-15 11:31:51.912,65863.301,0.368,0.239,-0.899,-0.334,0.119,-0.286,0.325,0.069,-0.239,0.388,-0.241,1.381
2024-10-15 11:31:52.032,65863.42,0.37,0.209,-0.905,0.047,-0.08,0.134,-0.093,0.069,0.285,0.388,-0.211,1.408
2024-10-15 11:31:52.151,65863.54,0.374,0.225,-0.9,0.059,-0.051,0.063,-0.048,0.014,-0.307,0.394,-0.227,1.4
2024-10-15 11:31:52.272,65863.66,0.369,0.23,-0.9,-0.103,-0.008,0.022,-0.25,0.03,0.131,0.389,-0.233,1.4
2024-10-15 11:31:52.391,65863.78,0.372,0.24,-0.897,0.31,-0.017,0.094,0.222,0.078,-0.057,0.393,-0.242,1.409
2024-10-15 11:31:52.512,65863.9,0.361,0.221,-0.906,-0.389,0.062,-0.42,0.05,-0.053,0.126,0.379,-0.223,1.393
2024-10-15 11:31:52.632,65864.019,0.368,0.214,-0.905,0.208,0.009,0.258,-0.05,0.033,0.044,0.386,-0.216,1.407
2024-10-15 11:31:52.751,65864.139,0.365,0.208,-0.908,-0.099,-0.194,0.002,0.078,-0.096,-0.319,0.382,-0.21,1.394
2024-10-15 11:31:52.870,65864.259,0.354,0.214,-0.91,-0.169,0.024,0.062,0.149,-0.076,0.14,0.371,-0.216,1.393
2024-10-15 11:31:52.991,65864.379,0.363,0.209,-0.908,0.507,-0.11,0.296,0.21,0.09,-0.035,0.38,-0.211,1.403
2024-10-15 11:31:53.111,65864.499,0.365,0.19,-0.911,-0.39,0.173,-0.295,0.132,0.027,0.117,0.381,-0.192,1.383
2024-10-15 11:31:53.230,65864.618,0.366,0.14,-0.92,0.11,-0.151,0.112,0.028,0.138,0.107,0.378,-0.14,1.413
2024-10-15 11:31:53.349,65864.738,0.359,0.112,-0.927,0.154,-0.08,0.094,0.379,-0.034,-0.053,0.369,-0.112,1.394
2024-10-15 11:31:53.470,65864.858,0.35,0.087,-0.933,-0.286,0.025,-0.135,-0.025,-0.054,0.319,0.359,-0.087,1.398
2024-10-15 11:31:53.590,65864.978,0.358,0.077,-0.93,0.318,-0.11,0.319,-0.301,0.117,-0.042,0.368,-0.078,1.414
2024-10-15 11:31:53.710,65865.098,0.372,0.107,-0.922,-0.117,0.094,0.017,0.316,-0.139,-0.174,0.384,-0.107,1.391
2024-10-15 11:31:53.829,65865.217,0.375,0.097,-0.922,-0.144,-0.03,0.029,-0.108,0.147,0.271,0.387,-0.097,1.411
2024-10-15 11:31:53.949,65865.337,0.396,0.146,-0.906,0.328,-0.089,0.093,-0.359,0.199,-0.451,0.412,-0.147,1.412
2024-10-15 11:31:54.069,65865.457,0.396,0.219,-0.892,-0.341,0.299,-0.355,-0.315,0.114,0.294,0.418,-0.221,1.401
2024-10-15 11:31:54.188,65865.577,0.424,0.216,-0.88,0.351,-0.146,0.391,-0.105,-0.014,0.135,0.449,-0.217,1.449
2024-10-15 11:31:54.308,65865.697,0.404,0.204,-0.892,-0.071,0.009,-0.169,0.101,-0.172,-0.442,0.425,-0.206,1.412
2024-10-15 11:31:54.428,65865.816,0.409,0.223,-0.885,-0.174,0.107,-0.01,0.052,0.177,0.446,0.433,-0.225,1.434
2024-10-15 11:31:54.548,65865.936,0.416,0.214,-0.884,0.347,-0.327,0.296,0.096,-0.107,-0.301,0.44,-0.215,1.45
2024-10-15 11:31:54.667,65866.056,0.398,0.24,-0.885,-0.338,0.242,-0.345,-0.393,0.08,0.119,0.423,-0.243,1.421
2024-10-15 11:31:54.787,65866.176,0.413,0.189,-0.891,0.156,-0.103,0.246,0.22,0.145,0.255,0.434,-0.19,1.458
2024-10-15 11:31:54.907,65866.296,0.397,0.168,-0.902,-0.092,0.001,-0.091,0.323,-0.329,-0.139,0.414,-0.169,1.434
2024-10-15 11:31:55.027,65866.415,0.384,0.198,-0.902,-0.245,-0.091,-0.104,-0.754,0.112,-0.16,0.403,-0.199,1.434
2024-10-15 11:31:55.147,65866.535,0.414,0.234,-0.88,-0.008,0.061,0.202,0.058,0.068,0.378,0.44,-0.236,1.475
2024-10-15 11:31:55.267,65866.655,0.412,0.199,-0.889,0.165,-0.16,-0.084,0.148,0.005,0.158,0.434,-0.201,1.492
2024-10-15 11:31:55.386,65866.775,0.439,0.195,-0.877,-0.033,0.069,-0.033,0.015,0.434,0.08,0.464,-0.196,1.506
2024-10-15 11:31:55.506,65866.895,0.489,0.189,-0.851,0.056,-0.162,0.137,-0.413,0.089,-0.163,0.521,-0.19,1.51
2024-10-15 11:31:55.626,65867.014,0.439,0.231,-0.868,-0.199,0.167,-0.903,-0.076,0.144,0.335,0.468,-0.233,1.502
2024-10-15 11:31:55.746,65867.134,0.439,0.213,-0.873,0.247,-0.327,0.255,-0.161,-0.111,-0.262,0.466,-0.214,1.506
2024-10-15 11:31:55.865,65867.254,0.412,0.223,-0.883,-0.153,0.094,-0.128,-0.108,-0.078,-0.237,0.437,-0.225,1.473
2024-10-15 11:31:55.984,65867.374,0.407,0.251,-0.878,-0.186,-0.0,-0.104,-0.358,-0.018,0.141,0.434,-0.253,1.499
2024-10-15 11:31:56.105,65867.494,0.416,0.303,-0.857,0.293,-0.212,0.264,-0.224,0.101,-0.249,0.452,-0.308,1.516
2024-10-15 11:31:56.225,65867.613,0.401,0.312,-0.862,-0.381,0.308,-0.438,0.013,-0.032,0.285,0.435,-0.317,1.489
2024-10-15 11:31:56.345,65867.733,0.415,0.281,-0.865,0.106,-0.044,0.075,0.051,0.216,0.199,0.447,-0.285,1.514
2024-10-15 11:31:56.464,65867.853,0.414,0.247,-0.876,0.203,-0.173,0.083,0.259,-0.058,-0.226,0.441,-0.249,1.495
2024-10-15 11:31:56.584,65867.973,0.408,0.253,-0.877,-0.261,0.073,0.001,-0.272,-0.008,0.176,0.436,-0.256,1.495
2024-10-15 11:31:56.704,65868.093,0.421,0.273,-0.865,0.41,-0.029,0.519,-0.041,-0.117,-0.108,0.453,-0.276,1.505
2024-10-15 11:31:56.824,65868.212,0.406,0.285,-0.868,-0.193,0.05,-0.193,0.448,-0.219,-0.285,0.438,-0.289,1.475
2024-10-15 11:31:56.944,65868.332,0.413,0.255,-0.874,-0.295,0.235,-0.104,0.387,0.135,0.547,0.442,-0.258,1.497
2024-10-15 11:31:57.063,65868.452,0.432,0.238,-0.87,0.468,-0.462,0.357,-0.061,0.261,-0.323,0.461,-0.24,1.504
2024-10-15 11:31:57.184,65868.572,0.423,0.248,-0.872,-0.412,0.233,-0.394,-0.122,0.213,-0.072,0.452,-0.25,1.451
2024-10-15 11:31:57.303,65868.692,0.443,0.214,-0.871,0.068,-0.051,0.109,0.218,0.072,0.283,0.471,-0.216,1.483
2024-10-15 11:31:57.423,65868.811,0.43,0.217,-0.876,0.289,-0.198,0.094,-0.216,0.059,-0.429,0.456,-0.218,1.458
2024-10-15 11:31:57.543,65868.931,0.432,0.243,-0.869,-0.245,0.136,-0.208,-0.034,0.008,0.308,0.461,-0.246,1.454
2024-10-15 11:31:57.662,65869.051,0.451,0.236,-0.861,0.313,-0.088,0.453,-0.144,-0.064,-0.042,0.482,-0.238,1.476
2024-10-15 11:31:57.783,65869.171,0.452,0.271,-0.85,-0.041,0.073,-0.027,0.04,-0.035,-0.246,0.489,-0.275,1.458
2024-10-15 11:31:57.902,65869.291,0.456,0.247,-0.855,-0.168,0.071,0.042,0.181,0.082,0.435,0.49,-0.249,1.477
2024-10-15 11:31:58.021,65869.41,0.464,0.242,-0.852,0.357,-0.227,0.32,-0.075,0.064,-0.261,0.499,-0.245,1.481
2024-10-15 11:31:58.142,65869.53,0.448,0.266,-0.853,-0.295,0.219,-0.357,-0.157,-0.006,-0.078,0.484,-0.27,1.444
2024-10-15 11:31:58.263,65869.65,0.456,0.222,-0.862,-0.025,-0.054,0.039,0.261,0.143,0.334,0.486,-0.224,1.481
2024-10-15 11:31:58.382,65869.77,0.444,0.234,-0.865,0.259,-0.266,0.189,-0.324,-0.127,-0.441,0.475,-0.236,1.456
2024-10-15 11:31:58.501,65869.89,0.44,0.249,-0.863,-0.158,0.24,-0.122,0.132,-0.032,0.521,0.472,-0.251,1.459
2024-10-15 11:31:58.621,65870.009,0.451,0.209,-0.868,0.241,-0.338,0.685,0.135,-0.285,-0.186,0.479,-0.211,1.481
2024-10-15 11:31:58.741,65870.129,0.424,0.23,-0.876,-0.189,0.083,-0.223,-0.198,-0.134,-0.192,0.45,-0.232,1.447
2024-10-15 11:31:58.861,65870.249,0.436,0.23,-0.87,-0.127,0.194,-0.057,0.301,0.072,0.462,0.464,-0.232,1.479
2024-10-15 11:31:58.980,65870.369,0.437,0.223,-0.871,0.132,-0.153,-0.053,0.176,-0.008,-0.455,0.465,-0.225,1.475
2024-10-15 11:31:59.100,65870.489,0.435,0.238,-0.868,-0.233,0.369,-0.424,0.142,0.095,0.393,0.465,-0.24,1.452
2024-10-15 11:31:59.220,65870.608,0.454,0.207,-0.867,0.109,-0.178,0.215,-0.16,-0.02,-0.081,0.483,-0.208,1.483
2024-10-15 11:31:59.340,65870.728,0.428,0.223,-0.876,-0.032,0.003,-0.167,-0.099,-0.123,-0.228,0.455,-0.224,1.448
2024-10-15 11:31:59.459,65870.848,0.443,0.219,-0.869,-0.054,0.118,-0.008,0.287,0.207,0.471,0.472,-0.22,1.47
2024-10-15 11:31:59.580,65870.968,0.433,0.208,-0.877,0.099,0.018,-0.176,0.259,-0.336,-0.268,0.459,-0.21,1.466
2024-10-15 11:31:59.699,65871.088,0.432,0.279,-0.858,-0.214,-0.018,-0.311,-1.368,0.483,-0.175,0.466,-0.283,1.447
2024-10-15 11:31:59.819,65871.207,0.499,0.373,-0.783,0.023,0.259,0.178,0.344,0.164,0.432,0.567,-0.382,1.546
2024-10-15 11:31:59.938,65871.327,0.47,0.306,-0.828,-0.004,-0.051,0.161,0.346,0.006,0.091,0.516,-0.311,1.514
2024-10-15 11:32:00.059,65871.447,0.458,0.274,-0.846,0.256,-0.308,0.204,0.645,-0.496,-0.236,0.496,-0.278,1.509
2024-10-15 11:32:00.178,65871.567,0.434,0.276,-0.857,-0.315,0.342,-0.224,-0.273,0.024,0.233,0.469,-0.28,1.467
2024-10-15 11:32:00.298,65871.687,0.451,0.224,-0.864,-0.114,-0.207,0.062,0.177,0.203,0.183,0.481,-0.225,1.506
2024-10-15 11:32:00.418,65871.806,0.457,0.237,-0.857,0.141,0.109,-0.367,-0.002,0.255,-0.28,0.49,-0.239,1.484
2024-10-15 11:32:00.538,65871.926,0.441,0.239,-0.865,-0.34,0.135,-0.521,-0.368,0.144,0.052,0.472,-0.241,1.466
2024-10-15 11:32:00.658,65872.046,0.466,0.249,-0.849,0.043,-0.115,0.131,-0.186,0.217,-0.082,0.502,-0.251,1.488
2024-10-15 11:32:00.778,65872.166,0.469,0.238,-0.851,0.111,-0.068,-0.033,0.033,0.038,-0.153,0.503,-0.241,1.48
2024-10-15 11:32:00.897,65872.286,0.464,0.239,-0.853,-0.267,0.237,-0.271,-0.32,-0.095,0.567,0.498,-0.241,1.484
2024-10-15 11:32:01.017,65872.405,0.466,0.212,-0.859,0.216,-0.048,0.386,0.383,-0.153,-0.126,0.497,-0.213,1.503
2024-10-15 11:32:01.136,65872.525,0.459,0.205,-0.864,0.064,-0.055,0.06,0.255,-0.226,-0.233,0.489,-0.206,1.474
2024-10-15 11:32:01.256,65872.645,0.455,0.224,-0.862,-0.229,0.157,-0.122,-0.227,0.076,0.338,0.486,-0.226,1.486
2024-10-15 11:32:01.377,65872.765,0.46,0.189,-0.868,0.348,-0.278,0.616,0.265,-0.231,-0.232,0.487,-0.191,1.5
2024-10-15 11:32:01.496,65872.885,0.45,0.2,-0.87,-0.166,0.102,-0.148,0.179,-0.217,-0.25,0.477,-0.202,1.454
2024-10-15 11:32:01.616,65873.004,0.471,0.209,-0.857,-0.268,0.29,-0.04,0.229,0.117,0.626,0.503,-0.211,1.5
2024-10-15 11:32:01.736,65873.124,0.474,0.191,-0.86,0.327,-0.411,0.21,0.016,0.12,-0.401,0.503,-0.192,1.502
2024-10-15 11:32:01.856,65873.244,0.47,0.234,-0.851,-0.299,0.346,-0.463,-0.608,0.33,0.042,0.504,-0.237,1.461
2024-10-15 11:32:01.976,65873.364,0.495,0.206,-0.844,-0.063,-0.172,0.095,0.077,0.019,0.264,0.53,-0.208,1.519
2024-10-15 11:32:02.095,65873.484,0.482,0.221,-0.848,0.189,-0.2,0.049,-0.212,0.116,-0.627,0.517,-0.223,1.491
2024-10-15 11:32:02.215,65873.603,0.484,0.239,-0.842,-0.223,0.403,-0.207,0.184,-0.2,0.642,0.522,-0.242,1.493
2024-10-15 11:32:02.335,65873.723,0.491,0.214,-0.845,0.254,-0.182,0.416,-0.106,-0.108,-0.215,0.526,-0.215,1.52
2024-10-15 11:32:02.455,65873.843,0.463,0.251,-0.85,-0.088,0.077,-0.13,0.012,-0.23,-0.391,0.498,-0.253,1.474
2024-10-15 11:32:02.575,65873.963,0.476,0.253,-0.843,-0.176,0.201,0.067,0.261,0.088,0.573,0.514,-0.256,1.491
2024-10-15 11:32:02.694,65874.083,0.478,0.224,-0.849,0.365,-0.212,0.654,0.146,-0.378,-0.171,0.512,-0.226,1.498
2024-10-15 11:32:02.814,65874.202,0.462,0.233,-0.856,-0.183,0.06,-0.286,-0.12,0.157,-0.294,0.495,-0.236,1.458
2024-10-15 11:32:02.934,65874.322,0.48,0.233,-0.846,-0.248,0.13,-0.12,0.333,0.055,0.312,0.516,-0.235,1.492
2024-10-15 11:32:03.054,65874.442,0.483,0.226,-0.846,0.34,-0.175,0.274,-0.005,-0.007,-0.147,0.519,-0.228,1.484
2024-10-15 11:32:03.173,65874.562,0.482,0.251,-0.839,-0.268,0.103,-0.314,-0.288,0.279,-0.016,0.522,-0.253,1.462
2024-10-15 11:32:03.293,65874.682,0.5,0.225,-0.837,0.014,-0.202,0.216,-0.007,0.089,-0.117,0.538,-0.227,1.49
2024-10-15 11:32:03.413,65874.801,0.497,0.246,-0.832,0.287,-0.022,0.019,0.04,0.059,-0.092,0.538,-0.248,1.476
2024-10-15 11:32:03.533,65874.921,0.494,0.23,-0.838,-0.327,0.285,-0.411,0.095,0.029,0.381,0.533,-0.232,1.473
2024-10-15 11:32:03.652,65875.041,0.518,0.209,-0.83,0.296,-0.236,0.452,0.035,0.065,-0.174,0.558,-0.21,1.501
2024-10-15 11:32:03.773,65875.161,0.511,0.246,-0.824,0.021,-0.006,-0.24,-0.311,-0.001,-0.474,0.555,-0.248,1.469
2024-10-15 11:32:03.892,65875.281,0.512,0.268,-0.816,-0.16,0.308,0.0,0.304,-0.047,0.593,0.56,-0.271,1.492
2024-10-15 11:32:04.012,65875.4,0.506,0.239,-0.828,0.281,-0.434,0.479,0.087,-0.262,-0.273,0.549,-0.242,1.501
2024-10-15 11:32:04.132,65875.52,0.484,0.267,-0.833,-0.334,0.243,-0.329,-0.428,0.105,0.088,0.527,-0.271,1.466
2024-10-15 11:32:04.251,65875.64,0.503,0.255,-0.826,0.024,-0.194,0.211,-0.121,0.149,-0.025,0.547,-0.258,1.501
2024-10-15 11:32:04.371,65875.76,0.485,0.258,-0.836,0.31,-0.149,0.417,0.215,-0.2,-0.284,0.526,-0.261,1.469
2024-10-15 11:32:04.491,65875.88,0.479,0.267,-0.836,-0.203,0.191,-0.162,-0.31,0.017,0.514,0.521,-0.271,1.48
2024-10-15 11:32:04.611,65875.999,0.488,0.256,-0.835,0.301,-0.48,0.522,-0.309,-0.156,-0.27,0.529,-0.259,1.506
2024-10-15 11:32:04.730,65876.119,0.469,0.264,-0.843,-0.159,0.156,-0.2,-0.05,-0.079,-0.239,0.508,-0.267,1.463
2024-10-15 11:32:04.850,65876.239,0.493,0.265,-0.829,-0.252,0.261,-0.369,0.194,0.111,0.555,0.536,-0.268,1.494
2024-10-15 11:32:04.970,65876.359,0.48,0.24,-0.844,0.183,-0.117,-0.233,0.003,0.12,-0.52,0.517,-0.243,1.49
2024-10-15 11:32:05.089,65876.479,0.473,0.285,-0.834,-0.343,0.427,-0.683,-0.542,0.356,0.147,0.516,-0.289,1.459
2024-10-15 11:32:05.209,65876.598,0.496,0.242,-0.834,0.09,-0.175,0.178,0.216,-0.072,0.094,0.537,-0.245,1.481
2024-10-15 11:32:05.329,65876.718,0.469,0.253,-0.846,-0.017,-0.191,-0.003,-0.407,-0.012,-0.523,0.506,-0.255,1.457
2024-10-15 11:32:05.448,65876.838,0.467,0.334,-0.819,-0.291,0.177,-0.324,-1.411,0.383,0.133,0.518,-0.34,1.461
2024-10-15 11:32:05.569,65876.958,0.539,0.404,-0.739,-0.005,0.167,0.051,0.383,0.555,0.272,0.63,-0.415,1.534
2024-10-15 11:32:05.689,65877.078,0.547,0.384,-0.744,0.134,-0.113,0.21,0.111,-0.709,0.196,0.635,-0.394,1.55
2024-10-15 11:32:05.808,65877.197,0.489,0.341,-0.803,0.249,-0.044,-0.384,0.8,0.045,-0.104,0.547,-0.348,1.518
2024-10-15 11:32:05.928,65877.317,0.484,0.298,-0.823,0.143,-0.13,0.069,0.469,-0.354,-0.092,0.532,-0.303,1.493
2024-10-15 11:32:06.047,65877.437,0.478,0.321,-0.818,-0.185,0.3,-0.112,-0.449,0.06,0.466,0.529,-0.327,1.502
2024-10-15 11:32:06.167,65877.557,0.477,0.262,-0.839,0.319,-0.176,0.501,0.217,-0.378,-0.025,0.517,-0.266,1.51
2024-10-15 11:32:06.287,65877.677,0.47,0.285,-0.836,-0.133,-0.106,-0.0,-0.361,-0.059,-0.394,0.512,-0.289,1.486
2024-10-15 11:32:06.406,65877.796,0.472,0.307,-0.826,-0.138,-0.006,0.051,0.085,-0.02,0.16,0.519,-0.312,1.513
2024-10-15 11:32:06.526,65877.916,0.474,0.31,-0.824,0.252,0.017,0.086,0.229,0.285,0.015,0.522,-0.315,1.505
2024-10-15 11:32:06.646,65878.036,0.474,0.298,-0.829,-0.261,0.099,-0.298,-0.283,0.055,0.02,0.52,-0.302,1.477
2024-10-15 11:32:06.766,65878.156,0.48,0.32,-0.817,0.044,-0.023,0.061,-0.29,0.299,-0.046,0.532,-0.326,1.499
2024-10-15 11:32:06.886,65878.276,0.487,0.301,-0.82,0.175,-0.191,0.094,0.093,0.014,-0.103,0.536,-0.306,1.481
2024-10-15 11:32:07.006,65878.395,0.49,0.314,-0.813,-0.194,0.202,-0.085,-0.152,-0.142,0.475,0.543,-0.319,1.498
2024-10-15 11:32:07.125,65878.515,0.493,0.306,-0.814,0.265,-0.184,0.466,0.214,-0.263,-0.218,0.545,-0.311,1.511
2024-10-15 11:32:07.245,65878.635,0.479,0.336,-0.811,-0.129,0.091,-0.347,-0.482,0.204,-0.327,0.534,-0.343,1.478
2024-10-15 11:32:07.365,65878.755,0.496,0.324,-0.806,-0.102,0.139,0.028,0.507,-0.108,0.647,0.551,-0.33,1.507
2024-10-15 11:32:07.485,65878.875,0.486,0.26,-0.834,0.186,-0.285,0.325,0.381,-0.083,-0.127,0.528,-0.263,1.487
2024-10-15 11:32:07.605,65878.994,0.458,0.238,-0.857,-0.186,0.112,-0.335,-0.257,0.0,0.09,0.491,-0.24,1.453
2024-10-15 11:32:07.724,65879.114,0.484,0.223,-0.846,-0.029,-0.027,0.038,0.527,0.148,0.273,0.519,-0.225,1.498
2024-10-15 11:32:07.844,65879.234,0.469,0.19,-0.862,0.095,-0.109,-0.004,0.458,-0.442,-0.311,0.498,-0.191,1.467
2024-10-15 11:32:07.964,65879.354,0.481,0.288,-0.828,-0.178,0.418,-0.269,-0.498,0.316,0.221,0.526,-0.292,1.467
2024-10-15 11:32:08.084,65879.474,0.497,0.212,-0.841,0.204,-0.378,0.362,0.41,-0.105,0.111,0.534,-0.214,1.478
2024-10-15 11:32:08.204,65879.593,0.484,0.216,-0.848,-0.141,-0.123,0.029,-0.246,-0.114,-0.39,0.518,-0.218,1.44
2024-10-15 11:32:08.323,65879.713,0.496,0.2,-0.845,-0.131,0.301,0.114,0.581,-0.039,0.989,0.531,-0.201,1.469
2024-10-15 11:32:08.443,65879.833,0.49,0.16,-0.857,0.18,-0.351,0.27,0.189,-0.161,-0.396,0.52,-0.161,1.468
2024-10-15 11:32:08.563,65879.953,0.476,0.186,-0.859,-0.242,0.34,-0.521,-0.663,0.407,0.025,0.506,-0.188,1.422
2024-10-15 11:32:08.682,65880.073,0.509,0.181,-0.841,0.02,-0.252,0.281,0.049,0.017,0.168,0.544,-0.182,1.488
2024-10-15 11:32:08.802,65880.192,0.5,0.197,-0.844,0.153,-0.047,0.037,-0.24,0.179,-0.53,0.535,-0.198,1.45
2024-10-15 11:32:08.921,65880.312,0.491,0.236,-0.839,-0.223,0.566,-0.494,-0.394,0.196,0.525,0.53,-0.238,1.442
2024-10-15 11:32:09.042,65880.432,0.507,0.19,-0.841,0.232,-0.502,0.454,0.165,-0.232,-0.261,0.542,-0.191,1.476
2024-10-15 11:32:09.162,65880.552,0.483,0.203,-0.852,-0.172,0.18,-0.279,-0.166,0.14,-0.403,0.516,-0.204,1.411
2024-10-15 11:32:09.281,65880.672,0.505,0.204,-0.838,-0.175,0.319,-0.047,0.605,0.015,0.442,0.543,-0.206,1.448
2024-10-15 11:32:09.402,65880.791,0.496,0.203,-0.844,0.192,-0.111,-0.211,-0.38,0.176,-0.503,0.532,-0.205,1.434
2024-10-15 11:32:09.521,65880.911,0.49,0.244,-0.837,-0.272,0.509,-0.556,-0.342,0.229,0.307,0.529,-0.247,1.412
2024-10-15 11:32:09.641,65881.031,0.5,0.189,-0.845,0.142,-0.456,0.476,0.024,-0.359,-0.087,0.535,-0.19,1.436
2024-10-15 11:32:09.761,65881.151,0.468,0.209,-0.859,-0.003,0.089,-0.116,-0.147,-0.01,-0.388,0.499,-0.211,1.39
2024-10-15 11:32:09.880,65881.271,0.496,0.207,-0.843,-0.157,0.095,0.066,0.108,0.035,0.663,0.532,-0.209,1.427
2024-10-15 11:32:10.000,65881.39,0.473,0.205,-0.857,0.155,-0.08,-0.058,0.114,-0.273,-0.624,0.504,-0.206,1.407
2024-10-15 11:32:10.120,65881.51,0.479,0.249,-0.842,-0.186,0.373,-0.217,-0.178,0.076,0.387,0.517,-0.251,1.4
2024-10-15 11:32:10.239,65881.63,0.483,0.218,-0.848,0.14,-0.184,0.2,0.07,-0.153,-0.129,0.518,-0.22,1.424
2024-10-15 11:32:10.360,65881.75,0.45,0.252,-0.857,-0.137,0.101,-0.147,-0.425,0.042,-0.549,0.483,-0.255,1.369
2024-10-15 11:32:10.479,65881.87,0.473,0.252,-0.844,-0.083,0.14,-0.067,0.509,0.303,0.442,0.511,-0.255,1.393
2024-10-15 11:32:10.599,65881.989,0.484,0.231,-0.844,0.236,-0.304,0.334,0.156,-0.153,-0.192,0.521,-0.233,1.391
2024-10-15 11:32:10.719,65882.109,0.471,0.245,-0.848,-0.308,0.387,-0.52,-0.323,0.204,0.304,0.507,-0.248,1.364
2024-10-15 11:32:10.838,65882.229,0.493,0.217,-0.843,0.082,-0.276,0.238,-0.124,-0.017,-0.098,0.529,-0.219,1.399
2024-10-15 11:32:10.958,65882.349,0.469,0.242,-0.85,0.005,-0.067,0.147,-0.164,-0.018,-0.419,0.504,-0.244,1.358
2024-10-15 11:32:11.078,65882.469,0.482,0.256,-0.838,-0.161,0.225,0.004,0.227,0.177,0.635,0.522,-0.259,1.374
2024-10-15 11:32:11.198,65882.588,0.489,0.237,-0.84,0.272,-0.429,0.471,-0.033,-0.229,-0.241,0.527,-0.239,1.391
2024-10-15 11:32:11.318,65882.708,0.468,0.286,-0.836,-0.254,0.259,-0.359,-0.656,0.326,-0.25,0.51,-0.291,1.349
2024-10-15 11:32:11.437,65882.828,0.503,0.265,-0.823,-0.029,-0.18,-0.095,-0.12,0.183,0.325,0.549,-0.268,1.389
2024-10-15 11:32:11.557,65882.948,0.488,0.258,-0.834,0.041,-0.014,-0.267,0.134,-0.148,-0.222,0.529,-0.261,1.374
2024-10-15 11:32:11.677,65883.068,0.487,0.262,-0.833,-0.183,0.422,-0.202,0.137,0.083,0.616,0.529,-0.265,1.37
2024-10-15 11:32:11.797,65883.187,0.497,0.218,-0.84,0.238,-0.291,0.491,0.047,-0.433,-0.079,0.535,-0.22,1.389
2024-10-15 11:32:11.917,65883.307,0.464,0.247,-0.851,-0.138,0.146,-0.271,-0.395,0.093,-0.468,0.499,-0.25,1.347
2024-10-15 11:32:12.036,65883.427,0.486,0.33,-0.809,-0.173,0.226,0.03,-0.442,0.314,0.189,0.541,-0.336,1.395
2024-10-15 11:32:12.156,65883.547,0.512,0.324,-0.795,0.091,-0.075,0.107,-0.129,-0.323,0.212,0.572,-0.33,1.422
2024-10-15 11:32:12.276,65883.667,0.462,0.289,-0.839,0.205,-0.014,-0.289,1.212,-0.429,0.165,0.503,-0.293,1.443
2024-10-15 11:32:12.396,65883.786,0.455,0.274,-0.847,0.169,0.094,0.047,-0.038,0.049,-0.043,0.493,-0.278,1.42
2024-10-15 11:32:12.515,65883.906,0.459,0.28,-0.843,-0.337,0.337,-0.473,-0.782,0.316,0.5,0.499,-0.284,1.435
2024-10-15 11:32:12.635,65884.026,0.473,0.264,-0.841,0.232,-0.315,0.281,0.173,-0.17,-0.297,0.513,-0.267,1.454
2024-10-15 11:32:12.755,65884.146,0.474,0.291,-0.831,-0.123,0.015,0.042,-0.534,0.068,0.041,0.519,-0.295,1.45
2024-10-15 11:32:12.874,65884.266,0.483,0.295,-0.824,-0.092,-0.173,0.017,-0.001,-0.006,-0.299,0.53,-0.299,1.46
2024-10-15 11:32:12.995,65884.385,0.486,0.274,-0.83,0.147,-0.094,0.055,-0.079,0.026,0.171,0.529,-0.278,1.44
2024-10-15 11:32:13.115,65884.505,0.494,0.254,-0.832,-0.04,-0.141,0.002,0.227,0.042,0.071,0.536,-0.257,1.442
2024-10-15 11:32:13.234,65884.625,0.48,0.251,-0.841,-0.154,0.275,-0.263,0.448,0.027,-0.225,0.519,-0.253,1.416
2024-10-15 11:32:13.354,65884.745,0.488,0.3,-0.82,0.056,-0.106,0.074,-1.019,0.385,-0.406,0.537,-0.304,1.391
2024-10-15 11:32:13.474,65884.865,0.5,0.332,-0.8,0.054,0.112,0.13,0.206,-0.094,-0.123,0.559,-0.339,1.389
2024-10-15 11:32:13.593,65884.984,0.488,0.355,-0.797,-0.174,0.236,-0.373,0.13,0.095,0.322,0.55,-0.362,1.396
2024-10-15 11:32:13.713,65885.104,0.499,0.314,-0.808,0.25,-0.211,0.515,0.296,-0.306,0.072,0.553,-0.32,1.406
2024-10-15 11:32:13.833,65885.224,0.457,0.292,-0.84,-0.201,0.004,-0.214,-0.144,-0.178,-0.141,0.498,-0.296,1.388
2024-10-15 11:32:13.953,65885.344,0.48,0.303,-0.823,-0.071,0.036,-0.065,0.418,0.169,0.309,0.528,-0.308,1.405
2024-10-15 11:32:14.073,65885.464,0.467,0.264,-0.844,0.043,-0.005,-0.099,0.646,-0.255,-0.237,0.505,-0.267,1.396
2024-10-15 11:32:14.193,65885.583,0.444,0.31,-0.841,-0.227,0.206,-0.45,-0.51,0.169,0.044,0.486,-0.315,1.384
2024-10-15 11:32:14.312,65885.703,0.464,0.259,-0.847,0.362,0.194,0.739,0.579,-0.45,0.216,0.501,-0.262,1.392
2024-10-15 11:32:14.432,65885.823,0.438,0.246,-0.865,-0.231,-0.139,-0.171,0.097,-0.105,-0.34,0.469,-0.249,1.382
2024-10-15 11:32:14.552,65885.943,0.462,0.241,-0.853,-0.052,0.006,-0.225,0.214,0.681,0.03,0.496,-0.244,1.374
2024-10-15 11:32:14.671,65886.063,0.495,0.231,-0.837,0.228,0.017,0.341,-0.128,0.022,0.074,0.534,-0.233,1.374
2024-10-15 11:32:14.791,65886.182,0.467,0.226,-0.855,-0.334,-0.062,-0.471,-1.005,0.051,0.013,0.499,-0.228,1.377
2024-10-15 11:32:14.911,65886.302,0.504,0.267,-0.821,0.042,-0.025,0.092,0.368,0.232,0.146,0.551,-0.271,1.418
2024-10-15 11:32:15.031,65886.422,0.484,0.23,-0.844,0.11,0.112,0.416,0.869,-0.655,-0.205,0.521,-0.232,1.405
2024-10-15 11:32:15.151,65886.542,0.474,0.252,-0.844,-0.121,0.159,-0.105,0.157,0.205,0.095,0.512,-0.255,1.406
2024-10-15 11:32:15.270,65886.662,0.499,0.256,-0.828,0.344,-0.116,0.733,0.159,-0.222,-0.052,0.543,-0.259,1.409
2024-10-15 11:32:15.390,65886.781,0.465,0.235,-0.854,-0.263,-0.108,-0.289,-0.416,-0.246,-0.058,0.498,-0.237,1.385
2024-10-15 11:32:15.511,65886.901,0.494,0.261,-0.83,-0.083,-0.048,-0.262,-0.434,0.565,0.277,0.537,-0.264,1.425
2024-10-15 11:32:15.630,65887.021,0.486,0.256,-0.835,0.111,-0.137,-0.012,0.323,-0.348,-0.221,0.527,-0.259,1.42
2024-10-15 11:32:15.750,65887.141,0.48,0.292,-0.827,-0.137,0.26,-0.261,-0.388,0.284,0.294,0.526,-0.296,1.412
2024-10-15 11:32:15.869,65887.261,0.507,0.269,-0.819,0.206,0.061,0.569,0.471,-0.337,0.034,0.555,-0.273,1.431
2024-10-15 11:32:15.989,65887.38,0.474,0.226,-0.851,-0.104,-0.034,-0.082,0.251,-0.253,0.062,0.508,-0.228,1.408
2024-10-15 11:32:16.109,65887.5,0.495,0.21,-0.843,-0.091,-0.049,-0.279,-0.024,0.512,0.208,0.531,-0.211,1.43
2024-10-15 11:32:16.228,65887.62,0.499,0.202,-0.843,0.185,-0.277,0.184,-0.437,-0.157,-0.172,0.535,-0.203,1.433
2024-10-15 11:32:16.349,65887.74,0.477,0.225,-0.85,-0.306,0.215,-0.467,-0.466,0.14,-0.006,0.512,-0.227,1.406
2024-10-15 11:32:16.468,65887.86,0.505,0.216,-0.835,0.026,0.008,0.117,0.355,0.031,0.28,0.544,-0.218,1.427
2024-10-15 11:32:16.588,65887.979,0.488,0.209,-0.847,0.154,0.294,0.438,0.81,-0.409,-0.334,0.523,-0.21,1.424
2024-10-15 11:32:16.708,65888.099,0.485,0.242,-0.841,-0.131,0.138,0.029,0.081,0.143,0.164,0.523,-0.245,1.425
2024-10-15 11:32:16.827,65888.219,0.507,0.22,-0.834,0.23,-0.053,0.516,0.302,-0.269,0.21,0.546,-0.222,1.433
2024-10-15 11:32:16.948,65888.339,0.485,0.213,-0.848,-0.075,-0.198,0.158,-0.135,-0.296,-0.149,0.519,-0.215,1.431
2024-10-15 11:32:17.067,65888.459,0.495,0.231,-0.837,-0.076,0.143,-0.189,-0.152,0.409,0.145,0.534,-0.233,1.44
2024-10-15 11:32:17.187,65888.578,0.507,0.229,-0.831,0.265,-0.35,0.303,-0.353,-0.015,-0.122,0.548,-0.231,1.446
2024-10-15 11:32:17.307,65888.698,0.484,0.238,-0.842,-0.308,0.052,-0.51,-0.559,0.264,-0.132,0.521,-0.24,1.423
2024-10-15 11:32:17.426,65888.818,0.514,0.244,-0.823,-0.012,-0.058,-0.248,-0.329,0.33,0.105,0.558,-0.246,1.445
2024-10-15 11:32:17.546,65888.938,0.511,0.226,-0.829,0.113,-0.071,-0.196,0.337,-0.176,-0.166,0.553,-0.228,1.444
2024-10-15 11:32:17.665,65889.058,0.511,0.29,-0.809,-0.22,0.53,-0.458,-0.145,0.276,0.269,0.563,-0.295,1.44
2024-10-15 11:32:17.786,65889.177,0.556,0.319,-0.767,0.132,-0.359,-0.327,-1.574,0.816,-0.009,0.627,-0.325,1.497
2024-10-15 11:32:17.905,65889.297,0.599,0.351,-0.72,0.218,-0.248,0.095,-0.118,0.173,-0.261,0.694,-0.359,1.502
2024-10-15 11:32:18.025,65889.417,0.511,0.322,-0.797,0.054,-0.205,0.028,0.137,-1.687,-0.057,0.57,-0.328,1.451
2024-10-15 11:32:18.145,65889.537,0.374,0.473,-0.798,-0.173,0.082,0.094,-1.931,-0.834,-0.601,0.438,-0.493,1.49
2024-10-15 11:32:18.265,65889.657,0.289,0.561,-0.776,-0.205,0.199,-0.031,0.269,-0.413,0.132,0.356,-0.596,1.499
2024-10-15 11:32:18.384,65889.776,0.251,0.455,-0.854,-0.011,-0.126,0.096,1.418,-1.074,0.264,0.286,-0.472,1.49
2024-10-15 11:32:18.504,65889.896,0.102,0.319,-0.942,0.084,-0.021,-0.105,0.195,-0.953,0.608,0.108,-0.324,1.495
2024-10-15 11:32:18.624,65890.016,0.096,0.101,-0.99,-0.089,0.038,0.139,2.344,0.051,1.15,0.096,-0.102,1.591
2024-10-15 11:32:18.745,65890.136,0.088,-0.074,-0.993,0.032,-0.161,0.018,0.462,-0.14,0.861,0.088,0.074,1.707
2024-10-15 11:32:18.863,65890.256,0.068,-0.059,-0.996,-0.065,-0.206,-0.036,-1.835,-0.606,0.559,0.068,0.059,1.8
2024-10-15 11:32:18.983,65890.375,0.048,0.192,-0.98,0.127,-0.247,0.093,-2.089,0.173,-0.638,0.048,-0.194,1.82
2024-10-15 11:32:19.103,65890.495,0.046,0.221,-0.974,0.054,0.135,-0.137,0.237,-0.44,1.266,0.047,-0.223,1.872
2024-10-15 11:32:19.223,65890.615,0.066,0.158,-0.985,-0.01,0.039,0.001,0.505,0.292,-1.252,0.066,-0.159,1.818
2024-10-15 11:32:19.343,65890.735,0.058,0.141,-0.988,-0.05,-0.477,-0.089,-0.227,-0.049,1.12,0.059,-0.142,1.9
2024-10-15 11:32:19.463,65890.855,0.078,0.14,-0.987,0.119,0.488,-0.036,1.039,0.063,-1.243,0.079,-0.14,1.809
2024-10-15 11:32:19.582,65890.974,0.09,0.089,-0.992,-0.093,-0.007,0.017,1.029,-0.028,1.106,0.09,-0.089,1.878
2024-10-15 11:32:19.702,65891.094,0.104,0.073,-0.992,-0.024,0.249,-0.035,0.354,0.245,-1.037,0.105,-0.073,1.799
2024-10-15 11:32:19.822,65891.214,0.102,0.007,-0.995,0.032,-0.001,-0.089,0.547,0.026,1.061,0.102,-0.007,1.873
2024-10-15 11:32:19.942,65891.334,0.085,-0.011,-0.996,-0.065,-0.014,-0.053,-0.549,-0.207,-0.981,0.085,0.011,1.833
2024-10-15 11:32:20.061,65891.454,0.105,-0.028,-0.994,-0.13,-0.196,0.214,0.24,0.206,0.89,0.106,0.028,1.919
2024-10-15 11:32:20.181,65891.573,0.089,-0.096,-0.991,0.146,0.133,-0.2,0.243,-0.09,-0.545,0.089,0.096,1.866
2024-10-15 11:32:20.302,65891.693,0.088,-0.065,-0.994,-0.059,-0.153,-0.078,-1.129,0.015,0.927,0.088,0.065,1.904
2024-10-15 11:32:20.421,65891.813,0.082,-0.021,-0.996,-0.086,0.472,0.24,1.978,-0.475,-1.782,0.082,0.021,1.822
2024-10-15 11:32:20.541,65891.933,0.078,-0.031,-0.996,-0.049,-0.306,0.021,-0.489,0.334,0.766,0.078,0.031,1.844
2024-10-15 11:32:20.661,65892.053,0.066,-0.059,-0.996,0.109,0.188,-0.177,0.439,-0.37,-0.969,0.066,0.059,1.77
2024-10-15 11:32:20.780,65892.173,0.071,-0.012,-0.997,-0.163,0.017,0.034,-0.032,0.233,0.922,0.071,0.012,1.831
2024-10-15 11:32:20.900,65892.292,0.065,-0.024,-0.998,0.116,0.189,-0.284,0.091,-0.157,-0.996,0.065,0.024,1.764
2024-10-15 11:32:21.020,65892.412,0.071,0.026,-0.997,-0.028,-0.199,-0.016,-1.216,0.547,1.361,0.072,-0.026,1.823
2024-10-15 11:32:21.141,65892.532,0.066,-0.005,-0.998,-0.03,0.375,-0.039,1.053,-0.548,-1.09,0.066,0.005,1.772
2024-10-15 11:32:21.259,65892.652,0.071,0.011,-0.997,-0.04,-0.147,-0.195,-1.485,0.595,1.538,0.071,-0.011,1.822
2024-10-15 11:32:21.379,65892.772,0.072,-0.014,-0.997,-0.111,0.455,0.127,1.877,-0.716,-1.269,0.072,0.014,1.777
2024-10-15 11:32:21.499,65892.891,0.071,-0.006,-0.997,-0.092,-0.282,-0.002,-1.225,0.677,1.317,0.071,0.006,1.823
2024-10-15 11:32:21.619,65893.011,0.069,-0.018,-0.997,-0.04,0.501,-0.048,0.904,-0.701,-1.01,0.069,0.018,1.76
2024-10-15 11:32:21.739,65893.131,0.076,0.032,-0.997,-0.157,-0.245,0.249,-0.98,0.431,0.979,0.076,-0.032,1.839
2024-10-15 11:32:21.859,65893.251,0.063,0.011,-0.998,0.391,0.01,-0.293,-0.078,0.206,-0.985,0.063,-0.011,1.757
2024-10-15 11:32:21.978,65893.371,0.07,-0.003,-0.998,-0.216,-0.199,0.082,0.503,0.248,0.807,0.07,0.003,1.83
2024-10-15 11:32:22.098,65893.49,0.064,-0.031,-0.998,0.297,-0.113,-0.334,-0.398,0.293,-0.96,0.064,0.031,1.739
2024-10-15 11:32:22.218,65893.61,0.068,0.001,-0.998,-0.374,-0.272,0.029,0.211,-0.236,1.001,0.068,-0.001,1.835
