Date,TimeStamp,GravityX,GravityY,GravityZ,UserAccelerationX,UserAccelerationY,UserAccelerationZ,RotationRateX,RotationRateY,RotationRateZ,AttitudeRoll,AttitudePitch,AttitudeYaw
2024-09-23 11:37:37.197,162590.04,0.041,0.737,-0.675,-0.1,-0.049,-0.112,0.081,0.186,0.205,0.061,-0.829,1.962
2024-09-23 11:37:37.317,162590.16,0.061,0.751,-0.657,0.025,0.017,-0.044,0.07,-0.192,-0.045,0.093,-0.85,1.974
2024-09-23 11:37:37.437,162590.28,0.081,0.746,-0.661,0.002,-0.147,0.096,0.118,-0.128,-0.065,0.122,-0.842,1.984
2024-09-23 11:37:37.557,162590.399,0.065,0.742,-0.668,0.038,-0.034,-0.01,0.11,-0.062,-0.113,0.098,-0.835,1.973
2024-09-23 11:37:37.676,162590.519,0.053,0.723,-0.689,-0.004,0.002,0.008,0.263,0.024,-0.053,0.076,-0.808,1.952
2024-09-23 11:37:37.796,162590.639,0.051,0.713,-0.699,0.007,0.029,0.018,0.291,-0.027,-0.052,0.073,-0.794,1.942
2024-09-23 11:37:37.916,162590.759,0.044,0.688,-0.725,0.007,-0.028,0.0,0.203,-0.123,-0.029,0.061,-0.758,1.934
2024-09-23 11:37:38.035,162590.879,0.027,0.664,-0.747,-0.023,-0.097,-0.038,-0.912,-0.026,0.267,0.036,-0.726,1.939
2024-09-23 11:37:38.155,162590.998,0.051,0.708,-0.705,0.002,0.05,0.017,-0.009,-0.039,-0.055,0.072,-0.786,1.952
2024-09-23 11:37:38.276,162591.118,0.03,0.659,-0.752,-0.025,-0.268,-0.097,-1.072,0.072,0.227,0.04,-0.719,1.945
2024-09-23 11:37:38.396,162591.238,0.082,0.781,-0.619,-0.059,0.112,0.092,-0.696,0.368,0.323,0.132,-0.896,1.993
2024-09-23 11:37:38.515,162591.358,0.084,0.763,-0.641,0.067,-0.11,0.067,1.389,-0.606,0.064,0.13,-0.868,2.038
2024-09-23 11:37:38.634,162591.478,0.056,0.703,-0.709,-0.025,-0.003,-0.019,-0.099,0.166,-0.228,0.079,-0.779,1.997
2024-09-23 11:37:38.755,162591.597,0.061,0.714,-0.698,0.028,0.018,0.012,0.137,-0.053,-0.03,0.087,-0.795,1.989
2024-09-23 11:37:38.875,162591.717,0.061,0.713,-0.698,-0.012,-0.017,-0.009,-0.154,0.071,-0.035,0.087,-0.794,1.983
2024-09-23 11:37:38.994,162591.837,0.045,0.672,-0.739,0.032,0.078,0.052,0.659,-0.167,-0.109,0.061,-0.737,1.975
2024-09-23 11:37:39.114,162591.957,0.065,0.733,-0.677,-0.032,-0.068,-0.011,-0.699,0.232,-0.05,0.095,-0.823,2.002
2024-09-23 11:37:39.234,162592.077,0.043,0.681,-0.731,-0.073,0.012,-0.028,-0.516,-0.081,0.122,0.059,-0.749,1.993
2024-09-23 11:37:39.354,162592.196,0.098,0.827,-0.554,-0.038,0.087,-0.004,-1.651,0.959,-0.156,0.174,-0.973,2.032
2024-09-23 11:37:39.473,162592.316,0.103,0.833,-0.544,0.034,-0.054,0.098,-0.166,-0.093,-0.194,0.188,-0.984,1.993
2024-09-23 11:37:39.594,162592.436,0.094,0.806,-0.584,-0.021,0.041,0.027,0.56,-0.166,0.071,0.16,-0.938,1.983
2024-09-23 11:37:39.713,162592.556,0.108,0.774,-0.624,-0.043,0.101,0.088,-0.035,-0.481,0.716,0.171,-0.885,2.041
2024-09-23 11:37:39.833,162592.676,0.074,0.721,-0.689,0.048,-0.187,-0.126,-0.032,-0.392,-0.344,0.106,-0.805,2.067
2024-09-23 11:37:39.953,162592.795,0.073,0.721,-0.689,0.03,0.002,0.027,0.419,-0.068,0.01,0.105,-0.806,2.066
2024-09-23 11:37:40.072,162592.915,0.067,0.717,-0.694,-0.007,0.015,0.005,0.004,0.026,-0.054,0.097,-0.799,2.051
2024-09-23 11:37:40.193,162593.035,0.063,0.704,-0.707,-0.007,-0.001,0.005,0.261,-0.152,0.001,0.089,-0.782,2.043
2024-09-23 11:37:40.312,162593.155,0.048,0.683,-0.729,-0.008,-0.119,-0.045,-0.797,0.051,0.208,0.065,-0.751,2.046
2024-09-23 11:37:40.433,162593.275,0.058,0.715,-0.697,0.018,0.078,0.042,0.54,-0.26,-0.074,0.084,-0.797,2.051
2024-09-23 11:37:40.552,162593.394,0.066,0.727,-0.683,-0.032,-0.033,0.043,-1.402,0.716,0.037,0.096,-0.814,2.064
2024-09-23 11:37:40.672,162593.514,0.109,0.816,-0.568,0.005,0.03,0.024,0.039,0.013,-0.098,0.189,-0.954,2.075
2024-09-23 11:37:40.792,162593.634,0.112,0.801,-0.588,-0.083,-0.003,0.092,0.279,-0.679,0.547,0.188,-0.929,2.129
2024-09-23 11:37:40.911,162593.754,0.075,0.736,-0.673,-0.008,0.028,-0.016,0.15,-0.127,-0.176,0.112,-0.827,2.114
2024-09-23 11:37:41.031,162593.874,0.075,0.728,-0.682,-0.005,-0.012,-0.001,0.086,0.032,-0.122,0.109,-0.815,2.107
2024-09-23 11:37:41.151,162593.993,0.066,0.712,-0.699,-0.017,-0.022,-0.005,0.135,0.034,-0.059,0.094,-0.793,2.087
2024-09-23 11:37:41.271,162594.113,0.061,0.706,-0.706,0.026,0.05,0.029,0.604,-0.275,-0.039,0.086,-0.784,2.077
2024-09-23 11:37:41.391,162594.233,0.055,0.702,-0.71,0.003,0.058,-0.005,-0.304,0.298,0.082,0.077,-0.779,2.086
2024-09-23 11:37:41.511,162594.353,0.049,0.693,-0.719,0.058,0.136,0.077,1.04,-0.444,-0.008,0.069,-0.766,2.078
2024-09-23 11:37:41.630,162594.473,0.07,0.736,-0.673,-0.001,-0.07,-0.035,-0.613,0.147,0.073,0.104,-0.828,2.104
2024-09-23 11:37:41.749,162594.592,0.058,0.777,-0.626,-0.071,0.053,-0.071,-0.285,-0.108,0.068,0.092,-0.891,2.108
2024-09-23 11:37:41.870,162594.712,0.061,0.748,-0.661,0.034,-0.061,-0.042,0.136,0.002,-0.181,0.092,-0.845,2.106
2024-09-23 11:37:41.990,162594.832,0.057,0.727,-0.684,-0.007,0.033,0.016,0.278,0.033,-0.019,0.083,-0.814,2.093
2024-09-23 11:37:42.110,162594.952,0.054,0.718,-0.693,0.01,0.021,0.012,0.257,-0.068,-0.021,0.078,-0.802,2.085
2024-09-23 11:37:42.229,162595.072,0.041,0.685,-0.727,-0.02,-0.119,-0.022,0.133,-0.077,-0.012,0.056,-0.755,2.079
2024-09-23 11:37:42.349,162595.191,0.054,0.707,-0.705,-0.036,-0.028,-0.017,-0.459,0.319,0.094,0.077,-0.786,2.098
2024-09-23 11:37:42.469,162595.311,0.057,0.725,-0.687,0.043,0.131,0.069,1.212,-0.545,0.007,0.083,-0.811,2.097
2024-09-23 11:37:42.588,162595.431,0.072,0.724,-0.686,-0.013,0.122,0.06,-0.361,0.271,0.306,0.104,-0.81,2.128
2024-09-23 11:37:42.708,162595.551,0.088,0.734,-0.673,0.008,0.156,0.06,0.639,-0.254,-0.014,0.13,-0.825,2.157
2024-09-23 11:37:42.828,162595.671,0.079,0.719,-0.69,-0.019,-0.032,-0.007,-0.156,0.035,0.046,0.114,-0.802,2.15
2024-09-23 11:37:42.948,162595.791,0.078,0.716,-0.694,0.007,0.039,0.021,0.35,-0.152,-0.069,0.112,-0.798,2.149
2024-09-23 11:37:43.068,162595.91,0.055,0.673,-0.737,-0.064,-0.172,-0.084,-0.752,0.073,0.095,0.074,-0.739,2.132
2024-09-23 11:37:43.187,162596.03,0.072,0.71,-0.701,0.019,0.05,0.021,0.137,-0.123,-0.061,0.102,-0.789,2.144
2024-09-23 11:37:43.306,162596.15,0.074,0.74,-0.668,-0.038,-0.049,-0.034,-1.316,0.687,0.177,0.111,-0.834,2.161
2024-09-23 11:37:43.427,162596.27,0.118,0.869,-0.48,0.038,-0.092,-0.154,-1.653,0.933,-0.327,0.241,-1.054,2.191
2024-09-23 11:37:43.547,162596.39,0.082,0.874,-0.479,0.088,-0.017,0.018,0.624,0.124,-0.582,0.17,-1.063,2.053
2024-09-23 11:37:43.667,162596.509,0.052,0.829,-0.558,-0.096,0.0,0.186,0.292,0.091,-0.073,0.092,-0.976,1.95
2024-09-23 11:37:43.787,162596.629,0.053,0.8,-0.597,-0.0,-0.361,0.224,0.853,-0.032,0.186,0.088,-0.927,1.952
2024-09-23 11:37:43.907,162596.749,0.059,0.753,-0.655,0.001,-0.018,-0.005,0.23,-0.131,0.039,0.089,-0.853,1.96
2024-09-23 11:37:44.032,162596.869,0.057,0.746,-0.663,-0.016,-0.096,-0.043,-0.456,0.148,-0.095,0.086,-0.842,1.953
2024-09-23 11:37:44.145,162596.989,0.042,0.715,-0.698,-0.005,0.038,0.042,0.645,-0.265,-0.021,0.06,-0.796,1.943
2024-09-23 11:37:44.265,162597.108,0.05,0.73,-0.682,0.021,0.036,0.001,0.407,-0.143,-0.037,0.074,-0.818,1.942
2024-09-23 11:37:44.385,162597.228,0.038,0.705,-0.708,0.005,0.022,0.009,0.009,-0.101,0.022,0.053,-0.782,1.938
2024-09-23 11:37:44.505,162597.348,0.041,0.721,-0.692,-0.042,-0.037,0.006,-0.478,0.274,-0.001,0.059,-0.805,1.947
2024-09-23 11:37:44.625,162597.468,0.039,0.716,-0.697,0.033,0.118,0.074,1.357,-0.467,-0.007,0.056,-0.797,1.94
2024-09-23 11:37:44.745,162597.588,0.044,0.738,-0.673,-0.034,0.002,0.01,-0.571,0.101,-0.004,0.065,-0.831,1.944
2024-09-23 11:37:44.865,162597.707,0.034,0.708,-0.705,-0.036,-0.356,-0.144,-0.463,0.28,0.084,0.049,-0.787,1.938
2024-09-23 11:37:44.985,162597.827,0.05,0.717,-0.695,0.032,0.007,0.032,0.413,-0.059,0.032,0.072,-0.8,1.967
2024-09-23 11:37:45.104,162597.947,0.049,0.714,-0.698,-0.003,0.021,0.009,0.07,-0.003,0.013,0.07,-0.795,1.959
2024-09-23 11:37:45.224,162598.067,0.043,0.702,-0.71,-0.016,-0.02,-0.004,-0.09,0.004,-0.017,0.061,-0.779,1.953
2024-09-23 11:37:45.344,162598.187,0.046,0.71,-0.703,0.006,0.046,0.022,0.189,-0.065,-0.026,0.065,-0.79,1.953
2024-09-23 11:37:45.463,162598.306,0.047,0.714,-0.698,0.003,0.018,0.01,-0.002,-0.031,-0.011,0.067,-0.796,1.953
2024-09-23 11:37:45.584,162598.426,0.043,0.705,-0.708,-0.01,0.004,0.002,0.003,0.035,0.03,0.06,-0.782,1.951
2024-09-23 11:37:45.704,162598.546,0.047,0.717,-0.696,-0.005,0.052,0.034,0.092,0.017,0.03,0.068,-0.799,1.954
2024-09-23 11:37:45.823,162598.666,0.054,0.733,-0.678,0.014,0.045,0.013,-0.089,0.07,-0.018,0.08,-0.823,1.955
2024-09-23 11:37:45.943,162598.786,0.052,0.763,-0.644,0.004,-0.013,-0.031,-0.889,0.01,-0.03,0.08,-0.868,1.952
2024-09-23 11:37:46.063,162598.905,0.035,0.798,-0.601,0.014,0.018,0.006,-0.244,-0.351,0.022,0.059,-0.924,1.953
2024-09-23 11:37:46.183,162599.025,0.028,0.822,-0.569,0.059,-0.014,0.008,-0.11,-0.227,0.186,0.049,-0.964,1.978
2024-09-23 11:37:46.302,162599.145,0.029,0.798,-0.602,-0.236,0.012,-0.123,0.311,0.09,0.129,0.048,-0.924,1.997
2024-09-23 11:37:46.422,162599.265,0.043,0.76,-0.649,0.095,0.084,0.018,0.864,-0.046,0.041,0.065,-0.863,2.011
2024-09-23 11:37:46.542,162599.385,0.039,0.727,-0.686,-0.033,-0.016,-0.025,0.191,0.116,-0.093,0.057,-0.813,1.995
2024-09-23 11:37:46.662,162599.504,0.04,0.719,-0.694,-0.008,-0.041,-0.022,-0.037,0.016,-0.066,0.058,-0.803,1.986
2024-09-23 11:37:46.782,162599.624,0.026,0.698,-0.716,-0.044,-0.2,-0.099,-0.64,0.007,0.145,0.036,-0.772,1.983
2024-09-23 11:37:46.901,162599.744,0.036,0.724,-0.689,0.036,0.032,-0.002,0.367,-0.243,-0.036,0.052,-0.81,1.99
2024-09-23 11:37:47.021,162599.864,0.022,0.689,-0.724,0.0,-0.021,0.02,0.107,-0.041,-0.007,0.03,-0.761,1.99
2024-09-23 11:37:47.141,162599.984,0.039,0.735,-0.677,-0.015,-0.05,-0.023,-0.865,0.229,-0.032,0.058,-0.825,2.004
2024-09-23 11:37:47.261,162600.103,0.03,0.695,-0.718,0.021,0.124,0.1,1.102,-0.08,0.042,0.042,-0.768,2.003
2024-09-23 11:37:47.380,162600.223,0.03,0.702,-0.712,0.025,0.054,-0.009,0.037,0.006,0.08,0.042,-0.778,2.008
2024-09-23 11:37:47.500,162600.343,0.063,0.737,-0.673,-0.034,-0.046,-0.043,-0.858,0.457,0.177,0.094,-0.828,2.019
2024-09-23 11:37:47.620,162600.463,0.078,0.763,-0.641,-0.01,0.052,0.054,0.145,-0.393,0.22,0.121,-0.868,2.072
2024-09-23 11:37:47.741,162600.583,0.056,0.721,-0.691,0.017,-0.009,-0.014,0.27,-0.042,-0.123,0.081,-0.805,2.053
2024-09-23 11:37:47.859,162600.702,0.055,0.719,-0.693,-0.01,-0.023,-0.011,-0.213,0.132,-0.117,0.079,-0.802,2.038
2024-09-23 11:37:47.980,162600.822,0.054,0.718,-0.694,0.014,0.007,0.009,0.316,-0.091,-0.056,0.077,-0.801,2.025
2024-09-23 11:37:48.099,162600.942,0.046,0.704,-0.709,-0.072,-0.065,-0.083,-0.666,0.226,0.087,0.064,-0.781,2.03
2024-09-23 11:37:48.219,162601.062,0.042,0.708,-0.705,0.044,0.117,0.049,1.229,-0.54,0.005,0.06,-0.786,2.03
2024-09-23 11:37:48.339,162601.182,0.047,0.705,-0.707,-0.048,-0.029,0.039,-0.54,0.201,0.072,0.066,-0.783,2.034
2024-09-23 11:37:48.459,162601.301,0.053,0.729,-0.683,0.012,-0.0,0.003,0.108,-0.049,-0.022,0.078,-0.817,2.046
2024-09-23 11:37:48.578,162601.421,0.052,0.721,-0.691,0.004,0.014,0.02,0.132,0.032,-0.05,0.075,-0.805,2.039
2024-09-23 11:37:48.699,162601.541,0.043,0.692,-0.721,0.01,0.054,0.026,0.756,-0.134,-0.083,0.06,-0.764,2.034
2024-09-23 11:37:48.818,162601.661,0.048,0.719,-0.693,-0.013,0.028,0.04,-0.56,0.246,0.049,0.069,-0.802,2.043
2024-09-23 11:37:48.938,162601.781,0.056,0.743,-0.667,0.021,0.04,0.062,0.444,-0.146,0.025,0.084,-0.838,2.053
2024-09-23 11:37:49.058,162601.9,0.05,0.73,-0.682,-0.008,0.027,0.016,0.178,-0.07,-0.004,0.073,-0.818,2.046
2024-09-23 11:37:49.178,162602.02,0.04,0.7,-0.713,-0.002,0.041,0.036,0.445,-0.053,-0.079,0.056,-0.775,2.043
2024-09-23 11:37:49.297,162602.14,0.041,0.694,-0.718,0.005,-0.015,0.001,0.055,-0.09,0.038,0.058,-0.768,2.044
2024-09-23 11:37:49.417,162602.26,0.05,0.699,-0.713,-0.042,-0.033,0.036,-0.093,0.2,-0.032,0.069,-0.774,2.047
2024-09-23 11:37:49.537,162602.38,0.072,0.734,-0.676,-0.032,0.006,-0.017,-0.468,-0.003,0.342,0.106,-0.824,2.069
2024-09-23 11:37:49.657,162602.499,0.068,0.717,-0.694,0.015,0.023,-0.05,0.127,-0.066,-0.054,0.098,-0.799,2.093
2024-09-23 11:37:49.777,162602.619,0.071,0.724,-0.686,-0.018,-0.05,0.034,0.235,-0.071,0.054,0.103,-0.81,2.096
2024-09-23 11:37:49.896,162602.739,0.056,0.707,-0.705,-0.061,-0.064,-0.085,-0.097,0.12,-0.069,0.079,-0.785,2.069
2024-09-23 11:37:50.016,162602.859,0.045,0.674,-0.737,0.031,0.102,0.05,0.435,-0.388,0.19,0.061,-0.74,2.064
2024-09-23 11:37:50.136,162602.979,0.057,0.71,-0.702,-0.008,-0.056,-0.018,-0.381,0.155,0.011,0.08,-0.789,2.073
2024-09-23 11:37:50.256,162603.098,0.051,0.701,-0.711,0.015,0.009,0.011,0.616,-0.233,-0.007,0.071,-0.777,2.074
2024-09-23 11:37:50.376,162603.218,0.042,0.676,-0.736,-0.006,-0.048,0.023,0.041,-0.038,-0.028,0.057,-0.742,2.071
2024-09-23 11:37:50.495,162603.338,0.047,0.695,-0.717,-0.028,-0.055,-0.015,-0.606,0.2,0.103,0.066,-0.769,2.079
2024-09-23 11:37:50.615,162603.458,0.056,0.726,-0.685,0.026,0.1,0.067,0.53,-0.123,0.013,0.081,-0.813,2.085
2024-09-23 11:37:50.735,162603.578,0.043,0.691,-0.722,0.007,0.048,0.036,0.423,-0.094,0.041,0.06,-0.763,2.081
2024-09-23 11:37:50.855,162603.697,0.044,0.683,-0.729,0.006,0.023,0.038,0.074,-0.112,0.034,0.06,-0.752,2.079
2024-09-23 11:37:50.975,162603.817,0.057,0.704,-0.708,-0.017,-0.015,0.055,-0.657,0.434,-0.094,0.081,-0.781,2.082
2024-09-23 11:37:51.094,162603.937,0.081,0.79,-0.608,0.006,0.014,0.014,-0.647,-0.026,-0.025,0.133,-0.91,2.097
2024-09-23 11:37:51.213,162604.057,0.069,0.795,-0.603,-0.03,0.091,0.004,-0.365,-0.253,-0.017,0.113,-0.919,2.095
2024-09-23 11:37:51.334,162604.177,0.056,0.796,-0.603,0.002,-0.022,-0.096,0.223,-0.0,0.182,0.093,-0.92,2.113
2024-09-23 11:37:51.454,162604.296,0.074,0.778,-0.623,0.049,0.011,0.035,0.851,-0.144,0.166,0.118,-0.892,2.136
2024-09-23 11:37:51.574,162604.416,0.058,0.723,-0.689,-0.011,-0.102,-0.046,-0.073,-0.115,-0.165,0.084,-0.808,2.125
2024-09-23 11:37:51.693,162604.536,0.059,0.727,-0.685,0.002,0.042,0.035,0.094,0.061,-0.015,0.086,-0.813,2.119
2024-09-23 11:37:51.813,162604.656,0.059,0.722,-0.689,-0.01,-0.005,-0.007,0.037,-0.011,0.008,0.085,-0.807,2.117
2024-09-23 11:37:51.933,162604.776,0.061,0.722,-0.689,-0.006,-0.016,-0.006,-0.017,0.068,-0.055,0.089,-0.807,2.116
2024-09-23 11:37:52.053,162604.895,0.059,0.711,-0.7,-0.001,0.019,0.019,0.158,0.051,-0.056,0.084,-0.791,2.101
2024-09-23 11:37:52.173,162605.015,0.047,0.685,-0.727,0.024,0.073,0.04,1.083,-0.269,-0.06,0.065,-0.754,2.09
2024-09-23 11:37:52.293,162605.135,0.059,0.702,-0.709,-0.009,0.048,0.026,-0.452,0.288,-0.029,0.083,-0.779,2.105
2024-09-23 11:37:52.412,162605.255,0.043,0.682,-0.73,0.034,0.131,0.051,1.18,-0.422,0.2,0.059,-0.75,2.096
2024-09-23 11:37:52.532,162605.375,0.046,0.673,-0.738,0.013,0.038,0.026,0.122,-0.011,0.015,0.063,-0.738,2.104
2024-09-23 11:37:52.652,162605.494,0.061,0.723,-0.688,-0.023,-0.1,-0.055,-0.842,0.214,-0.035,0.089,-0.808,2.116
2024-09-23 11:37:52.772,162605.614,0.062,0.731,-0.679,0.012,0.015,0.018,0.344,-0.144,0.022,0.091,-0.82,2.116
2024-09-23 11:37:52.892,162605.734,0.047,0.683,-0.729,-0.086,-0.052,-0.017,-0.049,0.088,0.032,0.065,-0.752,2.109
2024-09-23 11:37:53.012,162605.854,0.05,0.69,-0.722,-0.017,-0.048,-0.034,-0.211,-0.048,0.113,0.07,-0.762,2.117
2024-09-23 11:37:53.131,162605.974,0.074,0.716,-0.695,-0.036,-0.131,-0.072,-1.001,0.25,0.028,0.105,-0.797,2.125
2024-09-23 11:37:53.251,162606.093,0.096,0.739,-0.667,0.036,0.115,0.098,0.494,-0.309,0.336,0.143,-0.831,2.182
2024-09-23 11:37:53.372,162606.213,0.074,0.694,-0.716,-0.027,-0.005,-0.017,0.089,-0.038,-0.111,0.103,-0.767,2.178
2024-09-23 11:37:53.490,162606.333,0.07,0.699,-0.711,0.013,0.064,0.038,0.297,0.018,-0.03,0.098,-0.775,2.166
2024-09-23 11:37:53.610,162606.453,0.07,0.698,-0.713,0.001,0.046,0.017,0.168,0.046,-0.059,0.098,-0.772,2.159
2024-09-23 11:37:53.730,162606.573,0.052,0.665,-0.745,0.011,0.059,0.011,-0.129,-0.187,0.066,0.07,-0.728,2.148
2024-09-23 11:37:53.850,162606.692,0.067,0.699,-0.712,-0.005,-0.063,-0.028,-0.35,0.048,-0.058,0.094,-0.774,2.16
2024-09-23 11:37:53.969,162606.812,0.047,0.667,-0.744,-0.112,-0.102,-0.058,-0.18,-0.05,0.036,0.062,-0.73,2.151
2024-09-23 11:37:54.089,162606.932,0.061,0.677,-0.734,-0.044,-0.092,-0.046,-0.626,0.208,0.058,0.082,-0.744,2.16
2024-09-23 11:37:54.209,162607.052,0.069,0.717,-0.693,0.019,0.099,0.059,0.262,-0.049,0.027,0.099,-0.8,2.167
2024-09-23 11:37:54.329,162607.172,0.062,0.704,-0.708,-0.001,0.012,0.017,0.357,-0.101,-0.008,0.087,-0.781,2.161
2024-09-23 11:37:54.449,162607.291,0.05,0.671,-0.739,-0.051,-0.029,-0.027,-0.097,-0.046,0.018,0.068,-0.736,2.155
2024-09-23 11:37:54.568,162607.411,0.066,0.711,-0.7,-0.019,-0.063,-0.009,-0.641,0.228,-0.002,0.093,-0.791,2.169
2024-09-23 11:37:54.688,162607.531,0.064,0.712,-0.699,-0.0,-0.019,-0.002,0.284,-0.13,-0.045,0.091,-0.792,2.17
2024-09-23 11:37:54.808,162607.651,0.055,0.699,-0.713,0.01,0.05,0.03,0.639,-0.22,-0.028,0.077,-0.774,2.164
2024-09-23 11:37:54.928,162607.771,0.054,0.679,-0.732,-0.021,-0.024,0.014,-0.031,-0.011,0.078,0.074,-0.747,2.164
2024-09-23 11:37:55.048,162607.89,0.065,0.696,-0.715,-0.021,-0.033,0.029,-0.117,0.248,-0.018,0.09,-0.77,2.174
2024-09-23 11:37:55.168,162608.01,0.084,0.754,-0.652,0.011,0.083,0.04,-0.394,0.176,-0.002,0.129,-0.854,2.18
2024-09-23 11:37:55.287,162608.13,0.091,0.763,-0.64,-0.013,-0.018,-0.0,-0.054,0.024,0.029,0.141,-0.867,2.189
2024-09-23 11:37:55.407,162608.25,0.094,0.751,-0.654,-0.005,0.037,0.015,0.347,-0.043,0.061,0.143,-0.849,2.193
2024-09-23 11:37:55.527,162608.37,0.087,0.728,-0.681,0.014,-0.024,-0.014,0.05,-0.258,-0.132,0.126,-0.815,2.191
2024-09-23 11:37:55.647,162608.489,0.071,0.723,-0.687,-0.029,-0.016,-0.008,-0.033,0.121,0.069,0.103,-0.809,2.176
2024-09-23 11:37:55.767,162608.609,0.093,0.723,-0.685,0.029,0.007,-0.003,0.052,0.012,0.046,0.135,-0.808,2.192
2024-09-23 11:37:55.886,162608.729,0.075,0.715,-0.695,-0.028,-0.008,-0.029,-0.099,-0.047,-0.061,0.108,-0.796,2.175
2024-09-23 11:37:56.007,162608.849,0.076,0.711,-0.699,0.002,-0.009,0.0,0.194,-0.195,0.091,0.108,-0.791,2.181
2024-09-23 11:37:56.126,162608.969,0.063,0.702,-0.709,-0.007,-0.025,-0.001,0.108,-0.017,0.01,0.089,-0.778,2.172
2024-09-23 11:37:56.245,162609.088,0.064,0.694,-0.717,-0.009,-0.003,-0.001,0.132,-0.053,-0.086,0.089,-0.767,2.165
2024-09-23 11:37:56.365,162609.208,0.054,0.674,-0.736,-0.071,-0.143,-0.08,-0.731,0.276,0.103,0.073,-0.74,2.162
2024-09-23 11:37:56.486,162609.328,0.063,0.703,-0.708,0.041,0.052,0.034,0.269,-0.268,-0.131,0.088,-0.78,2.167
2024-09-23 11:37:56.605,162609.448,0.046,0.662,-0.748,0.003,-0.037,-0.003,0.028,-0.039,0.047,0.061,-0.724,2.16
2024-09-23 11:37:56.725,162609.568,0.059,0.689,-0.722,-0.014,0.037,0.006,-0.499,0.24,-0.03,0.081,-0.76,2.171
2024-09-23 11:37:56.845,162609.687,0.064,0.692,-0.719,0.006,0.013,0.014,0.241,-0.089,0.022,0.089,-0.764,2.172
2024-09-23 11:37:56.965,162609.807,0.047,0.662,-0.748,0.027,0.093,0.023,0.32,-0.075,-0.02,0.063,-0.723,2.164
2024-09-23 11:37:57.085,162609.927,0.05,0.664,-0.746,0.02,-0.008,-0.026,-0.143,-0.049,0.081,0.067,-0.726,2.17
2024-09-23 11:37:57.204,162610.047,0.071,0.696,-0.715,-0.017,-0.037,-0.013,-1.051,0.37,-0.108,0.099,-0.769,2.176
2024-09-23 11:37:57.324,162610.167,0.096,0.783,-0.614,-0.001,0.01,-0.021,-0.819,0.39,-0.081,0.155,-0.9,2.182
2024-09-23 11:37:57.444,162610.286,0.108,0.817,-0.566,0.01,-0.02,-0.043,-0.522,0.223,-0.049,0.188,-0.957,2.187
2024-09-23 11:37:57.564,162610.406,0.115,0.856,-0.504,-0.022,0.009,-0.036,-0.509,0.156,-0.093,0.225,-1.027,2.195
2024-09-23 11:37:57.684,162610.526,0.113,0.857,-0.503,-0.019,-0.033,0.015,0.256,-0.111,-0.017,0.22,-1.029,2.19
2024-09-23 11:37:57.803,162610.646,0.105,0.845,-0.524,0.001,-0.001,-0.024,0.169,-0.123,0.008,0.197,-1.007,2.178
2024-09-23 11:37:57.923,162610.766,0.099,0.837,-0.538,-0.015,-0.018,-0.005,0.05,-0.083,-0.011,0.182,-0.991,2.173
2024-09-23 11:37:58.042,162610.885,0.091,0.832,-0.547,0.016,0.008,0.01,0.182,-0.142,-0.075,0.164,-0.983,2.161
2024-09-23 11:37:58.163,162611.005,0.065,0.834,-0.547,0.015,0.019,-0.131,-0.532,-0.018,-0.213,0.119,-0.987,2.127
2024-09-23 11:37:58.282,162611.125,0.066,0.872,-0.485,0.141,-0.005,-0.005,-0.095,0.39,0.118,0.135,-1.059,2.115
2024-09-23 11:37:58.402,162611.245,0.084,0.846,-0.527,-0.039,-0.119,0.072,0.337,0.001,-0.086,0.158,-1.008,2.122
2024-09-23 11:37:58.522,162611.365,0.071,0.819,-0.569,-0.066,-0.031,0.072,0.563,0.042,-0.192,0.123,-0.96,2.078
2024-09-23 11:37:58.641,162611.484,0.059,0.793,-0.607,-0.084,-0.033,0.071,0.124,-0.264,-0.253,0.097,-0.915,2.05
2024-09-23 11:37:58.761,162611.604,0.039,0.761,-0.648,-0.019,-0.039,-0.085,0.134,0.087,-0.043,0.06,-0.865,2.022
2024-09-23 11:37:58.882,162611.724,0.044,0.751,-0.658,0.004,-0.028,0.014,0.182,0.007,-0.046,0.066,-0.85,2.021
2024-09-23 11:37:59.001,162611.844,0.042,0.735,-0.676,-0.017,-0.015,-0.011,0.178,0.034,-0.045,0.063,-0.826,2.015
2024-09-23 11:37:59.121,162611.964,0.026,0.692,-0.722,-0.144,-0.237,-0.1,-0.698,0.003,0.117,0.036,-0.764,2.009
2024-09-23 11:37:59.241,162612.083,0.032,0.722,-0.691,0.059,0.117,0.049,1.007,-0.379,-0.018,0.046,-0.807,2.015
2024-09-23 11:37:59.361,162612.203,0.021,0.696,-0.718,0.019,0.032,0.049,0.229,-0.066,0.013,0.03,-0.769,2.014
2024-09-23 11:37:59.480,162612.323,0.029,0.71,-0.703,0.0,0.015,0.01,-0.012,-0.032,0.01,0.042,-0.79,2.024
2024-09-23 11:37:59.600,162612.443,0.029,0.715,-0.698,-0.033,-0.084,-0.026,-0.465,0.229,0.012,0.042,-0.797,2.03
2024-09-23 11:37:59.720,162612.563,0.02,0.702,-0.712,0.042,0.126,0.065,0.022,-0.034,0.025,0.028,-0.778,2.019
2024-09-23 11:37:59.840,162612.682,0.038,0.725,-0.688,0.01,-0.004,-0.017,-0.154,0.096,-0.029,0.055,-0.811,2.028
2024-09-23 11:37:59.960,162612.802,0.036,0.724,-0.689,0.021,0.022,0.01,0.341,-0.118,-0.075,0.052,-0.809,2.023
2024-09-23 11:38:00.079,162612.922,0.038,0.735,-0.677,0.001,0.064,0.083,-1.017,0.474,-0.02,0.055,-0.825,2.027
2024-09-23 11:38:00.199,162613.042,0.051,0.746,-0.664,0.069,0.035,-0.004,0.432,-0.126,-0.158,0.076,-0.843,2.027
2024-09-23 11:38:00.319,162613.162,0.048,0.748,-0.662,-0.012,-0.007,0.013,-0.088,0.058,0.004,0.072,-0.845,2.02
2024-09-23 11:38:00.438,162613.281,0.039,0.727,-0.685,0.037,0.066,0.022,0.748,-0.21,-0.071,0.057,-0.815,2.015
2024-09-23 11:38:00.559,162613.401,0.035,0.722,-0.691,-0.001,-0.034,0.021,0.12,-0.204,0.048,0.05,-0.806,2.017
2024-09-23 11:38:00.678,162613.521,0.038,0.707,-0.706,-0.033,-0.03,0.021,-0.286,0.224,0.085,0.054,-0.785,2.016
2024-09-23 11:38:00.799,162613.641,0.049,0.742,-0.668,-0.009,-0.02,-0.024,-0.25,0.048,-0.037,0.074,-0.836,2.021
2024-09-23 11:38:00.918,162613.761,0.034,0.703,-0.711,-0.043,-0.19,-0.07,-0.459,-0.175,0.059,0.048,-0.779,2.015
2024-09-23 11:38:01.038,162613.88,0.068,0.81,-0.583,-0.081,-0.182,-0.288,-2.393,0.848,-0.038,0.116,-0.943,2.042
2024-09-23 11:38:01.158,162614.0,0.108,0.921,-0.375,-0.032,0.064,-0.031,-1.002,0.053,0.186,0.279,-1.17,2.168
2024-09-23 11:38:01.278,162614.12,0.113,0.856,-0.504,0.085,0.004,0.167,1.315,-0.526,0.215,0.221,-1.027,2.142
2024-09-23 11:38:01.397,162614.24,0.078,0.798,-0.598,0.04,-0.023,-0.068,0.867,-0.34,-0.151,0.13,-0.924,2.103
2024-09-23 11:38:01.517,162614.36,0.057,0.775,-0.629,-0.019,0.002,-0.028,0.22,-0.099,-0.041,0.09,-0.887,2.073
2024-09-23 11:38:01.637,162614.479,0.055,0.735,-0.676,-0.011,-0.024,0.015,0.196,-0.121,0.108,0.082,-0.826,2.069
2024-09-23 11:38:01.757,162614.599,0.052,0.728,-0.684,-0.0,-0.006,0.001,0.003,0.071,-0.11,0.076,-0.815,2.055
2024-09-23 11:38:01.877,162614.719,0.053,0.734,-0.677,-0.003,-0.004,-0.001,-0.002,-0.06,-0.017,0.078,-0.825,2.048
2024-09-23 11:38:01.996,162614.839,0.047,0.72,-0.693,0.008,0.016,0.018,0.592,-0.191,-0.009,0.068,-0.803,2.042
2024-09-23 11:38:02.116,162614.959,0.042,0.71,-0.703,-0.05,-0.034,-0.009,-0.504,0.258,0.009,0.06,-0.789,2.042
2024-09-23 11:38:02.236,162615.078,0.037,0.702,-0.711,0.05,0.119,0.035,1.285,-0.327,-0.081,0.052,-0.778,2.041
2024-09-23 11:38:02.356,162615.198,0.032,0.686,-0.727,0.019,0.053,0.037,0.14,-0.049,0.038,0.045,-0.756,2.041
2024-09-23 11:38:02.476,162615.318,0.043,0.712,-0.701,-0.018,-0.024,-0.018,-0.383,0.065,-0.009,0.061,-0.793,2.05
2024-09-23 11:38:02.596,162615.438,0.033,0.705,-0.709,-0.014,-0.232,-0.088,-0.612,-0.01,0.075,0.047,-0.782,2.052
2024-09-23 11:38:02.716,162615.558,0.036,0.712,-0.702,0.039,0.093,0.032,0.967,-0.433,-0.008,0.051,-0.792,2.048
2024-09-23 11:38:02.835,162615.677,0.042,0.721,-0.692,-0.013,0.009,0.004,-0.216,0.104,-0.041,0.061,-0.805,2.047
2024-09-23 11:38:02.955,162615.797,0.033,0.703,-0.71,-0.084,-0.271,-0.124,-0.828,0.245,0.105,0.046,-0.78,2.044
2024-09-23 11:38:03.075,162615.917,0.051,0.749,-0.661,0.004,0.063,0.037,0.266,-0.009,0.03,0.077,-0.846,2.052
2024-09-23 11:38:03.194,162616.037,0.047,0.732,-0.679,-0.024,-0.033,-0.004,-0.157,0.122,-0.066,0.069,-0.822,2.048
2024-09-23 11:38:03.314,162616.157,0.044,0.729,-0.683,0.019,0.028,0.013,0.567,-0.22,-0.036,0.065,-0.817,2.041
2024-09-23 11:38:03.434,162616.276,0.036,0.71,-0.703,-0.026,0.011,0.015,-0.003,0.001,0.039,0.051,-0.79,2.038
2024-09-23 11:38:03.554,162616.396,0.028,0.709,-0.704,0.013,0.053,0.024,0.187,-0.239,0.038,0.04,-0.789,2.044
2024-09-23 11:38:03.674,162616.516,0.046,0.717,-0.696,0.051,0.063,-0.056,-0.249,0.051,-0.019,0.066,-0.799,2.051
2024-09-23 11:38:03.793,162616.636,0.033,0.726,-0.687,-0.047,-0.187,-0.131,-1.287,0.151,0.154,0.047,-0.813,2.047
2024-09-23 11:38:03.913,162616.756,0.067,0.816,-0.575,-0.018,0.006,-0.01,-0.758,0.282,0.066,0.116,-0.954,2.064
2024-09-23 11:38:04.033,162616.876,0.079,0.814,-0.575,0.008,-0.0,-0.003,0.404,-0.077,0.093,0.137,-0.951,2.088
2024-09-23 11:38:04.152,162616.995,0.083,0.765,-0.639,-0.059,0.103,0.025,0.761,-0.117,0.265,0.128,-0.871,2.098
2024-09-23 11:38:04.272,162617.115,0.077,0.745,-0.662,0.071,-0.015,-0.042,0.446,-0.139,0.04,0.116,-0.841,2.112
2024-09-23 11:38:04.393,162617.235,0.058,0.738,-0.672,-0.033,0.044,-0.028,0.163,-0.187,0.044,0.086,-0.83,2.099
2024-09-23 11:38:04.513,162617.355,0.078,0.725,-0.685,0.023,0.044,0.079,-0.153,0.096,0.185,0.114,-0.81,2.132
2024-09-23 11:38:04.632,162617.475,0.054,0.726,-0.686,-0.07,0.184,-0.026,-0.028,-0.039,-0.1,0.078,-0.812,2.105
2024-09-23 11:38:04.752,162617.594,0.056,0.721,-0.691,0.011,-0.054,-0.052,-0.236,0.07,-0.127,0.081,-0.805,2.103
2024-09-23 11:38:04.872,162617.714,0.056,0.719,-0.693,0.0,0.005,-0.003,0.088,0.049,-0.113,0.081,-0.802,2.089
2024-09-23 11:38:04.991,162617.834,0.044,0.683,-0.73,-0.041,-0.168,-0.098,-0.572,-0.049,0.053,0.061,-0.751,2.083
2024-09-23 11:38:05.111,162617.954,0.054,0.725,-0.687,0.027,0.057,0.014,0.331,-0.207,-0.011,0.078,-0.811,2.088
2024-09-23 11:38:05.232,162618.074,0.043,0.689,-0.723,-0.024,-0.06,0.044,0.015,-0.014,0.016,0.059,-0.761,2.088
2024-09-23 11:38:05.351,162618.193,0.045,0.695,-0.717,-0.027,-0.033,-0.032,-0.568,0.2,0.061,0.063,-0.769,2.091
2024-09-23 11:38:05.471,162618.313,0.046,0.713,-0.7,0.045,0.115,0.074,1.07,-0.421,0.054,0.066,-0.793,2.092
2024-09-23 11:38:05.590,162618.433,0.049,0.717,-0.695,0.015,0.067,0.094,-0.208,0.25,-0.057,0.07,-0.8,2.098
2024-09-23 11:38:05.710,162618.553,0.045,0.708,-0.704,-0.054,-0.22,-0.039,-0.433,0.18,0.031,0.063,-0.787,2.093
2024-09-23 11:38:05.830,162618.673,0.04,0.702,-0.711,0.039,0.083,0.059,0.369,-0.205,0.037,0.056,-0.778,2.089
2024-09-23 11:38:05.950,162618.792,0.058,0.745,-0.664,-0.003,0.043,0.027,-0.158,0.175,0.011,0.087,-0.841,2.098
2024-09-23 11:38:06.069,162618.912,0.056,0.736,-0.675,-0.021,-0.025,0.004,0.029,-0.05,0.002,0.082,-0.827,2.096
2024-09-23 11:38:06.189,162619.032,0.058,0.736,-0.674,-0.003,0.016,0.007,0.024,0.007,0.016,0.085,-0.828,2.097
2024-09-23 11:38:06.309,162619.152,0.057,0.732,-0.679,-0.019,-0.054,-0.026,-0.068,0.01,-0.029,0.083,-0.821,2.094
2024-09-23 11:38:06.429,162619.272,0.05,0.719,-0.693,0.018,0.054,0.045,0.641,-0.269,0.009,0.072,-0.803,2.087
2024-09-23 11:38:06.548,162619.391,0.046,0.713,-0.7,0.008,0.021,0.028,0.107,-0.079,0.011,0.066,-0.794,2.085
2024-09-23 11:38:06.668,162619.511,0.044,0.707,-0.705,-0.011,-0.056,0.023,0.011,0.39,-0.043,0.062,-0.786,2.097
2024-09-23 11:38:06.788,162619.631,0.056,0.726,-0.686,0.013,-0.003,-0.022,-0.203,0.039,-0.05,0.081,-0.812,2.094
2024-09-23 11:38:06.908,162619.751,0.044,0.72,-0.693,-0.031,-0.192,-0.093,-0.903,0.056,0.125,0.063,-0.803,2.095
2024-09-23 11:38:07.028,162619.871,0.069,0.797,-0.599,0.005,0.007,0.012,-0.627,0.208,-0.0,0.115,-0.923,2.112
2024-09-23 11:38:07.147,162619.99,0.057,0.825,-0.563,-0.021,-0.056,-0.08,-0.576,-0.211,-0.235,0.101,-0.969,2.103
2024-09-23 11:38:07.267,162620.11,0.015,0.835,-0.55,-0.012,0.068,0.065,0.058,-0.005,0.062,0.027,-0.989,2.059
2024-09-23 11:38:07.388,162620.23,0.028,0.818,-0.575,0.014,-0.049,0.045,0.344,-0.013,0.27,0.049,-0.958,2.084
2024-09-23 11:38:07.507,162620.35,0.065,0.774,-0.63,-0.038,-0.05,0.009,0.637,-0.028,0.296,0.103,-0.885,2.144
2024-09-23 11:38:07.627,162620.47,0.052,0.726,-0.686,0.006,0.012,0.001,0.425,-0.109,-0.196,0.075,-0.813,2.134
2024-09-23 11:38:07.747,162620.589,0.046,0.711,-0.702,0.005,-0.01,-0.007,-0.005,0.047,-0.094,0.065,-0.791,2.117
2024-09-23 11:38:07.867,162620.709,0.048,0.703,-0.709,-0.017,-0.016,-0.001,-0.118,0.172,-0.056,0.067,-0.78,2.107
2024-09-23 11:38:07.986,162620.829,0.037,0.681,-0.731,0.018,0.074,0.035,0.643,-0.263,0.159,0.05,-0.75,2.097
2024-09-23 11:38:08.106,162620.949,0.048,0.715,-0.697,0.03,-0.012,0.007,0.06,-0.105,-0.053,0.069,-0.797,2.112
2024-09-23 11:38:08.226,162621.069,0.031,0.684,-0.729,-0.001,-0.041,-0.005,0.177,-0.039,0.039,0.042,-0.753,2.108
2024-09-23 11:38:08.347,162621.188,0.047,0.707,-0.705,-0.027,-0.003,-0.009,-0.537,0.184,-0.054,0.066,-0.786,2.118
2024-09-23 11:38:08.466,162621.308,0.044,0.701,-0.712,-0.034,-0.062,-0.047,-0.156,0.003,-0.017,0.062,-0.777,2.115
2024-09-23 11:38:08.586,162621.428,0.037,0.685,-0.727,-0.038,-0.074,-0.016,0.087,-0.095,-0.005,0.051,-0.755,2.111
2024-09-23 11:38:08.705,162621.548,0.048,0.716,-0.697,0.047,0.019,0.024,-0.516,0.24,-0.107,0.069,-0.798,2.124
2024-09-23 11:38:08.825,162621.668,0.036,0.698,-0.716,-0.105,-0.238,-0.094,-0.671,0.218,0.086,0.05,-0.772,2.118
2024-09-23 11:38:08.945,162621.787,0.052,0.729,-0.683,0.038,0.049,0.043,0.349,-0.04,-0.06,0.075,-0.816,2.118
2024-09-23 11:38:09.065,162621.907,0.045,0.71,-0.703,-0.025,-0.241,-0.146,-0.763,0.165,0.087,0.064,-0.789,2.12
2024-09-23 11:38:09.184,162622.027,0.062,0.742,-0.668,-0.005,0.005,-0.005,-0.027,-0.025,-0.054,0.092,-0.836,2.121
2024-09-23 11:38:09.304,162622.147,0.053,0.72,-0.692,-0.023,-0.061,-0.031,-0.07,-0.062,0.0,0.076,-0.804,2.115
2024-09-23 11:38:09.424,162622.267,0.052,0.716,-0.696,-0.003,-0.024,-0.008,-0.01,0.001,-0.053,0.075,-0.798,2.117
2024-09-23 11:38:09.544,162622.386,0.053,0.717,-0.695,-0.011,-0.001,0.005,-0.016,0.08,-0.019,0.077,-0.8,2.113
2024-09-23 11:38:09.664,162622.506,0.041,0.696,-0.717,-0.091,-0.178,-0.034,-0.153,0.022,0.002,0.057,-0.77,2.106
2024-09-23 11:38:09.782,162622.626,0.035,0.699,-0.715,0.0,0.02,0.003,0.265,-0.045,-0.022,0.049,-0.773,2.118
2024-09-23 11:38:09.902,162622.746,0.05,0.702,-0.71,0.016,-0.001,-0.016,-0.103,-0.159,-0.097,0.071,-0.778,2.114
2024-09-23 11:38:10.023,162622.866,0.049,0.731,-0.681,-0.012,-0.053,0.032,-1.116,0.483,0.075,0.071,-0.819,2.124
2024-09-23 11:38:10.143,162622.985,0.088,0.817,-0.57,-0.019,0.018,-0.029,-0.613,0.344,0.132,0.153,-0.956,2.148
2024-09-23 11:38:10.263,162623.105,0.119,0.795,-0.595,-0.029,0.048,0.068,-0.071,-0.01,0.427,0.198,-0.919,2.193
2024-09-23 11:38:10.383,162623.225,0.146,0.789,-0.597,0.021,-0.107,0.017,-0.066,-0.327,0.107,0.24,-0.909,2.266
2024-09-23 11:38:10.502,162623.345,0.104,0.774,-0.624,0.012,-0.041,0.006,0.191,-0.369,-0.264,0.164,-0.886,2.228
2024-09-23 11:38:10.622,162623.465,0.076,0.746,-0.661,-0.034,0.02,-0.018,0.245,-0.062,-0.032,0.114,-0.842,2.194
2024-09-23 11:38:10.742,162623.584,0.065,0.74,-0.669,-0.009,0.013,0.021,0.188,-0.033,-0.037,0.097,-0.834,2.181
2024-09-23 11:38:10.862,162623.704,0.062,0.735,-0.675,-0.005,-0.004,-0.001,0.027,-0.003,-0.046,0.092,-0.826,2.173
2024-09-23 11:38:10.981,162623.824,0.06,0.732,-0.678,-0.005,-0.009,-0.004,0.037,0.02,0.006,0.089,-0.822,2.168
2024-09-23 11:38:11.102,162623.944,0.059,0.724,-0.687,-0.011,-0.008,0.003,0.068,0.047,-0.014,0.086,-0.81,2.164
2024-09-23 11:38:11.221,162624.064,0.057,0.714,-0.698,-0.016,-0.008,0.007,0.179,-0.053,0.053,0.081,-0.795,2.159
2024-09-23 11:38:11.341,162624.183,0.061,0.713,-0.699,0.024,0.084,0.052,0.449,-0.045,-0.108,0.088,-0.794,2.167
2024-09-23 11:38:11.460,162624.303,0.053,0.7,-0.713,0.003,0.048,0.023,0.582,-0.146,-0.04,0.074,-0.775,2.149
2024-09-23 11:38:11.580,162624.423,0.052,0.69,-0.722,-0.05,-0.077,-0.042,-0.585,0.28,0.036,0.072,-0.762,2.153
2024-09-23 11:38:11.701,162624.543,0.049,0.688,-0.724,0.023,0.077,0.035,0.704,-0.328,0.125,0.067,-0.759,2.152
2024-09-23 11:38:11.819,162624.663,0.048,0.672,-0.739,-0.04,-0.059,0.002,-0.204,0.108,0.084,0.064,-0.737,2.154
2024-09-23 11:38:11.940,162624.782,0.054,0.692,-0.72,0.001,-0.012,0.003,-0.005,-0.08,-0.017,0.074,-0.764,2.163
2024-09-23 11:38:12.060,162624.902,0.045,0.687,-0.725,-0.025,-0.046,-0.022,-0.634,0.192,0.132,0.062,-0.758,2.166
2024-09-23 11:38:12.180,162625.022,0.05,0.702,-0.71,0.028,0.104,0.052,0.958,-0.338,0.008,0.07,-0.779,2.163
2024-09-23 11:38:12.299,162625.142,0.058,0.711,-0.701,-0.019,0.034,0.058,-0.491,0.268,-0.027,0.083,-0.791,2.169
2024-09-23 11:38:12.419,162625.262,0.056,0.704,-0.708,-0.0,0.033,0.044,0.614,-0.128,-0.024,0.079,-0.781,2.161
2024-09-23 11:38:12.539,162625.381,0.055,0.705,-0.707,-0.031,-0.058,-0.006,-0.529,0.216,0.025,0.077,-0.782,2.167
2024-09-23 11:38:12.659,162625.501,0.065,0.727,-0.683,-0.01,-0.003,-0.026,-0.065,0.007,-0.067,0.095,-0.814,2.165
2024-09-23 11:38:12.779,162625.621,0.061,0.723,-0.688,0.001,-0.008,-0.007,0.106,-0.102,-0.02,0.089,-0.808,2.158
2024-09-23 11:38:12.899,162625.741,0.052,0.69,-0.722,-0.009,-0.053,-0.031,-0.204,-0.054,-0.019,0.072,-0.761,2.155
2024-09-23 11:38:13.018,162625.861,0.05,0.694,-0.718,-0.007,-0.023,-0.033,-0.057,-0.254,0.105,0.07,-0.767,2.161
2024-09-23 11:38:13.138,162625.98,0.049,0.686,-0.726,-0.039,0.024,-0.007,0.16,0.365,0.055,0.067,-0.757,2.165
2024-09-23 11:38:13.257,162626.1,0.063,0.715,-0.696,0.028,0.074,0.023,0.191,-0.092,-0.038,0.09,-0.797,2.163
2024-09-23 11:38:13.377,162626.22,0.05,0.711,-0.701,-0.017,-0.1,-0.038,-1.037,0.072,0.048,0.071,-0.791,2.169
2024-09-23 11:38:13.497,162626.34,0.085,0.809,-0.582,-0.027,0.018,-0.044,-1.079,0.358,0.063,0.145,-0.943,2.192
2024-09-23 11:38:13.617,162626.46,0.096,0.797,-0.597,-0.009,0.073,0.042,0.794,-0.178,0.22,0.16,-0.922,2.215
2024-09-23 11:38:13.737,162626.579,0.136,0.767,-0.627,-0.03,0.001,0.07,-0.281,-0.198,0.342,0.214,-0.874,2.285
2024-09-23 11:38:13.857,162626.699,0.076,0.78,-0.621,0.059,-0.183,-0.142,0.432,-0.363,-0.251,0.122,-0.895,2.244
2024-09-23 11:38:13.981,162626.819,0.037,0.808,-0.588,-0.121,-0.099,0.155,-0.292,0.005,-0.127,0.063,-0.941,2.184
2024-09-23 11:38:14.096,162626.939,0.053,0.759,-0.649,0.026,0.237,-0.131,1.027,0.027,0.226,0.081,-0.861,2.196
2024-09-23 11:38:14.216,162627.059,0.061,0.736,-0.675,0.008,0.036,0.037,0.132,0.093,-0.036,0.09,-0.827,2.197
2024-09-23 11:38:14.336,162627.178,0.057,0.73,-0.681,0.021,-0.064,-0.05,0.157,0.064,-0.091,0.084,-0.819,2.186
2024-09-23 11:38:14.456,162627.298,0.059,0.724,-0.687,-0.019,0.003,0.019,0.135,0.087,-0.019,0.086,-0.81,2.173
2024-09-23 11:38:14.575,162627.418,0.054,0.715,-0.697,0.015,0.043,0.02,0.484,-0.171,-0.046,0.078,-0.796,2.159
2024-09-23 11:38:14.695,162627.538,0.06,0.71,-0.701,-0.038,-0.015,0.003,-0.195,0.411,0.182,0.085,-0.79,2.174
2024-09-23 11:38:14.816,162627.658,0.053,0.706,-0.706,0.044,0.129,0.068,1.351,-0.492,-0.191,0.075,-0.784,2.17
2024-09-23 11:38:14.935,162627.777,0.056,0.686,-0.726,-0.026,-0.008,0.002,0.013,0.134,0.053,0.076,-0.756,2.173
2024-09-23 11:38:15.055,162627.897,0.064,0.714,-0.697,-0.008,-0.025,0.0,-0.18,0.011,-0.028,0.091,-0.795,2.181
2024-09-23 11:38:15.174,162628.017,0.053,0.696,-0.716,-0.025,-0.121,-0.058,-0.597,-0.072,0.133,0.074,-0.769,2.183
2024-09-23 11:38:15.294,162628.137,0.066,0.724,-0.686,0.013,0.034,0.007,0.169,-0.162,-0.047,0.096,-0.81,2.192
2024-09-23 11:38:15.413,162628.257,0.068,0.717,-0.694,0.001,0.079,0.027,-0.263,0.279,0.113,0.098,-0.8,2.197
2024-09-23 11:38:15.534,162628.376,0.068,0.718,-0.693,0.008,0.037,0.027,0.417,-0.207,-0.061,0.098,-0.801,2.189
2024-09-23 11:38:15.654,162628.496,0.07,0.719,-0.691,0.017,0.139,0.052,-0.332,0.345,0.135,0.1,-0.803,2.197
2024-09-23 11:38:15.774,162628.616,0.082,0.737,-0.671,0.053,0.047,0.033,0.466,-0.165,-0.13,0.121,-0.828,2.191
2024-09-23 11:38:15.893,162628.736,0.061,0.706,-0.706,-0.025,-0.121,-0.044,-0.113,0.065,0.064,0.086,-0.783,2.177
2024-09-23 11:38:16.013,162628.856,0.059,0.702,-0.71,-0.006,0.019,0.019,0.244,0.265,-0.046,0.082,-0.778,2.186
2024-09-23 11:38:16.133,162628.975,0.074,0.713,-0.697,0.031,0.046,0.026,0.294,-0.326,-0.044,0.106,-0.794,2.186
2024-09-23 11:38:16.252,162629.095,0.079,0.748,-0.659,-0.035,-0.001,0.044,-1.336,0.651,-0.01,0.119,-0.844,2.206
2024-09-23 11:38:16.372,162629.215,0.099,0.862,-0.498,0.078,0.074,-0.095,-0.89,0.001,-0.104,0.197,-1.039,2.238
2024-09-23 11:38:16.492,162629.335,0.091,0.852,-0.515,0.056,0.017,0.023,1.083,0.062,-0.015,0.174,-1.02,2.222
2024-09-23 11:38:16.612,162629.455,0.082,0.819,-0.568,0.124,-0.089,0.004,0.253,0.19,-0.334,0.143,-0.959,2.167
2024-09-23 11:38:16.732,162629.574,0.067,0.832,-0.551,-0.168,-0.037,0.113,-0.652,0.194,-0.2,0.121,-0.983,2.11
2024-09-23 11:38:16.852,162629.694,0.053,0.86,-0.507,-0.172,-0.023,0.069,-0.09,-0.029,-0.429,0.104,-1.036,2.084
2024-09-23 11:38:16.972,162629.814,0.05,0.828,-0.559,0.055,0.102,-0.095,0.799,-0.09,0.058,0.09,-0.975,2.072
2024-09-23 11:38:17.091,162629.934,0.05,0.769,-0.638,-0.024,-0.045,0.008,0.227,-0.052,0.181,0.078,-0.877,2.078
2024-09-23 11:38:17.211,162630.054,0.045,0.751,-0.659,0.001,0.026,0.017,0.365,-0.106,-0.005,0.069,-0.849,2.073
2024-09-23 11:38:17.331,162630.173,0.038,0.733,-0.679,-0.021,-0.037,-0.018,-0.092,0.133,-0.145,0.056,-0.822,2.062
2024-09-23 11:38:17.451,162630.293,0.042,0.74,-0.671,-0.001,-0.001,-0.007,-0.057,0.122,-0.004,0.062,-0.834,2.05
2024-09-23 11:38:17.571,162630.413,0.044,0.74,-0.672,-0.013,-0.025,-0.007,-0.013,0.019,-0.031,0.065,-0.833,2.044
2024-09-23 11:38:17.691,162630.533,0.028,0.704,-0.71,-0.014,0.027,0.015,-0.103,-0.115,0.009,0.039,-0.781,2.035
2024-09-23 11:38:17.810,162630.653,0.045,0.748,-0.663,-0.02,-0.041,-0.057,-0.322,0.251,-0.1,0.069,-0.845,2.041
2024-09-23 11:38:17.930,162630.772,0.035,0.72,-0.693,0.002,0.04,0.039,0.804,-0.315,-0.01,0.051,-0.804,2.026
2024-09-23 11:38:18.050,162630.892,0.03,0.735,-0.677,-0.025,-0.046,-0.048,-0.372,0.304,0.105,0.044,-0.826,2.043
2024-09-23 11:38:18.170,162631.012,0.029,0.738,-0.674,0.071,0.131,0.08,1.345,-0.63,0.013,0.044,-0.831,2.035
2024-09-23 11:38:18.289,162631.132,0.04,0.738,-0.674,-0.006,0.032,0.032,-0.465,0.262,-0.012,0.06,-0.83,2.039
2024-09-23 11:38:18.409,162631.252,0.036,0.726,-0.687,0.02,0.045,0.046,0.967,-0.505,0.005,0.053,-0.813,2.029
2024-09-23 11:38:18.529,162631.372,0.037,0.735,-0.677,-0.011,0.013,0.027,-0.315,0.105,-0.035,0.055,-0.826,2.039
2024-09-23 11:38:18.649,162631.491,0.032,0.727,-0.685,-0.065,-0.148,-0.07,-0.513,0.19,0.021,0.047,-0.814,2.035
2024-09-23 11:38:18.769,162631.611,0.023,0.714,-0.7,0.034,0.112,0.04,0.016,-0.107,-0.023,0.033,-0.795,2.032
2024-09-23 11:38:18.888,162631.731,0.038,0.729,-0.683,0.007,0.003,0.005,0.095,0.166,-0.077,0.055,-0.818,2.032
2024-09-23 11:38:19.008,162631.851,0.025,0.717,-0.696,-0.013,-0.053,-0.08,-0.873,-0.094,0.099,0.036,-0.8,2.032
2024-09-23 11:38:19.128,162631.971,0.029,0.729,-0.684,0.027,0.062,0.036,0.707,-0.244,-0.007,0.042,-0.817,2.042
2024-09-23 11:38:19.248,162632.09,0.04,0.743,-0.669,0.001,0.044,0.068,-0.135,0.168,0.143,0.06,-0.837,2.052
2024-09-23 11:38:19.367,162632.21,0.061,0.762,-0.645,0.056,0.131,0.117,0.894,-0.344,0.07,0.094,-0.866,2.116
2024-09-23 11:38:19.488,162632.33,0.038,0.729,-0.684,-0.033,-0.006,0.034,-0.017,0.073,-0.023,0.055,-0.816,2.091
2024-09-23 11:38:19.607,162632.45,0.043,0.728,-0.685,-0.007,-0.0,0.001,0.007,-0.003,0.047,0.062,-0.815,2.104
2024-09-23 11:38:19.727,162632.57,0.044,0.723,-0.689,-0.006,0.007,0.01,0.107,0.052,-0.073,0.063,-0.809,2.103
2024-09-23 11:38:19.847,162632.689,0.03,0.697,-0.716,-0.008,0.051,0.01,-0.083,0.004,-0.012,0.042,-0.772,2.093
2024-09-23 11:38:19.967,162632.809,0.041,0.712,-0.701,-0.003,0.05,0.018,0.159,0.061,-0.038,0.058,-0.793,2.098
2024-09-23 11:38:20.086,162632.929,0.034,0.71,-0.704,-0.039,-0.055,-0.016,-0.308,0.134,0.025,0.049,-0.789,2.103
2024-09-23 11:38:20.206,162633.049,0.029,0.704,-0.71,0.04,0.089,0.041,0.3,-0.171,-0.069,0.04,-0.781,2.094
2024-09-23 11:38:20.326,162633.169,0.048,0.742,-0.668,0.006,-0.018,-0.02,-0.203,0.122,-0.017,0.071,-0.837,2.104
2024-09-23 11:38:20.446,162633.288,0.027,0.698,-0.716,-0.098,-0.408,-0.106,-1.097,0.115,0.115,0.038,-0.773,2.09
2024-09-23 11:38:20.565,162633.408,0.029,0.713,-0.7,0.017,0.105,0.069,0.615,-0.189,-0.019,0.041,-0.794,2.094
2024-09-23 11:38:20.685,162633.528,0.035,0.73,-0.682,0.016,0.005,-0.006,0.107,-0.049,-0.017,0.051,-0.819,2.097
2024-09-23 11:38:20.805,162633.648,0.031,0.718,-0.695,-0.058,-0.15,-0.017,-0.41,0.294,0.052,0.045,-0.801,2.096
2024-09-23 11:38:20.925,162633.768,0.025,0.697,-0.716,-0.002,0.078,0.035,-0.158,-0.188,0.011,0.035,-0.772,2.087
2024-09-23 11:38:21.044,162633.887,0.033,0.731,-0.681,0.003,0.0,-0.001,0.142,-0.068,-0.029,0.048,-0.82,2.096
2024-09-23 11:38:21.164,162634.007,0.033,0.744,-0.668,-0.05,-0.189,-0.069,-1.449,0.452,0.088,0.05,-0.839,2.102
2024-09-23 11:38:21.285,162634.127,0.085,0.868,-0.489,-0.039,0.056,-0.019,-0.825,0.542,0.069,0.172,-1.052,2.145
2024-09-23 11:38:21.404,162634.247,0.136,0.832,-0.538,-0.038,0.035,0.148,-0.204,-0.045,0.482,0.247,-0.983,2.205
2024-09-23 11:38:21.524,162634.367,0.11,0.822,-0.559,0.114,0.011,-0.094,0.459,-0.541,-0.327,0.195,-0.964,2.203
2024-09-23 11:38:21.644,162634.486,0.041,0.817,-0.575,-0.197,-0.126,0.149,0.242,-0.256,-0.398,0.072,-0.956,2.11
2024-09-23 11:38:21.763,162634.606,0.007,0.797,-0.604,-0.015,0.013,-0.027,0.401,-0.176,0.05,0.012,-0.922,2.064
2024-09-23 11:38:21.884,162634.726,0.031,0.769,-0.638,-0.011,0.03,-0.003,0.256,0.028,0.142,0.049,-0.878,2.11
2024-09-23 11:38:22.003,162634.846,0.035,0.749,-0.662,0.002,-0.012,-0.012,0.087,0.033,-0.031,0.053,-0.846,2.107
2024-09-23 11:38:22.123,162634.966,0.032,0.733,-0.679,-0.001,0.055,0.036,0.618,-0.245,0.016,0.047,-0.823,2.1
2024-09-23 11:38:22.243,162635.085,0.038,0.732,-0.68,-0.004,0.089,0.071,-0.527,0.263,-0.026,0.055,-0.821,2.113
2024-09-23 11:38:22.363,162635.205,0.028,0.713,-0.701,0.045,0.104,0.074,1.367,-0.45,-0.235,0.04,-0.793,2.098
2024-09-23 11:38:22.482,162635.325,0.039,0.742,-0.669,-0.027,0.031,0.023,-0.162,0.146,-0.108,0.059,-0.837,2.118
2024-09-23 11:38:22.602,162635.445,0.027,0.712,-0.702,-0.062,-0.241,-0.104,-0.702,0.332,0.14,0.039,-0.792,2.109
2024-09-23 11:38:22.721,162635.565,0.051,0.752,-0.657,0.023,0.008,0.004,-0.131,0.054,-0.073,0.077,-0.851,2.118
2024-09-23 11:38:22.842,162635.684,0.024,0.702,-0.712,-0.141,-0.315,-0.111,-1.128,0.178,0.189,0.034,-0.778,2.103
2024-09-23 11:38:22.962,162635.804,0.032,0.733,-0.679,0.042,0.122,0.074,1.08,-0.457,-0.05,0.046,-0.823,2.113
2024-09-23 11:38:23.081,162635.924,0.04,0.745,-0.665,-0.002,0.001,0.014,-0.419,0.043,-0.006,0.06,-0.841,2.116
2024-09-23 11:38:23.202,162636.044,0.024,0.714,-0.7,-0.078,-0.214,-0.107,-0.604,0.416,0.04,0.034,-0.795,2.109
2024-09-23 11:38:23.321,162636.164,0.034,0.718,-0.695,0.051,0.082,0.029,1.005,-0.456,0.016,0.049,-0.801,2.105
2024-09-23 11:38:23.441,162636.283,0.034,0.742,-0.669,-0.024,-0.047,-0.028,-0.361,0.143,-0.021,0.05,-0.837,2.115
2024-09-23 11:38:23.560,162636.403,0.019,0.709,-0.705,-0.06,-0.282,-0.06,-0.503,0.267,0.026,0.027,-0.788,2.114
2024-09-23 11:38:23.680,162636.523,0.053,0.77,-0.636,-0.031,-0.082,-0.079,-0.828,0.322,0.261,0.083,-0.879,2.145
2024-09-23 11:38:23.800,162636.643,0.092,0.747,-0.658,-0.027,0.005,0.174,-0.306,-0.1,0.33,0.139,-0.844,2.198
2024-09-23 11:38:23.920,162636.763,0.065,0.743,-0.666,0.079,-0.118,-0.066,0.145,-0.247,-0.383,0.098,-0.837,2.175
2024-09-23 11:38:24.040,162636.882,0.052,0.725,-0.687,-0.04,-0.036,-0.005,0.028,-0.046,0.052,0.075,-0.811,2.16
2024-09-23 11:38:24.158,162637.002,0.05,0.722,-0.69,0.002,-0.029,-0.009,-0.075,-0.086,-0.026,0.073,-0.807,2.151
2024-09-23 11:38:24.279,162637.122,0.039,0.694,-0.719,0.015,0.036,0.02,0.441,-0.226,-0.041,0.055,-0.767,2.142
2024-09-23 11:38:24.399,162637.242,0.047,0.72,-0.692,-0.027,-0.042,-0.02,-0.511,0.181,-0.121,0.068,-0.804,2.151
2024-09-23 11:38:24.519,162637.362,0.032,0.696,-0.717,-0.105,-0.194,-0.088,-0.556,-0.11,0.214,0.044,-0.77,2.143
2024-09-23 11:38:24.639,162637.481,0.04,0.726,-0.686,0.026,0.12,0.058,0.944,-0.34,-0.028,0.059,-0.813,2.147
2024-09-23 11:38:24.757,162637.601,0.051,0.719,-0.693,0.027,0.109,0.019,-0.469,0.302,-0.011,0.073,-0.803,2.158
2024-09-23 11:38:24.878,162637.721,0.037,0.701,-0.712,0.03,0.123,0.068,1.206,-0.513,-0.142,0.052,-0.777,2.141
2024-09-23 11:38:24.998,162637.841,0.045,0.731,-0.681,-0.024,-0.09,-0.041,-0.223,-0.013,-0.036,0.066,-0.82,2.153
2024-09-23 11:38:25.118,162637.961,0.04,0.714,-0.699,-0.055,-0.117,-0.069,-0.466,0.242,-0.009,0.057,-0.795,2.15
2024-09-23 11:38:25.238,162638.08,0.031,0.707,-0.707,0.047,0.106,0.034,0.826,-0.32,0.049,0.045,-0.785,2.149
2024-09-23 11:38:25.357,162638.2,0.047,0.719,-0.693,-0.005,0.064,0.07,-0.054,0.216,-0.073,0.068,-0.803,2.15
2024-09-23 11:38:25.477,162638.32,0.034,0.706,-0.707,-0.015,-0.293,-0.085,-0.788,-0.134,0.174,0.048,-0.784,2.149
2024-09-23 11:38:25.597,162638.44,0.036,0.719,-0.695,0.034,0.072,0.037,0.987,-0.387,0.001,0.052,-0.802,2.157
2024-09-23 11:38:25.717,162638.56,0.042,0.733,-0.679,-0.009,-0.012,0.006,-0.606,0.229,0.044,0.062,-0.822,2.163
2024-09-23 11:38:25.837,162638.679,0.065,0.752,-0.656,-0.033,0.162,0.012,0.774,0.023,0.189,0.099,-0.851,2.187
2024-09-23 11:38:25.956,162638.799,0.103,0.726,-0.68,0.043,-0.137,0.074,-0.419,-0.121,0.152,0.15,-0.813,2.246
2024-09-23 11:38:26.077,162638.919,0.058,0.727,-0.684,-0.008,0.088,-0.053,0.408,-0.229,-0.088,0.085,-0.814,2.214
2024-09-23 11:38:26.196,162639.039,0.051,0.7,-0.713,0.009,-0.031,0.001,0.078,0.036,-0.076,0.071,-0.775,2.207
2024-09-23 11:38:26.316,162639.159,0.044,0.697,-0.715,0.011,0.09,0.036,0.625,-0.213,-0.039,0.061,-0.772,2.195
2024-09-23 11:38:26.436,162639.278,0.047,0.698,-0.715,-0.021,-0.018,0.033,-0.255,0.211,0.018,0.065,-0.772,2.205
2024-09-23 11:38:26.556,162639.398,0.045,0.697,-0.716,0.022,0.077,0.042,1.048,-0.389,0.063,0.063,-0.771,2.192
2024-09-23 11:38:26.675,162639.518,0.047,0.718,-0.694,0.005,-0.0,0.024,-0.212,0.119,-0.074,0.068,-0.801,2.204
2024-09-23 11:38:26.796,162639.638,0.04,0.695,-0.717,-0.084,-0.179,-0.071,-0.666,0.291,0.132,0.056,-0.769,2.201
2024-09-23 11:38:26.915,162639.758,0.057,0.726,-0.685,0.023,0.009,0.013,-0.028,0.142,-0.078,0.082,-0.813,2.204
2024-09-23 11:38:27.036,162639.877,0.037,0.687,-0.726,-0.106,-0.343,-0.094,-1.083,0.172,0.17,0.051,-0.757,2.195
2024-09-23 11:38:27.155,162639.997,0.042,0.716,-0.697,0.041,0.121,0.072,1.023,-0.441,-0.031,0.06,-0.798,2.198
2024-09-23 11:38:27.274,162640.117,0.044,0.719,-0.694,0.006,0.021,0.066,-0.191,-0.036,0.0,0.064,-0.802,2.2
2024-09-23 11:38:27.394,162640.237,0.039,0.702,-0.711,-0.082,-0.016,-0.098,-0.503,0.245,0.015,0.055,-0.778,2.199
2024-09-23 11:38:27.514,162640.357,0.041,0.692,-0.721,0.015,0.093,0.05,0.876,-0.245,-0.047,0.056,-0.765,2.19
2024-09-23 11:38:27.634,162640.476,0.045,0.72,-0.692,-0.041,-0.02,0.015,-0.209,0.151,-0.018,0.065,-0.804,2.204
2024-09-23 11:38:27.753,162640.596,0.033,0.693,-0.72,-0.024,-0.226,-0.113,-0.738,0.284,0.041,0.046,-0.766,2.202
2024-09-23 11:38:27.874,162640.716,0.057,0.768,-0.637,-0.016,-0.023,-0.044,-0.711,0.168,0.104,0.089,-0.876,2.216
2024-09-23 11:38:27.993,162640.836,0.073,0.725,-0.685,-0.02,0.039,-0.049,0.385,-0.098,0.417,0.106,-0.811,2.256
2024-09-23 11:38:28.113,162640.956,0.066,0.727,-0.684,0.012,-0.141,0.054,-0.157,-0.315,-0.333,0.096,-0.813,2.274
2024-09-23 11:38:28.233,162641.075,0.046,0.705,-0.708,-0.013,0.048,0.001,0.314,-0.062,-0.034,0.065,-0.782,2.255
2024-09-23 11:38:28.353,162641.195,0.043,0.695,-0.717,-0.026,0.006,0.012,0.044,0.053,-0.009,0.06,-0.769,2.248
2024-09-23 11:38:28.472,162641.315,0.039,0.684,-0.729,-0.003,0.021,0.02,0.4,-0.157,0.003,0.054,-0.753,2.244
2024-09-23 11:38:28.592,162641.435,0.042,0.686,-0.726,-0.016,-0.028,-0.006,-0.359,0.2,0.045,0.058,-0.756,2.251
2024-09-23 11:38:28.712,162641.555,0.043,0.69,-0.722,0.03,0.089,0.056,1.005,-0.368,0.014,0.059,-0.762,2.245
2024-09-23 11:38:28.832,162641.674,0.043,0.697,-0.715,0.0,0.093,0.076,-0.392,0.249,-0.068,0.06,-0.772,2.255
2024-09-23 11:38:28.951,162641.794,0.035,0.68,-0.732,-0.08,-0.167,-0.081,-0.474,0.211,0.061,0.048,-0.748,2.25
2024-09-23 11:38:29.072,162641.914,0.051,0.717,-0.695,0.011,0.014,-0.023,0.03,0.038,-0.076,0.074,-0.799,2.255
2024-09-23 11:38:29.192,162642.034,0.041,0.695,-0.718,-0.021,-0.32,-0.073,-0.831,0.246,0.086,0.057,-0.768,2.254
2024-09-23 11:38:29.311,162642.154,0.038,0.697,-0.716,0.05,0.108,0.078,0.777,-0.144,0.029,0.053,-0.772,2.25
2024-09-23 11:38:29.431,162642.273,0.047,0.72,-0.692,0.002,-0.022,0.02,-0.086,0.018,-0.028,0.068,-0.804,2.256
2024-09-23 11:38:29.551,162642.393,0.038,0.691,-0.722,-0.04,-0.234,-0.114,-0.662,0.24,0.037,0.052,-0.763,2.253
2024-09-23 11:38:29.671,162642.513,0.041,0.695,-0.718,0.03,0.102,0.07,1.075,-0.393,-0.003,0.057,-0.769,2.247
2024-09-23 11:38:29.790,162642.633,0.041,0.71,-0.703,-0.014,0.023,0.018,-0.169,0.097,-0.02,0.059,-0.789,2.255
2024-09-23 11:38:29.910,162642.753,0.034,0.693,-0.72,-0.054,-0.231,-0.14,-1.301,0.322,0.034,0.047,-0.766,2.255
2024-09-23 11:38:30.029,162642.872,0.081,0.839,-0.537,-0.028,-0.021,-0.061,-2.388,0.948,0.036,0.15,-0.996,2.286
2024-09-23 11:38:30.150,162642.992,0.117,0.88,-0.46,0.003,0.024,0.037,0.759,0.133,-0.16,0.248,-1.076,2.314
2024-09-23 11:38:30.269,162643.112,0.08,0.859,-0.505,0.049,0.18,-0.117,0.648,-0.288,-0.007,0.157,-1.034,2.232
2024-09-23 11:38:30.389,162643.232,0.074,0.828,-0.556,0.013,0.048,-0.048,0.684,0.02,-0.043,0.133,-0.975,2.21
2024-09-23 11:38:30.508,162643.352,0.054,0.82,-0.57,0.069,-0.097,0.044,-0.195,-0.013,-0.373,0.095,-0.961,2.163
2024-09-23 11:38:30.629,162643.472,0.037,0.826,-0.562,-0.125,-0.026,0.037,0.105,0.217,0.032,0.067,-0.972,2.124
2024-09-23 11:38:30.749,162643.591,0.061,0.817,-0.573,-0.043,0.146,0.066,0.359,0.12,-0.031,0.106,-0.957,2.133
2024-09-23 11:38:30.868,162643.711,0.049,0.773,-0.633,0.0,0.13,0.016,0.409,0.083,-0.174,0.078,-0.883,2.106
2024-09-23 11:38:30.988,162643.831,0.049,0.758,-0.651,-0.001,0.007,-0.002,0.228,0.046,-0.071,0.075,-0.86,2.086
2024-09-23 11:38:31.108,162643.951,0.048,0.75,-0.66,-0.014,-0.023,-0.016,-0.057,-0.009,0.011,0.073,-0.848,2.082
2024-09-23 11:38:31.228,162644.071,0.046,0.75,-0.66,-0.009,-0.012,-0.007,-0.003,0.009,-0.027,0.07,-0.847,2.08
2024-09-23 11:38:31.348,162644.19,0.044,0.745,-0.666,-0.012,-0.013,-0.011,0.007,0.045,-0.034,0.066,-0.84,2.073
2024-09-23 11:38:31.467,162644.31,0.031,0.717,-0.697,0.029,0.07,0.048,0.775,-0.315,0.023,0.044,-0.799,2.062
2024-09-23 11:38:31.587,162644.43,0.035,0.716,-0.697,-0.033,-0.058,-0.009,-0.207,0.299,0.063,0.05,-0.798,2.062
2024-09-23 11:38:31.707,162644.55,0.04,0.727,-0.686,0.024,0.11,0.07,0.786,-0.221,-0.003,0.059,-0.814,2.06
2024-09-23 11:38:31.827,162644.67,0.021,0.711,-0.703,-0.004,-0.026,-0.023,-0.553,-0.349,0.185,0.029,-0.791,2.066
2024-09-23 11:38:31.946,162644.789,0.045,0.748,-0.662,0.008,-0.059,-0.047,-0.073,0.113,-0.019,0.067,-0.845,2.079
2024-09-23 11:38:32.067,162644.909,0.029,0.697,-0.717,-0.107,-0.181,-0.065,-0.344,0.005,0.067,0.04,-0.771,2.068
2024-09-23 11:38:32.186,162645.029,0.042,0.74,-0.671,-0.01,-0.071,-0.072,-0.563,0.051,-0.111,0.063,-0.834,2.076
2024-09-23 11:38:32.306,162645.149,0.026,0.719,-0.695,-0.024,-0.322,-0.112,-0.495,0.206,-0.006,0.037,-0.802,2.068
2024-09-23 11:38:32.426,162645.269,0.033,0.728,-0.685,0.042,0.052,0.016,0.695,-0.37,0.009,0.048,-0.816,2.074
2024-09-23 11:38:32.546,162645.388,0.035,0.738,-0.674,-0.045,-0.018,0.018,-0.893,0.289,0.176,0.051,-0.83,2.08
2024-09-23 11:38:32.666,162645.508,0.079,0.782,-0.619,-0.084,0.271,0.049,0.635,-0.113,0.359,0.126,-0.897,2.136
2024-09-23 11:38:32.785,162645.628,0.085,0.77,-0.632,0.05,-0.173,-0.011,0.006,-0.278,-0.178,0.134,-0.879,2.174
2024-09-23 11:38:32.905,162645.748,0.053,0.756,-0.652,-0.006,-0.057,0.073,0.197,-0.052,-0.039,0.081,-0.858,2.13
2024-09-23 11:38:33.025,162645.868,0.049,0.743,-0.668,0.004,-0.004,-0.017,-0.022,0.026,-0.057,0.073,-0.837,2.119
2024-09-23 11:38:33.144,162645.987,0.048,0.738,-0.673,-0.013,-0.017,-0.015,-0.007,0.094,-0.043,0.072,-0.83,2.111
2024-09-23 11:38:33.264,162646.107,0.043,0.731,-0.681,0.008,0.046,0.03,0.552,-0.251,-0.024,0.064,-0.82,2.105
2024-09-23 11:38:33.384,162646.227,0.04,0.715,-0.698,-0.027,-0.063,-0.001,-0.135,0.206,-0.015,0.057,-0.797,2.101
2024-09-23 11:38:33.504,162646.347,0.044,0.719,-0.693,0.03,0.086,0.038,0.685,-0.316,0.022,0.063,-0.803,2.094
2024-09-23 11:38:33.624,162646.467,0.031,0.728,-0.685,-0.082,-0.107,-0.012,-0.538,0.357,0.162,0.045,-0.816,2.114
2024-09-23 11:38:33.744,162646.586,0.04,0.73,-0.682,0.04,0.099,0.032,1.004,-0.337,-0.001,0.059,-0.818,2.103
2024-09-23 11:38:33.863,162646.706,0.04,0.73,-0.683,-0.009,0.073,0.034,-0.459,0.059,-0.067,0.058,-0.818,2.11
2024-09-23 11:38:33.983,162646.826,0.033,0.721,-0.692,-0.058,-0.173,-0.014,-0.396,0.189,-0.009,0.048,-0.805,2.105
2024-09-23 11:38:34.103,162646.946,0.033,0.727,-0.686,0.048,0.086,0.032,1.028,-0.399,0.011,0.048,-0.813,2.107
2024-09-23 11:38:34.222,162647.066,0.034,0.737,-0.675,-0.021,0.021,0.028,-0.569,0.133,0.122,0.05,-0.829,2.112
2024-09-23 11:38:34.343,162647.185,0.068,0.815,-0.575,-0.017,0.046,0.004,-0.455,0.155,0.152,0.117,-0.953,2.162
2024-09-23 11:38:34.463,162647.305,0.082,0.773,-0.629,0.01,-0.08,0.094,-0.4,-0.014,0.273,0.129,-0.884,2.184
2024-09-23 11:38:34.582,162647.425,0.072,0.774,-0.629,0.038,-0.15,-0.018,0.003,-0.3,-0.411,0.113,-0.885,2.185
2024-09-23 11:38:34.702,162647.545,0.045,0.747,-0.663,-0.036,0.164,-0.078,0.555,-0.123,0.019,0.068,-0.843,2.152
2024-09-23 11:38:34.822,162647.665,0.044,0.734,-0.678,0.008,0.016,0.0,0.155,0.011,-0.004,0.065,-0.824,2.148
2024-09-23 11:38:34.941,162647.784,0.037,0.72,-0.693,0.019,0.059,0.031,0.83,-0.36,-0.02,0.054,-0.804,2.144
2024-09-23 11:38:35.061,162647.904,0.036,0.708,-0.705,-0.053,-0.08,-0.002,-0.416,0.3,0.015,0.051,-0.787,2.14
2024-09-23 11:38:35.181,162648.024,0.039,0.701,-0.712,0.017,0.053,0.017,0.731,-0.25,-0.015,0.055,-0.777,2.134
2024-09-23 11:38:35.301,162648.144,0.028,0.717,-0.696,-0.052,-0.085,-0.004,-0.618,0.247,0.146,0.04,-0.8,2.153
2024-09-23 11:38:35.421,162648.264,0.04,0.724,-0.688,0.037,0.072,0.033,0.837,-0.322,-0.007,0.057,-0.81,2.141
2024-09-23 11:38:35.540,162648.383,0.038,0.723,-0.69,0.02,0.092,0.056,-0.29,0.075,-0.041,0.056,-0.808,2.149
2024-09-23 11:38:35.660,162648.503,0.03,0.719,-0.694,-0.078,-0.153,-0.013,-0.328,0.139,-0.016,0.043,-0.803,2.145
2024-09-23 11:38:35.780,162648.623,0.033,0.725,-0.688,0.007,0.06,0.025,0.661,-0.299,0.008,0.049,-0.812,2.145
2024-09-23 11:38:35.900,162648.743,0.032,0.735,-0.677,-0.035,-0.066,-0.014,-0.644,0.204,0.079,0.047,-0.826,2.147
2024-09-23 11:38:36.020,162648.863,0.063,0.77,-0.635,-0.049,0.141,-0.052,0.464,0.084,0.268,0.099,-0.878,2.184
2024-09-23 11:38:36.140,162648.982,0.079,0.771,-0.632,0.026,-0.081,0.09,-0.605,-0.29,-0.032,0.125,-0.88,2.231
2024-09-23 11:38:36.260,162649.102,0.052,0.772,-0.633,0.001,-0.126,-0.032,0.236,0.079,-0.08,0.082,-0.882,2.211
2024-09-23 11:38:36.380,162649.222,0.05,0.756,-0.653,-0.01,-0.016,0.019,0.318,-0.005,-0.065,0.077,-0.857,2.196
2024-09-23 11:38:36.499,162649.342,0.045,0.737,-0.675,-0.002,0.034,-0.029,-0.0,0.017,-0.039,0.066,-0.828,2.183
2024-09-23 11:38:36.619,162649.462,0.043,0.732,-0.679,-0.004,0.006,0.002,0.251,-0.04,-0.018,0.063,-0.822,2.178
2024-09-23 11:38:36.739,162649.581,0.03,0.703,-0.711,-0.048,-0.011,-0.025,-0.135,0.173,-0.038,0.042,-0.779,2.173
2024-09-23 11:38:36.859,162649.701,0.045,0.724,-0.688,0.019,0.006,-0.018,0.17,0.017,-0.077,0.066,-0.81,2.169
2024-09-23 11:38:36.979,162649.821,0.024,0.701,-0.713,-0.008,-0.073,-0.095,-1.012,-0.402,0.226,0.033,-0.777,2.173
2024-09-23 11:38:37.098,162649.941,0.045,0.75,-0.66,0.018,-0.034,0.007,0.087,0.143,-0.136,0.069,-0.848,2.182
2024-09-23 11:38:37.218,162650.061,0.04,0.721,-0.691,-0.077,-0.146,-0.136,-0.746,0.187,-0.023,0.057,-0.806,2.184
2024-09-23 11:38:37.338,162650.18,0.032,0.722,-0.691,-0.06,-0.035,0.004,-0.328,0.168,0.01,0.046,-0.806,2.179
2024-09-23 11:38:37.458,162650.3,0.036,0.737,-0.675,0.018,0.08,0.033,0.707,-0.3,0.001,0.053,-0.829,2.18
2024-09-23 11:38:37.577,162650.42,0.035,0.73,-0.683,-0.04,-0.106,0.019,-0.377,0.15,0.086,0.051,-0.818,2.183
2024-09-23 11:38:37.697,162650.54,0.061,0.735,-0.675,-0.031,0.186,0.051,0.788,0.004,0.314,0.091,-0.826,2.221
2024-09-23 11:38:37.817,162650.66,0.083,0.73,-0.679,-0.009,-0.342,0.226,-0.022,-0.366,-0.077,0.121,-0.818,2.284
2024-09-23 11:38:37.937,162650.779,0.049,0.741,-0.67,-0.061,-0.124,0.044,-0.288,0.216,-0.209,0.073,-0.835,2.234
2024-09-23 11:38:38.057,162650.899,0.05,0.74,-0.67,0.039,0.041,-0.148,0.293,0.09,-0.051,0.075,-0.834,2.212
2024-09-23 11:38:38.177,162651.019,0.051,0.729,-0.682,0.034,-0.024,0.075,0.225,-0.092,-0.021,0.075,-0.818,2.205
2024-09-23 11:38:38.296,162651.139,0.051,0.726,-0.685,0.011,-0.051,-0.054,-0.03,-0.011,-0.086,0.075,-0.813,2.209
2024-09-23 11:38:38.416,162651.259,0.031,0.696,-0.718,0.032,0.075,0.047,0.627,-0.177,-0.139,0.043,-0.769,2.201
2024-09-23 11:38:38.536,162651.378,0.047,0.706,-0.707,-0.032,0.038,-0.013,-0.352,0.374,-0.125,0.067,-0.784,2.201
2024-09-23 11:38:38.656,162651.498,0.036,0.676,-0.736,0.009,0.096,0.06,0.379,-0.18,-0.096,0.049,-0.742,2.193
2024-09-23 11:38:38.775,162651.618,0.049,0.735,-0.676,0.023,0.018,-0.03,-0.373,0.18,-0.093,0.073,-0.826,2.213
2024-09-23 11:38:38.895,162651.738,0.031,0.682,-0.731,-0.169,-0.188,-0.146,-0.449,-0.102,0.244,0.042,-0.75,2.2
2024-09-23 11:38:39.015,162651.858,0.045,0.733,-0.679,-0.009,0.021,-0.043,0.081,-0.049,-0.11,0.066,-0.822,2.211
2024-09-23 11:38:39.135,162651.977,0.037,0.717,-0.696,-0.076,-0.058,0.007,-0.421,0.146,0.02,0.053,-0.8,2.205
2024-09-23 11:38:39.254,162652.097,0.029,0.699,-0.714,0.051,0.145,0.043,1.052,-0.411,0.143,0.041,-0.774,2.203
2024-09-23 11:38:39.374,162652.217,0.044,0.745,-0.666,-0.041,0.049,0.07,-0.805,0.249,0.17,0.067,-0.84,2.218
2024-09-23 11:38:39.494,162652.337,0.077,0.748,-0.659,0.011,0.096,0.082,0.735,-0.352,0.2,0.117,-0.845,2.269
2024-09-23 11:38:39.614,162652.457,0.058,0.739,-0.671,-0.045,-0.042,-0.033,-0.207,0.037,-0.106,0.087,-0.832,2.275
2024-09-23 11:38:39.734,162652.576,0.043,0.732,-0.68,-0.025,0.051,0.029,0.281,-0.054,-0.016,0.064,-0.822,2.256
2024-09-23 11:38:39.853,162652.696,0.044,0.735,-0.677,0.003,0.014,0.007,-0.012,-0.008,-0.011,0.065,-0.825,2.254
2024-09-23 11:38:39.973,162652.816,0.036,0.723,-0.69,0.034,0.096,0.012,0.912,-0.438,-0.017,0.052,-0.808,2.251
2024-09-23 11:38:40.093,162652.936,0.038,0.711,-0.702,-0.047,-0.085,-0.012,-0.522,0.272,0.028,0.055,-0.791,2.252
2024-09-23 11:38:40.213,162653.056,0.033,0.696,-0.718,-0.001,0.107,0.088,0.929,-0.362,0.129,0.046,-0.769,2.243
2024-09-23 11:38:40.333,162653.175,0.036,0.728,-0.685,-0.022,0.088,0.064,-0.372,0.245,-0.029,0.053,-0.815,2.264
2024-09-23 11:38:40.453,162653.295,0.034,0.714,-0.699,0.002,0.057,0.038,1.024,-0.288,-0.03,0.049,-0.796,2.252
2024-09-23 11:38:40.572,162653.415,0.037,0.715,-0.698,0.007,0.066,0.054,-0.351,0.084,-0.033,0.053,-0.797,2.257
2024-09-23 11:38:40.692,162653.535,0.031,0.714,-0.699,-0.038,-0.116,-0.018,-0.369,0.115,0.014,0.044,-0.796,2.253
2024-09-23 11:38:40.812,162653.655,0.029,0.714,-0.7,0.024,0.103,0.022,0.963,-0.332,-0.016,0.042,-0.795,2.254
2024-09-23 11:38:40.932,162653.774,0.043,0.763,-0.645,-0.043,-0.026,-0.06,-1.892,0.642,-0.106,0.067,-0.868,2.256
