Date,TimeStamp,GravityX,GravityY,GravityZ,UserAccelerationX,UserAccelerationY,UserAccelerationZ,RotationRateX,RotationRateY,RotationRateZ,AttitudeRoll,AttitudePitch,AttitudeYaw
2024-10-01 09:29:38.975,26869.924,0.075,0.491,-0.868,-0.003,0.001,0.001,0.036,0.017,0.004,0.086,-0.514,1.485
2024-10-01 09:29:39.004,26870.044,0.075,0.489,-0.869,0.007,0.016,-0.004,-0.007,-0.012,0.017,0.086,-0.511,1.485
2024-10-01 09:29:39.018,26870.164,0.076,0.488,-0.87,0.001,-0.011,0.012,-0.023,-0.011,-0.026,0.087,-0.51,1.486
2024-10-01 09:29:39.034,26870.284,0.077,0.487,-0.87,0.001,-0.03,0.025,-0.031,0.012,0.003,0.089,-0.509,1.486
2024-10-01 09:29:39.052,26870.403,0.077,0.488,-0.869,0.005,-0.005,0.013,-0.017,-0.03,0.003,0.088,-0.51,1.487
2024-10-01 09:29:39.066,26870.523,0.076,0.487,-0.87,-0.003,-0.001,-0.01,0.029,-0.002,0.018,0.087,-0.508,1.488
2024-10-01 09:29:39.079,26870.643,0.076,0.487,-0.87,0.005,-0.002,0.02,-0.017,-0.017,0.006,0.087,-0.509,1.49
2024-10-01 09:29:39.093,26870.763,0.076,0.487,-0.87,-0.012,-0.021,-0.016,-0.014,0.034,-0.024,0.087,-0.508,1.491
2024-10-01 09:29:39.107,26870.883,0.1,0.551,-0.828,-0.094,-0.028,-0.073,-0.998,0.492,-0.24,0.12,-0.584,1.487
2024-10-01 09:29:39.120,26871.002,0.144,0.678,-0.721,-0.074,-0.075,-0.01,-1.396,0.706,-0.212,0.196,-0.744,1.493
2024-10-01 09:29:39.132,26871.122,0.169,0.801,-0.575,-0.004,-0.055,0.098,-1.893,0.342,-0.232,0.286,-0.929,1.521
2024-10-01 09:29:39.145,26871.242,0.137,0.9,-0.415,0.044,0.039,0.078,-1.391,-0.02,-0.306,0.32,-1.119,1.565
2024-10-01 09:29:39.194,26871.362,0.097,0.939,-0.33,0.007,0.08,0.056,-0.062,-0.386,-0.315,0.286,-1.219,1.563
2024-10-01 09:29:39.314,26871.482,0.048,0.952,-0.303,0.16,0.039,-0.089,0.212,-0.348,-0.306,0.157,-1.259,1.479
2024-10-01 09:29:39.434,26871.601,0.026,0.946,-0.324,0.065,-0.082,-0.023,0.466,-0.242,0.087,0.079,-1.24,1.432
2024-10-01 09:29:39.555,26871.721,0.002,0.934,-0.356,-0.099,0.014,-0.016,0.074,-0.085,-0.226,0.007,-1.206,1.389
2024-10-01 09:29:39.675,26871.841,-0.011,0.925,-0.379,0.019,-0.014,0.061,0.465,0.158,-0.109,-0.03,-1.182,1.338
2024-10-01 09:29:39.794,26871.961,-0.013,0.898,-0.44,0.023,0.022,0.006,0.4,-0.051,-0.187,-0.029,-1.115,1.34
2024-10-01 09:29:39.914,26872.081,-0.025,0.889,-0.458,-0.016,-0.007,0.004,0.135,-0.138,0.086,-0.054,-1.094,1.335
2024-10-01 09:29:40.034,26872.2,-0.032,0.891,-0.453,0.013,0.009,0.016,0.094,-0.089,0.04,-0.072,-1.1,1.336
2024-10-01 09:29:40.153,26872.32,-0.036,0.889,-0.457,-0.018,0.045,0.019,-0.0,0.001,-0.001,-0.078,-1.095,1.341
2024-10-01 09:29:40.273,26872.44,-0.037,0.891,-0.452,0.02,-0.015,-0.005,0.005,-0.08,0.04,-0.081,-1.1,1.343
2024-10-01 09:29:40.393,26872.56,-0.04,0.881,-0.471,-0.011,0.006,-0.009,0.018,-0.032,-0.047,-0.084,-1.078,1.351
2024-10-01 09:29:40.513,26872.68,-0.046,0.884,-0.464,-0.025,-0.002,-0.003,0.029,0.021,-0.016,-0.098,-1.085,1.341
2024-10-01 09:29:40.633,26872.799,-0.045,0.881,-0.47,-0.003,-0.017,-0.001,-0.017,-0.002,-0.019,-0.096,-1.079,1.347
2024-10-01 09:29:40.752,26872.919,-0.047,0.878,-0.477,0.005,-0.01,0.012,0.165,0.002,-0.045,-0.098,-1.071,1.347
2024-10-01 09:29:40.872,26873.039,-0.048,0.874,-0.484,-0.005,-0.025,-0.007,-0.007,0.011,0.002,-0.1,-1.063,1.347
2024-10-01 09:29:40.992,26873.159,-0.048,0.871,-0.488,0.002,0.01,0.004,0.023,0.018,-0.029,-0.098,-1.058,1.346
2024-10-01 09:29:41.111,26873.279,-0.048,0.871,-0.489,0.002,-0.015,-0.003,-0.103,0.017,0.018,-0.097,-1.058,1.346
2024-10-01 09:29:41.231,26873.398,-0.047,0.871,-0.49,-0.001,-0.001,0.0,-0.023,0.015,0.034,-0.097,-1.056,1.349
2024-10-01 09:29:41.351,26873.518,-0.048,0.869,-0.492,-0.002,0.021,-0.0,0.116,-0.034,-0.001,-0.098,-1.054,1.349
2024-10-01 09:29:41.471,26873.638,-0.05,0.867,-0.496,0.0,-0.002,-0.0,-0.025,-0.081,0.051,-0.101,-1.049,1.353
2024-10-01 09:29:41.591,26873.758,-0.049,0.875,-0.481,-0.013,0.004,0.017,-0.063,0.022,-0.041,-0.102,-1.066,1.37
2024-10-01 09:29:41.710,26873.877,-0.039,0.896,-0.443,0.018,0.035,0.011,-0.447,0.092,0.039,-0.089,-1.11,1.365
2024-10-01 09:29:41.830,26873.997,-0.038,0.894,-0.446,-0.003,-0.007,0.004,0.092,-0.03,0.016,-0.086,-1.107,1.369
2024-10-01 09:29:41.950,26874.117,-0.04,0.889,-0.456,-0.003,-0.004,0.001,0.158,0.001,-0.031,-0.089,-1.095,1.37
2024-10-01 09:29:42.070,26874.237,-0.041,0.888,-0.458,0.004,-0.008,-0.004,0.004,-0.005,-0.011,-0.09,-1.092,1.367
2024-10-01 09:29:42.190,26874.357,-0.042,0.885,-0.463,0.003,-0.015,0.004,0.024,0.01,-0.005,-0.091,-1.087,1.364
2024-10-01 09:29:42.309,26874.476,-0.042,0.884,-0.465,0.002,0.0,0.002,0.014,-0.008,0.007,-0.09,-1.085,1.365
2024-10-01 09:29:42.430,26874.596,-0.043,0.882,-0.47,0.003,0.01,0.006,0.1,-0.053,-0.025,-0.092,-1.079,1.364
2024-10-01 09:29:42.549,26874.716,-0.044,0.883,-0.467,0.005,0.054,-0.001,-0.284,-0.203,0.183,-0.094,-1.083,1.375
2024-10-01 09:29:42.669,26874.836,-0.031,0.901,-0.432,-0.024,-0.113,-0.081,-1.069,0.378,0.11,-0.071,-1.123,1.383
2024-10-01 09:29:42.789,26874.956,-0.016,0.916,-0.402,0.005,0.015,0.02,0.382,-0.063,0.165,-0.039,-1.157,1.406
2024-10-01 09:29:42.908,26875.075,0.017,0.891,-0.454,-0.076,0.051,0.028,0.586,-0.092,0.197,0.037,-1.099,1.497
2024-10-01 09:29:43.028,26875.195,0.018,0.888,-0.46,0.072,0.045,-0.118,0.503,-0.169,0.034,0.04,-1.092,1.52
2024-10-01 09:29:43.148,26875.315,0.007,0.877,-0.48,0.008,-0.049,-0.039,-0.24,-0.114,-0.099,0.015,-1.07,1.504
2024-10-01 09:29:43.268,26875.435,-0.006,0.878,-0.479,0.022,0.017,0.013,0.211,-0.042,-0.218,-0.013,-1.071,1.473
2024-10-01 09:29:43.388,26875.555,-0.014,0.87,-0.492,-0.004,0.002,0.002,0.027,0.038,-0.027,-0.029,-1.056,1.455
2024-10-01 09:29:43.508,26875.674,-0.016,0.867,-0.499,-0.007,-0.028,-0.01,-0.021,0.016,-0.001,-0.032,-1.048,1.45
2024-10-01 09:29:43.627,26875.794,-0.018,0.866,-0.5,0.003,-0.013,-0.011,-0.073,0.002,-0.031,-0.035,-1.047,1.445
2024-10-01 09:29:43.747,26875.914,-0.021,0.863,-0.506,0.006,0.003,0.013,0.182,-0.078,-0.038,-0.041,-1.04,1.441
2024-10-01 09:29:43.867,26876.034,-0.028,0.86,-0.509,0.004,-0.021,-0.005,-0.094,-0.171,0.004,-0.054,-1.036,1.439
2024-10-01 09:29:43.987,26876.154,-0.019,0.881,-0.472,-0.021,-0.076,-0.024,-0.68,0.232,0.119,-0.041,-1.079,1.445
2024-10-01 09:29:44.106,26876.273,-0.016,0.884,-0.468,-0.006,0.021,0.003,0.344,-0.049,-0.011,-0.035,-1.084,1.448
2024-10-01 09:29:44.226,26876.393,-0.018,0.88,-0.475,0.004,0.021,0.008,0.131,-0.02,-0.026,-0.037,-1.076,1.448
2024-10-01 09:29:44.346,26876.513,-0.019,0.878,-0.478,0.001,0.004,0.005,0.075,-0.021,-0.009,-0.04,-1.073,1.445
2024-10-01 09:29:44.466,26876.633,-0.02,0.876,-0.481,-0.002,-0.007,-0.004,0.014,0.008,0.005,-0.042,-1.068,1.444
2024-10-01 09:29:44.586,26876.753,-0.02,0.877,-0.48,0.001,-0.008,-0.0,-0.008,0.009,-0.006,-0.042,-1.07,1.444
2024-10-01 09:29:44.705,26876.872,-0.02,0.877,-0.479,0.001,-0.008,-0.001,-0.032,-0.001,-0.006,-0.042,-1.07,1.443
2024-10-01 09:29:44.825,26876.992,-0.02,0.877,-0.481,0.0,-0.006,0.0,0.002,-0.003,0.001,-0.042,-1.069,1.443
2024-10-01 09:29:44.945,26877.112,-0.021,0.876,-0.482,0.001,-0.013,0.001,0.009,-0.008,-0.004,-0.043,-1.067,1.442
2024-10-01 09:29:45.064,26877.232,-0.025,0.871,-0.491,-0.007,-0.101,-0.036,-0.21,-0.071,0.014,-0.05,-1.056,1.44
2024-10-01 09:29:45.185,26877.352,-0.018,0.884,-0.467,-0.023,-0.031,0.018,-0.162,0.161,0.037,-0.038,-1.085,1.458
2024-10-01 09:29:45.304,26877.471,0.011,0.94,-0.342,0.011,0.102,0.029,-0.477,0.149,0.086,0.032,-1.222,1.485
2024-10-01 09:29:45.424,26877.591,0.02,0.931,-0.364,-0.011,-0.008,0.005,0.411,-0.102,0.137,0.054,-1.197,1.514
2024-10-01 09:29:45.544,26877.711,0.035,0.915,-0.403,-0.033,0.057,0.031,0.698,0.003,0.07,0.087,-1.155,1.556
2024-10-01 09:29:45.664,26877.831,0.034,0.894,-0.447,0.042,0.057,-0.138,0.714,-0.107,-0.023,0.077,-1.106,1.563
2024-10-01 09:29:45.784,26877.951,0.02,0.883,-0.469,0.018,0.077,0.029,0.269,-0.121,-0.302,0.043,-1.082,1.543
2024-10-01 09:29:45.904,26878.07,-0.002,0.878,-0.479,0.002,0.044,0.037,0.361,-0.032,-0.1,-0.005,-1.071,1.498
2024-10-01 09:29:46.023,26878.19,-0.01,0.868,-0.497,-0.0,0.016,0.012,0.182,-0.003,-0.038,-0.019,-1.05,1.485
2024-10-01 09:29:46.143,26878.31,-0.013,0.865,-0.501,0.002,0.004,0.0,0.057,-0.026,-0.038,-0.025,-1.045,1.48
2024-10-01 09:29:46.263,26878.43,-0.015,0.863,-0.505,0.002,0.001,0.004,0.039,-0.012,-0.017,-0.03,-1.041,1.474
2024-10-01 09:29:46.383,26878.55,-0.018,0.861,-0.509,-0.001,-0.004,0.003,0.009,0.002,-0.009,-0.035,-1.037,1.47
2024-10-01 09:29:46.502,26878.669,-0.023,0.851,-0.524,-0.002,0.017,0.014,0.151,0.012,0.011,-0.044,-1.018,1.465
2024-10-01 09:29:46.621,26878.789,-0.03,0.862,-0.506,-0.003,0.049,0.022,-0.081,0.031,-0.031,-0.058,-1.039,1.465
2024-10-01 09:29:46.742,26878.909,-0.015,0.891,-0.453,0.009,0.055,0.003,-0.471,0.146,0.032,-0.032,-1.1,1.472
2024-10-01 09:29:46.861,26879.029,-0.019,0.879,-0.477,-0.004,-0.049,-0.021,0.064,-0.037,-0.005,-0.04,-1.074,1.469
2024-10-01 09:29:46.982,26879.149,-0.02,0.876,-0.482,-0.002,-0.004,-0.005,0.023,-0.015,0.003,-0.042,-1.067,1.468
2024-10-01 09:29:47.102,26879.268,-0.02,0.874,-0.486,-0.001,-0.005,-0.008,-0.038,-0.002,-0.004,-0.041,-1.063,1.468
2024-10-01 09:29:47.221,26879.388,-0.021,0.873,-0.487,0.002,0.006,0.006,0.044,-0.012,-0.004,-0.042,-1.062,1.467
2024-10-01 09:29:47.341,26879.508,-0.025,0.871,-0.491,0.004,-0.029,-0.016,-0.281,-0.108,0.031,-0.051,-1.057,1.466
2024-10-01 09:29:47.461,26879.628,-0.005,0.895,-0.446,-0.039,-0.056,-0.083,-1.174,0.467,0.087,-0.012,-1.109,1.49
2024-10-01 09:29:47.581,26879.747,0.016,0.935,-0.355,-0.007,0.025,0.01,-0.113,0.141,0.087,0.046,-1.207,1.521
2024-10-01 09:29:47.700,26879.867,0.031,0.937,-0.347,0.007,0.006,0.009,0.196,-0.057,0.079,0.09,-1.215,1.56
2024-10-01 09:29:47.820,26879.987,0.042,0.915,-0.402,-0.024,0.022,0.023,0.614,-0.079,0.075,0.104,-1.155,1.584
2024-10-01 09:29:47.940,26880.107,0.04,0.91,-0.412,0.03,0.046,-0.123,0.68,-0.496,0.085,0.096,-1.144,1.61
2024-10-01 09:29:48.060,26880.227,0.013,0.889,-0.457,-0.013,-0.029,-0.012,-0.151,-0.067,-0.13,0.028,-1.096,1.574
2024-10-01 09:29:48.179,26880.346,0.006,0.887,-0.462,0.001,-0.011,-0.0,0.132,-0.029,-0.032,0.012,-1.091,1.558
2024-10-01 09:29:48.299,26880.466,0.001,0.882,-0.472,-0.007,-0.005,-0.005,0.089,0.055,-0.039,0.001,-1.079,1.546
2024-10-01 09:29:48.419,26880.586,-0.002,0.878,-0.479,0.002,-0.008,-0.014,0.005,-0.025,-0.028,-0.004,-1.071,1.539
2024-10-01 09:29:48.539,26880.706,-0.004,0.876,-0.482,-0.003,-0.008,0.0,-0.037,0.01,-0.005,-0.008,-1.068,1.535
2024-10-01 09:29:48.659,26880.826,-0.005,0.876,-0.482,0.0,0.006,0.005,0.032,-0.027,-0.002,-0.01,-1.068,1.533
2024-10-01 09:29:48.779,26880.945,-0.01,0.871,-0.492,0.005,-0.047,-0.019,-0.116,-0.082,0.025,-0.019,-1.056,1.531
2024-10-01 09:29:48.899,26881.065,-0.014,0.874,-0.485,-0.009,-0.075,-0.043,-0.408,0.117,0.017,-0.029,-1.064,1.525
2024-10-01 09:29:49.019,26881.185,-0.003,0.899,-0.437,0.025,0.033,0.041,0.066,-0.04,-0.013,-0.007,-1.119,1.529
2024-10-01 09:29:49.138,26881.305,-0.006,0.893,-0.451,-0.0,0.001,0.006,0.042,-0.031,-0.001,-0.013,-1.103,1.527
2024-10-01 09:29:49.258,26881.425,-0.006,0.893,-0.451,-0.0,0.003,0.003,0.023,-0.025,-0.003,-0.014,-1.103,1.527
2024-10-01 09:29:49.377,26881.544,-0.007,0.891,-0.453,0.001,0.001,0.003,0.034,-0.017,-0.003,-0.015,-1.1,1.526
2024-10-01 09:29:49.497,26881.664,-0.008,0.89,-0.455,0.003,0.005,0.01,0.059,-0.017,-0.008,-0.018,-1.098,1.525
2024-10-01 09:29:49.617,26881.784,-0.009,0.887,-0.461,0.0,0.006,0.011,0.136,-0.004,-0.015,-0.02,-1.091,1.523
2024-10-01 09:29:49.737,26881.904,-0.01,0.884,-0.467,0.005,0.008,0.011,0.18,-0.064,-0.009,-0.022,-1.085,1.522
2024-10-01 09:29:49.857,26882.024,-0.007,0.884,-0.468,-0.004,0.069,-0.037,-0.207,0.039,0.183,-0.015,-1.084,1.536
2024-10-01 09:29:49.977,26882.143,0.014,0.922,-0.387,0.025,-0.067,-0.005,-1.595,0.341,0.031,0.036,-1.173,1.549
2024-10-01 09:29:50.096,26882.263,0.02,0.939,-0.343,0.004,0.006,0.007,0.123,-0.032,-0.011,0.059,-1.22,1.562
2024-10-01 09:29:50.216,26882.383,0.016,0.931,-0.363,0.002,-0.001,0.002,0.19,-0.082,-0.029,0.043,-1.198,1.555
2024-10-01 09:29:50.335,26882.503,0.011,0.913,-0.407,-0.009,0.016,0.033,0.733,-0.017,0.062,0.026,-1.151,1.547
2024-10-01 09:29:50.456,26882.623,0.023,0.893,-0.45,0.009,-0.027,-0.015,0.077,-0.035,-0.048,0.052,-1.104,1.577
2024-10-01 09:29:50.576,26882.742,0.006,0.894,-0.449,-0.01,0.023,0.025,0.522,-0.039,-0.022,0.013,-1.105,1.547
2024-10-01 09:29:50.695,26882.862,0.007,0.875,-0.483,0.001,0.025,0.008,0.25,-0.041,0.099,0.015,-1.066,1.553
2024-10-01 09:29:50.815,26882.982,-0.004,0.877,-0.481,0.001,0.018,0.013,0.076,-0.082,-0.054,-0.007,-1.069,1.542
2024-10-01 09:29:50.935,26883.102,-0.006,0.875,-0.485,0.002,-0.004,0.003,0.1,-0.013,-0.02,-0.012,-1.065,1.537
2024-10-01 09:29:51.055,26883.222,-0.007,0.872,-0.489,0.004,0.002,0.007,0.108,-0.055,-0.008,-0.014,-1.06,1.535
2024-10-01 09:29:51.174,26883.341,-0.013,0.865,-0.502,0.017,0.047,0.02,0.051,-0.14,-0.014,-0.025,-1.044,1.535
2024-10-01 09:29:51.295,26883.461,-0.015,0.873,-0.487,-0.002,-0.018,-0.013,-0.42,0.116,0.024,-0.031,-1.061,1.528
2024-10-01 09:29:51.414,26883.581,0.002,0.889,-0.458,0.016,0.016,0.029,0.343,-0.075,0.043,0.005,-1.095,1.553
2024-10-01 09:29:51.534,26883.701,-0.005,0.881,-0.473,0.006,-0.006,0.005,0.005,-0.049,-0.043,-0.012,-1.078,1.544
2024-10-01 09:29:51.654,26883.821,-0.007,0.879,-0.478,-0.004,-0.005,-0.004,-0.015,-0.007,0.002,-0.014,-1.073,1.543
2024-10-01 09:29:51.774,26883.94,-0.007,0.876,-0.481,0.002,0.009,0.009,0.083,-0.013,-0.008,-0.015,-1.068,1.541
2024-10-01 09:29:51.894,26884.06,-0.011,0.87,-0.492,0.007,0.01,0.017,0.358,-0.16,-0.035,-0.023,-1.056,1.538
2024-10-01 09:29:52.013,26884.18,-0.01,0.886,-0.463,-0.01,-0.114,0.005,-0.283,0.176,0.013,-0.021,-1.089,1.544
2024-10-01 09:29:52.133,26884.3,0.007,0.906,-0.424,0.013,0.05,0.044,0.39,-0.041,0.116,0.017,-1.133,1.561
2024-10-01 09:29:52.253,26884.42,0.027,0.884,-0.466,-0.04,-0.019,-0.008,0.071,0.161,0.055,0.058,-1.085,1.592
2024-10-01 09:29:52.373,26884.539,0.033,0.901,-0.432,-0.033,-0.059,-0.017,-0.247,0.013,-0.013,0.076,-1.122,1.613
2024-10-01 09:29:52.493,26884.659,0.036,0.906,-0.423,0.053,-0.043,-0.019,0.229,-0.078,0.034,0.085,-1.133,1.619
2024-10-01 09:29:52.612,26884.779,0.005,0.897,-0.443,-0.014,0.009,-0.039,-0.003,-0.345,-0.304,0.012,-1.112,1.565
2024-10-01 09:29:52.732,26884.899,-0.011,0.887,-0.462,-0.004,-0.013,-0.013,0.189,-0.004,-0.025,-0.023,-1.091,1.542
2024-10-01 09:29:52.852,26885.019,-0.015,0.88,-0.474,-0.001,0.001,-0.001,-0.064,0.033,0.065,-0.033,-1.076,1.534
2024-10-01 09:29:52.972,26885.138,-0.017,0.877,-0.48,-0.003,0.012,0.007,0.034,-0.014,0.005,-0.034,-1.069,1.535
2024-10-01 09:29:53.091,26885.258,-0.017,0.875,-0.483,-0.001,0.005,-0.0,0.03,-0.007,-0.006,-0.036,-1.066,1.532
2024-10-01 09:29:53.211,26885.378,-0.018,0.874,-0.486,-0.0,-0.002,0.004,0.037,-0.044,0.047,-0.037,-1.062,1.531
2024-10-01 09:29:53.331,26885.498,-0.018,0.872,-0.489,0.002,-0.01,-0.004,0.002,-0.006,-0.007,-0.037,-1.06,1.529
2024-10-01 09:29:53.451,26885.618,-0.02,0.871,-0.491,-0.001,-0.004,-0.004,-0.001,-0.02,0.002,-0.042,-1.057,1.527
2024-10-01 09:29:53.571,26885.737,-0.02,0.872,-0.49,-0.003,-0.015,-0.005,-0.048,0.015,0.007,-0.041,-1.058,1.526
2024-10-01 09:29:53.690,26885.857,-0.02,0.872,-0.489,-0.002,-0.015,-0.004,-0.016,-0.019,0.004,-0.041,-1.059,1.526
2024-10-01 09:29:53.810,26885.977,-0.022,0.868,-0.497,-0.004,-0.037,-0.015,-0.022,-0.052,0.021,-0.044,-1.05,1.526
2024-10-01 09:29:53.930,26886.097,-0.026,0.87,-0.493,-0.024,-0.006,0.002,-0.052,0.117,-0.035,-0.053,-1.054,1.525
2024-10-01 09:29:54.049,26886.216,-0.013,0.893,-0.45,0.005,0.036,0.004,-0.371,0.099,0.034,-0.03,-1.104,1.531
2024-10-01 09:29:54.170,26886.336,-0.016,0.884,-0.467,-0.009,-0.04,-0.021,-0.046,0.002,0.004,-0.034,-1.084,1.531
2024-10-01 09:29:54.290,26886.456,-0.017,0.883,-0.469,-0.002,-0.035,-0.018,-0.071,0.008,0.001,-0.036,-1.082,1.53
2024-10-01 09:29:54.409,26886.576,-0.018,0.882,-0.472,-0.003,-0.004,-0.0,0.057,0.0,-0.001,-0.037,-1.079,1.53
2024-10-01 09:29:54.529,26886.696,-0.023,0.874,-0.486,-0.045,-0.141,-0.057,-0.312,-0.07,0.038,-0.046,-1.062,1.529
2024-10-01 09:29:54.648,26886.815,0.006,0.905,-0.426,-0.11,-0.059,-0.095,-1.603,0.986,0.155,0.013,-1.131,1.558
2024-10-01 09:29:54.769,26886.935,0.071,0.977,-0.203,0.063,-0.009,-0.14,0.29,1.013,0.061,0.337,-1.354,1.758
2024-10-01 09:29:54.888,26887.055,0.08,0.942,-0.325,0.084,0.001,0.109,0.848,0.237,-0.185,0.241,-1.23,1.592
2024-10-01 09:29:55.008,26887.175,0.024,0.93,-0.367,0.008,0.074,-0.024,0.252,0.016,-0.036,0.064,-1.194,1.418
2024-10-01 09:29:55.128,26887.295,0.017,0.915,-0.402,-0.073,-0.093,0.068,0.034,-0.124,-0.146,0.043,-1.156,1.404
2024-10-01 09:29:55.248,26887.414,-0.007,0.91,-0.415,-0.036,-0.004,0.237,0.109,0.076,-0.063,-0.017,-1.142,1.362
2024-10-01 09:29:55.367,26887.534,0.01,0.894,-0.447,-0.012,0.237,-0.062,0.506,-0.119,0.48,0.022,-1.107,1.412
2024-10-01 09:29:55.487,26887.654,0.0,0.874,-0.486,0.009,-0.034,-0.017,-0.334,-0.067,-0.202,0.001,-1.063,1.389
2024-10-01 09:29:55.607,26887.774,-0.006,0.863,-0.505,-0.001,-0.031,-0.009,-0.008,0.032,-0.072,-0.011,-1.042,1.384
2024-10-01 09:29:55.727,26887.894,-0.012,0.865,-0.501,-0.001,0.017,0.023,0.207,-0.015,-0.031,-0.024,-1.046,1.367
2024-10-01 09:29:55.847,26888.013,-0.023,0.848,-0.53,-0.022,-0.032,-0.051,-0.292,0.001,0.074,-0.044,-1.012,1.356
2024-10-01 09:29:55.967,26888.133,-0.022,0.866,-0.5,0.015,-0.006,0.004,-0.121,0.013,-0.076,-0.044,-1.046,1.349
2024-10-01 09:29:56.086,26888.253,-0.029,0.852,-0.522,0.016,-0.024,-0.015,-0.315,0.045,0.001,-0.055,-1.02,1.347
2024-10-01 09:29:56.206,26888.373,-0.027,0.853,-0.522,-0.001,-0.001,-0.007,-0.114,-0.002,0.023,-0.051,-1.021,1.354
2024-10-01 09:29:56.326,26888.493,-0.021,0.867,-0.498,0.013,0.002,0.001,-0.136,0.062,-0.034,-0.041,-1.049,1.358
2024-10-01 09:29:56.446,26888.612,-0.027,0.851,-0.525,-0.024,-0.019,-0.044,-0.163,0.018,0.086,-0.051,-1.018,1.356
2024-10-01 09:29:56.565,26888.732,-0.022,0.865,-0.501,0.012,-0.01,0.003,-0.118,-0.021,-0.009,-0.043,-1.046,1.361
2024-10-01 09:29:56.685,26888.852,-0.026,0.855,-0.518,0.012,0.072,0.005,-0.209,0.102,0.015,-0.05,-1.026,1.361
2024-10-01 09:29:56.805,26888.972,-0.005,0.873,-0.488,0.01,-0.012,-0.004,-0.229,-0.053,0.239,-0.011,-1.061,1.4
2024-10-01 09:29:56.925,26889.092,-0.01,0.855,-0.518,-0.007,-0.036,-0.015,-0.068,0.008,-0.04,-0.02,-1.026,1.398
2024-10-01 09:29:57.045,26889.211,-0.015,0.846,-0.533,0.01,0.074,0.032,0.634,-0.136,-0.097,-0.029,-1.008,1.395
2024-10-01 09:29:57.165,26889.331,-0.013,0.851,-0.524,-0.017,0.022,-0.009,-0.114,0.1,0.066,-0.025,-1.019,1.4
2024-10-01 09:29:57.284,26889.451,-0.0,0.868,-0.496,0.005,-0.042,-0.007,-0.232,0.097,0.031,-0.001,-1.052,1.411
2024-10-01 09:29:57.404,26889.571,-0.0,0.874,-0.486,-0.003,0.034,0.022,0.078,-0.017,0.003,-0.001,-1.063,1.407
2024-10-01 09:29:57.524,26889.691,0.016,0.885,-0.465,0.05,0.024,0.013,-0.213,0.266,0.009,0.035,-1.087,1.419
2024-10-01 09:29:57.644,26889.81,0.024,0.898,-0.439,0.002,0.032,0.018,0.11,-0.03,0.004,0.055,-1.116,1.424
2024-10-01 09:29:57.763,26889.93,0.02,0.888,-0.46,-0.003,0.024,0.016,0.392,-0.159,0.078,0.043,-1.093,1.421
2024-10-01 09:29:57.883,26890.05,0.015,0.873,-0.487,0.012,0.022,0.006,0.117,-0.158,-0.078,0.03,-1.062,1.432
2024-10-01 09:29:58.003,26890.17,0.008,0.864,-0.503,0.002,0.008,0.006,0.145,-0.028,-0.058,0.016,-1.044,1.426
2024-10-01 09:29:58.123,26890.29,0.005,0.86,-0.51,0.004,0.018,0.019,0.239,-0.075,-0.051,0.01,-1.036,1.42
2024-10-01 09:29:58.243,26890.409,0.001,0.854,-0.521,-0.001,0.027,0.011,0.134,-0.008,-0.054,0.002,-1.023,1.412
2024-10-01 09:29:58.363,26890.529,-0.005,0.845,-0.535,0.0,0.01,0.005,0.076,-0.048,-0.014,-0.01,-1.007,1.405
2024-10-01 09:29:58.482,26890.649,-0.008,0.848,-0.53,-0.001,0.024,0.008,0.026,0.007,0.028,-0.015,-1.012,1.407
2024-10-01 09:29:58.602,26890.769,-0.006,0.849,-0.528,-0.002,-0.028,-0.02,-0.198,-0.047,0.005,-0.012,-1.015,1.409
2024-10-01 09:29:58.721,26890.889,0.004,0.862,-0.507,0.005,-0.007,-0.015,-0.365,0.28,-0.008,0.007,-1.039,1.412
2024-10-01 09:29:58.842,26891.008,-0.004,0.858,-0.514,0.012,0.047,0.033,0.72,-0.369,-0.083,-0.008,-1.031,1.403
2024-10-01 09:29:58.961,26891.128,0.009,0.866,-0.5,-0.069,-0.09,-0.044,-0.965,0.532,0.35,0.017,-1.048,1.412
2024-10-01 09:29:59.081,26891.248,0.076,0.917,-0.391,-0.056,0.075,0.06,-0.268,-0.305,-0.337,0.192,-1.161,1.545
2024-10-01 09:29:59.201,26891.368,0.086,0.916,-0.392,0.184,0.099,-0.148,0.933,-0.158,0.237,0.216,-1.158,1.598
2024-10-01 09:29:59.321,26891.488,0.085,0.897,-0.435,0.134,0.007,-0.041,0.371,-0.032,-0.116,0.193,-1.112,1.589
2024-10-01 09:29:59.440,26891.607,0.044,0.895,-0.443,-0.064,-0.03,0.025,0.202,-0.546,-0.871,0.1,-1.109,1.516
2024-10-01 09:29:59.560,26891.727,-0.001,0.895,-0.446,-0.0,0.127,0.046,0.433,-0.069,-0.154,-0.002,-1.109,1.431
2024-10-01 09:29:59.680,26891.847,-0.01,0.881,-0.473,-0.008,-0.037,-0.027,-0.123,-0.087,0.192,-0.02,-1.078,1.42
2024-10-01 09:29:59.799,26891.967,0.001,0.871,-0.491,0.022,-0.026,0.002,0.247,-0.025,-0.119,0.002,-1.058,1.447
2024-10-01 09:29:59.919,26892.087,-0.011,0.862,-0.507,0.007,0.027,0.007,0.132,-0.01,-0.152,-0.022,-1.039,1.413
2024-10-01 09:30:00.039,26892.206,-0.023,0.855,-0.519,-0.024,-0.067,-0.04,-0.3,-0.065,0.008,-0.044,-1.025,1.397
2024-10-01 09:30:00.159,26892.326,-0.024,0.869,-0.494,0.033,-0.035,0.002,-0.041,-0.024,-0.017,-0.048,-1.054,1.391
2024-10-01 09:30:00.279,26892.446,-0.024,0.862,-0.506,0.002,-0.013,0.021,-0.047,-0.01,0.005,-0.046,-1.039,1.397
2024-10-01 09:30:00.399,26892.566,-0.021,0.869,-0.494,-0.015,-0.042,-0.015,-0.45,0.01,0.125,-0.043,-1.054,1.406
2024-10-01 09:30:00.519,26892.686,-0.022,0.872,-0.489,0.021,0.052,0.021,0.365,-0.191,-0.045,-0.044,-1.059,1.398
2024-10-01 09:30:00.638,26892.805,-0.025,0.872,-0.489,-0.007,0.046,0.007,-0.17,0.058,0.03,-0.051,-1.059,1.391
2024-10-01 09:30:00.758,26892.925,-0.028,0.865,-0.502,-0.026,0.045,-0.009,-0.193,0.177,0.074,-0.055,-1.045,1.391
2024-10-01 09:30:00.878,26893.045,-0.011,0.873,-0.488,0.01,0.016,0.022,0.236,-0.05,-0.028,-0.022,-1.06,1.421
2024-10-01 09:30:00.998,26893.165,-0.019,0.865,-0.502,0.007,-0.078,-0.023,-0.307,-0.049,0.07,-0.038,-1.045,1.415
2024-10-01 09:30:01.118,26893.284,-0.016,0.867,-0.498,-0.023,0.014,0.012,-0.022,0.12,0.051,-0.033,-1.05,1.417
2024-10-01 09:30:01.237,26893.404,-0.008,0.881,-0.473,0.005,0.04,0.027,0.236,-0.031,0.003,-0.017,-1.078,1.421
2024-10-01 09:30:01.357,26893.524,-0.013,0.874,-0.486,0.021,0.019,0.02,0.289,-0.239,-0.036,-0.027,-1.063,1.418
2024-10-01 09:30:01.477,26893.644,-0.008,0.871,-0.491,-0.032,-0.05,-0.067,-0.942,0.431,0.201,-0.016,-1.058,1.417
2024-10-01 09:30:01.597,26893.764,0.042,0.901,-0.432,0.004,0.082,0.06,0.841,-0.035,0.33,0.097,-1.121,1.513
2024-10-01 09:30:01.716,26893.883,0.043,0.886,-0.463,-0.033,-0.018,-0.05,0.005,-0.36,0.153,0.093,-1.088,1.541
2024-10-01 09:30:01.836,26894.003,0.028,0.875,-0.483,0.029,0.01,-0.012,-0.193,-0.197,-0.285,0.059,-1.066,1.525
2024-10-01 09:30:01.956,26894.123,0.042,0.906,-0.42,-0.047,-0.066,-0.05,-1.362,0.737,0.184,0.099,-1.135,1.528
2024-10-01 09:30:02.076,26894.243,0.074,0.952,-0.298,-0.002,-0.064,0.118,-0.836,0.441,-0.157,0.242,-1.258,1.597
2024-10-01 09:30:02.195,26894.363,0.067,0.96,-0.271,0.015,0.018,0.04,0.617,-0.316,-0.136,0.242,-1.288,1.596
2024-10-01 09:30:02.316,26894.482,0.054,0.945,-0.321,-0.005,0.049,0.036,0.733,-0.282,0.118,0.167,-1.239,1.548
2024-10-01 09:30:02.435,26894.602,0.053,0.895,-0.442,0.005,0.077,0.136,0.766,-0.423,0.285,0.119,-1.109,1.563
2024-10-01 09:30:02.555,26894.722,0.019,0.891,-0.454,-0.035,0.161,-0.005,-0.153,-0.148,-0.252,0.042,-1.099,1.521
2024-10-01 09:30:02.675,26894.842,0.01,0.885,-0.466,-0.015,-0.019,-0.022,0.18,0.004,0.016,0.022,-1.086,1.504
2024-10-01 09:30:02.794,26894.962,0.008,0.884,-0.467,0.008,0.0,-0.008,-0.022,0.02,-0.081,0.016,-1.084,1.494
2024-10-01 09:30:02.914,26895.081,0.0,0.881,-0.473,-0.002,-0.006,-0.006,-0.059,-0.013,-0.026,0.001,-1.079,1.477
2024-10-01 09:30:03.034,26895.201,-0.004,0.873,-0.488,0.013,0.039,0.023,0.425,-0.077,-0.008,-0.008,-1.061,1.472
2024-10-01 09:30:03.154,26895.321,0.003,0.88,-0.475,-0.017,0.049,0.006,-0.076,0.243,-0.026,0.007,-1.076,1.48
2024-10-01 09:30:03.274,26895.441,-0.003,0.87,-0.493,-0.029,-0.082,-0.067,-0.18,-0.017,0.024,-0.006,-1.056,1.473
2024-10-01 09:30:03.393,26895.561,0.0,0.871,-0.491,-0.002,-0.028,-0.019,-0.095,-0.014,-0.003,0.001,-1.058,1.476
2024-10-01 09:30:03.513,26895.68,0.005,0.883,-0.47,-0.005,-0.028,-0.006,-0.006,0.114,0.013,0.011,-1.082,1.48
2024-10-01 09:30:03.633,26895.8,0.003,0.876,-0.482,0.007,0.023,0.016,0.405,-0.152,-0.046,0.006,-1.068,1.475
2024-10-01 09:30:03.753,26895.92,0.003,0.878,-0.478,-0.004,0.041,0.025,-0.093,0.144,0.029,0.006,-1.073,1.476
2024-10-01 09:30:03.873,26896.04,0.004,0.878,-0.479,0.01,0.01,0.011,0.324,-0.155,-0.025,0.008,-1.071,1.477
2024-10-01 09:30:03.994,26896.16,0.005,0.879,-0.477,-0.005,-0.053,0.008,-0.204,0.174,0.068,0.01,-1.073,1.48
2024-10-01 09:30:04.113,26896.279,0.018,0.884,-0.468,0.006,0.165,0.065,0.69,-0.113,-0.072,0.038,-1.083,1.506
2024-10-01 09:30:04.232,26896.399,0.009,0.878,-0.478,0.002,0.016,0.012,0.058,0.01,0.01,0.02,-1.072,1.492
2024-10-01 09:30:04.352,26896.519,0.007,0.875,-0.483,-0.004,-0.01,-0.009,-0.075,-0.01,-0.007,0.015,-1.066,1.489
2024-10-01 09:30:04.472,26896.639,0.003,0.876,-0.482,0.01,0.017,0.004,-0.057,-0.046,0.053,0.007,-1.068,1.489
2024-10-01 09:30:04.592,26896.759,0.007,0.875,-0.485,-0.01,-0.022,-0.007,0.037,0.209,0.075,0.014,-1.065,1.49
2024-10-01 09:30:04.711,26896.878,0.021,0.884,-0.467,0.008,0.01,0.016,0.329,-0.103,-0.039,0.046,-1.084,1.503
2024-10-01 09:30:04.831,26896.998,0.008,0.87,-0.493,-0.049,-0.057,-0.032,0.051,0.1,0.059,0.016,-1.055,1.488
2024-10-01 09:30:04.951,26897.118,0.04,0.898,-0.438,-0.028,0.035,-0.019,-0.59,0.175,0.328,0.092,-1.116,1.538
2024-10-01 09:30:05.071,26897.238,0.059,0.889,-0.454,-0.093,-0.135,0.117,-0.397,-0.198,0.136,0.128,-1.096,1.574
2024-10-01 09:30:05.191,26897.358,0.047,0.874,-0.484,0.138,-0.048,-0.151,0.235,-0.311,-0.222,0.097,-1.064,1.574
2024-10-01 09:30:05.310,26897.477,0.014,0.891,-0.454,-0.022,0.027,0.02,-0.231,-0.051,-0.233,0.031,-1.099,1.522
2024-10-01 09:30:05.430,26897.597,0.004,0.891,-0.454,0.006,-0.012,-0.012,0.158,0.018,-0.014,0.009,-1.1,1.498
2024-10-01 09:30:05.550,26897.717,0.001,0.887,-0.461,-0.004,-0.009,0.006,0.179,-0.022,-0.04,0.003,-1.092,1.491
2024-10-01 09:30:05.670,26897.837,0.001,0.885,-0.465,-0.026,-0.033,-0.006,-0.334,0.065,0.007,0.003,-1.087,1.495
2024-10-01 09:30:05.790,26897.957,0.003,0.885,-0.466,0.016,0.051,0.032,0.511,-0.195,-0.031,0.007,-1.086,1.49
2024-10-01 09:30:05.909,26898.076,0.003,0.878,-0.479,-0.001,0.005,0.031,0.091,-0.006,0.008,0.007,-1.072,1.491
2024-10-01 09:30:06.029,26898.196,0.005,0.885,-0.465,-0.014,0.003,0.009,-0.18,0.096,-0.0,0.012,-1.087,1.494
2024-10-01 09:30:06.149,26898.316,0.008,0.889,-0.458,0.004,-0.0,0.005,0.166,-0.044,-0.013,0.017,-1.095,1.491
2024-10-01 09:30:06.269,26898.436,0.006,0.887,-0.462,0.006,-0.0,0.004,-0.013,-0.006,-0.007,0.014,-1.09,1.489
2024-10-01 09:30:06.388,26898.556,0.006,0.886,-0.463,-0.002,0.0,-0.002,-0.025,-0.006,0.013,0.013,-1.089,1.49
2024-10-01 09:30:06.508,26898.675,0.008,0.89,-0.456,-0.001,-0.002,-0.0,-0.013,0.027,-0.004,0.018,-1.097,1.492
2024-10-01 09:30:06.628,26898.795,0.004,0.883,-0.469,0.005,0.02,0.007,0.202,-0.083,-0.025,0.009,-1.083,1.487
2024-10-01 09:30:06.748,26898.915,0.002,0.88,-0.475,-0.027,-0.016,0.023,-0.21,0.095,0.005,0.005,-1.076,1.489
2024-10-01 09:30:06.868,26899.035,0.004,0.884,-0.467,0.014,0.049,0.028,0.33,-0.176,-0.04,0.008,-1.085,1.489
2024-10-01 09:30:06.987,26899.155,0.006,0.881,-0.473,-0.009,0.009,0.025,0.001,0.132,0.107,0.014,-1.079,1.495
2024-10-01 09:30:07.107,26899.274,0.011,0.881,-0.472,0.017,-0.015,0.005,0.417,-0.16,-0.08,0.023,-1.079,1.508
2024-10-01 09:30:07.227,26899.394,0.008,0.881,-0.472,0.005,0.027,0.031,0.176,0.003,-0.001,0.017,-1.079,1.504
2024-10-01 09:30:07.347,26899.514,0.002,0.877,-0.481,-0.001,-0.024,-0.021,-0.252,-0.073,0.004,0.004,-1.069,1.497
2024-10-01 09:30:07.467,26899.634,0.003,0.878,-0.478,-0.003,-0.019,-0.008,-0.018,0.051,-0.04,0.007,-1.072,1.499
2024-10-01 09:30:07.587,26899.754,0.014,0.891,-0.454,0.003,0.02,0.006,-0.289,0.076,0.022,0.032,-1.099,1.507
2024-10-01 09:30:07.707,26899.873,0.006,0.875,-0.484,-0.005,0.051,0.038,0.346,0.014,-0.02,0.012,-1.065,1.501
2024-10-01 09:30:07.826,26899.993,0.032,0.896,-0.443,-0.034,0.025,-0.002,-0.583,0.381,0.374,0.071,-1.111,1.531
2024-10-01 09:30:07.946,26900.113,0.057,0.893,-0.446,-0.003,-0.014,0.324,-0.165,-0.278,0.044,0.126,-1.104,1.59
2024-10-01 09:30:08.065,26900.233,0.038,0.879,-0.476,0.018,-0.125,-0.039,-0.49,-0.326,-0.309,0.08,-1.073,1.57
2024-10-01 09:30:08.186,26900.352,0.008,0.891,-0.454,-0.017,-0.002,-0.012,-0.125,0.013,0.003,0.017,-1.099,1.519
2024-10-01 09:30:08.305,26900.472,0.01,0.895,-0.447,-0.001,0.005,-0.003,-0.091,-0.023,0.011,0.022,-1.108,1.523
2024-10-01 09:30:08.425,26900.592,0.009,0.894,-0.447,-0.001,-0.005,-0.002,0.024,-0.023,-0.024,0.019,-1.107,1.523
2024-10-01 09:30:08.545,26900.712,0.006,0.892,-0.451,-0.004,-0.025,-0.013,-0.07,0.003,-0.0,0.013,-1.103,1.516
2024-10-01 09:30:08.665,26900.832,0.005,0.892,-0.452,0.007,0.004,-0.0,0.039,-0.032,0.008,0.011,-1.102,1.515
2024-10-01 09:30:08.784,26900.951,0.005,0.892,-0.453,0.002,-0.003,0.005,0.024,-0.01,0.003,0.011,-1.101,1.515
2024-10-01 09:30:08.904,26901.071,0.004,0.893,-0.449,-0.005,-0.034,-0.023,-0.121,0.034,0.001,0.009,-1.105,1.514
2024-10-01 09:30:09.024,26901.191,0.005,0.891,-0.454,-0.001,-0.014,-0.006,0.006,0.002,-0.006,0.012,-1.1,1.514
2024-10-01 09:30:09.144,26901.311,0.003,0.891,-0.453,-0.001,-0.01,-0.009,-0.008,-0.017,-0.023,0.008,-1.1,1.509
2024-10-01 09:30:09.263,26901.431,0.0,0.883,-0.47,-0.021,-0.058,-0.06,-0.204,-0.033,0.065,0.0,-1.081,1.508
2024-10-01 09:30:09.384,26901.55,0.003,0.889,-0.457,0.009,0.036,0.021,0.223,-0.064,-0.017,0.007,-1.096,1.509
2024-10-01 09:30:09.503,26901.67,0.005,0.883,-0.469,0.005,0.026,0.029,0.048,-0.021,0.02,0.011,-1.082,1.514
2024-10-01 09:30:09.623,26901.79,0.007,0.886,-0.464,-0.014,0.008,-0.018,-0.121,0.167,-0.003,0.015,-1.088,1.513
2024-10-01 09:30:09.743,26901.91,0.002,0.877,-0.481,0.005,0.055,0.008,0.089,-0.077,0.018,0.005,-1.069,1.508
2024-10-01 09:30:09.863,26902.03,0.007,0.886,-0.463,0.004,0.006,-0.002,-0.002,0.019,-0.004,0.015,-1.089,1.513
2024-10-01 09:30:09.983,26902.149,0.004,0.88,-0.476,-0.011,-0.027,-0.024,-0.174,0.082,0.014,0.009,-1.075,1.512
2024-10-01 09:30:10.102,26902.269,0.013,0.891,-0.455,0.013,-0.022,0.008,0.059,-0.1,0.05,0.029,-1.099,1.527
2024-10-01 09:30:10.222,26902.389,0.008,0.884,-0.467,0.001,0.017,0.006,-0.028,-0.007,0.017,0.018,-1.085,1.521
2024-10-01 09:30:10.342,26902.509,0.004,0.883,-0.47,0.0,0.023,0.001,-0.123,-0.033,0.132,0.009,-1.082,1.523
2024-10-01 09:30:10.461,26902.629,0.007,0.881,-0.474,0.004,0.006,-0.015,-0.029,0.103,-0.007,0.015,-1.077,1.524
2024-10-01 09:30:10.581,26902.748,0.014,0.889,-0.457,0.006,0.027,0.02,0.307,-0.11,-0.005,0.032,-1.096,1.53
2024-10-01 09:30:10.701,26902.868,0.011,0.879,-0.476,-0.024,-0.068,-0.017,-0.365,0.283,-0.001,0.023,-1.075,1.528
2024-10-01 09:30:10.821,26902.988,0.053,0.918,-0.393,-0.057,0.065,0.049,-0.301,0.306,0.201,0.134,-1.163,1.593
2024-10-01 09:30:10.941,26903.108,0.069,0.907,-0.415,-0.072,-0.034,0.082,0.181,-0.299,-0.082,0.164,-1.137,1.623
2024-10-01 09:30:11.061,26903.228,0.063,0.888,-0.455,0.143,-0.068,-0.066,0.214,-0.079,0.053,0.137,-1.094,1.616
2024-10-01 09:30:11.180,26903.347,0.045,0.883,-0.467,-0.024,0.002,0.031,0.071,-0.181,-0.168,0.095,-1.082,1.594
2024-10-01 09:30:11.300,26903.467,0.035,0.878,-0.477,-0.004,-0.051,-0.032,-0.332,-0.036,-0.023,0.072,-1.072,1.581
2024-10-01 09:30:11.420,26903.587,0.015,0.892,-0.452,-0.006,0.008,0.002,-0.16,-0.097,-0.071,0.034,-1.101,1.55
2024-10-01 09:30:11.540,26903.707,0.01,0.895,-0.445,0.005,0.011,0.005,-0.004,-0.009,-0.03,0.022,-1.109,1.54
2024-10-01 09:30:11.659,26903.827,0.007,0.893,-0.45,-0.005,0.013,0.01,0.084,-0.004,-0.03,0.015,-1.104,1.533
2024-10-01 09:30:11.779,26903.946,0.005,0.89,-0.455,-0.004,-0.016,-0.014,-0.032,-0.004,0.004,0.01,-1.098,1.528
2024-10-01 09:30:11.899,26904.066,0.005,0.889,-0.458,-0.001,-0.009,-0.01,-0.038,0.014,0.002,0.012,-1.095,1.529
2024-10-01 09:30:12.019,26904.186,0.005,0.887,-0.462,-0.004,-0.009,-0.003,0.005,0.008,0.002,0.011,-1.091,1.528
2024-10-01 09:30:12.139,26904.306,0.007,0.894,-0.447,0.005,-0.012,0.004,0.122,-0.049,-0.008,0.016,-1.107,1.535
2024-10-01 09:30:12.258,26904.426,0.003,0.892,-0.452,-0.0,0.007,0.003,0.02,-0.001,-0.015,0.007,-1.102,1.528
2024-10-01 09:30:12.378,26904.545,0.0,0.89,-0.456,-0.001,-0.013,0.007,0.132,0.017,-0.046,0.001,-1.097,1.521
2024-10-01 09:30:12.498,26904.665,-0.001,0.889,-0.458,0.003,0.012,0.011,0.117,0.012,-0.045,-0.003,-1.095,1.513
2024-10-01 09:30:12.618,26904.785,-0.007,0.879,-0.477,-0.024,-0.075,-0.046,-0.227,0.012,-0.039,-0.016,-1.074,1.509
2024-10-01 09:30:12.738,26904.905,-0.007,0.882,-0.471,0.024,0.05,0.049,0.691,-0.219,-0.048,-0.014,-1.081,1.507
2024-10-01 09:30:12.858,26905.025,-0.004,0.878,-0.479,0.008,0.008,0.012,0.055,-0.011,0.038,-0.009,-1.071,1.513
2024-10-01 09:30:12.977,26905.144,0.001,0.884,-0.468,0.005,-0.037,-0.015,-0.134,0.024,-0.021,0.003,-1.084,1.514
2024-10-01 09:30:13.097,26905.264,-0.004,0.876,-0.483,-0.008,-0.065,-0.03,-0.365,0.106,0.006,-0.009,-1.067,1.511
2024-10-01 09:30:13.217,26905.384,-0.005,0.876,-0.482,0.004,0.017,0.022,0.13,-0.02,0.022,-0.011,-1.068,1.51
2024-10-01 09:30:13.338,26905.504,0.0,0.883,-0.47,0.009,0.006,0.012,0.115,-0.025,-0.015,0.0,-1.081,1.515
2024-10-01 09:30:13.457,26905.624,-0.003,0.876,-0.482,0.009,0.041,0.015,-0.036,-0.05,0.033,-0.006,-1.067,1.519
2024-10-01 09:30:13.576,26905.743,0.004,0.88,-0.474,-0.014,-0.017,-0.034,-0.472,0.165,0.085,0.009,-1.077,1.523
2024-10-01 09:30:13.696,26905.863,0.008,0.885,-0.466,-0.002,-0.023,-0.01,-0.005,-0.024,0.002,0.016,-1.086,1.529
2024-10-01 09:30:13.816,26905.983,0.002,0.88,-0.475,0.018,0.03,0.03,0.489,-0.231,-0.063,0.005,-1.076,1.525
2024-10-01 09:30:13.936,26906.103,0.012,0.888,-0.46,-0.038,-0.023,-0.071,-1.053,0.417,0.069,0.025,-1.092,1.528
2024-10-01 09:30:14.056,26906.223,0.038,0.935,-0.354,0.012,0.036,0.019,-0.193,0.128,0.034,0.108,-1.207,1.572
2024-10-01 09:30:14.175,26906.342,0.041,0.936,-0.349,-0.005,0.003,-0.005,-0.094,-0.025,-0.013,0.117,-1.212,1.582
2024-10-01 09:30:14.295,26906.462,0.041,0.942,-0.333,-0.007,-0.021,-0.03,-0.185,0.024,0.003,0.123,-1.228,1.593
2024-10-01 09:30:14.415,26906.582,0.049,0.953,-0.298,0.008,-0.003,-0.035,-0.451,0.139,0.094,0.163,-1.264,1.625
2024-10-01 09:30:14.535,26906.702,0.065,0.952,-0.299,0.088,0.013,-0.086,1.088,0.464,-0.028,0.215,-1.26,1.651
2024-10-01 09:30:14.655,26906.822,0.053,0.939,-0.339,-0.027,-0.023,0.153,0.778,-0.181,-0.399,0.156,-1.22,1.547
2024-10-01 09:30:14.774,26906.941,0.033,0.904,-0.427,-0.055,0.065,-0.034,0.67,-0.096,0.25,0.077,-1.128,1.497
2024-10-01 09:30:14.894,26907.061,0.035,0.887,-0.46,-0.042,-0.05,0.025,-0.193,-0.068,-0.085,0.076,-1.091,1.508
2024-10-01 09:30:15.014,26907.181,0.021,0.907,-0.421,-0.064,0.041,-0.06,0.217,-0.216,-0.125,0.05,-1.136,1.495
2024-10-01 09:30:15.134,26907.301,0.002,0.91,-0.414,0.022,0.197,-0.055,-0.023,0.05,-0.039,0.004,-1.144,1.455
2024-10-01 09:30:15.253,26907.421,-0.007,0.887,-0.462,-0.034,-0.052,0.001,0.173,-0.099,-0.01,-0.015,-1.09,1.438
2024-10-01 09:30:15.373,26907.54,0.001,0.879,-0.477,0.042,0.074,0.009,0.175,0.055,-0.084,0.003,-1.073,1.456
2024-10-01 09:30:15.493,26907.66,-0.009,0.872,-0.49,0.003,0.007,0.002,0.298,0.074,-0.014,-0.019,-1.058,1.424
2024-10-01 09:30:15.613,26907.78,-0.01,0.867,-0.499,0.006,-0.002,0.01,0.149,0.02,-0.049,-0.02,-1.049,1.413
2024-10-01 09:30:15.733,26907.9,-0.012,0.864,-0.503,0.003,0.0,0.002,0.103,-0.022,-0.016,-0.024,-1.043,1.406
2024-10-01 09:30:15.852,26908.02,-0.02,0.853,-0.522,0.024,-0.0,-0.009,-0.18,-0.113,0.027,-0.038,-1.021,1.402
2024-10-01 09:30:15.972,26908.139,-0.008,0.882,-0.472,0.028,0.053,0.018,-0.166,-0.024,-0.016,-0.016,-1.079,1.406
2024-10-01 09:30:16.092,26908.259,-0.015,0.852,-0.523,-0.003,0.01,-0.001,0.143,0.007,-0.058,-0.029,-1.021,1.409
2024-10-01 09:30:16.211,26908.379,-0.016,0.855,-0.519,0.0,-0.009,0.007,0.135,-0.008,-0.023,-0.031,-1.025,1.41
2024-10-01 09:30:16.331,26908.499,-0.012,0.86,-0.511,-0.02,-0.034,0.0,-0.134,0.068,0.15,-0.024,-1.035,1.419
2024-10-01 09:30:16.451,26908.618,-0.004,0.874,-0.485,0.014,0.045,0.034,0.262,-0.035,-0.008,-0.008,-1.064,1.427
2024-10-01 09:30:16.571,26908.738,-0.004,0.869,-0.495,0.0,0.007,0.009,0.07,-0.025,0.027,-0.008,-1.053,1.428
2024-10-01 09:30:16.691,26908.858,-0.004,0.867,-0.498,-0.0,-0.004,-0.009,-0.068,0.017,-0.007,-0.009,-1.05,1.429
2024-10-01 09:30:16.810,26908.978,-0.005,0.867,-0.498,0.001,0.008,0.003,0.046,-0.009,-0.001,-0.01,-1.049,1.429
2024-10-01 09:30:16.931,26909.098,-0.008,0.861,-0.508,0.004,0.021,0.019,0.341,-0.136,-0.019,-0.015,-1.038,1.429
2024-10-01 09:30:17.051,26909.217,-0.011,0.857,-0.515,-0.003,-0.002,0.005,-0.021,0.053,0.002,-0.021,-1.03,1.426
2024-10-01 09:30:17.170,26909.337,-0.008,0.864,-0.503,-0.001,0.05,-0.008,-0.135,-0.035,0.092,-0.017,-1.044,1.435
2024-10-01 09:30:17.290,26909.457,-0.003,0.866,-0.499,0.009,-0.026,-0.03,-0.486,0.175,0.026,-0.006,-1.048,1.432
2024-10-01 09:30:17.410,26909.577,0.035,0.901,-0.431,-0.006,0.121,0.08,0.51,0.097,0.366,0.081,-1.123,1.505
2024-10-01 09:30:17.529,26909.697,0.02,0.891,-0.453,0.032,-0.105,-0.038,0.122,-0.502,-0.274,0.043,-1.1,1.5
2024-10-01 09:30:17.649,26909.816,-0.002,0.878,-0.48,-0.018,-0.036,-0.01,-0.034,-0.087,-0.17,-0.005,-1.071,1.475
2024-10-01 09:30:17.769,26909.936,-0.007,0.87,-0.493,-0.005,0.003,0.012,0.207,0.06,-0.011,-0.014,-1.055,1.462
2024-10-01 09:30:17.889,26910.056,-0.01,0.862,-0.507,-0.003,-0.007,-0.003,0.061,0.042,-0.03,-0.02,-1.039,1.451
2024-10-01 09:30:18.009,26910.176,-0.014,0.862,-0.507,0.007,0.022,0.014,0.119,-0.027,-0.065,-0.029,-1.038,1.437
2024-10-01 09:30:18.129,26910.296,-0.018,0.859,-0.511,-0.037,-0.024,-0.001,-0.365,0.144,-0.029,-0.036,-1.034,1.438
2024-10-01 09:30:18.248,26910.415,-0.012,0.869,-0.495,0.006,0.051,0.032,0.191,-0.048,-0.015,-0.025,-1.053,1.437
2024-10-01 09:30:18.369,26910.535,-0.02,0.857,-0.515,-0.014,0.091,0.006,-0.117,0.033,0.043,-0.038,-1.029,1.44
2024-10-01 09:30:18.488,26910.655,-0.02,0.858,-0.513,-0.016,0.035,0.027,-0.029,0.122,0.017,-0.038,-1.031,1.44
2024-10-01 09:30:18.608,26910.775,-0.01,0.876,-0.483,0.007,0.039,0.025,0.002,0.009,0.014,-0.02,-1.067,1.447
2024-10-01 09:30:18.728,26910.895,-0.014,0.867,-0.499,0.006,0.009,0.012,0.387,-0.164,-0.015,-0.027,-1.048,1.446
2024-10-01 09:30:18.848,26911.014,-0.017,0.859,-0.512,0.01,-0.04,-0.015,-0.173,0.026,0.049,-0.032,-1.033,1.448
2024-10-01 09:30:18.967,26911.134,-0.012,0.863,-0.505,-0.036,-0.02,-0.001,0.031,0.139,0.027,-0.023,-1.041,1.458
2024-10-01 09:30:19.087,26911.254,0.018,0.887,-0.462,0.004,0.052,0.015,-0.574,0.135,0.34,0.04,-1.091,1.487
2024-10-01 09:30:19.207,26911.374,0.034,0.88,-0.474,-0.146,0.113,0.125,-0.357,-0.195,0.105,0.071,-1.075,1.54
2024-10-01 09:30:19.327,26911.494,0.028,0.882,-0.47,0.128,0.124,-0.099,0.145,-0.107,-0.034,0.059,-1.081,1.552
2024-10-01 09:30:19.446,26911.613,0.012,0.87,-0.493,-0.012,-0.004,-0.004,0.255,-0.033,0.012,0.024,-1.055,1.53
2024-10-01 09:30:19.566,26911.733,0.01,0.869,-0.495,0.005,0.01,0.003,0.008,-0.047,-0.05,0.02,-1.053,1.525
2024-10-01 09:30:19.686,26911.853,0.008,0.867,-0.499,0.003,0.006,0.008,0.047,-0.005,-0.019,0.016,-1.049,1.517
2024-10-01 09:30:19.806,26911.973,0.006,0.865,-0.502,-0.006,-0.008,-0.001,0.052,0.008,-0.008,0.013,-1.045,1.512
2024-10-01 09:30:19.926,26912.093,0.004,0.863,-0.504,0.005,0.014,0.008,0.098,-0.015,-0.03,0.008,-1.042,1.504
2024-10-01 09:30:20.045,26912.212,-0.003,0.857,-0.516,0.013,0.007,-0.011,-0.215,-0.11,0.032,-0.005,-1.029,1.499
2024-10-01 09:30:20.165,26912.332,0.0,0.857,-0.515,-0.009,0.033,0.016,0.167,0.183,-0.019,0.001,-1.029,1.5
2024-10-01 09:30:20.285,26912.452,0.006,0.87,-0.494,0.01,0.035,0.03,0.272,-0.104,-0.027,0.012,-1.054,1.503
2024-10-01 09:30:20.405,26912.572,-0.002,0.859,-0.512,0.011,0.029,0.015,0.279,-0.149,-0.043,-0.003,-1.034,1.497
2024-10-01 09:30:20.525,26912.692,-0.003,0.858,-0.514,0.007,0.034,0.014,0.075,0.01,0.001,-0.006,-1.031,1.497
2024-10-01 09:30:20.644,26912.811,-0.003,0.858,-0.514,-0.0,-0.001,-0.001,-0.247,0.06,0.007,-0.006,-1.031,1.496
2024-10-01 09:30:20.764,26912.931,0.006,0.875,-0.484,0.004,0.021,0.009,-0.052,0.01,0.008,0.013,-1.066,1.506
2024-10-01 09:30:20.884,26913.051,0.001,0.866,-0.499,-0.001,-0.039,-0.017,-0.043,-0.023,-0.0,0.002,-1.048,1.502
2024-10-01 09:30:21.004,26913.171,0.0,0.866,-0.5,0.002,0.0,0.0,-0.005,-0.001,-0.004,0.0,-1.047,1.502
2024-10-01 09:30:21.123,26913.291,-0.0,0.865,-0.502,-0.001,-0.007,-0.004,-0.02,-0.003,0.003,-0.0,-1.045,1.502
2024-10-01 09:30:21.243,26913.41,-0.004,0.859,-0.513,-0.006,-0.008,-0.018,0.004,-0.038,-0.015,-0.008,-1.032,1.5
2024-10-01 09:30:21.363,26913.53,-0.005,0.859,-0.512,-0.012,-0.032,-0.01,-0.141,0.056,0.027,-0.01,-1.033,1.501
2024-10-01 09:30:21.483,26913.65,-0.002,0.864,-0.503,0.003,-0.018,-0.028,-0.101,-0.01,0.05,-0.004,-1.044,1.508
2024-10-01 09:30:21.603,26913.77,0.007,0.868,-0.496,-0.0,-0.051,-0.023,-0.519,0.22,0.074,0.015,-1.052,1.515
2024-10-01 09:30:21.723,26913.89,0.039,0.898,-0.439,-0.042,0.133,0.069,0.199,0.085,0.186,0.089,-1.115,1.57
2024-10-01 09:30:21.842,26914.009,0.039,0.89,-0.454,0.055,-0.057,-0.037,0.465,-0.278,-0.028,0.086,-1.097,1.596
2024-10-01 09:30:21.962,26914.129,0.018,0.878,-0.478,-0.021,-0.014,0.011,0.063,-0.076,-0.12,0.037,-1.072,1.565
2024-10-01 09:30:22.081,26914.249,0.013,0.872,-0.489,0.005,-0.014,-0.003,0.064,-0.004,-0.025,0.027,-1.059,1.555
2024-10-01 09:30:22.201,26914.369,0.01,0.866,-0.499,-0.003,-0.022,-0.017,-0.091,0.028,-0.002,0.02,-1.048,1.548
2024-10-01 09:30:22.322,26914.489,0.004,0.858,-0.514,-0.0,0.032,0.004,0.119,-0.055,-0.011,0.007,-1.031,1.541
2024-10-01 09:30:22.441,26914.608,0.007,0.864,-0.503,-0.008,-0.015,-0.003,-0.129,0.148,-0.012,0.014,-1.044,1.547
2024-10-01 09:30:22.561,26914.728,0.012,0.873,-0.487,0.006,0.026,0.025,0.273,-0.069,-0.042,0.024,-1.062,1.548
2024-10-01 09:30:22.682,26914.848,0.009,0.868,-0.496,0.003,-0.01,-0.003,0.008,-0.01,0.005,0.018,-1.051,1.545
2024-10-01 09:30:22.801,26914.968,0.008,0.866,-0.499,0.0,-0.008,0.003,0.027,-0.019,-0.002,0.015,-1.048,1.544
2024-10-01 09:30:22.921,26915.088,0.004,0.861,-0.508,-0.005,0.013,-0.016,-0.236,0.005,0.032,0.008,-1.037,1.542
2024-10-01 09:30:23.040,26915.207,0.006,0.862,-0.507,-0.001,-0.008,-0.013,0.012,-0.024,-0.005,0.012,-1.039,1.544
2024-10-01 09:30:23.160,26915.327,0.008,0.868,-0.496,-0.001,0.003,-0.028,-0.256,0.129,0.013,0.016,-1.052,1.544
2024-10-01 09:30:23.280,26915.447,0.01,0.872,-0.49,-0.002,-0.01,-0.003,0.18,-0.059,-0.011,0.019,-1.059,1.545
2024-10-01 09:30:23.400,26915.567,0.008,0.868,-0.496,0.0,-0.012,-0.001,-0.022,0.004,-0.004,0.016,-1.052,1.543
2024-10-01 09:30:23.520,26915.687,0.007,0.868,-0.497,0.002,-0.004,0.0,0.012,-0.03,0.005,0.014,-1.051,1.543
2024-10-01 09:30:23.639,26915.806,0.004,0.863,-0.505,-0.02,-0.06,-0.02,-0.074,-0.016,0.01,0.008,-1.042,1.544
2024-10-01 09:30:23.759,26915.926,0.006,0.866,-0.5,0.005,-0.0,0.009,0.01,0.006,0.002,0.012,-1.048,1.543
2024-10-01 09:30:23.879,26916.046,0.006,0.867,-0.499,0.004,-0.004,-0.01,-0.008,0.0,0.036,0.011,-1.049,1.544
2024-10-01 09:30:23.999,26916.166,0.013,0.878,-0.478,-0.037,-0.066,-0.072,-0.796,0.293,0.038,0.026,-1.073,1.543
2024-10-01 09:30:24.119,26916.286,0.037,0.916,-0.399,-0.019,0.032,0.011,-0.093,0.21,0.108,0.092,-1.159,1.579
2024-10-01 09:30:24.238,26916.405,0.058,0.9,-0.431,-0.061,-0.054,0.064,-0.024,0.069,0.221,0.135,-1.121,1.611
2024-10-01 09:30:24.358,26916.525,0.065,0.9,-0.43,0.034,-0.031,0.054,0.135,-0.366,0.004,0.15,-1.121,1.643
2024-10-01 09:30:24.478,26916.645,0.026,0.875,-0.483,0.069,-0.057,-0.161,0.733,-0.395,-0.366,0.055,-1.066,1.594
2024-10-01 09:30:24.597,26916.765,0.012,0.885,-0.465,0.001,-0.022,-0.048,-0.252,0.174,-0.021,0.027,-1.087,1.562
2024-10-01 09:30:24.718,26916.884,0.016,0.881,-0.473,-0.059,-0.001,0.012,0.244,-0.127,-0.022,0.034,-1.078,1.562
2024-10-01 09:30:24.837,26917.004,0.012,0.874,-0.485,0.003,0.009,0.017,0.154,-0.019,-0.028,0.024,-1.064,1.556
2024-10-01 09:30:24.957,26917.124,0.01,0.869,-0.495,0.01,-0.014,0.028,0.095,0.008,-0.011,0.021,-1.053,1.549
2024-10-01 09:30:25.077,26917.244,0.011,0.866,-0.5,-0.007,0.006,0.002,0.044,0.054,-0.005,0.021,-1.047,1.546
2024-10-01 09:30:25.196,26917.364,0.009,0.861,-0.508,0.009,0.006,0.011,0.264,-0.112,-0.003,0.018,-1.038,1.542
2024-10-01 09:30:25.316,26917.483,0.008,0.865,-0.502,-0.01,-0.065,0.024,-0.207,0.097,-0.029,0.015,-1.044,1.545
2024-10-01 09:30:25.436,26917.603,0.016,0.884,-0.468,0.033,0.05,0.047,0.121,-0.084,0.023,0.034,-1.084,1.549
2024-10-01 09:30:25.556,26917.723,0.011,0.871,-0.491,-0.007,-0.023,-0.004,-0.022,-0.003,0.003,0.023,-1.057,1.549
2024-10-01 09:30:25.675,26917.843,0.009,0.868,-0.497,0.005,0.015,0.006,0.218,-0.137,-0.012,0.018,-1.051,1.548
2024-10-01 09:30:25.795,26917.963,0.009,0.867,-0.498,0.01,0.005,0.002,0.041,0.005,0.021,0.019,-1.049,1.552
2024-10-01 09:30:25.915,26918.082,0.009,0.868,-0.497,0.003,0.002,0.029,-0.146,0.043,-0.019,0.017,-1.05,1.551
2024-10-01 09:30:26.035,26918.202,0.014,0.882,-0.47,0.003,0.017,-0.008,-0.129,0.042,0.013,0.029,-1.081,1.554
2024-10-01 09:30:26.154,26918.322,0.012,0.877,-0.48,-0.01,-0.037,-0.027,-0.097,0.007,0.003,0.025,-1.07,1.554
2024-10-01 09:30:26.275,26918.442,0.012,0.878,-0.479,0.007,-0.012,0.001,0.003,-0.041,0.001,0.024,-1.071,1.555
2024-10-01 09:30:26.395,26918.562,0.008,0.87,-0.493,-0.001,-0.017,-0.001,-0.017,0.018,0.013,0.016,-1.055,1.556
2024-10-01 09:30:26.515,26918.681,0.01,0.872,-0.49,0.004,-0.017,0.002,-0.146,-0.042,0.044,0.021,-1.059,1.557
2024-10-01 09:30:26.634,26918.801,0.015,0.876,-0.482,0.002,-0.017,-0.036,-0.528,0.211,0.015,0.032,-1.068,1.557
2024-10-01 09:30:26.754,26918.921,0.024,0.892,-0.451,0.001,0.001,-0.002,0.117,-0.199,0.126,0.053,-1.103,1.573
2024-10-01 09:30:26.874,26919.041,0.013,0.882,-0.472,-0.01,-0.006,-0.02,0.009,-0.061,-0.025,0.028,-1.079,1.575
2024-10-01 09:30:26.994,26919.161,0.011,0.879,-0.477,0.018,-0.005,0.011,0.131,-0.159,0.015,0.024,-1.074,1.577
2024-10-01 09:30:27.113,26919.28,0.018,0.875,-0.483,-0.014,-0.009,-0.015,-0.192,0.208,0.185,0.038,-1.066,1.595
2024-10-01 09:30:27.233,26919.4,0.025,0.88,-0.475,0.027,-0.011,-0.003,0.009,-0.076,-0.119,0.052,-1.075,1.593
2024-10-01 09:30:27.353,26919.52,0.012,0.875,-0.484,0.005,-0.011,-0.009,-0.033,-0.074,-0.065,0.024,-1.066,1.567
2024-10-01 09:30:27.473,26919.64,0.007,0.872,-0.49,0.004,0.03,0.029,0.221,-0.058,-0.053,0.015,-1.059,1.565
2024-10-01 09:30:27.592,26919.76,0.001,0.867,-0.499,-0.01,-0.004,0.001,0.045,0.023,-0.007,0.001,-1.048,1.555
2024-10-01 09:30:27.712,26919.879,0.001,0.867,-0.498,0.004,-0.003,0.003,0.078,-0.03,-0.006,0.002,-1.05,1.553
2024-10-01 09:30:27.831,26919.999,-0.001,0.868,-0.496,-0.001,-0.035,0.002,-0.462,0.093,0.026,-0.001,-1.051,1.559
2024-10-01 09:30:27.952,26920.119,0.01,0.883,-0.47,0.026,0.058,0.032,0.27,-0.1,-0.041,0.021,-1.082,1.566
2024-10-01 09:30:28.072,26920.239,-0.003,0.865,-0.502,-0.007,-0.051,-0.04,-0.363,0.02,0.074,-0.006,-1.045,1.556
2024-10-01 09:30:28.192,26920.359,-0.004,0.867,-0.498,0.008,-0.02,0.003,-0.072,-0.067,-0.021,-0.007,-1.049,1.554
2024-10-01 09:30:28.311,26920.478,0.004,0.879,-0.477,0.005,-0.017,0.003,-0.275,0.064,0.053,0.009,-1.074,1.559
2024-10-01 09:30:28.431,26920.598,0.003,0.875,-0.484,-0.002,-0.01,-0.011,-0.03,-0.014,-0.003,0.006,-1.066,1.556
2024-10-01 09:30:28.551,26920.718,-0.002,0.868,-0.497,0.005,0.006,0.006,0.23,-0.121,-0.022,-0.004,-1.05,1.553
2024-10-01 09:30:28.671,26920.838,-0.003,0.866,-0.501,-0.008,-0.03,-0.006,-0.102,0.055,0.022,-0.006,-1.047,1.556
2024-10-01 09:30:28.790,26920.958,-0.001,0.869,-0.494,0.008,0.042,0.007,0.006,-0.003,0.056,-0.002,-1.054,1.559
2024-10-01 09:30:28.910,26921.077,0.014,0.887,-0.462,-0.06,-0.064,-0.112,-1.583,0.514,0.128,0.031,-1.091,1.567
2024-10-01 09:30:29.030,26921.197,0.062,0.969,-0.24,0.065,0.11,-0.152,0.0,0.698,0.184,0.254,-1.32,1.716
2024-10-01 09:30:29.150,26921.317,0.088,0.939,-0.334,0.097,-0.02,0.012,0.967,0.295,-0.123,0.258,-1.219,1.656
2024-10-01 09:30:29.270,26921.437,0.071,0.927,-0.367,-0.149,-0.078,0.137,0.196,0.148,-0.205,0.19,-1.187,1.561
2024-10-01 09:30:29.389,26921.557,0.041,0.916,-0.399,-0.029,0.03,0.152,0.411,-0.24,-0.154,0.103,-1.159,1.497
2024-10-01 09:30:29.509,26921.676,0.008,0.901,-0.434,-0.028,0.266,-0.067,1.027,0.043,-0.028,0.018,-1.122,1.425
2024-10-01 09:30:29.629,26921.796,0.004,0.851,-0.525,0.013,-0.099,-0.043,0.019,-0.022,-0.219,0.008,-1.018,1.417
2024-10-01 09:30:29.749,26921.916,-0.009,0.858,-0.513,0.0,0.043,0.025,0.227,-0.003,-0.045,-0.018,-1.032,1.384
2024-10-01 09:30:29.868,26922.036,-0.014,0.854,-0.52,0.006,0.004,0.008,0.075,0.005,-0.072,-0.027,-1.024,1.375
2024-10-01 09:30:29.989,26922.156,-0.019,0.851,-0.526,-0.002,0.003,0.007,0.123,0.033,-0.048,-0.036,-1.017,1.362
2024-10-01 09:30:30.108,26922.275,-0.023,0.848,-0.529,0.003,0.026,0.01,0.126,-0.009,-0.023,-0.043,-1.013,1.353
2024-10-01 09:30:30.228,26922.395,-0.027,0.842,-0.539,0.021,0.034,0.018,0.367,-0.162,-0.037,-0.049,-1.001,1.353
2024-10-01 09:30:30.348,26922.515,-0.034,0.842,-0.538,-0.012,0.017,0.006,0.0,-0.078,-0.024,-0.064,-1.001,1.356
2024-10-01 09:30:30.468,26922.635,-0.03,0.846,-0.533,0.004,0.079,-0.019,-0.254,0.064,-0.055,-0.055,-1.008,1.357
2024-10-01 09:30:30.587,26922.755,-0.034,0.841,-0.54,0.056,-0.127,-0.035,-0.656,-0.132,0.133,-0.063,-0.999,1.361
2024-10-01 09:30:30.707,26922.874,-0.028,0.851,-0.525,0.012,-0.004,-0.006,-0.165,0.073,-0.043,-0.054,-1.017,1.359
2024-10-01 09:30:30.827,26922.994,-0.033,0.83,-0.557,-0.014,-0.0,-0.006,0.089,0.044,-0.006,-0.058,-0.979,1.36
2024-10-01 09:30:30.947,26923.114,-0.026,0.854,-0.519,-0.016,0.029,0.035,-0.036,0.179,-0.012,-0.05,-1.024,1.375
2024-10-01 09:30:31.066,26923.234,-0.03,0.838,-0.545,0.026,0.052,0.024,0.643,-0.239,-0.027,-0.056,-0.993,1.376
2024-10-01 09:30:31.186,26923.354,-0.02,0.856,-0.517,0.009,0.004,-0.015,-0.713,0.227,0.091,-0.038,-1.027,1.386
2024-10-01 09:30:31.306,26923.473,0.02,0.874,-0.485,-0.0,0.133,0.079,1.201,-0.095,0.386,0.041,-1.064,1.471
2024-10-01 09:30:31.426,26923.593,0.011,0.858,-0.514,-0.076,-0.093,0.224,-1.758,0.037,0.031,0.02,-1.031,1.479
2024-10-01 09:30:31.546,26923.713,-0.009,0.858,-0.513,0.037,-0.154,-0.083,-0.188,-0.005,-0.033,-0.017,-1.032,1.45
2024-10-01 09:30:31.665,26923.833,-0.008,0.862,-0.507,0.004,-0.026,-0.015,-0.193,0.031,0.058,-0.016,-1.038,1.45
2024-10-01 09:30:31.785,26923.953,-0.008,0.862,-0.507,-0.002,-0.018,-0.0,0.031,0.017,-0.009,-0.015,-1.039,1.451
2024-10-01 09:30:31.905,26924.072,-0.008,0.863,-0.505,0.002,-0.007,-0.006,-0.018,-0.022,-0.014,-0.015,-1.041,1.447
2024-10-01 09:30:32.026,26924.192,-0.01,0.861,-0.508,0.0,-0.013,-0.005,0.015,0.018,-0.013,-0.02,-1.038,1.441
2024-10-01 09:30:32.145,26924.312,-0.013,0.858,-0.513,0.004,-0.007,-0.003,0.033,-0.014,-0.023,-0.025,-1.032,1.436
2024-10-01 09:30:32.264,26924.432,-0.015,0.854,-0.52,-0.011,0.005,-0.016,-0.002,-0.018,0.018,-0.029,-1.024,1.433
2024-10-01 09:30:32.385,26924.552,-0.019,0.857,-0.515,-0.022,-0.035,-0.026,0.031,-0.027,-0.014,-0.036,-1.029,1.435
2024-10-01 09:30:32.504,26924.671,-0.016,0.859,-0.512,-0.019,-0.048,-0.025,-0.271,0.193,0.066,-0.031,-1.033,1.434
2024-10-01 09:30:32.624,26924.791,-0.019,0.853,-0.521,0.004,0.079,0.031,0.334,-0.067,-0.025,-0.036,-1.023,1.431
2024-10-01 09:30:32.744,26924.911,-0.014,0.868,-0.497,0.014,0.002,-0.004,-0.096,0.097,-0.022,-0.028,-1.05,1.427
2024-10-01 09:30:32.863,26925.031,-0.023,0.846,-0.533,-0.052,-0.144,-0.097,-0.586,-0.048,0.125,-0.044,-1.008,1.42
2024-10-01 09:30:32.984,26925.151,-0.014,0.872,-0.49,0.006,0.035,0.016,-0.081,0.037,-0.025,-0.028,-1.059,1.429
2024-10-01 09:30:33.103,26925.27,-0.019,0.862,-0.506,0.011,0.008,0.023,0.285,-0.171,-0.067,-0.037,-1.04,1.426
2024-10-01 09:30:33.223,26925.39,-0.023,0.854,-0.519,-0.012,-0.055,-0.003,-0.051,0.034,0.079,-0.044,-1.024,1.43
2024-10-01 09:30:33.342,26925.51,-0.013,0.868,-0.497,-0.025,-0.016,-0.025,-0.632,0.207,0.167,-0.026,-1.05,1.435
2024-10-01 09:30:33.462,26925.63,0.024,0.876,-0.482,0.113,0.194,-0.061,0.074,-0.315,-0.223,0.051,-1.067,1.512
2024-10-01 09:30:33.582,26925.749,0.02,0.873,-0.487,0.089,-0.1,-0.022,0.02,-0.04,-0.133,0.042,-1.062,1.523
2024-10-01 09:30:33.702,26925.869,-0.001,0.872,-0.489,-0.037,-0.003,-0.001,0.051,0.05,0.002,-0.002,-1.06,1.486
2024-10-01 09:30:33.822,26925.989,0.002,0.868,-0.496,-0.001,0.008,0.007,0.192,-0.022,-0.014,0.004,-1.051,1.49
2024-10-01 09:30:33.942,26926.109,-0.003,0.864,-0.504,0.005,-0.028,0.001,0.065,-0.002,-0.035,-0.006,-1.043,1.483
2024-10-01 09:30:34.062,26926.229,-0.004,0.863,-0.505,-0.007,-0.008,-0.004,-0.008,0.042,-0.004,-0.008,-1.042,1.478
2024-10-01 09:30:34.181,26926.348,-0.009,0.859,-0.511,0.006,0.004,0.009,0.341,-0.128,-0.031,-0.017,-1.034,1.473
2024-10-01 09:30:34.301,26926.468,-0.013,0.862,-0.507,0.004,-0.027,0.016,0.087,-0.041,-0.013,-0.025,-1.039,1.474
2024-10-01 09:30:34.421,26926.588,-0.009,0.866,-0.499,-0.009,-0.036,-0.015,-0.303,0.135,0.038,-0.017,-1.048,1.474
2024-10-01 09:30:34.541,26926.708,-0.011,0.863,-0.506,-0.021,-0.097,-0.053,-0.219,-0.03,0.025,-0.022,-1.041,1.472
2024-10-01 09:30:34.661,26926.828,-0.003,0.874,-0.486,0.002,0.002,-0.012,-0.24,0.145,-0.004,-0.007,-1.064,1.475
2024-10-01 09:30:34.780,26926.947,-0.012,0.856,-0.517,0.009,0.042,0.027,0.622,-0.112,-0.014,-0.024,-1.028,1.465
2024-10-01 09:30:34.900,26927.067,-0.005,0.871,-0.491,-0.016,0.07,-0.003,-0.267,0.264,0.038,-0.01,-1.058,1.477
2024-10-01 09:30:35.020,26927.187,-0.005,0.872,-0.489,0.002,0.032,0.007,0.484,-0.147,-0.039,-0.01,-1.059,1.476
2024-10-01 09:30:35.140,26927.307,-0.011,0.863,-0.506,0.011,0.035,0.005,-0.04,-0.033,0.08,-0.021,-1.04,1.479
2024-10-01 09:30:35.259,26927.427,-0.004,0.868,-0.496,-0.017,-0.013,-0.025,-0.305,0.159,0.042,-0.009,-1.052,1.479
2024-10-01 09:30:35.379,26927.546,0.026,0.885,-0.465,-0.079,0.164,0.099,0.552,0.051,0.195,0.057,-1.086,1.533
2024-10-01 09:30:35.498,26927.666,0.035,0.889,-0.456,0.051,-0.095,-0.103,0.476,-0.339,-0.06,0.077,-1.095,1.583
2024-10-01 09:30:35.618,26927.786,0.013,0.879,-0.476,-0.025,-0.097,0.011,-0.193,-0.037,-0.155,0.027,-1.075,1.544
2024-10-01 09:30:35.739,26927.906,0.011,0.879,-0.477,0.027,0.017,0.02,0.053,0.013,-0.037,0.022,-1.073,1.533
2024-10-01 09:30:35.859,26928.026,0.007,0.877,-0.481,0.003,-0.027,-0.009,-0.014,-0.026,-0.014,0.015,-1.069,1.525
2024-10-01 09:30:35.978,26928.145,0.005,0.876,-0.483,-0.001,0.006,-0.0,0.033,0.008,-0.019,0.011,-1.067,1.52
2024-10-01 09:30:36.098,26928.265,0.002,0.868,-0.496,-0.004,-0.098,-0.028,-0.092,-0.026,0.034,0.004,-1.052,1.516
2024-10-01 09:30:36.218,26928.385,0.003,0.868,-0.496,0.002,0.023,0.001,0.069,-0.0,0.04,0.006,-1.052,1.521
2024-10-01 09:30:36.337,26928.505,0.009,0.881,-0.473,-0.023,-0.016,-0.039,-0.379,0.119,-0.015,0.02,-1.078,1.52
2024-10-01 09:30:36.457,26928.625,0.003,0.865,-0.501,-0.077,-0.132,-0.101,-0.238,0.017,0.029,0.007,-1.046,1.515
2024-10-01 09:30:36.577,26928.744,0.009,0.877,-0.481,-0.008,-0.017,-0.043,-0.249,0.123,-0.007,0.019,-1.069,1.519
2024-10-01 09:30:36.697,26928.864,0.006,0.869,-0.496,0.007,0.011,0.006,0.377,-0.185,-0.009,0.012,-1.052,1.515
2024-10-01 09:30:36.817,26928.984,0.008,0.879,-0.477,-0.02,-0.017,-0.039,-0.333,0.171,0.005,0.016,-1.073,1.52
2024-10-01 09:30:36.936,26929.104,0.005,0.878,-0.478,0.017,0.017,0.002,0.447,-0.262,-0.036,0.011,-1.072,1.518
2024-10-01 09:30:37.057,26929.224,0.003,0.871,-0.491,-0.011,-0.024,0.007,-0.111,0.052,0.041,0.005,-1.058,1.524
2024-10-01 09:30:37.177,26929.343,0.009,0.882,-0.471,-0.025,0.027,-0.05,-0.507,0.238,0.003,0.019,-1.08,1.525
2024-10-01 09:30:37.296,26929.463,0.035,0.896,-0.443,-0.063,0.074,0.082,0.252,0.169,0.245,0.079,-1.111,1.568
2024-10-01 09:30:37.416,26929.583,0.048,0.89,-0.453,-0.01,-0.153,0.011,0.525,-0.421,-0.188,0.106,-1.098,1.616
2024-10-01 09:30:37.536,26929.703,0.03,0.872,-0.489,0.066,-0.13,-0.097,-0.058,0.038,-0.085,0.062,-1.059,1.588
2024-10-01 09:30:37.655,26929.823,0.028,0.872,-0.489,-0.042,0.023,-0.009,-0.142,0.061,-0.03,0.058,-1.059,1.575
2024-10-01 09:30:37.775,26929.942,0.013,0.883,-0.47,-0.001,-0.053,0.004,-0.172,-0.058,-0.044,0.028,-1.082,1.546
2024-10-01 09:30:37.895,26930.062,-0.004,0.887,-0.462,-0.033,-0.02,-0.007,-0.121,-0.051,0.01,-0.01,-1.091,1.52
2024-10-01 09:30:38.015,26930.182,-0.006,0.885,-0.465,0.002,-0.004,-0.002,0.021,-0.006,-0.019,-0.012,-1.087,1.518
2024-10-01 09:30:38.135,26930.302,-0.008,0.883,-0.469,-0.005,-0.026,-0.012,-0.042,0.011,0.003,-0.016,-1.082,1.516
2024-10-01 09:30:38.254,26930.422,-0.008,0.882,-0.472,0.002,-0.002,0.002,0.021,-0.004,-0.011,-0.018,-1.079,1.514
2024-10-01 09:30:38.374,26930.541,-0.011,0.873,-0.487,0.001,-0.082,-0.02,-0.047,-0.012,0.048,-0.023,-1.062,1.513
2024-10-01 09:30:38.494,26930.661,-0.012,0.874,-0.486,0.003,-0.017,-0.007,-0.037,-0.019,0.014,-0.025,-1.063,1.516
2024-10-01 09:30:38.614,26930.781,-0.009,0.873,-0.488,-0.002,0.014,-0.017,-0.003,0.038,0.101,-0.018,-1.061,1.524
2024-10-01 09:30:38.734,26930.901,-0.001,0.882,-0.472,-0.004,-0.008,-0.019,-0.195,0.08,-0.023,-0.002,-1.079,1.527
2024-10-01 09:30:38.853,26931.021,-0.006,0.871,-0.491,-0.021,-0.082,-0.073,-0.166,-0.032,0.039,-0.013,-1.057,1.521
2024-10-01 09:30:38.973,26931.14,0.001,0.88,-0.475,0.011,0.02,0.006,0.049,0.018,-0.012,0.001,-1.076,1.525
2024-10-01 09:30:39.093,26931.26,-0.005,0.877,-0.481,0.005,-0.02,0.019,-0.478,-0.025,0.055,-0.011,-1.069,1.524
2024-10-01 09:30:39.212,26931.38,0.001,0.889,-0.459,0.017,0.066,0.034,0.223,-0.15,-0.012,0.003,-1.094,1.528
2024-10-01 09:30:39.333,26931.5,-0.004,0.876,-0.483,-0.04,-0.009,-0.012,-0.396,0.147,-0.026,-0.009,-1.067,1.533
2024-10-01 09:30:39.453,26931.62,0.016,0.9,-0.435,-0.018,0.057,0.032,-0.08,0.224,0.29,0.038,-1.12,1.558
2024-10-01 09:30:39.572,26931.739,0.034,0.876,-0.481,0.006,-0.084,0.056,-0.017,-0.36,0.025,0.071,-1.067,1.598
2024-10-01 09:30:39.692,26931.859,0.014,0.88,-0.475,0.005,-0.087,-0.006,-0.186,-0.226,-0.068,0.03,-1.076,1.578
2024-10-01 09:30:39.812,26931.979,0.002,0.873,-0.488,0.0,0.02,0.001,0.197,-0.014,-0.024,0.003,-1.061,1.564
2024-10-01 09:30:39.931,26932.099,-0.004,0.873,-0.488,0.003,-0.016,-0.01,-0.096,-0.01,0.001,-0.009,-1.061,1.553
2024-10-01 09:30:40.051,26932.219,-0.003,0.875,-0.485,0.01,-0.015,-0.02,-0.046,-0.001,0.015,-0.007,-1.065,1.554
2024-10-01 09:30:40.171,26932.338,-0.004,0.877,-0.481,0.002,0.004,0.001,-0.04,-0.01,0.014,-0.007,-1.069,1.554
2024-10-01 09:30:40.291,26932.458,-0.006,0.871,-0.492,0.004,0.026,0.02,0.181,-0.027,0.022,-0.012,-1.057,1.554
2024-10-01 09:30:40.411,26932.578,-0.007,0.867,-0.498,-0.009,-0.01,-0.012,0.039,0.007,-0.013,-0.013,-1.05,1.556
2024-10-01 09:30:40.530,26932.698,-0.003,0.872,-0.49,-0.029,-0.07,-0.03,-0.326,0.161,-0.007,-0.007,-1.058,1.558
2024-10-01 09:30:40.650,26932.818,-0.003,0.871,-0.492,0.018,0.004,0.018,0.414,-0.156,0.0,-0.005,-1.056,1.554
2024-10-01 09:30:40.770,26932.937,-0.003,0.872,-0.489,-0.004,-0.033,0.013,-0.112,0.073,0.0,-0.005,-1.059,1.558
2024-10-01 09:30:40.890,26933.057,-0.0,0.873,-0.488,0.015,0.026,0.033,0.517,-0.155,-0.042,-0.001,-1.061,1.555
2024-10-01 09:30:41.010,26933.177,-0.003,0.872,-0.489,-0.0,-0.019,0.042,-0.243,0.04,0.032,-0.005,-1.06,1.56
2024-10-01 09:30:41.129,26933.297,-0.0,0.88,-0.474,0.015,0.039,0.042,0.452,-0.192,-0.039,-0.001,-1.077,1.56
2024-10-01 09:30:41.250,26933.417,-0.005,0.869,-0.495,0.009,0.059,-0.001,0.028,-0.013,0.071,-0.01,-1.053,1.565
2024-10-01 09:30:41.370,26933.536,0.0,0.877,-0.481,-0.04,-0.063,-0.039,-0.64,0.308,0.014,0.001,-1.069,1.566
2024-10-01 09:30:41.489,26933.656,0.025,0.957,-0.289,0.01,-0.004,0.017,-1.31,0.334,0.078,0.087,-1.277,1.599
2024-10-01 09:30:41.609,26933.776,0.057,0.971,-0.233,0.01,0.002,-0.013,0.104,0.261,0.138,0.242,-1.329,1.709
2024-10-01 09:30:41.728,26933.896,0.07,0.957,-0.281,-0.016,-0.023,-0.009,0.193,0.216,-0.064,0.244,-1.277,1.683
2024-10-01 09:30:41.848,26934.016,0.06,0.961,-0.27,0.002,0.023,-0.006,0.277,-0.031,-0.088,0.22,-1.291,1.644
2024-10-01 09:30:41.968,26934.135,0.047,0.938,-0.344,0.013,-0.073,0.096,0.385,-0.206,-0.142,0.137,-1.217,1.58
2024-10-01 09:30:42.088,26934.255,0.025,0.92,-0.391,0.039,0.012,0.02,0.281,0.051,-0.093,0.064,-1.169,1.518
2024-10-01 09:30:42.208,26934.375,0.04,0.892,-0.451,0.027,0.043,0.045,-0.253,0.205,-0.157,0.087,-1.101,1.526
2024-10-01 09:30:42.327,26934.495,0.054,0.883,-0.466,-0.04,-0.019,0.102,0.038,0.433,-0.246,0.115,-1.082,1.497
2024-10-01 09:30:42.447,26934.615,0.056,0.884,-0.464,0.031,0.057,0.008,0.01,0.003,0.104,0.121,-1.085,1.477
2024-10-01 09:30:42.567,26934.734,0.058,0.89,-0.452,0.066,-0.059,0.09,-0.221,-0.14,0.09,0.127,-1.097,1.508
2024-10-01 09:30:42.687,26934.854,0.075,0.921,-0.382,-0.062,-0.047,0.044,-1.348,0.085,0.177,0.194,-1.17,1.58
2024-10-01 09:30:42.806,26934.974,0.077,0.977,-0.197,-0.073,-0.131,-0.165,-1.146,-0.1,-0.359,0.373,-1.357,1.772
2024-10-01 09:30:42.926,26935.094,0.061,0.984,-0.165,-0.12,-0.065,0.015,0.097,0.053,-0.167,0.354,-1.394,1.743
2024-10-01 09:30:43.046,26935.214,0.071,0.976,-0.207,-0.066,-0.069,0.01,0.044,0.16,-0.035,0.333,-1.35,1.716
2024-10-01 09:30:43.166,26935.333,0.061,0.972,-0.226,0.014,0.067,-0.008,0.373,-0.113,-0.196,0.264,-1.335,1.639
2024-10-01 09:30:43.286,26935.453,0.042,0.956,-0.291,0.007,-0.043,-0.065,0.279,0.029,-0.034,0.143,-1.272,1.532
2024-10-01 09:30:43.405,26935.573,0.034,0.948,-0.316,0.025,0.002,0.028,0.394,-0.088,-0.174,0.107,-1.248,1.489
2024-10-01 09:30:43.525,26935.693,0.018,0.929,-0.37,0.044,-0.053,-0.047,0.245,0.206,-0.083,0.047,-1.192,1.425
2024-10-01 09:30:43.645,26935.812,0.032,0.925,-0.379,0.103,0.003,0.081,0.25,0.292,0.045,0.084,-1.181,1.426
2024-10-01 09:30:43.765,26935.932,0.02,0.916,-0.401,-0.01,-0.009,-0.016,0.096,-0.027,-0.04,0.049,-1.158,1.406
2024-10-01 09:30:43.885,26936.052,0.022,0.921,-0.39,-0.007,-0.026,-0.019,-0.199,-0.004,0.075,0.056,-1.17,1.415
2024-10-01 09:30:44.005,26936.172,0.018,0.912,-0.41,0.004,0.01,0.001,0.313,-0.075,-0.017,0.043,-1.148,1.409
2024-10-01 09:30:44.124,26936.292,0.012,0.894,-0.447,-0.008,-0.044,-0.018,0.276,-0.025,0.039,0.026,-1.107,1.402
2024-10-01 09:30:44.244,26936.411,-0.001,0.885,-0.466,-0.012,0.023,0.017,0.298,-0.095,-0.056,-0.002,-1.087,1.384
2024-10-01 09:30:44.364,26936.531,-0.012,0.868,-0.496,-0.005,-0.012,-0.006,0.046,0.014,-0.058,-0.025,-1.052,1.373
2024-10-01 09:30:44.484,26936.651,-0.016,0.865,-0.501,0.001,-0.011,-0.001,0.045,0.056,-0.062,-0.031,-1.046,1.364
2024-10-01 09:30:44.604,26936.771,-0.03,0.843,-0.537,0.026,0.059,0.033,0.45,-0.08,-0.029,-0.057,-1.003,1.352
2024-10-01 09:30:44.723,26936.891,-0.024,0.857,-0.514,-0.003,-0.042,-0.039,-0.51,0.098,0.009,-0.046,-1.03,1.354
2024-10-01 09:30:44.843,26937.01,-0.035,0.845,-0.533,-0.004,-0.225,-0.057,-0.266,0.035,0.038,-0.066,-1.007,1.35
2024-10-01 09:30:44.963,26937.13,-0.036,0.846,-0.533,0.01,-0.01,0.014,-0.083,-0.009,-0.013,-0.068,-1.008,1.349
2024-10-01 09:30:45.083,26937.25,-0.03,0.862,-0.506,0.004,-0.027,-0.008,-0.263,0.037,0.025,-0.058,-1.04,1.352
2024-10-01 09:30:45.202,26937.37,-0.037,0.856,-0.516,-0.0,-0.048,-0.047,-0.752,-0.11,0.059,-0.071,-1.027,1.351
2024-10-01 09:30:45.322,26937.49,-0.029,0.874,-0.486,0.037,0.062,0.025,0.046,-0.13,-0.031,-0.059,-1.063,1.355
2024-10-01 09:30:45.442,26937.609,-0.036,0.865,-0.5,-0.014,0.02,0.017,-0.398,0.151,0.065,-0.071,-1.045,1.355
2024-10-01 09:30:45.562,26937.729,-0.026,0.874,-0.484,0.024,0.06,0.054,0.729,-0.266,-0.073,-0.053,-1.064,1.361
2024-10-01 09:30:45.682,26937.849,-0.022,0.879,-0.476,-0.036,-0.041,-0.037,-0.517,0.408,0.229,-0.046,-1.074,1.364
2024-10-01 09:30:45.801,26937.969,-0.007,0.876,-0.482,0.003,-0.028,0.002,0.49,-0.109,-0.025,-0.014,-1.068,1.385
2024-10-01 09:30:45.921,26938.089,-0.013,0.873,-0.487,0.011,-0.001,-0.0,-0.024,-0.059,-0.021,-0.027,-1.062,1.382
2024-10-01 09:30:46.041,26938.208,-0.013,0.874,-0.485,0.002,-0.005,0.011,0.099,0.007,-0.005,-0.027,-1.064,1.38
2024-10-01 09:30:46.161,26938.328,-0.014,0.873,-0.487,-0.006,-0.011,-0.002,0.011,0.032,0.009,-0.029,-1.062,1.378
2024-10-01 09:30:46.280,26938.448,-0.013,0.874,-0.486,-0.003,-0.023,-0.015,-0.059,0.022,-0.006,-0.027,-1.063,1.378
2024-10-01 09:30:46.401,26938.568,-0.022,0.866,-0.5,-0.042,-0.057,-0.052,-0.129,-0.011,0.032,-0.044,-1.046,1.371
2024-10-01 09:30:46.521,26938.688,-0.019,0.868,-0.496,-0.0,-0.005,-0.002,-0.02,-0.014,-0.003,-0.039,-1.052,1.376
2024-10-01 09:30:46.640,26938.807,-0.024,0.866,-0.499,-0.019,0.004,0.029,0.083,-0.013,-0.03,-0.047,-1.048,1.382
2024-10-01 09:30:46.760,26938.927,-0.015,0.866,-0.501,-0.005,-0.051,-0.03,-0.495,0.101,-0.015,-0.031,-1.046,1.381
2024-10-01 09:30:46.880,26939.047,-0.023,0.872,-0.49,-0.017,-0.054,-0.022,-0.706,0.082,0.039,-0.047,-1.059,1.378
2024-10-01 09:30:46.999,26939.167,0.033,0.927,-0.374,-0.005,-0.079,-0.078,-1.798,0.862,0.303,0.088,-1.186,1.437
2024-10-01 09:30:47.119,26939.287,0.056,0.959,-0.277,0.038,0.06,0.084,0.726,-0.342,-0.05,0.198,-1.284,1.531
2024-10-01 09:30:47.239,26939.406,0.049,0.945,-0.322,-0.016,0.032,0.013,0.256,-0.045,0.057,0.152,-1.239,1.504
2024-10-01 09:30:47.359,26939.526,0.033,0.939,-0.342,-0.036,0.015,-0.079,0.349,-0.12,0.021,0.097,-1.221,1.467
2024-10-01 09:30:47.479,26939.646,0.032,0.927,-0.375,0.049,0.048,-0.001,0.26,-0.124,-0.024,0.085,-1.185,1.468
2024-10-01 09:30:47.598,26939.766,0.014,0.917,-0.4,0.003,-0.005,0.009,0.253,0.001,-0.127,0.036,-1.159,1.425
2024-10-01 09:30:47.719,26939.886,0.005,0.9,-0.435,0.005,-0.018,0.008,0.272,-0.168,-0.054,0.011,-1.121,1.4
2024-10-01 09:30:47.838,26940.005,0.002,0.895,-0.446,0.0,-0.022,0.01,-0.009,0.021,0.131,0.005,-1.109,1.412
2024-10-01 09:30:47.958,26940.125,0.021,0.866,-0.499,-0.009,-0.051,-0.018,0.303,-0.001,0.148,0.042,-1.048,1.455
2024-10-01 09:30:48.078,26940.245,0.032,0.876,-0.482,-0.012,-0.019,0.002,-0.331,0.111,0.015,0.066,-1.067,1.471
2024-10-01 09:30:48.197,26940.365,0.033,0.89,-0.455,-0.006,-0.028,-0.009,-0.2,0.147,0.03,0.073,-1.097,1.47
2024-10-01 09:30:48.317,26940.485,0.051,0.894,-0.445,-0.0,0.04,0.046,0.112,-0.134,0.165,0.114,-1.106,1.497
2024-10-01 09:30:48.437,26940.604,0.046,0.884,-0.464,0.029,-0.086,-0.08,0.484,-0.42,-0.126,0.099,-1.085,1.529
2024-10-01 09:30:48.556,26940.724,0.013,0.884,-0.468,-0.055,-0.043,0.064,0.497,-0.08,-0.109,0.028,-1.084,1.479
2024-10-01 09:30:48.677,26940.844,-0.004,0.863,-0.506,0.002,-0.005,-0.024,0.047,-0.127,-0.127,-0.008,-1.041,1.455
2024-10-01 09:30:48.797,26940.964,-0.012,0.857,-0.515,-0.002,-0.017,-0.004,0.038,0.021,0.003,-0.023,-1.03,1.44
2024-10-01 09:30:48.916,26941.084,-0.014,0.854,-0.52,-0.001,0.003,0.008,0.15,-0.013,-0.029,-0.026,-1.023,1.435
2024-10-01 09:30:49.036,26941.203,-0.023,0.848,-0.53,-0.007,-0.048,-0.028,-0.299,-0.07,0.023,-0.043,-1.011,1.428
2024-10-01 09:30:49.156,26941.323,-0.016,0.86,-0.509,0.021,0.005,0.008,-0.149,-0.046,-0.028,-0.031,-1.036,1.427
2024-10-01 09:30:49.276,26941.443,-0.026,0.849,-0.527,-0.014,-0.016,-0.019,-0.283,-0.053,0.085,-0.049,-1.015,1.424
2024-10-01 09:30:49.395,26941.563,-0.024,0.848,-0.529,0.005,-0.011,-0.003,-0.027,0.004,-0.002,-0.045,-1.013,1.428
2024-10-01 09:30:49.515,26941.683,-0.023,0.848,-0.53,-0.002,-0.003,0.012,0.019,0.016,-0.002,-0.043,-1.012,1.427
2024-10-01 09:30:49.635,26941.802,-0.021,0.85,-0.527,-0.002,-0.019,0.001,-0.003,0.004,0.001,-0.041,-1.015,1.427
2024-10-01 09:30:49.755,26941.922,-0.024,0.854,-0.52,-0.006,-0.002,-0.009,-0.114,0.04,-0.013,-0.045,-1.023,1.423
2024-10-01 09:30:49.874,26942.042,-0.017,0.866,-0.5,0.016,0.02,0.013,-0.008,-0.03,-0.004,-0.034,-1.047,1.424
2024-10-01 09:30:49.994,26942.162,-0.025,0.856,-0.517,0.022,0.022,-0.008,-0.592,-0.141,0.03,-0.049,-1.027,1.422
2024-10-01 09:30:50.114,26942.282,-0.022,0.866,-0.5,0.023,0.097,0.044,0.279,-0.162,-0.033,-0.045,-1.047,1.422
2024-10-01 09:30:50.234,26942.401,-0.018,0.867,-0.498,-0.015,-0.024,0.01,-0.223,0.248,0.11,-0.037,-1.049,1.433
2024-10-01 09:30:50.354,26942.521,0.002,0.877,-0.48,0.033,0.069,0.068,0.632,-0.219,-0.093,0.003,-1.07,1.452
2024-10-01 09:30:50.474,26942.641,-0.002,0.872,-0.49,-0.008,-0.01,-0.014,-0.231,0.104,0.029,-0.004,-1.059,1.445
2024-10-01 09:30:50.594,26942.761,-0.003,0.871,-0.491,0.001,0.004,-0.004,-0.001,-0.002,-0.007,-0.007,-1.058,1.442
2024-10-01 09:30:50.714,26942.881,-0.006,0.87,-0.494,0.015,0.023,0.017,0.231,-0.162,-0.049,-0.011,-1.055,1.44
2024-10-01 09:30:50.833,26943.0,-0.01,0.867,-0.498,0.006,0.019,-0.006,0.02,-0.015,0.031,-0.019,-1.049,1.439
2024-10-01 09:30:50.953,26943.12,-0.013,0.863,-0.504,0.005,0.011,0.005,0.233,-0.079,-0.007,-0.025,-1.042,1.442
2024-10-01 09:30:51.073,26943.24,-0.006,0.86,-0.51,0.002,-0.023,-0.027,-0.305,0.107,0.013,-0.012,-1.036,1.442
2024-10-01 09:30:51.192,26943.36,-0.011,0.87,-0.493,-0.014,-0.066,-0.007,-0.936,0.115,0.083,-0.021,-1.055,1.44
2024-10-01 09:30:51.312,26943.48,0.045,0.948,-0.314,-0.019,-0.029,-0.05,-1.709,0.812,0.337,0.143,-1.248,1.53
2024-10-01 09:30:51.432,26943.599,0.102,0.938,-0.332,-0.062,0.003,0.224,0.461,0.24,0.271,0.298,-1.217,1.634
2024-10-01 09:30:51.552,26943.719,0.088,0.925,-0.37,0.051,-0.059,0.035,0.472,-0.671,-0.309,0.234,-1.181,1.595
2024-10-01 09:30:51.672,26943.839,0.075,0.897,-0.436,0.171,-0.023,0.001,0.133,-0.224,0.413,0.17,-1.113,1.579
2024-10-01 09:30:51.791,26943.959,0.069,0.89,-0.451,-0.066,-0.015,0.023,0.284,-0.491,-0.135,0.152,-1.097,1.596
2024-10-01 09:30:51.911,26944.079,0.016,0.886,-0.464,0.013,-0.024,-0.012,-0.127,-0.039,-0.343,0.035,-1.088,1.498
2024-10-01 09:30:52.030,26944.198,0.003,0.883,-0.47,-0.006,-0.013,0.004,0.185,0.074,-0.021,0.006,-1.081,1.463
2024-10-01 09:30:52.150,26944.318,-0.001,0.878,-0.479,-0.005,-0.017,-0.013,0.111,0.027,-0.024,-0.001,-1.071,1.448
2024-10-01 09:30:52.271,26944.438,-0.003,0.871,-0.49,0.004,-0.002,-0.005,0.065,0.042,-0.06,-0.007,-1.058,1.438
2024-10-01 09:30:52.390,26944.558,-0.004,0.864,-0.503,0.004,0.004,0.002,0.081,0.0,-0.02,-0.008,-1.043,1.429
2024-10-01 09:30:52.511,26944.678,-0.017,0.856,-0.516,-0.031,0.009,-0.007,-0.278,0.137,0.025,-0.032,-1.028,1.417
2024-10-01 09:30:52.630,26944.797,-0.012,0.863,-0.505,0.017,0.058,0.029,0.267,-0.203,-0.037,-0.024,-1.041,1.417
2024-10-01 09:30:52.750,26944.917,-0.018,0.855,-0.518,0.012,0.057,0.016,0.09,-0.043,-0.03,-0.035,-1.026,1.419
2024-10-01 09:30:52.870,26945.037,-0.015,0.857,-0.514,-0.012,-0.007,-0.014,-0.372,0.169,0.054,-0.03,-1.03,1.418
2024-10-01 09:30:52.989,26945.157,-0.02,0.849,-0.528,-0.022,-0.176,-0.089,-0.403,-0.162,0.007,-0.038,-1.015,1.421
2024-10-01 09:30:53.109,26945.277,-0.017,0.865,-0.502,0.029,0.111,0.044,0.336,-0.221,-0.028,-0.033,-1.045,1.422
2024-10-01 09:30:53.229,26945.396,-0.003,0.868,-0.497,-0.025,0.02,-0.025,-0.274,0.346,0.238,-0.007,-1.051,1.442
2024-10-01 09:30:53.349,26945.516,0.004,0.868,-0.497,-0.003,-0.029,-0.021,0.041,-0.048,-0.028,0.008,-1.05,1.451
2024-10-01 09:30:53.468,26945.636,0.003,0.87,-0.493,0.007,-0.007,0.009,0.009,-0.015,-0.015,0.006,-1.055,1.447
2024-10-01 09:30:53.588,26945.756,-0.007,0.859,-0.512,0.017,0.102,0.061,0.362,-0.092,-0.078,-0.013,-1.034,1.439
2024-10-01 09:30:53.709,26945.876,-0.006,0.864,-0.504,0.007,-0.058,-0.021,-0.145,-0.065,-0.015,-0.012,-1.042,1.442
2024-10-01 09:30:53.828,26945.995,-0.002,0.857,-0.515,-0.004,0.03,-0.005,0.142,0.154,0.0,-0.005,-1.03,1.446
2024-10-01 09:30:53.948,26946.115,-0.008,0.863,-0.505,0.002,-0.049,-0.021,-0.544,0.016,0.03,-0.017,-1.041,1.443
2024-10-01 09:30:54.068,26946.235,0.033,0.92,-0.39,0.017,-0.066,-0.052,-1.272,0.471,0.308,0.084,-1.169,1.496
2024-10-01 09:30:54.193,26946.355,0.052,0.93,-0.363,0.01,0.031,0.031,0.528,-0.181,-0.033,0.141,-1.195,1.541
2024-10-01 09:30:54.307,26946.475,0.046,0.915,-0.401,-0.007,0.011,-0.041,-0.225,-0.167,0.058,0.114,-1.155,1.531
2024-10-01 09:30:54.427,26946.594,0.033,0.909,-0.416,0.06,-0.064,-0.092,0.091,-0.039,-0.247,0.079,-1.14,1.495
2024-10-01 09:30:54.547,26946.714,0.022,0.908,-0.418,-0.018,0.053,0.083,0.034,0.162,-0.067,0.053,-1.139,1.451
2024-10-01 09:30:54.667,26946.834,0.02,0.909,-0.416,0.007,0.005,0.023,-0.043,-0.004,0.022,0.049,-1.142,1.441
2024-10-01 09:30:54.786,26946.954,0.018,0.91,-0.415,-0.014,-0.032,0.001,-0.075,-0.029,0.043,0.043,-1.143,1.442
2024-10-01 09:30:54.906,26947.074,0.018,0.911,-0.412,-0.008,-0.018,0.006,-0.038,-0.017,0.062,0.045,-1.146,1.449
2024-10-01 09:30:55.026,26947.193,0.027,0.883,-0.469,-0.038,0.112,0.08,0.699,-0.207,0.099,0.057,-1.081,1.477
2024-10-01 09:30:55.146,26947.313,0.014,0.879,-0.476,0.004,-0.171,-0.131,0.101,-0.141,-0.052,0.03,-1.075,1.484
2024-10-01 09:30:55.266,26947.433,0.008,0.869,-0.495,0.011,-0.022,0.006,0.506,-0.035,-0.102,0.015,-1.053,1.473
2024-10-01 09:30:55.385,26947.553,-0.001,0.862,-0.506,-0.005,-0.038,-0.015,-0.072,0.065,-0.021,-0.002,-1.04,1.455
2024-10-01 09:30:55.505,26947.672,-0.004,0.856,-0.516,0.018,0.021,0.009,0.267,-0.11,-0.089,-0.007,-1.028,1.444
2024-10-01 09:30:55.625,26947.792,-0.014,0.851,-0.524,-0.028,-0.026,-0.014,-0.243,0.201,0.072,-0.026,-1.019,1.432
2024-10-01 09:30:55.745,26947.912,-0.018,0.843,-0.537,0.018,0.079,0.042,0.303,-0.092,0.013,-0.034,-1.004,1.429
2024-10-01 09:30:55.864,26948.032,-0.017,0.845,-0.535,-0.011,-0.037,-0.014,-0.002,0.028,-0.008,-0.032,-1.006,1.431
2024-10-01 09:30:55.984,26948.152,-0.007,0.857,-0.515,0.008,0.002,0.01,-0.246,0.04,0.048,-0.014,-1.03,1.439
2024-10-01 09:30:56.104,26948.271,-0.014,0.84,-0.542,-0.028,-0.038,-0.056,-0.067,-0.034,0.012,-0.026,-0.998,1.434
2024-10-01 09:30:56.224,26948.391,-0.011,0.854,-0.519,0.01,-0.059,-0.037,-0.309,0.003,-0.007,-0.021,-1.025,1.436
2024-10-01 09:30:56.344,26948.511,-0.01,0.856,-0.517,-0.037,-0.056,-0.007,-0.202,0.338,0.193,-0.02,-1.028,1.439
2024-10-01 09:30:56.464,26948.631,0.016,0.869,-0.495,0.008,0.085,0.038,0.186,0.005,0.001,0.033,-1.052,1.469
2024-10-01 09:30:56.583,26948.751,0.007,0.864,-0.504,-0.014,-0.025,-0.008,0.149,-0.006,0.008,0.015,-1.043,1.457
2024-10-01 09:30:56.703,26948.87,0.006,0.862,-0.507,0.007,0.01,0.009,0.065,-0.021,-0.008,0.012,-1.039,1.454
2024-10-01 09:30:56.823,26948.99,0.006,0.861,-0.509,-0.007,-0.013,-0.001,0.035,0.049,-0.005,0.012,-1.036,1.452
2024-10-01 09:30:56.943,26949.11,-0.001,0.855,-0.518,0.023,0.03,0.035,0.562,-0.189,-0.118,-0.001,-1.026,1.447
2024-10-01 09:30:57.063,26949.23,-0.001,0.859,-0.512,0.005,-0.043,-0.01,-0.121,-0.057,0.004,-0.002,-1.033,1.449
2024-10-01 09:30:57.182,26949.35,-0.003,0.857,-0.515,-0.022,0.003,0.021,0.289,0.191,0.011,-0.007,-1.029,1.447
2024-10-01 09:30:57.302,26949.469,-0.004,0.855,-0.518,0.001,0.039,-0.012,-0.091,-0.125,0.002,-0.008,-1.026,1.446
2024-10-01 09:30:57.422,26949.589,0.02,0.9,-0.435,-0.022,-0.037,-0.054,-1.673,0.635,0.228,0.047,-1.12,1.475
2024-10-01 09:30:57.542,26949.709,0.081,0.952,-0.294,0.006,0.18,-0.013,0.894,0.43,0.376,0.269,-1.261,1.64
2024-10-01 09:30:57.662,26949.829,0.095,0.927,-0.362,0.02,-0.145,0.114,0.053,-0.394,-0.035,0.257,-1.188,1.636
2024-10-01 09:30:57.781,26949.949,0.065,0.923,-0.379,0.004,0.01,-0.071,0.431,-0.297,-0.16,0.17,-1.176,1.597
2024-10-01 09:30:57.900,26950.068,0.04,0.916,-0.4,0.01,-0.007,0.005,0.296,-0.119,-0.065,0.1,-1.157,1.547
2024-10-01 09:30:58.021,26950.188,0.022,0.886,-0.462,-0.019,-0.05,-0.021,0.674,-0.023,-0.106,0.047,-1.09,1.509
2024-10-01 09:30:58.141,26950.308,0.006,0.86,-0.51,-0.007,-0.024,-0.023,0.183,-0.139,-0.115,0.011,-1.036,1.482
2024-10-01 09:30:58.261,26950.428,-0.005,0.854,-0.521,0.002,0.02,0.004,0.206,-0.009,-0.044,-0.009,-1.023,1.464
2024-10-01 09:30:58.380,26950.548,-0.008,0.853,-0.522,0.006,0.001,0.01,0.09,-0.012,-0.016,-0.015,-1.021,1.459
2024-10-01 09:30:58.500,26950.667,-0.011,0.852,-0.524,0.002,0.012,0.011,0.09,-0.032,-0.02,-0.02,-1.019,1.453
2024-10-01 09:30:58.620,26950.787,-0.018,0.847,-0.532,-0.021,-0.05,-0.018,-0.287,0.066,-0.007,-0.034,-1.01,1.451
2024-10-01 09:30:58.740,26950.907,-0.017,0.85,-0.526,0.011,0.038,0.016,0.285,-0.197,-0.033,-0.032,-1.017,1.449
2024-10-01 09:30:58.860,26951.027,-0.019,0.848,-0.529,-0.003,-0.032,-0.004,-0.024,0.004,-0.022,-0.036,-1.012,1.451
2024-10-01 09:30:58.979,26951.147,-0.019,0.851,-0.524,-0.001,-0.018,-0.006,-0.101,-0.046,0.005,-0.037,-1.019,1.449
2024-10-01 09:30:59.099,26951.266,-0.019,0.854,-0.52,-0.003,0.007,0.008,-0.06,0.122,0.01,-0.037,-1.023,1.451
2024-10-01 09:30:59.219,26951.386,-0.019,0.858,-0.513,-0.067,-0.03,-0.015,-0.385,0.194,0.037,-0.038,-1.031,1.457
2024-10-01 09:30:59.339,26951.506,0.014,0.881,-0.472,0.016,-0.008,0.006,-0.213,0.073,0.013,0.029,-1.079,1.49
2024-10-01 09:30:59.459,26951.626,0.005,0.871,-0.491,0.001,0.0,0.007,0.067,-0.029,-0.039,0.009,-1.058,1.478
2024-10-01 09:30:59.579,26951.746,0.002,0.867,-0.499,-0.002,-0.001,0.008,0.072,0.013,-0.011,0.004,-1.049,1.473
2024-10-01 09:30:59.698,26951.865,0.002,0.866,-0.5,-0.002,-0.026,-0.009,-0.062,0.035,-0.013,0.003,-1.048,1.472
2024-10-01 09:30:59.817,26951.985,0.001,0.867,-0.499,0.002,-0.015,-0.01,-0.116,-0.003,-0.008,0.003,-1.049,1.47
2024-10-01 09:30:59.938,26952.105,-0.007,0.858,-0.514,-0.015,-0.094,-0.056,-0.331,0.043,0.041,-0.014,-1.031,1.464
2024-10-01 09:31:00.058,26952.225,-0.008,0.863,-0.505,-0.005,0.004,0.009,0.1,0.049,-0.036,-0.016,-1.042,1.465
2024-10-01 09:31:00.177,26952.345,-0.008,0.86,-0.511,0.01,0.032,0.018,0.034,-0.068,0.004,-0.015,-1.034,1.462
2024-10-01 09:31:00.297,26952.464,-0.001,0.879,-0.477,-0.028,-0.103,-0.052,-0.799,0.272,0.102,-0.002,-1.073,1.467
2024-10-01 09:31:00.417,26952.584,0.016,0.906,-0.422,-0.015,-0.038,-0.037,-0.716,0.235,0.04,0.037,-1.135,1.476
2024-10-01 09:31:00.537,26952.704,0.015,0.925,-0.38,0.001,-0.005,0.008,-0.193,0.092,-0.029,0.038,-1.181,1.469
2024-10-01 09:31:00.656,26952.824,0.016,0.927,-0.375,0.01,-0.011,0.002,0.036,-0.033,-0.013,0.043,-1.186,1.472
2024-10-01 09:31:00.776,26952.944,0.024,0.927,-0.374,-0.012,-0.003,0.003,0.251,0.168,0.108,0.063,-1.187,1.485
2024-10-01 09:31:00.896,26953.063,0.049,0.896,-0.442,0.008,0.021,0.072,0.803,-0.057,0.299,0.111,-1.11,1.533
2024-10-01 09:31:01.016,26953.183,0.072,0.873,-0.483,-0.01,-0.132,0.099,-0.305,-0.329,0.053,0.148,-1.061,1.593
2024-10-01 09:31:01.136,26953.303,0.022,0.883,-0.469,-0.06,0.457,-0.118,-0.033,-0.215,0.039,0.047,-1.082,1.529
2024-10-01 09:31:01.256,26953.423,0.026,0.878,-0.478,-0.019,-0.049,-0.014,0.036,0.061,0.022,0.053,-1.072,1.536
2024-10-01 09:31:01.375,26953.543,0.033,0.876,-0.481,0.019,-0.019,-0.034,-0.007,-0.029,-0.004,0.068,-1.068,1.544
2024-10-01 09:31:01.495,26953.662,0.015,0.882,-0.472,-0.008,-0.058,0.027,-0.195,-0.095,-0.096,0.032,-1.079,1.525
2024-10-01 09:31:01.615,26953.782,0.004,0.885,-0.465,-0.001,0.041,0.034,0.369,-0.001,-0.028,0.008,-1.087,1.501
2024-10-01 09:31:01.735,26953.902,-0.002,0.875,-0.485,0.001,0.014,0.0,0.061,0.024,-0.025,-0.003,-1.065,1.489
2024-10-01 09:31:01.855,26954.022,-0.003,0.872,-0.49,0.004,0.017,0.008,0.112,-0.05,-0.021,-0.006,-1.059,1.483
2024-10-01 09:31:01.974,26954.142,-0.009,0.866,-0.499,-0.007,-0.01,-0.01,-0.271,0.188,0.042,-0.018,-1.048,1.477
2024-10-01 09:31:02.094,26954.261,-0.014,0.863,-0.505,-0.027,0.019,-0.003,0.122,-0.017,-0.006,-0.027,-1.041,1.473
2024-10-01 09:31:02.214,26954.381,-0.013,0.863,-0.506,-0.006,0.035,0.017,0.118,0.083,-0.018,-0.026,-1.04,1.473
2024-10-01 09:31:02.334,26954.501,-0.011,0.868,-0.497,0.022,0.091,0.057,0.599,-0.231,-0.02,-0.023,-1.05,1.476
2024-10-01 09:31:02.453,26954.621,-0.009,0.875,-0.484,0.015,-0.091,-0.023,-0.147,-0.052,-0.005,-0.018,-1.065,1.479
2024-10-01 09:31:02.573,26954.741,-0.001,0.88,-0.475,-0.029,0.01,0.013,-0.547,0.364,0.166,-0.002,-1.076,1.492
2024-10-01 09:31:02.692,26954.86,0.015,0.886,-0.464,0.025,0.084,0.06,0.681,-0.159,-0.103,0.032,-1.088,1.508
2024-10-01 09:31:02.812,26954.98,0.01,0.88,-0.475,0.005,0.011,0.01,0.082,0.005,-0.009,0.02,-1.076,1.5
2024-10-01 09:31:02.933,26955.1,0.007,0.876,-0.482,0.002,0.004,-0.0,0.001,-0.016,-0.002,0.014,-1.068,1.496
2024-10-01 09:31:03.052,26955.22,0.006,0.875,-0.483,0.004,0.013,0.007,0.062,-0.024,-0.011,0.013,-1.066,1.496
2024-10-01 09:31:03.172,26955.34,0.003,0.873,-0.488,0.012,0.026,0.023,0.271,-0.178,-0.051,0.006,-1.061,1.491
2024-10-01 09:31:03.292,26955.459,0.0,0.872,-0.489,0.008,0.033,-0.002,0.058,-0.063,0.012,0.001,-1.06,1.493
2024-10-01 09:31:03.412,26955.579,0.0,0.865,-0.503,-0.019,0.062,0.003,0.2,0.191,0.004,0.001,-1.044,1.492
2024-10-01 09:31:03.530,26955.699,-0.004,0.866,-0.499,0.001,-0.118,-0.048,-0.543,-0.086,0.046,-0.008,-1.048,1.49
2024-10-01 09:31:03.652,26955.819,0.027,0.912,-0.409,-0.038,0.033,-0.003,-1.379,0.75,0.112,0.067,-1.148,1.522
2024-10-01 09:31:03.771,26955.939,0.075,0.962,-0.261,-0.0,0.116,-0.166,0.413,0.502,0.128,0.28,-1.296,1.658
2024-10-01 09:31:03.891,26956.058,0.086,0.954,-0.286,0.028,-0.024,0.024,0.686,0.098,0.008,0.292,-1.268,1.64
2024-10-01 09:31:04.011,26956.178,0.086,0.927,-0.365,-0.003,0.011,0.016,0.276,0.133,-0.037,0.232,-1.187,1.57
2024-10-01 09:31:04.130,26956.298,0.083,0.902,-0.424,0.05,0.021,0.015,0.598,0.164,-0.091,0.193,-1.124,1.514
2024-10-01 09:31:04.250,26956.418,0.056,0.881,-0.47,0.048,-0.014,0.011,0.199,-0.146,-0.46,0.119,-1.078,1.427
2024-10-01 09:31:04.370,26956.538,0.023,0.874,-0.485,-0.03,-0.048,-0.003,-0.099,0.217,-0.302,0.048,-1.064,1.352
2024-10-01 09:31:04.490,26956.657,0.007,0.877,-0.481,-0.099,0.083,0.047,-0.109,-0.08,-0.138,0.015,-1.069,1.305
2024-10-01 09:31:04.610,26956.777,0.002,0.877,-0.48,0.02,-0.133,-0.006,-0.155,0.103,0.063,0.005,-1.07,1.304
2024-10-01 09:31:04.730,26956.897,-0.0,0.874,-0.486,-0.001,-0.037,-0.023,-0.35,0.106,-0.031,-0.0,-1.063,1.297
2024-10-01 09:31:04.849,26957.017,-0.0,0.873,-0.487,-0.003,-0.011,-0.009,0.028,0.03,-0.072,-0.001,-1.062,1.297
2024-10-01 09:31:04.968,26957.137,0.0,0.869,-0.495,0.008,-0.014,-0.009,0.051,-0.022,0.005,0.0,-1.054,1.303
2024-10-01 09:31:05.088,26957.256,-0.002,0.87,-0.492,0.011,0.019,0.009,0.01,-0.043,-0.055,-0.005,-1.056,1.296
2024-10-01 09:31:05.209,26957.376,-0.012,0.862,-0.507,0.016,-0.05,-0.06,-0.664,-0.083,0.116,-0.023,-1.038,1.292
2024-10-01 09:31:05.328,26957.496,-0.004,0.872,-0.489,0.015,0.036,0.021,0.073,0.001,-0.027,-0.009,-1.06,1.298
2024-10-01 09:31:05.448,26957.616,-0.01,0.866,-0.499,-0.004,-0.013,0.01,-0.268,0.011,-0.036,-0.019,-1.048,1.298
2024-10-01 09:31:05.568,26957.736,-0.009,0.862,-0.507,0.014,0.037,0.023,0.518,-0.156,-0.018,-0.017,-1.039,1.3
2024-10-01 09:31:05.688,26957.855,-0.008,0.867,-0.498,-0.027,0.066,0.01,0.038,0.199,0.046,-0.017,-1.049,1.305
2024-10-01 09:31:05.808,26957.975,-0.006,0.865,-0.502,-0.017,0.004,0.007,0.205,0.011,0.069,-0.012,-1.045,1.307
2024-10-01 09:31:05.928,26958.095,0.003,0.863,-0.506,-0.01,0.108,0.037,0.328,-0.029,0.057,0.005,-1.041,1.331
2024-10-01 09:31:06.047,26958.215,-0.014,0.85,-0.527,-0.024,0.053,0.012,0.175,-0.086,-0.006,-0.026,-1.015,1.314
2024-10-01 09:31:06.167,26958.335,-0.004,0.866,-0.501,0.024,-0.047,-0.013,-0.017,0.072,-0.108,-0.008,-1.046,1.322
2024-10-01 09:31:06.287,26958.454,-0.006,0.874,-0.486,-0.033,0.022,0.017,-0.444,0.162,0.077,-0.013,-1.063,1.326
2024-10-01 09:31:06.407,26958.574,0.05,0.919,-0.392,-0.043,0.025,-0.0,-0.487,0.5,0.444,0.128,-1.164,1.429
2024-10-01 09:31:06.527,26958.694,0.072,0.915,-0.397,-0.07,-0.046,0.081,-0.565,0.093,-0.053,0.18,-1.156,1.464
2024-10-01 09:31:06.646,26958.814,0.082,0.924,-0.374,0.054,-0.041,0.076,0.009,-0.279,0.05,0.215,-1.178,1.511
2024-10-01 09:31:06.766,26958.934,0.067,0.895,-0.441,0.047,-0.124,-0.021,0.381,-0.337,-0.265,0.151,-1.108,1.486
2024-10-01 09:31:06.886,26959.053,-0.003,0.889,-0.458,-0.019,0.027,0.072,0.623,-0.033,-0.097,-0.007,-1.096,1.35
2024-10-01 09:31:07.005,26959.173,-0.01,0.865,-0.502,0.002,-0.028,-0.009,0.173,-0.038,-0.083,-0.021,-1.045,1.34
2024-10-01 09:31:07.125,26959.293,-0.024,0.861,-0.508,-0.006,0.012,0.01,0.175,0.007,-0.087,-0.048,-1.037,1.315
2024-10-01 09:31:07.245,26959.413,-0.024,0.863,-0.505,0.006,0.005,0.01,-0.052,0.09,-0.05,-0.048,-1.041,1.309
2024-10-01 09:31:07.365,26959.533,-0.026,0.861,-0.507,0.009,-0.014,-0.01,-0.033,-0.034,-0.018,-0.052,-1.038,1.302
2024-10-01 09:31:07.485,26959.652,-0.026,0.864,-0.503,0.006,-0.007,-0.005,-0.094,-0.011,-0.018,-0.052,-1.043,1.299
2024-10-01 09:31:07.604,26959.772,-0.027,0.863,-0.504,0.001,-0.004,0.001,-0.068,-0.008,-0.004,-0.054,-1.042,1.297
2024-10-01 09:31:07.725,26959.892,-0.034,0.854,-0.519,0.008,0.04,0.017,0.241,-0.101,-0.009,-0.065,-1.024,1.293
2024-10-01 09:31:07.844,26960.012,-0.032,0.861,-0.508,-0.008,-0.007,-0.019,-0.286,0.114,0.071,-0.064,-1.037,1.295
2024-10-01 09:31:07.964,26960.132,-0.032,0.858,-0.513,0.018,0.061,0.036,0.641,-0.156,-0.073,-0.062,-1.032,1.299
2024-10-01 09:31:08.084,26960.251,-0.027,0.865,-0.501,-0.009,-0.062,-0.035,-0.3,0.084,0.094,-0.053,-1.045,1.308
2024-10-01 09:31:08.204,26960.371,-0.029,0.864,-0.502,0.003,-0.075,0.0,-0.319,0.048,0.011,-0.057,-1.044,1.314
2024-10-01 09:31:08.323,26960.491,-0.017,0.871,-0.491,0.011,0.015,0.019,0.191,-0.063,-0.039,-0.035,-1.057,1.325
2024-10-01 09:31:08.443,26960.611,-0.028,0.862,-0.507,0.014,-0.083,-0.039,-0.296,0.041,0.082,-0.055,-1.038,1.325
2024-10-01 09:31:08.563,26960.731,-0.018,0.872,-0.49,0.022,0.091,0.053,0.516,-0.189,-0.087,-0.038,-1.059,1.328
2024-10-01 09:31:08.682,26960.85,-0.016,0.879,-0.477,-0.046,0.111,-0.017,-0.695,0.432,0.121,-0.033,-1.073,1.335
2024-10-01 09:31:08.802,26960.97,0.023,0.906,-0.422,-0.001,0.025,0.025,0.058,0.033,0.33,0.055,-1.135,1.402
2024-10-01 09:31:08.922,26961.09,0.046,0.885,-0.463,0.012,0.037,0.021,0.45,-0.052,0.244,0.1,-1.087,1.452
2024-10-01 09:31:09.042,26961.21,0.055,0.892,-0.448,-0.014,-0.161,0.121,-0.483,-0.353,-0.159,0.121,-1.103,1.493
2024-10-01 09:31:09.161,26961.329,0.016,0.882,-0.471,-0.046,-0.122,-0.065,0.281,-0.209,-0.259,0.033,-1.08,1.431
2024-10-01 09:31:09.282,26961.449,0.01,0.872,-0.49,0.009,-0.084,-0.037,-0.173,0.071,-0.021,0.021,-1.058,1.413
2024-10-01 09:31:09.402,26961.569,0.004,0.869,-0.495,0.002,-0.016,0.001,0.168,0.057,-0.042,0.009,-1.053,1.401
2024-10-01 09:31:09.522,26961.689,0.004,0.864,-0.504,-0.002,0.01,0.001,0.099,0.056,-0.051,0.009,-1.043,1.392
2024-10-01 09:31:09.641,26961.809,0.003,0.86,-0.511,0.003,-0.004,0.001,0.148,-0.025,-0.016,0.006,-1.035,1.387
2024-10-01 09:31:09.761,26961.928,-0.002,0.859,-0.513,-0.023,0.021,0.008,-0.155,0.09,0.011,-0.004,-1.032,1.383
2024-10-01 09:31:09.881,26962.048,0.002,0.865,-0.502,0.018,0.044,0.03,0.454,-0.176,-0.045,0.004,-1.045,1.386
2024-10-01 09:31:10.001,26962.168,-0.002,0.861,-0.509,-0.009,0.076,0.027,-0.068,0.083,0.006,-0.004,-1.037,1.382
2024-10-01 09:31:10.121,26962.288,-0.004,0.86,-0.51,-0.002,-0.046,-0.027,-0.343,-0.059,0.024,-0.008,-1.035,1.384
2024-10-01 09:31:10.239,26962.408,0.009,0.869,-0.495,0.011,0.042,0.036,0.162,-0.012,0.092,0.017,-1.053,1.399
2024-10-01 09:31:10.360,26962.527,0.003,0.858,-0.514,-0.007,-0.015,-0.016,-0.08,-0.0,-0.035,0.006,-1.031,1.4
2024-10-01 09:31:10.480,26962.647,0.001,0.858,-0.514,0.015,0.016,0.013,0.276,-0.148,-0.061,0.003,-1.031,1.397
2024-10-01 09:31:10.600,26962.767,-0.003,0.861,-0.509,-0.018,-0.056,0.001,-0.119,0.165,0.04,-0.006,-1.037,1.396
2024-10-01 09:31:10.719,26962.887,-0.002,0.854,-0.521,0.018,0.049,0.041,0.799,-0.162,-0.045,-0.003,-1.023,1.393
2024-10-01 09:31:10.839,26963.007,0.005,0.874,-0.485,-0.028,-0.086,-0.075,-0.894,0.258,0.138,0.01,-1.064,1.402
2024-10-01 09:31:10.959,26963.126,0.027,0.918,-0.395,0.042,0.007,0.008,-0.199,0.093,0.006,0.068,-1.163,1.436
2024-10-01 09:31:11.079,26963.246,0.031,0.92,-0.391,0.015,-0.032,-0.024,-0.161,0.248,-0.036,0.079,-1.168,1.431
2024-10-01 09:31:11.199,26963.366,0.036,0.927,-0.373,-0.078,0.012,0.023,0.204,-0.241,0.163,0.097,-1.187,1.44
2024-10-01 09:31:11.318,26963.486,0.043,0.894,-0.446,0.042,-0.183,0.031,0.262,-0.339,0.006,0.096,-1.107,1.477
2024-10-01 09:31:11.438,26963.606,0.035,0.883,-0.469,-0.01,-0.029,0.006,0.189,-0.119,0.007,0.074,-1.081,1.47
2024-10-01 09:31:11.557,26963.725,0.033,0.867,-0.497,-0.034,0.022,0.0,0.13,0.084,0.038,0.066,-1.05,1.472
2024-10-01 09:31:11.677,26963.845,0.027,0.868,-0.495,0.021,-0.055,-0.076,-0.341,-0.1,-0.348,0.054,-1.052,1.465
2024-10-01 09:31:11.798,26963.965,0.015,0.873,-0.488,0.003,-0.039,-0.003,0.16,0.043,-0.017,0.031,-1.061,1.436
2024-10-01 09:31:11.917,26964.085,0.015,0.87,-0.493,-0.0,0.007,0.003,0.109,0.005,-0.019,0.03,-1.055,1.431
2024-10-01 09:31:12.037,26964.205,0.007,0.858,-0.513,-0.034,-0.044,-0.055,-0.093,-0.006,-0.025,0.014,-1.032,1.422
2024-10-01 09:31:12.157,26964.324,0.014,0.874,-0.485,0.002,-0.011,-0.012,-0.174,0.033,-0.015,0.028,-1.064,1.43
2024-10-01 09:31:12.277,26964.444,0.007,0.864,-0.503,-0.005,-0.048,-0.037,-0.398,-0.037,-0.017,0.014,-1.044,1.424
2024-10-01 09:31:12.397,26964.564,0.011,0.874,-0.487,0.011,0.043,0.031,0.204,-0.106,-0.005,0.023,-1.062,1.429
2024-10-01 09:31:12.516,26964.684,0.008,0.869,-0.494,-0.019,0.032,0.051,0.079,0.12,0.046,0.016,-1.054,1.428
2024-10-01 09:31:12.637,26964.804,0.019,0.867,-0.499,0.003,0.064,0.029,0.299,-0.123,-0.036,0.038,-1.048,1.444
2024-10-01 09:31:12.755,26964.923,0.013,0.864,-0.504,0.01,0.046,0.029,0.176,-0.109,-0.021,0.026,-1.042,1.436
2024-10-01 09:31:12.876,26965.043,0.008,0.865,-0.502,-0.035,-0.028,0.018,-0.214,0.183,0.091,0.015,-1.045,1.434
2024-10-01 09:31:12.996,26965.163,0.008,0.854,-0.52,0.013,0.072,0.039,0.502,-0.055,-0.013,0.015,-1.023,1.433
2024-10-01 09:31:13.116,26965.283,0.02,0.89,-0.455,0.001,-0.17,-0.049,-1.318,0.28,0.093,0.044,-1.098,1.45
2024-10-01 09:31:13.235,26965.403,0.036,0.928,-0.372,0.004,0.008,0.025,-0.081,0.053,-0.009,0.096,-1.188,1.482
2024-10-01 09:31:13.355,26965.522,0.037,0.929,-0.367,0.018,-0.057,-0.052,-0.015,0.115,-0.123,0.101,-1.192,1.472
2024-10-01 09:31:13.475,26965.642,0.029,0.927,-0.374,0.016,0.0,0.027,0.33,-0.095,-0.048,0.077,-1.186,1.44
2024-10-01 09:31:13.594,26965.762,0.033,0.93,-0.366,-0.037,0.029,0.003,0.051,-0.079,0.097,0.089,-1.194,1.478
2024-10-01 09:31:13.714,26965.882,0.059,0.896,-0.441,-0.034,-0.039,0.096,0.437,-0.161,0.275,0.132,-1.11,1.528
2024-10-01 09:31:13.834,26966.002,0.031,0.889,-0.457,0.048,-0.053,-0.051,-0.069,-0.307,-0.426,0.067,-1.095,1.5
2024-10-01 09:31:13.954,26966.121,0.008,0.868,-0.496,-0.02,0.005,-0.008,0.192,-0.015,-0.007,0.015,-1.052,1.46
2024-10-01 09:31:14.074,26966.241,0.004,0.867,-0.498,0.005,-0.013,-0.0,0.014,-0.028,-0.06,0.009,-1.049,1.453
2024-10-01 09:31:14.194,26966.361,0.002,0.863,-0.505,0.002,-0.003,0.003,0.072,-0.031,-0.025,0.005,-1.042,1.444
2024-10-01 09:31:14.313,26966.481,0.002,0.861,-0.508,-0.004,-0.002,0.0,0.012,0.015,-0.005,0.004,-1.038,1.437
2024-10-01 09:31:14.433,26966.601,-0.005,0.849,-0.528,-0.013,0.011,-0.012,0.128,-0.022,-0.041,-0.009,-1.014,1.428
2024-10-01 09:31:14.552,26966.72,-0.002,0.859,-0.512,-0.01,-0.008,-0.026,-0.44,0.16,0.067,-0.003,-1.033,1.431
2024-10-01 09:31:14.673,26966.84,-0.005,0.856,-0.518,0.007,0.016,0.025,0.765,-0.148,-0.106,-0.009,-1.027,1.428
2024-10-01 09:31:14.793,26966.96,-0.004,0.859,-0.512,-0.012,-0.069,-0.045,-0.322,0.085,0.062,-0.008,-1.033,1.426
2024-10-01 09:31:14.913,26967.08,-0.009,0.857,-0.516,-0.007,-0.101,-0.029,-0.469,0.02,0.017,-0.017,-1.029,1.425
2024-10-01 09:31:15.033,26967.2,0.007,0.869,-0.495,0.005,0.033,0.017,0.302,-0.068,0.123,0.014,-1.053,1.449
2024-10-01 09:31:15.152,26967.319,0.001,0.855,-0.519,-0.016,-0.038,-0.021,-0.267,0.08,0.004,0.001,-1.025,1.442
2024-10-01 09:31:15.271,26967.439,-0.007,0.85,-0.527,-0.002,-0.192,-0.058,-0.628,-0.037,0.048,-0.014,-1.015,1.438
2024-10-01 09:31:15.392,26967.559,0.0,0.857,-0.516,0.025,0.086,0.039,0.483,-0.215,-0.08,0.0,-1.029,1.441
2024-10-01 09:31:15.512,26967.679,0.001,0.865,-0.501,-0.031,0.024,-0.036,-0.374,0.289,0.236,0.003,-1.046,1.446
2024-10-01 09:31:15.631,26967.799,0.049,0.864,-0.501,-0.022,0.168,0.049,0.093,-0.258,0.282,0.099,-1.044,1.54
2024-10-01 09:31:15.751,26967.918,0.024,0.881,-0.472,0.109,-0.193,-0.062,-0.633,-0.205,-0.316,0.052,-1.079,1.515
2024-10-01 09:31:15.871,26968.038,0.011,0.867,-0.498,-0.03,-0.049,-0.0,0.314,0.108,-0.001,0.021,-1.049,1.494
2024-10-01 09:31:15.990,26968.158,0.012,0.862,-0.507,-0.011,0.029,0.008,0.299,0.04,-0.041,0.023,-1.039,1.487
2024-10-01 09:31:16.110,26968.278,0.011,0.858,-0.514,0.0,-0.0,0.001,0.104,0.007,-0.028,0.021,-1.031,1.482
2024-10-01 09:31:16.230,26968.398,0.01,0.856,-0.516,-0.002,-0.02,-0.002,0.056,0.0,-0.014,0.02,-1.028,1.478
2024-10-01 09:31:16.349,26968.517,0.007,0.852,-0.523,0.002,0.044,0.003,0.116,-0.035,-0.046,0.014,-1.021,1.476
2024-10-01 09:31:16.469,26968.637,0.009,0.86,-0.51,-0.009,-0.013,-0.035,-0.425,0.113,0.036,0.017,-1.035,1.478
2024-10-01 09:31:16.590,26968.757,0.006,0.854,-0.52,-0.027,-0.053,-0.069,-0.109,-0.037,-0.004,0.012,-1.024,1.476
2024-10-01 09:31:16.709,26968.877,0.007,0.863,-0.506,-0.003,-0.031,-0.021,-0.239,0.031,0.015,0.014,-1.041,1.476
2024-10-01 09:31:16.830,26968.997,0.006,0.861,-0.509,-0.022,-0.085,0.041,-0.29,0.043,0.022,0.012,-1.037,1.479
2024-10-01 09:31:16.949,26969.116,0.016,0.872,-0.488,0.018,0.007,0.014,-0.085,-0.175,0.008,0.033,-1.06,1.493
2024-10-01 09:31:17.069,26969.236,0.004,0.856,-0.518,0.002,0.013,0.014,0.313,-0.16,-0.014,0.008,-1.027,1.479
2024-10-01 09:31:17.188,26969.356,0.004,0.861,-0.509,-0.01,-0.02,-0.02,-0.468,0.055,0.042,0.007,-1.037,1.482
2024-10-01 09:31:17.308,26969.476,0.008,0.863,-0.506,0.021,0.063,0.037,0.552,-0.209,-0.067,0.017,-1.04,1.48
2024-10-01 09:31:17.428,26969.596,0.007,0.876,-0.483,-0.028,0.029,-0.015,-0.526,0.194,0.041,0.015,-1.067,1.486
2024-10-01 09:31:17.548,26969.715,0.029,0.921,-0.388,0.004,0.029,0.045,0.034,0.282,0.032,0.074,-1.171,1.509
2024-10-01 09:31:17.668,26969.835,0.053,0.94,-0.337,-0.032,-0.02,-0.054,-0.787,0.621,0.225,0.157,-1.223,1.557
2024-10-01 09:31:17.787,26969.955,0.104,0.946,-0.306,-0.025,0.054,-0.057,0.284,0.464,0.113,0.329,-1.242,1.657
2024-10-01 09:31:17.908,26970.075,0.092,0.944,-0.318,0.063,0.005,0.039,0.016,-0.12,-0.2,0.281,-1.234,1.588
2024-10-01 09:31:18.027,26970.195,0.069,0.936,-0.345,-0.006,-0.012,0.007,0.138,-0.14,-0.076,0.199,-1.211,1.526
2024-10-01 09:31:18.147,26970.314,0.069,0.936,-0.344,0.006,-0.049,-0.002,-0.183,-0.032,0.003,0.198,-1.212,1.53
2024-10-01 09:31:18.267,26970.434,0.054,0.944,-0.326,-0.009,0.126,0.058,0.567,-0.256,-0.2,0.165,-1.234,1.528
2024-10-01 09:31:18.387,26970.554,0.048,0.924,-0.379,-0.02,0.007,-0.048,0.214,0.046,0.045,0.127,-1.179,1.502
2024-10-01 09:31:18.506,26970.674,0.054,0.921,-0.386,0.016,-0.004,0.025,0.088,-0.095,0.056,0.139,-1.17,1.513
2024-10-01 09:31:18.626,26970.794,0.057,0.921,-0.385,0.003,0.015,-0.019,0.0,0.028,0.025,0.148,-1.171,1.529
2024-10-01 09:31:18.746,26970.913,0.059,0.924,-0.377,0.006,0.005,0.004,-0.095,0.108,-0.054,0.154,-1.18,1.521
2024-10-01 09:31:18.866,26971.033,0.07,0.92,-0.386,-0.006,-0.033,0.025,0.098,0.22,0.013,0.18,-1.168,1.53
2024-10-01 09:31:18.986,26971.153,0.069,0.918,-0.391,0.027,-0.105,0.068,-0.019,0.119,-0.176,0.176,-1.163,1.501
2024-10-01 09:31:19.105,26971.273,0.067,0.912,-0.406,0.012,0.044,-0.037,0.477,0.018,0.145,0.165,-1.147,1.476
2024-10-01 09:31:19.225,26971.393,0.083,0.889,-0.451,0.03,0.005,0.048,0.022,-0.187,0.151,0.181,-1.094,1.508
2024-10-01 09:31:19.345,26971.512,0.086,0.891,-0.445,0.018,0.034,-0.013,0.045,-0.288,0.086,0.192,-1.1,1.544
2024-10-01 09:31:19.465,26971.632,0.057,0.897,-0.437,-0.102,-0.02,-0.073,-0.217,-0.369,-0.211,0.129,-1.114,1.516
2024-10-01 09:31:19.584,26971.752,0.021,0.91,-0.414,0.106,0.231,0.003,-0.046,-0.117,-0.06,0.05,-1.143,1.45
2024-10-01 09:31:19.704,26971.872,0.02,0.906,-0.423,-0.017,0.025,-0.008,0.185,0.023,0.116,0.046,-1.134,1.441
2024-10-01 09:31:19.824,26971.992,0.044,0.885,-0.463,0.009,-0.061,0.071,-0.229,0.093,0.144,0.094,-1.087,1.483
2024-10-01 09:31:19.944,26972.111,0.023,0.898,-0.44,-0.008,0.259,-0.038,-0.154,-0.022,-0.221,0.052,-1.115,1.442
2024-10-01 09:31:20.064,26972.231,0.01,0.893,-0.45,0.008,-0.09,-0.026,0.036,-0.093,0.026,0.022,-1.104,1.41
2024-10-01 09:31:20.182,26972.351,0.007,0.891,-0.453,0.006,0.025,-0.006,-0.059,-0.02,-0.119,0.017,-1.1,1.409
2024-10-01 09:31:20.303,26972.471,-0.003,0.889,-0.458,-0.009,0.017,0.025,0.203,0.02,0.003,-0.006,-1.095,1.384
2024-10-01 09:31:20.423,26972.591,0.0,0.883,-0.469,-0.004,0.056,0.017,0.278,0.049,-0.051,0.001,-1.082,1.389
2024-10-01 09:31:20.543,26972.71,-0.008,0.879,-0.476,0.001,0.011,-0.0,-0.012,0.017,-0.021,-0.017,-1.074,1.371
2024-10-01 09:31:20.663,26972.83,-0.018,0.87,-0.493,0.015,0.047,0.027,0.571,-0.17,-0.092,-0.036,-1.055,1.36
2024-10-01 09:31:20.782,26972.95,-0.015,0.875,-0.484,-0.007,-0.016,-0.034,-0.352,0.239,-0.003,-0.031,-1.065,1.362
2024-10-01 09:31:20.902,26973.07,-0.025,0.864,-0.504,-0.008,0.055,0.04,0.521,0.018,-0.028,-0.05,-1.042,1.347
2024-10-01 09:31:21.022,26973.19,-0.021,0.885,-0.465,-0.015,0.018,0.041,0.019,0.142,-0.022,-0.046,-1.087,1.361
2024-10-01 09:31:21.142,26973.309,-0.03,0.869,-0.493,-0.0,0.088,0.049,0.394,-0.101,-0.038,-0.06,-1.054,1.348
2024-10-01 09:31:21.262,26973.429,-0.005,0.885,-0.466,0.01,-0.036,-0.003,-0.227,0.277,0.061,-0.011,-1.086,1.376
2024-10-01 09:31:21.381,26973.549,-0.008,0.878,-0.478,-0.001,-0.075,-0.043,-0.159,0.048,-0.056,-0.017,-1.072,1.369
2024-10-01 09:31:21.501,26973.669,-0.011,0.88,-0.474,0.003,-0.026,-0.017,-0.094,-0.048,-0.037,-0.023,-1.077,1.362
2024-10-01 09:31:21.621,26973.789,-0.018,0.876,-0.482,-0.004,-0.01,-0.009,-0.276,-0.045,0.118,-0.038,-1.068,1.357
2024-10-01 09:31:21.741,26973.908,-0.015,0.884,-0.468,0.028,0.101,0.062,0.753,-0.293,-0.055,-0.032,-1.084,1.362
2024-10-01 09:31:21.860,26974.028,-0.011,0.884,-0.468,-0.017,0.014,-0.011,-0.176,0.038,0.062,-0.023,-1.084,1.366
2024-10-01 09:31:21.980,26974.148,-0.017,0.879,-0.477,-0.004,0.018,-0.015,-0.347,0.138,0.007,-0.037,-1.073,1.362
2024-10-01 09:31:22.099,26974.268,-0.013,0.879,-0.476,0.009,0.037,0.027,0.423,-0.129,-0.043,-0.028,-1.075,1.359
2024-10-01 09:31:22.220,26974.388,-0.014,0.885,-0.466,-0.022,0.013,0.017,-0.039,0.12,-0.014,-0.031,-1.086,1.367
2024-10-01 09:31:22.340,26974.507,-0.019,0.875,-0.483,0.027,0.058,0.037,0.762,-0.297,-0.077,-0.039,-1.066,1.362
2024-10-01 09:31:22.460,26974.627,-0.015,0.882,-0.472,-0.034,-0.031,-0.011,-0.331,0.282,0.076,-0.032,-1.079,1.365
2024-10-01 09:31:22.579,26974.747,0.023,0.941,-0.338,0.006,0.011,-0.03,-1.137,0.31,0.154,0.067,-1.225,1.414
2024-10-01 09:31:22.699,26974.867,0.044,0.954,-0.298,-0.049,0.071,0.011,0.531,0.031,0.216,0.147,-1.265,1.5
2024-10-01 09:31:22.818,26974.987,0.059,0.912,-0.407,-0.002,-0.036,0.108,-0.25,-0.385,0.255,0.144,-1.148,1.534
2024-10-01 09:31:22.939,26975.106,0.04,0.899,-0.436,0.077,-0.085,-0.062,0.351,-0.26,-0.3,0.092,-1.117,1.522
2024-10-01 09:31:23.059,26975.226,0.005,0.881,-0.473,-0.05,0.036,0.038,0.674,-0.089,-0.03,0.011,-1.078,1.453
2024-10-01 09:31:23.178,26975.346,-0.009,0.87,-0.493,0.01,0.005,0.003,-0.118,-0.052,-0.169,-0.018,-1.055,1.425
2024-10-01 09:31:23.298,26975.466,-0.015,0.867,-0.498,0.0,-0.007,-0.003,0.035,0.024,-0.052,-0.03,-1.049,1.408
2024-10-01 09:31:23.418,26975.586,-0.019,0.866,-0.5,0.002,-0.008,-0.001,0.027,0.005,-0.012,-0.039,-1.047,1.396
2024-10-01 09:31:23.538,26975.705,-0.019,0.87,-0.493,0.009,0.028,0.016,0.049,-0.014,-0.011,-0.039,-1.054,1.394
2024-10-01 09:31:23.658,26975.825,-0.024,0.865,-0.501,-0.003,0.002,-0.004,-0.014,-0.05,-0.002,-0.048,-1.045,1.39
2024-10-01 09:31:23.777,26975.945,-0.014,0.874,-0.487,-0.013,-0.099,-0.037,-0.476,0.217,0.155,-0.028,-1.062,1.403
2024-10-01 09:31:23.897,26976.065,-0.01,0.882,-0.471,-0.001,-0.0,0.004,0.091,-0.089,-0.059,-0.021,-1.08,1.4
2024-10-01 09:31:24.017,26976.185,-0.013,0.881,-0.473,0.006,0.018,0.011,0.112,-0.026,-0.031,-0.028,-1.078,1.394
2024-10-01 09:31:24.137,26976.304,-0.021,0.881,-0.473,0.021,-0.003,-0.008,-0.381,-0.213,0.119,-0.045,-1.077,1.393
2024-10-01 09:31:24.257,26976.424,-0.015,0.887,-0.462,-0.001,0.019,0.014,0.027,0.096,-0.026,-0.032,-1.09,1.397
2024-10-01 09:31:24.378,26976.544,-0.017,0.884,-0.467,-0.003,-0.034,-0.017,-0.105,0.022,-0.002,-0.037,-1.085,1.391
2024-10-01 09:31:24.496,26976.664,-0.019,0.883,-0.469,0.006,0.006,0.004,0.242,-0.142,-0.036,-0.04,-1.082,1.389
2024-10-01 09:31:24.616,26976.784,-0.014,0.889,-0.458,-0.008,-0.011,-0.012,-0.266,0.225,0.182,-0.03,-1.094,1.4
2024-10-01 09:31:24.736,26976.903,-0.003,0.889,-0.459,0.017,0.036,0.019,0.502,-0.157,-0.091,-0.006,-1.094,1.414
2024-10-01 09:31:24.855,26977.023,-0.007,0.886,-0.463,0.003,0.034,0.02,0.031,0.008,-0.007,-0.016,-1.089,1.404
2024-10-01 09:31:24.975,26977.143,-0.013,0.878,-0.479,-0.006,-0.027,-0.025,-0.095,-0.035,0.005,-0.026,-1.071,1.399
2024-10-01 09:31:25.095,26977.263,-0.009,0.888,-0.46,-0.015,0.001,-0.021,-0.336,0.131,0.038,-0.021,-1.092,1.402
2024-10-01 09:31:25.215,26977.383,-0.014,0.88,-0.475,-0.002,-0.199,-0.051,-0.235,-0.009,0.046,-0.029,-1.076,1.399
2024-10-01 09:31:25.335,26977.502,-0.007,0.891,-0.455,0.012,-0.022,-0.007,-0.193,-0.005,-0.01,-0.015,-1.099,1.404
2024-10-01 09:31:25.454,26977.622,-0.014,0.883,-0.47,-0.004,0.002,-0.018,-0.208,0.031,0.032,-0.029,-1.082,1.401
2024-10-01 09:31:25.574,26977.742,-0.008,0.888,-0.46,0.013,0.043,0.029,0.295,-0.112,-0.054,-0.018,-1.093,1.399
2024-10-01 09:31:25.694,26977.862,-0.011,0.889,-0.458,-0.011,0.046,0.025,-0.015,0.087,0.007,-0.025,-1.095,1.402
2024-10-01 09:31:25.814,26977.982,-0.017,0.879,-0.477,-0.0,0.071,0.036,0.235,-0.061,-0.007,-0.035,-1.073,1.398
2024-10-01 09:31:25.933,26978.101,-0.01,0.885,-0.465,-0.014,-0.061,-0.007,-0.146,0.208,0.008,-0.022,-1.087,1.407
2024-10-01 09:31:26.054,26978.221,0.024,0.956,-0.293,0.003,0.046,0.002,-1.363,0.265,0.236,0.083,-1.272,1.47
2024-10-01 09:31:26.174,26978.341,0.035,0.963,-0.266,-0.005,0.044,0.025,0.401,-0.072,0.032,0.13,-1.299,1.513
2024-10-01 09:31:26.293,26978.461,0.039,0.958,-0.285,0.002,0.024,0.031,0.426,-0.057,0.091,0.136,-1.279,1.526
2024-10-01 09:31:26.413,26978.581,0.042,0.935,-0.351,-0.019,0.04,0.008,0.824,-0.099,0.042,0.12,-1.209,1.527
2024-10-01 09:31:26.533,26978.7,0.05,0.899,-0.435,0.005,0.002,0.07,0.193,-0.215,0.288,0.114,-1.118,1.541
2024-10-01 09:31:26.653,26978.82,0.035,0.9,-0.435,0.03,-0.034,-0.083,0.144,-0.27,-0.185,0.079,-1.12,1.546
2024-10-01 09:31:26.772,26978.94,0.015,0.892,-0.451,-0.02,0.131,-0.004,0.422,-0.098,-0.053,0.033,-1.102,1.512
2024-10-01 09:31:26.892,26979.06,0.013,0.886,-0.463,0.006,0.029,0.023,0.124,-0.002,-0.011,0.029,-1.089,1.506
2024-10-01 09:31:27.012,26979.18,0.013,0.883,-0.469,0.003,-0.004,0.014,0.182,-0.043,-0.013,0.028,-1.082,1.503
2024-10-01 09:31:27.132,26979.299,0.013,0.881,-0.472,-0.003,-0.009,-0.007,-0.063,0.019,0.012,0.027,-1.079,1.501
2024-10-01 09:31:27.251,26979.419,0.008,0.874,-0.485,0.009,0.028,0.017,0.401,-0.111,-0.044,0.016,-1.064,1.495
2024-10-01 09:31:27.371,26979.539,0.007,0.878,-0.48,-0.009,-0.029,-0.014,-0.078,0.154,0.032,0.015,-1.071,1.493
2024-10-01 09:31:27.491,26979.659,0.013,0.881,-0.472,-0.007,-0.005,-0.001,0.212,-0.011,-0.005,0.028,-1.079,1.496
2024-10-01 09:31:27.611,26979.779,0.008,0.876,-0.482,0.011,0.019,0.035,0.463,-0.092,-0.038,0.016,-1.068,1.489
2024-10-01 09:31:27.730,26979.898,0.005,0.878,-0.478,0.002,-0.017,-0.024,-0.14,-0.131,0.031,0.01,-1.072,1.489
2024-10-01 09:31:27.850,26980.018,0.011,0.887,-0.462,-0.001,-0.075,-0.03,-0.313,0.053,0.026,0.025,-1.09,1.493
2024-10-01 09:31:27.970,26980.138,0.004,0.881,-0.474,0.01,-0.006,-0.012,-0.28,0.072,-0.017,0.008,-1.077,1.487
2024-10-01 09:31:28.091,26980.258,0.02,0.89,-0.456,0.002,0.035,0.016,0.067,0.112,0.02,0.044,-1.097,1.501
2024-10-01 09:31:28.210,26980.378,0.014,0.88,-0.475,-0.007,-0.048,-0.036,-0.229,0.02,-0.001,0.03,-1.075,1.493
2024-10-01 09:31:28.330,26980.497,0.015,0.882,-0.471,-0.003,-0.001,0.007,0.032,0.014,0.002,0.031,-1.08,1.492
2024-10-01 09:31:28.450,26980.617,0.015,0.882,-0.472,-0.005,-0.006,0.0,0.048,0.017,-0.008,0.031,-1.079,1.49
2024-10-01 09:31:28.569,26980.737,0.01,0.877,-0.481,0.006,0.024,0.016,0.117,-0.063,-0.005,0.022,-1.069,1.487
2024-10-01 09:31:28.689,26980.857,0.012,0.883,-0.47,-0.001,-0.016,-0.021,-0.263,0.079,0.033,0.026,-1.082,1.488
2024-10-01 09:31:28.809,26980.976,0.009,0.878,-0.479,0.004,0.049,0.037,0.227,-0.049,-0.011,0.018,-1.071,1.486
2024-10-01 09:31:28.928,26981.096,0.016,0.886,-0.463,-0.009,-0.037,-0.029,-0.374,0.118,0.054,0.035,-1.09,1.492
2024-10-01 09:31:29.049,26981.216,0.008,0.877,-0.48,-0.05,-0.004,-0.072,-0.132,-0.046,0.006,0.016,-1.07,1.484
2024-10-01 09:31:29.168,26981.336,0.014,0.887,-0.462,-0.001,-0.036,-0.022,-0.212,0.112,0.001,0.031,-1.091,1.489
2024-10-01 09:31:29.288,26981.456,0.008,0.875,-0.485,-0.048,-0.057,-0.079,-0.187,-0.0,0.038,0.016,-1.065,1.48
2024-10-01 09:31:29.408,26981.575,0.011,0.889,-0.459,-0.02,0.015,-0.027,-0.414,0.181,0.055,0.025,-1.094,1.486
2024-10-01 09:31:29.528,26981.695,0.005,0.88,-0.474,0.014,0.012,0.023,0.628,-0.248,-0.062,0.011,-1.076,1.48
2024-10-01 09:31:29.647,26981.815,0.007,0.882,-0.471,-0.014,-0.017,0.019,-0.043,0.101,-0.007,0.014,-1.08,1.488
2024-10-01 09:31:29.767,26981.935,0.023,0.926,-0.377,0.004,0.007,-0.021,-1.186,0.262,0.052,0.06,-1.183,1.502
2024-10-01 09:31:29.888,26982.055,0.027,0.933,-0.359,-0.015,0.008,0.004,0.196,-0.04,0.074,0.076,-1.202,1.52
2024-10-01 09:31:30.007,26982.174,0.039,0.929,-0.369,0.011,0.031,0.016,0.313,0.051,0.137,0.105,-1.191,1.546
2024-10-01 09:31:30.127,26982.294,0.069,0.904,-0.421,-0.016,0.01,0.03,0.245,-0.07,0.281,0.163,-1.13,1.611
2024-10-01 09:31:30.247,26982.414,0.049,0.906,-0.42,0.022,0.031,-0.058,0.186,-0.383,-0.262,0.115,-1.134,1.592
2024-10-01 09:31:30.366,26982.534,0.028,0.894,-0.447,0.002,-0.085,0.051,0.179,-0.063,-0.138,0.063,-1.106,1.555
2024-10-01 09:31:30.487,26982.654,0.011,0.888,-0.459,-0.024,0.063,0.032,0.112,0.095,-0.069,0.024,-1.093,1.517
2024-10-01 09:31:30.606,26982.773,0.008,0.888,-0.459,-0.005,0.045,0.041,0.375,-0.005,-0.064,0.017,-1.094,1.5
2024-10-01 09:31:30.726,26982.893,0.003,0.883,-0.469,0.005,0.019,0.012,0.093,-0.014,-0.038,0.007,-1.083,1.49
2024-10-01 09:31:30.845,26983.013,0.002,0.883,-0.469,0.004,0.017,0.005,0.069,-0.072,-0.013,0.003,-1.083,1.487
2024-10-01 09:31:30.965,26983.133,-0.003,0.882,-0.47,-0.011,-0.002,0.012,0.02,0.049,-0.001,-0.007,-1.081,1.481
2024-10-01 09:31:31.085,26983.253,0.007,0.888,-0.46,0.024,0.019,0.024,0.213,-0.084,-0.027,0.015,-1.093,1.49
2024-10-01 09:31:31.205,26983.372,0.006,0.884,-0.467,0.006,0.015,0.022,0.134,-0.025,-0.015,0.012,-1.085,1.486
2024-10-01 09:31:31.325,26983.492,0.002,0.88,-0.476,0.002,-0.057,-0.015,-0.162,-0.078,0.013,0.005,-1.075,1.483
2024-10-01 09:31:31.445,26983.612,0.005,0.888,-0.46,-0.018,0.015,-0.041,-0.375,0.235,0.056,0.011,-1.093,1.487
2024-10-01 09:31:31.564,26983.732,0.001,0.88,-0.474,0.0,0.007,-0.057,-0.003,-0.06,-0.054,0.002,-1.077,1.484
2024-10-01 09:31:31.684,26983.852,0.015,0.888,-0.459,-0.02,0.014,-0.044,-0.378,0.328,0.123,0.032,-1.093,1.499
2024-10-01 09:31:31.804,26983.971,0.017,0.884,-0.467,0.003,-0.002,0.001,0.192,-0.111,-0.042,0.036,-1.084,1.502
2024-10-01 09:31:31.924,26984.091,0.016,0.883,-0.468,-0.004,0.009,0.009,0.09,0.009,-0.009,0.034,-1.083,1.5
2024-10-01 09:31:32.043,26984.211,0.012,0.877,-0.481,-0.0,0.034,0.01,0.131,-0.027,-0.023,0.024,-1.069,1.496
2024-10-01 09:31:32.163,26984.331,0.015,0.884,-0.467,-0.014,-0.056,-0.045,-0.48,0.141,0.055,0.032,-1.084,1.499
2024-10-01 09:31:32.283,26984.451,0.015,0.886,-0.464,-0.001,-0.017,-0.012,-0.055,-0.007,-0.014,0.031,-1.089,1.498
2024-10-01 09:31:32.403,26984.57,0.014,0.887,-0.462,0.001,-0.003,0.005,0.05,-0.043,0.005,0.031,-1.09,1.498
2024-10-01 09:31:32.523,26984.69,0.01,0.881,-0.472,0.007,0.003,0.016,-0.045,0.006,0.015,0.022,-1.079,1.498
2024-10-01 09:31:32.642,26984.81,0.017,0.891,-0.454,0.007,0.016,0.005,-0.107,0.002,0.007,0.038,-1.1,1.502
2024-10-01 09:31:32.762,26984.93,0.008,0.88,-0.474,-0.034,-0.087,-0.05,-0.209,-0.032,0.051,0.018,-1.077,1.495
2024-10-01 09:31:32.882,26985.05,0.016,0.891,-0.454,-0.002,-0.059,-0.014,-0.235,0.147,-0.038,0.035,-1.1,1.499
2024-10-01 09:31:33.002,26985.169,0.008,0.881,-0.473,-0.001,-0.199,-0.058,-0.623,-0.066,0.021,0.017,-1.078,1.491
2024-10-01 09:31:33.122,26985.289,0.013,0.894,-0.449,0.007,0.023,0.02,-0.105,0.041,0.009,0.03,-1.105,1.497
2024-10-01 09:31:33.241,26985.409,0.008,0.884,-0.467,-0.002,0.001,-0.011,0.08,-0.113,-0.021,0.017,-1.085,1.493
2024-10-01 09:31:33.361,26985.529,0.007,0.882,-0.471,-0.021,-0.017,-0.005,-0.098,0.029,0.038,0.015,-1.08,1.5
2024-10-01 09:31:33.481,26985.649,0.013,0.893,-0.449,-0.02,-0.02,-0.035,-0.845,0.38,0.02,0.03,-1.105,1.501
2024-10-01 09:31:33.601,26985.768,0.023,0.924,-0.381,0.011,0.019,0.015,0.044,-0.116,-0.011,0.059,-1.179,1.514
2024-10-01 09:31:33.722,26985.888,0.033,0.928,-0.37,0.008,-0.012,-0.109,0.407,0.138,0.262,0.09,-1.19,1.544
2024-10-01 09:31:33.840,26986.008,0.071,0.898,-0.434,-0.02,-0.024,0.067,0.356,-0.186,0.23,0.161,-1.115,1.614
2024-10-01 09:31:33.960,26986.128,0.037,0.9,-0.434,0.028,-0.066,-0.012,-0.297,-0.271,-0.323,0.086,-1.12,1.564
2024-10-01 09:31:34.080,26986.248,0.035,0.892,-0.45,-0.007,-0.093,0.041,0.162,-0.046,-0.135,0.079,-1.102,1.567
2024-10-01 09:31:34.200,26986.367,0.015,0.885,-0.465,0.023,-0.0,0.014,0.257,-0.174,-0.242,0.032,-1.086,1.526
2024-10-01 09:31:34.319,26986.487,0.006,0.88,-0.474,0.007,0.006,0.02,0.126,-0.021,-0.026,0.013,-1.077,1.51
2024-10-01 09:31:34.439,26986.607,0.004,0.88,-0.475,0.002,0.021,0.023,0.192,-0.048,-0.023,0.009,-1.076,1.506
2024-10-01 09:31:34.559,26986.727,-0.002,0.876,-0.482,0.008,0.003,0.003,-0.2,-0.093,-0.003,-0.004,-1.068,1.501
2024-10-01 09:31:34.679,26986.847,0.005,0.879,-0.476,-0.008,-0.048,-0.021,-0.339,0.212,0.05,0.01,-1.075,1.503
2024-10-01 09:31:34.799,26986.966,0.006,0.878,-0.478,-0.0,-0.015,-0.01,-0.05,-0.004,-0.023,0.012,-1.072,1.503
2024-10-01 09:31:34.919,26987.086,0.001,0.873,-0.487,-0.029,-0.019,-0.055,-0.122,-0.031,0.007,0.001,-1.062,1.497
2024-10-01 09:31:35.038,26987.206,0.0,0.886,-0.465,-0.01,-0.005,0.028,0.121,0.202,0.013,0.0,-1.088,1.501
2024-10-01 09:31:35.158,26987.326,0.008,0.886,-0.464,0.007,0.007,0.005,0.06,-0.021,-0.003,0.017,-1.088,1.505
2024-10-01 09:31:35.278,26987.446,0.001,0.88,-0.476,-0.02,0.007,-0.025,0.001,-0.044,0.005,0.003,-1.075,1.499
2024-10-01 09:31:35.398,26987.565,0.01,0.889,-0.458,-0.013,-0.023,-0.032,-0.391,0.21,0.105,0.022,-1.095,1.508
2024-10-01 09:31:35.518,26987.685,0.007,0.882,-0.472,-0.012,-0.01,-0.003,0.16,-0.034,-0.011,0.016,-1.08,1.502
2024-10-01 09:31:35.637,26987.805,0.007,0.881,-0.472,0.007,0.003,0.014,0.278,-0.114,-0.018,0.014,-1.079,1.502
2024-10-01 09:31:35.757,26987.925,0.003,0.881,-0.473,-0.014,0.024,-0.007,0.024,0.154,0.004,0.007,-1.078,1.498
2024-10-01 09:31:35.877,26988.045,0.004,0.885,-0.465,0.015,0.029,0.034,0.642,-0.272,-0.074,0.009,-1.087,1.498
2024-10-01 09:31:35.997,26988.164,0.006,0.886,-0.463,-0.013,-0.016,0.015,-0.058,0.172,0.029,0.013,-1.089,1.5
2024-10-01 09:31:36.116,26988.284,0.005,0.885,-0.465,0.003,0.029,0.021,0.496,-0.183,-0.035,0.01,-1.087,1.498
2024-10-01 09:31:36.236,26988.404,0.006,0.886,-0.463,-0.008,-0.022,-0.015,-0.158,0.149,0.015,0.012,-1.09,1.502
2024-10-01 09:31:36.356,26988.524,0.008,0.888,-0.459,0.01,0.017,0.021,0.425,-0.127,-0.03,0.017,-1.094,1.498
2024-10-01 09:31:36.476,26988.644,0.002,0.883,-0.469,0.019,0.017,-0.001,-0.218,-0.118,0.049,0.005,-1.083,1.496
2024-10-01 09:31:36.596,26988.763,0.009,0.895,-0.446,0.01,0.045,0.024,0.038,0.013,0.006,0.02,-1.108,1.504
2024-10-01 09:31:36.716,26988.883,0.0,0.88,-0.475,-0.027,-0.133,-0.039,-0.252,-0.035,0.046,0.001,-1.076,1.498
2024-10-01 09:31:36.836,26989.003,0.008,0.894,-0.448,0.002,0.013,-0.002,-0.451,0.158,-0.0,0.017,-1.107,1.508
2024-10-01 09:31:36.955,26989.123,0.018,0.898,-0.439,0.004,0.039,0.017,0.467,-0.086,0.141,0.041,-1.116,1.529
2024-10-01 09:31:37.074,26989.243,0.039,0.887,-0.46,-0.03,-0.119,0.076,-0.735,-0.234,0.219,0.085,-1.091,1.596
2024-10-01 09:31:37.194,26989.362,0.014,0.893,-0.45,0.032,-0.015,-0.034,-0.072,-0.246,-0.198,0.031,-1.103,1.568
2024-10-01 09:31:37.314,26989.482,0.007,0.889,-0.458,-0.001,0.03,-0.002,0.031,0.031,-0.014,0.015,-1.095,1.556
2024-10-01 09:31:37.435,26989.602,0.006,0.888,-0.459,-0.005,0.012,-0.006,0.009,0.034,0.002,0.014,-1.093,1.551
2024-10-01 09:31:37.554,26989.722,0.007,0.89,-0.456,0.001,-0.006,-0.0,-0.073,0.024,-0.002,0.014,-1.097,1.547
2024-10-01 09:31:37.674,26989.842,0.003,0.885,-0.466,-0.01,-0.068,-0.016,-0.111,-0.019,0.012,0.007,-1.086,1.544
2024-10-01 09:31:37.794,26989.961,0.013,0.893,-0.451,-0.014,-0.079,-0.037,-0.422,0.221,-0.001,0.028,-1.103,1.551
2024-10-01 09:31:37.914,26990.081,0.009,0.889,-0.457,-0.009,-0.043,-0.022,0.001,-0.037,-0.015,0.019,-1.096,1.544
2024-10-01 09:31:38.034,26990.201,0.007,0.886,-0.464,0.006,-0.023,-0.003,-0.027,-0.087,-0.01,0.015,-1.088,1.545
2024-10-01 09:31:38.153,26990.321,0.009,0.892,-0.452,-0.006,-0.023,-0.034,-0.236,0.114,-0.021,0.02,-1.102,1.547
2024-10-01 09:31:38.273,26990.441,0.006,0.887,-0.461,0.009,-0.157,-0.034,-0.217,0.02,0.055,0.014,-1.091,1.546
2024-10-01 09:31:38.393,26990.56,0.018,0.899,-0.437,0.013,0.014,-0.005,-0.059,0.09,-0.069,0.04,-1.118,1.553
2024-10-01 09:31:38.513,26990.68,0.014,0.894,-0.448,0.01,-0.054,0.062,-0.037,0.05,0.024,0.031,-1.106,1.546
2024-10-01 09:31:38.632,26990.8,0.014,0.892,-0.452,0.005,-0.005,0.002,0.061,-0.024,-0.012,0.03,-1.102,1.541
2024-10-01 09:31:38.752,26990.92,0.01,0.884,-0.468,0.004,-0.075,-0.037,-0.164,-0.028,-0.022,0.021,-1.084,1.54
2024-10-01 09:31:38.873,26991.04,0.012,0.894,-0.447,-0.008,-0.053,-0.022,-0.406,0.126,0.036,0.026,-1.107,1.542
2024-10-01 09:31:38.992,26991.159,0.012,0.893,-0.45,0.006,-0.003,0.005,0.19,-0.118,-0.018,0.026,-1.104,1.543
2024-10-01 09:31:39.112,26991.279,0.011,0.889,-0.458,-0.008,-0.033,-0.002,-0.071,0.051,-0.004,0.024,-1.095,1.547
2024-10-01 09:31:39.232,26991.399,0.013,0.894,-0.448,-0.001,-0.01,0.007,-0.02,0.033,-0.004,0.029,-1.106,1.543
2024-10-01 09:31:39.352,26991.519,0.009,0.886,-0.465,-0.065,-0.085,-0.069,-0.179,-0.019,0.06,0.019,-1.088,1.543
2024-10-01 09:31:39.471,26991.639,0.013,0.894,-0.448,-0.009,0.009,-0.015,-0.072,0.095,-0.032,0.029,-1.106,1.541
2024-10-01 09:31:39.591,26991.758,0.009,0.887,-0.463,0.006,-0.153,-0.029,-0.264,-0.06,0.008,0.02,-1.09,1.539
2024-10-01 09:31:39.711,26991.878,0.012,0.897,-0.442,0.007,-0.003,0.011,-0.003,-0.006,-0.01,0.026,-1.113,1.544
2024-10-01 09:31:39.831,26991.998,0.005,0.885,-0.465,-0.004,-0.013,-0.041,-0.18,0.023,0.034,0.012,-1.087,1.544
2024-10-01 09:31:39.950,26992.118,0.016,0.907,-0.421,-0.011,-0.028,-0.051,-1.55,0.56,0.029,0.038,-1.136,1.552
2024-10-01 09:31:40.070,26992.238,0.066,0.974,-0.216,0.009,0.044,0.004,-1.008,0.593,0.155,0.296,-1.343,1.714
2024-10-01 09:31:40.190,26992.357,0.092,0.97,-0.225,0.004,0.01,0.036,0.033,0.174,0.139,0.387,-1.325,1.765
2024-10-01 09:31:40.309,26992.477,0.099,0.963,-0.249,0.028,0.067,-0.013,0.762,0.267,0.066,0.378,-1.299,1.74
2024-10-01 09:31:40.429,26992.597,0.103,0.934,-0.342,0.006,-0.098,0.093,0.004,0.185,-0.104,0.292,-1.206,1.608
2024-10-01 09:31:40.549,26992.717,0.092,0.933,-0.349,0.024,0.043,-0.043,0.276,-0.105,0.026,0.257,-1.202,1.586
2024-10-01 09:31:40.668,26992.837,0.072,0.906,-0.416,0.022,-0.01,0.006,0.823,-0.391,-0.203,0.171,-1.135,1.523
2024-10-01 09:31:40.789,26992.956,0.058,0.884,-0.465,-0.031,0.017,0.058,0.315,-0.122,0.11,0.123,-1.083,1.509
2024-10-01 09:31:40.908,26993.076,0.018,0.893,-0.45,0.002,-0.136,0.014,-0.242,-0.122,-0.586,0.04,-1.104,1.437
2024-10-01 09:31:41.029,26993.196,0.01,0.893,-0.449,0.029,0.045,-0.084,0.242,0.198,0.052,0.021,-1.105,1.404
2024-10-01 09:31:41.148,26993.316,0.005,0.888,-0.459,-0.003,0.06,0.014,0.088,0.11,-0.014,0.012,-1.093,1.369
2024-10-01 09:31:41.268,26993.436,0.008,0.869,-0.495,0.0,-0.029,-0.01,0.212,-0.01,-0.026,0.017,-1.053,1.376
2024-10-01 09:31:41.388,26993.555,-0.001,0.866,-0.5,0.007,0.013,0.012,0.181,-0.049,-0.092,-0.001,-1.047,1.355
2024-10-01 09:31:41.507,26993.675,-0.007,0.857,-0.515,0.0,0.028,0.013,0.115,-0.015,-0.048,-0.014,-1.03,1.345
2024-10-01 09:31:41.627,26993.795,-0.01,0.853,-0.522,-0.004,0.015,0.003,0.09,0.013,-0.038,-0.019,-1.021,1.34
2024-10-01 09:31:41.747,26993.915,-0.014,0.854,-0.52,0.006,0.023,0.018,0.193,-0.146,-0.053,-0.026,-1.024,1.334
2024-10-01 09:31:41.867,26994.035,-0.02,0.844,-0.537,-0.012,-0.057,-0.002,-0.212,0.157,0.026,-0.037,-1.004,1.33
2024-10-01 09:31:41.987,26994.154,-0.013,0.859,-0.511,0.015,0.048,0.041,0.491,-0.212,-0.024,-0.025,-1.034,1.333
2024-10-01 09:31:42.107,26994.274,-0.018,0.858,-0.514,-0.045,-0.025,0.018,-0.139,0.165,0.03,-0.034,-1.031,1.338
2024-10-01 09:31:42.226,26994.394,-0.009,0.861,-0.509,0.005,0.01,0.014,0.322,-0.153,-0.029,-0.017,-1.037,1.347
2024-10-01 09:31:42.346,26994.514,-0.019,0.847,-0.531,0.014,0.072,0.033,0.606,-0.245,-0.036,-0.036,-1.01,1.342
2024-10-01 09:31:42.466,26994.634,-0.007,0.85,-0.527,-0.022,0.027,-0.036,-0.477,0.262,0.274,-0.013,-1.016,1.355
2024-10-01 09:31:42.586,26994.753,-0.008,0.851,-0.525,-0.008,-0.001,0.004,0.239,-0.128,-0.064,-0.016,-1.018,1.358
2024-10-01 09:31:42.705,26994.873,-0.016,0.837,-0.546,-0.017,-0.081,-0.023,-0.057,-0.02,0.009,-0.029,-0.993,1.352
2024-10-01 09:31:42.825,26994.993,-0.021,0.841,-0.541,-0.01,0.016,-0.001,0.035,0.073,0.002,-0.038,-0.999,1.351
2024-10-01 09:31:42.945,26995.113,-0.013,0.853,-0.522,-0.001,0.062,0.034,0.107,0.006,0.008,-0.025,-1.021,1.352
2024-10-01 09:31:43.066,26995.233,-0.012,0.853,-0.522,0.001,-0.012,-0.006,0.043,-0.006,-0.007,-0.024,-1.021,1.353
2024-10-01 09:31:43.185,26995.352,-0.02,0.846,-0.533,0.02,-0.107,-0.027,-0.483,-0.007,0.011,-0.038,-1.008,1.351
2024-10-01 09:31:43.305,26995.472,0.004,0.873,-0.487,0.003,0.013,0.0,-0.387,0.119,0.24,0.008,-1.062,1.376
2024-10-01 09:31:43.424,26995.592,0.014,0.853,-0.521,-0.06,0.038,0.031,-0.214,-0.261,-0.031,0.026,-1.022,1.431
2024-10-01 09:31:43.544,26995.712,0.012,0.864,-0.503,0.073,-0.107,-0.043,-0.288,-0.149,-0.088,0.023,-1.043,1.45
2024-10-01 09:31:43.664,26995.832,-0.006,0.86,-0.511,0.002,0.0,0.006,0.194,0.016,-0.041,-0.011,-1.034,1.417
2024-10-01 09:31:43.784,26995.951,-0.008,0.858,-0.514,0.003,0.007,-0.002,-0.023,0.008,-0.044,-0.016,-1.03,1.401
2024-10-01 09:31:43.903,26996.071,-0.016,0.852,-0.523,0.02,0.031,0.015,0.387,-0.264,-0.096,-0.03,-1.02,1.391
2024-10-01 09:31:44.024,26996.191,-0.018,0.85,-0.526,-0.008,-0.014,-0.006,-0.137,0.087,0.07,-0.034,-1.017,1.387
2024-10-01 09:31:44.143,26996.311,-0.021,0.85,-0.526,-0.012,-0.155,-0.023,-0.393,-0.031,0.046,-0.041,-1.016,1.388
2024-10-01 09:31:44.263,26996.431,-0.011,0.86,-0.51,0.022,0.018,0.004,-0.015,-0.017,-0.033,-0.022,-1.035,1.397
2024-10-01 09:31:44.383,26996.55,-0.023,0.847,-0.532,-0.029,0.018,-0.046,0.026,-0.106,0.002,-0.043,-1.01,1.388
2024-10-01 09:31:44.502,26996.67,-0.016,0.851,-0.524,-0.001,0.011,-0.004,-0.113,0.109,0.095,-0.03,-1.019,1.395
2024-10-01 09:31:44.622,26996.79,-0.012,0.855,-0.518,0.003,0.001,0.009,0.166,-0.056,-0.014,-0.023,-1.026,1.399
2024-10-01 09:31:44.742,26996.91,-0.017,0.848,-0.53,-0.013,-0.008,-0.029,-0.015,-0.043,-0.003,-0.033,-1.012,1.395
2024-10-01 09:31:44.862,26997.03,-0.02,0.848,-0.529,-0.002,-0.005,-0.007,0.003,-0.032,0.001,-0.038,-1.013,1.394
2024-10-01 09:31:44.982,26997.149,-0.015,0.855,-0.518,-0.014,-0.068,-0.029,-0.448,0.215,0.097,-0.029,-1.026,1.397
2024-10-01 09:31:45.101,26997.269,-0.012,0.859,-0.512,-0.003,0.02,0.012,0.496,-0.072,-0.06,-0.023,-1.033,1.397
2024-10-01 09:31:45.222,26997.389,-0.018,0.856,-0.517,-0.008,-0.023,-0.022,-0.538,0.051,0.055,-0.035,-1.028,1.395
2024-10-01 09:31:45.340,26997.509,0.004,0.878,-0.479,0.001,0.025,0.004,-0.249,0.133,0.174,0.009,-1.072,1.42
2024-10-01 09:31:45.461,26997.629,0.027,0.861,-0.508,-0.014,0.066,0.018,0.722,-0.086,0.228,0.053,-1.037,1.466
2024-10-01 09:31:45.581,26997.748,0.04,0.863,-0.504,0.009,-0.131,0.04,-0.205,-0.078,-0.117,0.08,-1.04,1.506
2024-10-01 09:31:45.700,26997.868,0.014,0.874,-0.486,0.017,0.0,0.02,0.352,-0.126,-0.111,0.029,-1.063,1.462
2024-10-01 09:31:45.820,26997.988,-0.006,0.861,-0.509,-0.007,-0.034,-0.016,0.001,-0.016,-0.033,-0.011,-1.037,1.426
2024-10-01 09:31:45.940,26998.108,-0.012,0.853,-0.522,0.003,-0.022,0.012,0.127,-0.002,-0.086,-0.023,-1.021,1.414
2024-10-01 09:31:46.060,26998.228,-0.015,0.852,-0.524,0.004,0.01,0.014,0.226,-0.095,-0.037,-0.029,-1.02,1.408
2024-10-01 09:31:46.180,26998.347,-0.022,0.846,-0.533,-0.032,-0.021,0.03,-0.021,0.102,0.0,-0.042,-1.008,1.403
2024-10-01 09:31:46.299,26998.467,-0.009,0.862,-0.507,0.026,0.077,0.029,0.099,-0.115,-0.029,-0.017,-1.039,1.414
2024-10-01 09:31:46.418,26998.587,-0.016,0.86,-0.509,0.019,-0.026,-0.02,-0.777,0.038,0.148,-0.032,-1.036,1.412
2024-10-01 09:31:46.538,26998.707,-0.003,0.873,-0.487,0.02,0.058,0.036,0.44,-0.109,-0.045,-0.005,-1.062,1.429
2024-10-01 09:31:46.659,26998.827,-0.011,0.861,-0.508,-0.0,0.015,0.002,-0.032,-0.039,-0.002,-0.021,-1.037,1.421
2024-10-01 09:31:46.779,26998.946,-0.019,0.853,-0.521,0.0,0.005,0.004,-0.115,0.037,-0.004,-0.037,-1.022,1.417
2024-10-01 09:31:46.898,26999.066,-0.007,0.86,-0.51,0.006,0.012,0.015,-0.065,0.044,0.008,-0.013,-1.035,1.433
2024-10-01 09:31:47.018,26999.186,-0.011,0.856,-0.516,0.0,0.004,0.004,0.112,-0.06,-0.01,-0.021,-1.028,1.427
2024-10-01 09:31:47.138,26999.306,-0.018,0.852,-0.524,0.009,0.033,0.01,-0.023,-0.113,0.005,-0.034,-1.019,1.421
2024-10-01 09:31:47.258,26999.426,-0.019,0.851,-0.526,-0.024,-0.026,0.01,-0.131,0.141,0.011,-0.036,-1.017,1.42
2024-10-01 09:31:47.378,26999.545,-0.011,0.864,-0.503,0.008,0.047,0.02,0.185,-0.034,-0.023,-0.022,-1.044,1.424
2024-10-01 09:31:47.497,26999.665,-0.018,0.856,-0.517,0.02,0.005,-0.015,-0.481,-0.051,0.041,-0.034,-1.027,1.421
2024-10-01 09:31:47.617,26999.785,0.002,0.884,-0.468,-0.005,0.022,-0.003,-0.514,0.227,0.107,0.005,-1.084,1.441
