Date,TimeStamp,GravityX,GravityY,GravityZ,UserAccelerationX,UserAccelerationY,UserAccelerationZ,RotationRateX,RotationRateY,RotationRateZ,AttitudeRoll,AttitudePitch,AttitudeYaw
2024-09-23 11:49:56.150,163328.992,-0.016,0.825,-0.564,-0.002,-0.003,0.004,0.034,0.018,-0.02,-0.029,-0.971,1.023
2024-09-23 11:49:56.269,163329.112,-0.015,0.825,-0.565,0.007,-0.003,0.005,-0.018,0.013,0.013,-0.026,-0.97,1.025
2024-09-23 11:49:56.389,163329.232,-0.012,0.825,-0.565,0.011,0.03,0.006,-0.004,0.001,0.042,-0.021,-0.97,1.028
2024-09-23 11:49:56.509,163329.352,-0.002,0.833,-0.553,-0.013,-0.013,-0.032,-0.386,0.109,0.102,-0.003,-0.985,1.042
2024-09-23 11:49:56.628,163329.472,0.027,0.879,-0.475,-0.039,0.042,-0.004,-0.674,0.368,0.133,0.058,-1.074,1.07
2024-09-23 11:49:56.748,163329.591,0.017,0.878,-0.479,0.043,0.024,0.06,0.801,-0.238,0.075,0.036,-1.071,1.072
2024-09-23 11:49:56.867,163329.711,0.001,0.839,-0.543,0.009,-0.015,0.006,0.295,-0.249,-0.102,0.002,-0.996,1.061
2024-09-23 11:49:56.987,163329.831,-0.01,0.826,-0.563,-0.006,-0.028,-0.016,-0.031,-0.022,-0.025,-0.017,-0.973,1.055
2024-09-23 11:49:57.108,163329.951,-0.018,0.82,-0.572,-0.004,-0.042,-0.022,-0.09,0.003,-0.04,-0.032,-0.962,1.045
2024-09-23 11:49:57.228,163330.07,-0.022,0.816,-0.577,0.003,0.0,0.005,0.111,-0.013,-0.052,-0.038,-0.955,1.038
2024-09-23 11:49:57.347,163330.19,-0.025,0.812,-0.583,0.0,0.004,0.014,-0.002,-0.031,0.031,-0.043,-0.948,1.037
2024-09-23 11:49:57.467,163330.31,-0.025,0.816,-0.577,0.007,-0.001,-0.004,-0.108,-0.065,0.014,-0.043,-0.955,1.043
2024-09-23 11:49:57.587,163330.43,-0.028,0.822,-0.569,0.003,-0.004,0.005,-0.151,-0.042,0.011,-0.049,-0.964,1.046
2024-09-23 11:49:57.706,163330.55,-0.021,0.835,-0.55,0.006,0.031,0.017,-0.033,0.083,0.012,-0.038,-0.988,1.048
2024-09-23 11:49:57.827,163330.669,-0.024,0.826,-0.563,0.006,0.002,0.008,0.191,-0.086,-0.039,-0.043,-0.972,1.043
2024-09-23 11:49:57.947,163330.789,-0.025,0.824,-0.566,0.006,-0.009,0.001,-0.009,0.035,0.002,-0.044,-0.968,1.043
2024-09-23 11:49:58.066,163330.909,-0.023,0.825,-0.564,-0.008,-0.018,-0.017,-0.046,0.002,0.009,-0.041,-0.971,1.045
2024-09-23 11:49:58.185,163331.029,-0.021,0.827,-0.562,-0.003,-0.034,0.001,-0.03,0.01,0.041,-0.037,-0.973,1.049
2024-09-23 11:49:58.305,163331.149,-0.011,0.836,-0.549,-0.016,-0.014,-0.015,-0.475,0.194,0.072,-0.02,-0.99,1.058
2024-09-23 11:49:58.425,163331.268,0.009,0.861,-0.509,-0.131,0.022,0.101,-0.036,-0.182,-0.011,0.017,-1.037,1.074
2024-09-23 11:49:58.545,163331.388,-0.001,0.837,-0.548,0.117,-0.029,-0.043,0.577,-0.091,-0.018,-0.001,-0.991,1.08
2024-09-23 11:49:58.665,163331.508,-0.022,0.809,-0.587,-0.022,0.003,0.001,0.227,-0.028,-0.032,-0.037,-0.943,1.053
2024-09-23 11:49:58.785,163331.628,-0.022,0.806,-0.592,0.004,-0.011,-0.003,0.032,0.008,-0.043,-0.037,-0.937,1.051
2024-09-23 11:49:58.903,163331.748,-0.028,0.795,-0.606,-0.002,-0.01,0.002,0.078,-0.021,-0.019,-0.046,-0.919,1.045
2024-09-23 11:49:59.024,163331.867,-0.028,0.796,-0.605,0.001,-0.031,-0.025,-0.08,-0.047,0.024,-0.046,-0.921,1.047
2024-09-23 11:49:59.145,163331.987,-0.028,0.8,-0.599,0.006,-0.038,-0.024,-0.074,-0.049,0.022,-0.047,-0.928,1.051
2024-09-23 11:49:59.264,163332.107,-0.029,0.807,-0.59,0.001,-0.05,-0.012,-0.219,0.054,0.003,-0.05,-0.939,1.052
2024-09-23 11:49:59.384,163332.227,-0.025,0.814,-0.58,0.008,0.029,0.016,0.12,0.02,-0.018,-0.043,-0.952,1.051
2024-09-23 11:49:59.504,163332.347,-0.027,0.805,-0.593,-0.025,-0.062,-0.04,-0.057,0.025,0.013,-0.046,-0.935,1.051
2024-09-23 11:49:59.623,163332.466,-0.023,0.803,-0.595,0.001,-0.031,-0.001,0.002,0.04,0.028,-0.039,-0.933,1.056
2024-09-23 11:49:59.743,163332.586,-0.02,0.804,-0.595,-0.002,-0.009,-0.0,-0.04,0.017,0.029,-0.033,-0.934,1.06
2024-09-23 11:49:59.863,163332.706,-0.015,0.808,-0.589,-0.001,-0.04,-0.001,-0.128,0.069,0.025,-0.026,-0.94,1.066
2024-09-23 11:49:59.983,163332.826,0.002,0.841,-0.542,-0.035,0.039,0.014,-0.298,0.305,0.183,0.005,-0.998,1.075
2024-09-23 11:50:00.103,163332.946,-0.001,0.83,-0.558,0.067,0.002,-0.005,0.551,-0.01,0.049,-0.003,-0.979,1.08
2024-09-23 11:50:00.222,163333.065,-0.011,0.813,-0.581,-0.031,-0.006,-0.028,0.034,-0.032,-0.048,-0.02,-0.95,1.066
2024-09-23 11:50:00.342,163333.185,-0.016,0.799,-0.601,0.004,-0.015,-0.013,0.135,-0.023,-0.049,-0.027,-0.926,1.063
2024-09-23 11:50:00.461,163333.305,-0.021,0.788,-0.616,0.007,0.018,0.015,-0.002,-0.022,0.032,-0.033,-0.907,1.063
2024-09-23 11:50:00.582,163333.425,-0.019,0.791,-0.611,0.004,-0.01,-0.013,-0.058,-0.024,0.014,-0.031,-0.913,1.069
2024-09-23 11:50:00.701,163333.545,-0.021,0.796,-0.605,0.02,-0.054,-0.041,-0.088,-0.013,-0.036,-0.034,-0.92,1.072
2024-09-23 11:50:00.821,163333.664,-0.019,0.807,-0.591,0.003,0.019,0.01,-0.045,0.069,-0.025,-0.032,-0.939,1.069
2024-09-23 11:50:00.942,163333.784,-0.017,0.802,-0.597,0.014,0.012,0.009,0.191,-0.051,-0.003,-0.028,-0.931,1.068
2024-09-23 11:50:01.061,163333.904,-0.016,0.795,-0.607,-0.001,0.015,0.016,0.133,-0.001,0.007,-0.026,-0.919,1.072
2024-09-23 11:50:01.181,163334.024,-0.012,0.794,-0.608,-0.006,-0.013,-0.009,0.052,0.006,0.005,-0.02,-0.917,1.076
2024-09-23 11:50:01.300,163334.143,-0.009,0.794,-0.608,0.006,-0.003,0.006,0.015,-0.002,0.017,-0.016,-0.917,1.08
2024-09-23 11:50:01.421,163334.263,-0.004,0.799,-0.601,-0.015,-0.046,-0.007,-0.247,0.093,0.016,-0.007,-0.926,1.086
2024-09-23 11:50:01.540,163334.383,0.013,0.838,-0.545,-0.195,0.069,0.089,-0.261,-0.207,0.025,0.024,-0.994,1.099
2024-09-23 11:50:01.659,163334.503,-0.002,0.819,-0.574,0.095,-0.042,-0.053,0.506,-0.082,0.018,-0.004,-0.96,1.101
2024-09-23 11:50:01.780,163334.623,-0.012,0.801,-0.598,-0.019,-0.003,0.016,0.279,-0.026,-0.009,-0.02,-0.929,1.085
2024-09-23 11:50:01.899,163334.742,-0.012,0.792,-0.611,0.014,0.014,0.016,0.219,0.005,-0.033,-0.02,-0.913,1.081
2024-09-23 11:50:02.019,163334.862,-0.016,0.778,-0.627,-0.013,-0.087,-0.054,-0.121,-0.018,0.017,-0.026,-0.892,1.08
2024-09-23 11:50:02.139,163334.982,-0.017,0.781,-0.624,0.005,-0.004,0.003,-0.004,-0.043,0.019,-0.028,-0.896,1.083
2024-09-23 11:50:02.259,163335.102,-0.02,0.784,-0.62,-0.006,-0.03,-0.0,-0.011,-0.057,0.004,-0.033,-0.902,1.085
2024-09-23 11:50:02.379,163335.222,-0.02,0.79,-0.612,-0.006,0.003,0.006,-0.246,0.089,0.013,-0.033,-0.912,1.085
2024-09-23 11:50:02.498,163335.341,-0.012,0.801,-0.598,0.021,0.008,0.0,0.145,0.008,-0.007,-0.02,-0.93,1.084
2024-09-23 11:50:02.617,163335.461,-0.015,0.785,-0.619,-0.021,-0.038,-0.015,-0.032,-0.001,0.027,-0.025,-0.903,1.085
2024-09-23 11:50:02.738,163335.581,-0.013,0.783,-0.621,-0.007,-0.023,-0.007,0.048,0.026,0.024,-0.02,-0.9,1.089
2024-09-23 11:50:02.858,163335.701,-0.009,0.783,-0.622,-0.01,0.007,-0.013,0.008,-0.002,0.027,-0.015,-0.899,1.095
2024-09-23 11:50:02.977,163335.821,-0.005,0.786,-0.618,-0.005,-0.006,0.002,-0.194,0.076,0.032,-0.009,-0.904,1.099
2024-09-23 11:50:03.097,163335.94,0.012,0.821,-0.571,0.005,0.046,-0.01,-0.349,0.074,0.267,0.021,-0.963,1.117
2024-09-23 11:50:03.218,163336.06,-0.002,0.81,-0.587,0.058,-0.038,-0.008,0.367,-0.082,0.051,-0.004,-0.944,1.117
2024-09-23 11:50:03.337,163336.18,-0.008,0.793,-0.609,-0.02,-0.002,0.001,0.225,-0.034,0.003,-0.013,-0.916,1.113
2024-09-23 11:50:03.456,163336.3,-0.01,0.784,-0.621,0.011,0.021,0.021,0.212,-0.02,-0.02,-0.016,-0.901,1.11
2024-09-23 11:50:03.577,163336.42,-0.011,0.78,-0.626,-0.003,0.002,0.002,0.001,-0.052,0.031,-0.017,-0.894,1.112
2024-09-23 11:50:03.696,163336.539,-0.014,0.782,-0.623,0.007,-0.005,0.005,-0.032,-0.065,-0.011,-0.023,-0.898,1.114
2024-09-23 11:50:03.816,163336.659,-0.018,0.784,-0.621,0.003,-0.005,-0.0,-0.12,-0.029,-0.04,-0.03,-0.901,1.114
2024-09-23 11:50:03.935,163336.779,-0.014,0.801,-0.599,-0.007,-0.012,-0.001,-0.366,0.185,-0.006,-0.023,-0.929,1.11
2024-09-23 11:50:04.054,163336.899,-0.009,0.798,-0.602,0.0,-0.018,-0.013,0.169,-0.031,0.005,-0.016,-0.924,1.109
2024-09-23 11:50:04.180,163337.019,-0.012,0.787,-0.617,-0.003,0.011,-0.002,0.055,-0.012,-0.0,-0.019,-0.906,1.111
2024-09-23 11:50:04.294,163337.138,-0.01,0.786,-0.618,-0.015,-0.011,-0.009,0.007,0.023,0.014,-0.017,-0.904,1.114
2024-09-23 11:50:04.415,163337.258,-0.008,0.788,-0.616,-0.019,-0.017,-0.028,-0.047,-0.02,0.045,-0.013,-0.907,1.118
2024-09-23 11:50:04.535,163337.378,-0.005,0.804,-0.594,-0.004,-0.052,-0.002,-0.911,0.221,-0.154,-0.009,-0.935,1.113
2024-09-23 11:50:04.655,163337.498,-0.003,0.911,-0.413,0.037,0.018,-0.064,-1.677,0.245,-0.125,-0.008,-1.145,1.072
2024-09-23 11:50:04.776,163337.618,-0.005,0.95,-0.312,0.08,0.001,-0.044,-0.316,0.146,-0.026,-0.017,-1.253,1.041
2024-09-23 11:50:04.894,163337.737,-0.008,0.95,-0.311,0.022,0.015,0.039,0.559,-0.182,-0.088,-0.025,-1.254,1.025
2024-09-23 11:50:05.014,163337.857,-0.022,0.906,-0.422,-0.081,-0.018,0.07,1.507,-0.197,-0.045,-0.052,-1.135,1.02
2024-09-23 11:50:05.134,163337.977,-0.032,0.837,-0.546,-0.023,0.005,-0.021,0.368,-0.187,0.096,-0.058,-0.993,1.042
2024-09-23 11:50:05.254,163338.097,-0.041,0.83,-0.556,-0.009,0.027,0.02,0.285,-0.13,-0.043,-0.073,-0.98,1.041
2024-09-23 11:50:05.374,163338.216,-0.047,0.816,-0.576,0.012,-0.04,-0.016,-0.07,-0.045,-0.026,-0.081,-0.955,1.043
2024-09-23 11:50:05.493,163338.336,-0.05,0.821,-0.569,-0.009,-0.001,-0.005,-0.03,-0.014,0.01,-0.087,-0.963,1.039
2024-09-23 11:50:05.613,163338.456,-0.057,0.815,-0.577,-0.026,0.007,-0.04,-0.094,-0.001,0.018,-0.099,-0.952,1.032
2024-09-23 11:50:05.733,163338.576,-0.051,0.82,-0.571,0.0,-0.035,0.0,-0.096,0.026,0.053,-0.089,-0.961,1.035
2024-09-23 11:50:05.853,163338.696,-0.058,0.818,-0.572,0.003,0.016,0.006,0.123,-0.05,-0.033,-0.101,-0.958,1.034
2024-09-23 11:50:05.973,163338.815,-0.053,0.822,-0.567,0.003,-0.022,0.017,-0.06,0.101,-0.003,-0.093,-0.965,1.033
2024-09-23 11:50:06.092,163338.935,-0.054,0.823,-0.565,0.001,0.012,-0.002,-0.038,-0.089,0.027,-0.096,-0.967,1.033
2024-09-23 11:50:06.212,163339.055,-0.057,0.825,-0.562,0.01,-0.018,-0.005,0.011,-0.089,-0.001,-0.101,-0.971,1.039
2024-09-23 11:50:06.332,163339.175,-0.06,0.832,-0.552,0.006,-0.013,-0.005,0.074,-0.051,-0.029,-0.107,-0.982,1.033
2024-09-23 11:50:06.452,163339.295,-0.061,0.826,-0.56,0.002,0.02,0.007,0.05,0.068,0.042,-0.109,-0.972,1.033
2024-09-23 11:50:06.572,163339.414,-0.052,0.827,-0.559,0.008,0.027,0.006,-0.021,0.059,0.031,-0.093,-0.974,1.041
2024-09-23 11:50:06.691,163339.534,-0.048,0.829,-0.557,0.01,0.004,0.01,-0.076,0.028,0.007,-0.087,-0.978,1.045
2024-09-23 11:50:06.811,163339.654,-0.043,0.831,-0.554,-0.002,-0.012,0.005,-0.025,0.105,0.011,-0.078,-0.982,1.046
2024-09-23 11:50:06.931,163339.774,-0.029,0.847,-0.531,-0.052,-0.04,-0.078,-0.83,0.504,0.1,-0.055,-1.011,1.049
2024-09-23 11:50:07.051,163339.894,-0.017,0.853,-0.521,-0.037,0.012,0.066,0.364,-0.212,0.05,-0.033,-1.023,1.066
2024-09-23 11:50:07.170,163340.013,-0.026,0.835,-0.549,-0.007,0.008,0.01,0.19,-0.2,0.001,-0.047,-0.989,1.071
2024-09-23 11:50:07.290,163340.133,-0.039,0.828,-0.56,0.001,-0.024,-0.016,0.009,-0.09,-0.028,-0.07,-0.975,1.065
2024-09-23 11:50:07.410,163340.253,-0.041,0.828,-0.559,0.001,0.007,0.005,0.031,0.016,-0.014,-0.074,-0.975,1.061
2024-09-23 11:50:07.530,163340.373,-0.046,0.82,-0.571,-0.021,0.01,-0.018,-0.124,0.03,0.05,-0.08,-0.961,1.061
2024-09-23 11:50:07.649,163340.493,-0.037,0.827,-0.561,0.002,-0.037,-0.025,-0.109,-0.015,0.033,-0.067,-0.974,1.066
2024-09-23 11:50:07.770,163340.612,-0.041,0.825,-0.564,-0.043,-0.017,-0.029,-0.219,0.099,0.026,-0.073,-0.97,1.065
2024-09-23 11:50:07.889,163340.732,-0.04,0.825,-0.564,0.01,-0.011,-0.006,0.004,-0.062,-0.005,-0.07,-0.97,1.065
2024-09-23 11:50:08.009,163340.852,-0.043,0.825,-0.563,0.002,0.012,0.01,0.064,-0.084,0.011,-0.076,-0.971,1.068
2024-09-23 11:50:08.129,163340.972,-0.045,0.829,-0.558,-0.01,-0.009,-0.016,-0.017,-0.008,-0.005,-0.08,-0.977,1.062
2024-09-23 11:50:08.247,163341.092,-0.045,0.827,-0.561,-0.007,-0.011,0.008,-0.03,0.054,0.084,-0.081,-0.973,1.065
2024-09-23 11:50:08.369,163341.211,-0.039,0.829,-0.557,0.002,0.002,0.002,-0.025,0.053,0.029,-0.069,-0.978,1.072
2024-09-23 11:50:08.488,163341.331,-0.033,0.832,-0.554,-0.012,-0.004,-0.011,-0.041,0.046,0.04,-0.06,-0.982,1.078
2024-09-23 11:50:08.608,163341.451,-0.03,0.834,-0.55,-0.015,-0.011,-0.007,-0.094,0.019,0.039,-0.054,-0.987,1.081
2024-09-23 11:50:08.727,163341.571,-0.02,0.852,-0.523,-0.041,-0.033,-0.071,-0.909,0.457,-0.004,-0.037,-1.02,1.078
2024-09-23 11:50:08.847,163341.691,-0.014,0.862,-0.506,-0.05,0.079,0.128,0.542,-0.313,0.087,-0.029,-1.04,1.079
2024-09-23 11:50:08.968,163341.81,-0.023,0.835,-0.55,0.083,-0.009,-0.043,0.166,-0.166,-0.111,-0.041,-0.988,1.087
2024-09-23 11:50:09.087,163341.93,-0.037,0.823,-0.567,-0.014,-0.056,-0.03,-0.121,-0.015,-0.004,-0.065,-0.967,1.082
2024-09-23 11:50:09.206,163342.05,-0.04,0.823,-0.567,-0.006,-0.027,-0.018,-0.037,0.027,-0.034,-0.071,-0.967,1.074
2024-09-23 11:50:09.327,163342.17,-0.045,0.816,-0.576,0.002,-0.123,-0.025,-0.201,0.016,0.054,-0.078,-0.955,1.073
2024-09-23 11:50:09.447,163342.29,-0.038,0.822,-0.568,-0.001,-0.018,-0.022,-0.016,-0.025,0.004,-0.067,-0.965,1.079
2024-09-23 11:50:09.567,163342.409,-0.04,0.824,-0.565,-0.017,-0.043,-0.013,-0.143,0.09,0.019,-0.071,-0.968,1.078
2024-09-23 11:50:09.685,163342.529,-0.038,0.823,-0.567,-0.0,0.013,0.002,0.014,-0.071,-0.018,-0.067,-0.967,1.08
2024-09-23 11:50:09.806,163342.649,-0.043,0.823,-0.566,-0.005,-0.021,0.009,-0.018,-0.0,-0.038,-0.075,-0.967,1.078
2024-09-23 11:50:09.926,163342.769,-0.045,0.823,-0.566,0.007,0.015,0.016,0.202,-0.101,0.035,-0.08,-0.966,1.075
2024-09-23 11:50:10.046,163342.888,-0.041,0.826,-0.562,0.001,-0.024,-0.004,-0.088,0.053,0.038,-0.074,-0.972,1.081
2024-09-23 11:50:10.165,163343.008,-0.035,0.828,-0.559,-0.004,0.01,0.006,0.018,0.027,0.025,-0.062,-0.976,1.088
2024-09-23 11:50:10.285,163343.128,-0.029,0.833,-0.552,-0.015,-0.049,-0.023,-0.203,0.08,0.021,-0.053,-0.985,1.094
2024-09-23 11:50:10.406,163343.248,-0.01,0.855,-0.519,-0.053,0.036,-0.016,-0.116,0.227,-0.495,-0.019,-1.025,1.097
2024-09-23 11:50:10.525,163343.368,-0.023,0.838,-0.546,0.114,-0.064,-0.057,0.445,-0.1,0.028,-0.042,-0.993,1.1
2024-09-23 11:50:10.644,163343.487,-0.035,0.82,-0.571,-0.008,0.026,0.015,0.3,-0.087,-0.068,-0.06,-0.962,1.085
2024-09-23 11:50:10.764,163343.607,-0.039,0.807,-0.589,0.021,0.023,0.018,0.197,-0.059,-0.058,-0.066,-0.939,1.082
2024-09-23 11:50:10.884,163343.727,-0.048,0.788,-0.614,0.015,0.066,0.034,0.349,-0.073,-0.021,-0.078,-0.907,1.078
2024-09-23 11:50:11.004,163343.847,-0.042,0.796,-0.604,0.009,-0.001,-0.024,-0.129,-0.018,0.001,-0.07,-0.921,1.08
2024-09-23 11:50:11.124,163343.967,-0.048,0.796,-0.603,-0.03,-0.095,-0.028,-0.343,0.076,0.035,-0.079,-0.921,1.079
2024-09-23 11:50:11.243,163344.086,-0.048,0.798,-0.601,0.008,-0.019,-0.006,0.058,-0.063,0.024,-0.079,-0.924,1.079
2024-09-23 11:50:11.363,163344.206,-0.054,0.8,-0.597,-0.007,0.009,-0.008,-0.092,-0.018,-0.009,-0.09,-0.928,1.073
2024-09-23 11:50:11.483,163344.326,-0.053,0.801,-0.596,-0.017,-0.004,0.011,-0.09,0.049,0.043,-0.089,-0.929,1.078
2024-09-23 11:50:11.603,163344.446,-0.048,0.802,-0.596,0.004,0.012,0.005,-0.004,0.042,0.014,-0.081,-0.93,1.082
2024-09-23 11:50:11.722,163344.566,-0.043,0.803,-0.595,-0.005,-0.012,-0.004,-0.028,0.036,0.036,-0.073,-0.932,1.086
2024-09-23 11:50:11.842,163344.685,-0.038,0.804,-0.594,-0.0,-0.025,-0.008,-0.084,0.052,0.029,-0.064,-0.933,1.091
2024-09-23 11:50:11.962,163344.805,-0.025,0.825,-0.564,-0.051,-0.093,-0.072,-0.925,0.438,0.015,-0.044,-0.971,1.086
2024-09-23 11:50:12.082,163344.925,-0.016,0.848,-0.53,-0.081,0.158,0.071,0.022,-0.218,0.048,-0.031,-1.012,1.094
2024-09-23 11:50:12.202,163345.045,-0.02,0.812,-0.583,0.098,-0.052,-0.052,0.23,-0.083,-0.142,-0.035,-0.947,1.107
2024-09-23 11:50:12.321,163345.165,-0.027,0.801,-0.598,-0.007,-0.02,-0.021,0.014,-0.009,-0.008,-0.046,-0.929,1.102
2024-09-23 11:50:12.441,163345.284,-0.032,0.788,-0.615,0.01,0.007,-0.005,0.447,-0.129,0.008,-0.052,-0.907,1.102
2024-09-23 11:50:12.561,163345.404,-0.027,0.794,-0.608,0.008,0.019,0.021,-0.142,0.062,0.011,-0.044,-0.917,1.106
2024-09-23 11:50:12.681,163345.524,-0.031,0.787,-0.616,-0.051,-0.164,-0.094,-0.232,0.073,-0.002,-0.051,-0.906,1.108
2024-09-23 11:50:12.801,163345.644,-0.03,0.791,-0.611,-0.006,-0.012,-0.026,-0.056,-0.052,0.004,-0.048,-0.912,1.108
2024-09-23 11:50:12.920,163345.764,-0.036,0.792,-0.61,-0.001,-0.019,0.007,0.023,-0.04,-0.06,-0.058,-0.914,1.105
2024-09-23 11:50:13.040,163345.883,-0.038,0.79,-0.612,0.001,0.007,0.007,-0.016,-0.006,0.023,-0.062,-0.911,1.105
2024-09-23 11:50:13.160,163346.003,-0.036,0.793,-0.608,-0.041,-0.015,-0.006,0.045,0.046,0.025,-0.058,-0.916,1.111
2024-09-23 11:50:13.280,163346.123,-0.031,0.793,-0.608,0.008,-0.002,0.017,0.008,0.006,0.003,-0.051,-0.916,1.115
2024-09-23 11:50:13.399,163346.243,-0.028,0.793,-0.608,-0.005,0.006,0.006,0.01,0.028,0.005,-0.047,-0.917,1.118
2024-09-23 11:50:13.519,163346.363,-0.024,0.795,-0.607,-0.004,-0.022,-0.02,-0.054,0.03,0.02,-0.04,-0.918,1.121
2024-09-23 11:50:13.639,163346.482,-0.017,0.806,-0.591,-0.026,-0.053,-0.03,-0.623,0.264,-0.033,-0.029,-0.938,1.123
2024-09-23 11:50:13.759,163346.602,-0.01,0.84,-0.543,-0.138,0.202,0.134,0.266,-0.314,0.048,-0.019,-0.997,1.122
2024-09-23 11:50:13.879,163346.722,-0.012,0.803,-0.596,0.12,-0.079,-0.081,0.006,0.098,-0.103,-0.02,-0.933,1.136
2024-09-23 11:50:13.999,163346.842,-0.019,0.797,-0.604,-0.032,-0.013,-0.006,0.14,0.01,0.005,-0.032,-0.922,1.119
2024-09-23 11:50:14.119,163346.961,-0.022,0.787,-0.616,0.001,0.01,-0.0,0.369,-0.103,-0.027,-0.036,-0.906,1.114
2024-09-23 11:50:14.238,163347.081,-0.022,0.783,-0.622,-0.01,-0.006,0.042,-0.089,0.046,0.039,-0.035,-0.899,1.116
2024-09-23 11:50:14.359,163347.201,-0.024,0.779,-0.627,-0.044,-0.081,-0.043,-0.181,0.044,0.011,-0.038,-0.893,1.119
2024-09-23 11:50:14.477,163347.321,-0.022,0.782,-0.623,0.004,-0.008,0.005,0.029,-0.044,-0.011,-0.036,-0.898,1.121
2024-09-23 11:50:14.598,163347.441,-0.025,0.78,-0.625,-0.016,0.022,0.007,-0.054,0.02,0.019,-0.04,-0.895,1.119
2024-09-23 11:50:14.718,163347.56,-0.02,0.785,-0.619,-0.011,0.008,0.002,0.042,0.081,0.019,-0.033,-0.903,1.125
2024-09-23 11:50:14.837,163347.68,-0.016,0.786,-0.618,0.006,0.002,-0.007,-0.002,0.041,0.013,-0.025,-0.904,1.13
2024-09-23 11:50:14.957,163347.8,-0.012,0.789,-0.614,0.0,0.002,0.013,-0.067,0.052,0.004,-0.02,-0.909,1.133
2024-09-23 11:50:15.077,163347.92,-0.004,0.84,-0.542,-0.007,-0.151,-0.098,-1.98,0.461,-0.191,-0.008,-0.998,1.115
2024-09-23 11:50:15.196,163348.04,-0.006,0.945,-0.328,0.046,0.042,-0.019,-1.456,0.13,-0.141,-0.019,-1.237,1.059
2024-09-23 11:50:15.316,163348.159,-0.012,0.965,-0.263,0.036,-0.035,-0.032,-0.38,0.003,0.029,-0.045,-1.304,1.026
2024-09-23 11:50:15.435,163348.279,-0.004,0.962,-0.272,0.003,0.001,0.043,0.557,-0.186,0.108,-0.015,-1.295,1.063
2024-09-23 11:50:15.556,163348.399,-0.013,0.93,-0.368,-0.056,-0.033,0.05,1.198,-0.368,-0.068,-0.036,-1.194,1.076
2024-09-23 11:50:15.676,163348.519,-0.036,0.876,-0.481,-0.052,-0.022,0.007,1.354,-0.173,-0.111,-0.075,-1.067,1.068
2024-09-23 11:50:15.796,163348.639,-0.038,0.823,-0.567,0.04,-0.301,0.054,0.093,0.17,0.047,-0.067,-0.966,1.082
2024-09-23 11:50:15.916,163348.758,-0.028,0.815,-0.579,0.011,-0.002,-0.013,0.085,0.023,-0.014,-0.048,-0.952,1.093
2024-09-23 11:50:16.035,163348.878,-0.026,0.816,-0.577,-0.012,-0.019,-0.008,-0.061,0.094,0.036,-0.044,-0.955,1.096
2024-09-23 11:50:16.155,163348.998,-0.018,0.821,-0.571,0.015,0.014,0.017,0.083,0.005,-0.009,-0.032,-0.962,1.1
2024-09-23 11:50:16.275,163349.118,-0.019,0.818,-0.576,0.0,-0.011,-0.002,0.05,-0.0,-0.019,-0.034,-0.957,1.099
2024-09-23 11:50:16.394,163349.238,-0.023,0.815,-0.58,-0.001,-0.035,-0.017,-0.027,-0.014,-0.047,-0.039,-0.952,1.093
2024-09-23 11:50:16.514,163349.357,-0.031,0.807,-0.59,-0.001,-0.008,-0.006,-0.018,-0.049,-0.039,-0.052,-0.939,1.087
2024-09-23 11:50:16.634,163349.477,-0.025,0.814,-0.58,0.009,0.005,-0.005,-0.137,-0.006,0.026,-0.043,-0.952,1.092
2024-09-23 11:50:16.753,163349.597,-0.029,0.815,-0.578,-0.003,-0.123,-0.027,-0.205,0.063,-0.008,-0.05,-0.953,1.092
2024-09-23 11:50:16.873,163349.717,-0.026,0.817,-0.576,-0.002,-0.056,-0.03,-0.095,-0.05,0.024,-0.046,-0.957,1.095
2024-09-23 11:50:16.993,163349.837,-0.027,0.821,-0.57,-0.005,-0.037,-0.011,-0.218,0.089,-0.033,-0.048,-0.964,1.098
2024-09-23 11:50:17.113,163349.956,-0.027,0.82,-0.572,0.008,0.023,0.025,0.039,-0.057,0.012,-0.047,-0.961,1.095
2024-09-23 11:50:17.233,163350.076,-0.023,0.825,-0.565,-0.004,-0.055,-0.039,-0.184,0.049,0.003,-0.041,-0.97,1.104
2024-09-23 11:50:17.353,163350.196,-0.02,0.828,-0.56,0.019,0.046,0.02,0.207,-0.046,-0.058,-0.036,-0.976,1.098
2024-09-23 11:50:17.472,163350.316,-0.025,0.825,-0.564,0.004,-0.013,0.004,-0.084,0.093,0.029,-0.044,-0.971,1.097
2024-09-23 11:50:17.592,163350.436,-0.015,0.829,-0.56,0.013,0.002,0.014,0.086,0.017,-0.038,-0.027,-0.977,1.097
2024-09-23 11:50:17.712,163350.555,-0.023,0.822,-0.569,-0.014,-0.039,-0.019,-0.071,0.047,-0.018,-0.04,-0.965,1.086
2024-09-23 11:50:17.832,163350.675,-0.02,0.823,-0.567,0.001,-0.009,-0.022,-0.131,-0.054,0.058,-0.035,-0.967,1.093
2024-09-23 11:50:17.952,163350.795,-0.019,0.827,-0.562,-0.003,-0.009,0.013,-0.024,-0.034,-0.004,-0.034,-0.973,1.102
2024-09-23 11:50:18.072,163350.915,-0.018,0.829,-0.559,0.009,-0.007,0.003,-0.12,0.143,-0.092,-0.032,-0.977,1.095
2024-09-23 11:50:18.191,163351.035,-0.028,0.819,-0.573,0.004,-0.006,-0.001,0.075,-0.095,-0.064,-0.05,-0.96,1.079
2024-09-23 11:50:18.311,163351.154,-0.029,0.824,-0.565,-0.009,-0.013,0.01,-0.138,0.038,0.021,-0.051,-0.969,1.086
2024-09-23 11:50:18.431,163351.274,-0.021,0.857,-0.514,-0.167,0.016,0.033,-0.205,0.036,0.046,-0.04,-1.03,1.079
2024-09-23 11:50:18.551,163351.394,-0.023,0.834,-0.552,0.059,-0.019,-0.002,0.408,-0.1,0.089,-0.042,-0.986,1.091
2024-09-23 11:50:18.670,163351.514,-0.028,0.827,-0.562,-0.001,0.028,0.024,0.285,-0.192,0.02,-0.05,-0.973,1.096
2024-09-23 11:50:18.791,163351.633,-0.034,0.817,-0.575,0.004,0.0,0.01,-0.006,-0.022,-0.026,-0.06,-0.957,1.101
2024-09-23 11:50:18.910,163351.753,-0.038,0.817,-0.575,-0.013,-0.029,-0.015,-0.101,0.073,-0.024,-0.065,-0.956,1.095
2024-09-23 11:50:19.029,163351.873,-0.041,0.812,-0.583,0.016,0.024,0.002,0.251,-0.149,-0.066,-0.07,-0.947,1.091
2024-09-23 11:50:19.150,163351.993,-0.039,0.813,-0.58,0.013,0.009,0.002,-0.077,0.044,0.024,-0.067,-0.95,1.091
2024-09-23 11:50:19.269,163352.113,-0.042,0.814,-0.579,-0.025,-0.146,-0.035,-0.225,0.079,-0.0,-0.073,-0.951,1.091
2024-09-23 11:50:19.389,163352.232,-0.041,0.815,-0.579,0.001,-0.015,-0.011,0.052,-0.072,0.019,-0.071,-0.952,1.093
2024-09-23 11:50:19.509,163352.352,-0.042,0.818,-0.574,-0.007,-0.01,-0.002,-0.089,0.07,0.015,-0.074,-0.958,1.093
2024-09-23 11:50:19.629,163352.472,-0.043,0.817,-0.575,-0.012,-0.057,-0.017,-0.016,-0.039,0.009,-0.075,-0.956,1.092
2024-09-23 11:50:19.749,163352.592,-0.039,0.821,-0.569,-0.002,-0.016,-0.006,-0.106,0.033,0.01,-0.069,-0.964,1.101
2024-09-23 11:50:19.869,163352.712,-0.035,0.829,-0.558,0.009,0.017,0.01,-0.026,0.056,0.009,-0.063,-0.977,1.094
2024-09-23 11:50:19.988,163352.831,-0.038,0.822,-0.569,0.015,0.033,0.015,0.294,-0.121,-0.018,-0.067,-0.964,1.092
2024-09-23 11:50:20.108,163352.951,-0.041,0.821,-0.569,-0.009,-0.028,-0.0,-0.11,0.044,0.024,-0.071,-0.963,1.093
2024-09-23 11:50:20.228,163353.071,-0.031,0.826,-0.562,0.02,0.029,0.021,0.042,0.057,-0.032,-0.054,-0.972,1.096
2024-09-23 11:50:20.348,163353.191,-0.036,0.821,-0.57,-0.0,0.001,-0.0,0.153,-0.104,-0.02,-0.064,-0.963,1.09
2024-09-23 11:50:20.468,163353.311,-0.037,0.82,-0.571,-0.002,-0.029,-0.006,-0.081,0.079,-0.032,-0.065,-0.962,1.085
2024-09-23 11:50:20.587,163353.43,-0.037,0.821,-0.57,-0.007,-0.015,-0.008,-0.07,-0.017,0.034,-0.064,-0.963,1.086
2024-09-23 11:50:20.707,163353.55,-0.034,0.826,-0.562,0.007,0.006,-0.001,-0.034,-0.012,0.012,-0.06,-0.973,1.095
2024-09-23 11:50:20.827,163353.67,-0.033,0.825,-0.564,-0.01,-0.033,-0.014,-0.053,0.07,-0.012,-0.058,-0.971,1.094
2024-09-23 11:50:20.947,163353.79,-0.034,0.825,-0.563,-0.006,-0.036,-0.025,-0.031,0.001,-0.015,-0.06,-0.971,1.087
2024-09-23 11:50:21.067,163353.91,-0.037,0.823,-0.567,-0.013,-0.03,-0.009,-0.069,0.004,0.004,-0.065,-0.967,1.082
2024-09-23 11:50:21.185,163354.029,-0.036,0.822,-0.568,0.007,0.006,0.007,0.05,-0.008,-0.004,-0.063,-0.966,1.082
2024-09-23 11:50:21.306,163354.149,-0.04,0.817,-0.575,0.005,0.024,0.014,0.139,-0.04,-0.038,-0.07,-0.956,1.078
2024-09-23 11:50:21.426,163354.269,-0.043,0.816,-0.576,-0.01,-0.015,-0.002,-0.015,-0.032,0.024,-0.074,-0.955,1.079
2024-09-23 11:50:21.546,163354.389,-0.044,0.819,-0.572,0.0,0.02,0.024,-0.062,0.0,-0.006,-0.076,-0.96,1.082
2024-09-23 11:50:21.666,163354.509,-0.029,0.847,-0.53,-0.044,0.022,-0.037,-0.64,0.368,0.174,-0.055,-1.011,1.082
2024-09-23 11:50:21.785,163354.628,-0.027,0.852,-0.523,0.009,0.013,0.04,0.382,-0.134,0.099,-0.052,-1.02,1.088
2024-09-23 11:50:21.905,163354.748,-0.027,0.825,-0.564,0.04,-0.047,-0.045,-0.062,-0.126,-0.11,-0.048,-0.971,1.104
2024-09-23 11:50:22.025,163354.868,-0.038,0.818,-0.573,-0.0,-0.044,-0.023,-0.013,-0.081,-0.036,-0.066,-0.958,1.102
2024-09-23 11:50:22.145,163354.988,-0.043,0.815,-0.577,-0.006,-0.04,-0.025,-0.137,0.058,-0.033,-0.075,-0.953,1.099
2024-09-23 11:50:22.265,163355.108,-0.043,0.814,-0.579,-0.004,-0.022,-0.009,0.011,0.004,-0.025,-0.074,-0.951,1.096
2024-09-23 11:50:22.384,163355.227,-0.048,0.809,-0.585,-0.026,-0.034,-0.016,-0.179,0.086,0.017,-0.082,-0.943,1.093
2024-09-23 11:50:22.504,163355.347,-0.047,0.813,-0.58,0.026,0.064,0.028,0.254,-0.139,-0.034,-0.081,-0.949,1.095
2024-09-23 11:50:22.624,163355.467,-0.049,0.814,-0.579,-0.003,-0.007,-0.003,-0.033,-0.031,0.011,-0.084,-0.951,1.092
2024-09-23 11:50:22.744,163355.587,-0.052,0.815,-0.578,-0.0,-0.017,-0.006,-0.098,0.012,0.002,-0.09,-0.952,1.093
2024-09-23 11:50:22.863,163355.707,-0.051,0.818,-0.573,0.025,0.041,0.027,0.203,-0.052,-0.037,-0.089,-0.958,1.089
2024-09-23 11:50:22.982,163355.826,-0.048,0.819,-0.571,0.012,-0.01,0.001,-0.034,-0.045,0.024,-0.084,-0.96,1.097
2024-09-23 11:50:23.107,163355.946,-0.044,0.825,-0.564,-0.007,0.011,0.013,-0.116,0.155,-0.018,-0.077,-0.969,1.097
2024-09-23 11:50:23.222,163356.066,-0.045,0.817,-0.574,-0.001,-0.007,-0.003,-0.08,-0.035,0.025,-0.079,-0.957,1.093
2024-09-23 11:50:23.343,163356.186,-0.038,0.824,-0.565,-0.024,-0.012,-0.005,-0.126,0.198,0.043,-0.068,-0.969,1.101
2024-09-23 11:50:23.463,163356.305,-0.035,0.818,-0.574,0.009,0.014,0.012,0.242,0.008,-0.048,-0.061,-0.958,1.098
2024-09-23 11:50:23.582,163356.425,-0.033,0.821,-0.57,-0.005,-0.044,-0.025,-0.068,-0.017,0.025,-0.058,-0.963,1.097
2024-09-23 11:50:23.702,163356.545,-0.032,0.826,-0.563,0.003,-0.011,-0.019,-0.058,-0.038,0.031,-0.056,-0.972,1.107
2024-09-23 11:50:23.822,163356.665,-0.031,0.826,-0.562,0.009,0.016,0.01,-0.042,0.137,-0.107,-0.055,-0.973,1.1
2024-09-23 11:50:23.942,163356.785,-0.04,0.82,-0.571,-0.044,-0.141,-0.054,-0.118,-0.048,0.038,-0.069,-0.961,1.089
2024-09-23 11:50:24.062,163356.904,-0.04,0.821,-0.569,0.012,-0.001,-0.001,-0.002,-0.028,-0.018,-0.071,-0.963,1.097
2024-09-23 11:50:24.180,163357.024,-0.036,0.844,-0.536,-0.02,-0.092,-0.063,-0.961,0.28,-0.019,-0.068,-1.004,1.086
2024-09-23 11:50:24.300,163357.144,-0.022,0.888,-0.46,-0.268,0.098,0.093,-0.21,-0.023,-0.095,-0.049,-1.093,1.08
2024-09-23 11:50:24.421,163357.264,-0.019,0.891,-0.454,0.026,-0.009,-0.013,0.273,0.017,-0.014,-0.043,-1.1,1.085
2024-09-23 11:50:24.541,163357.384,-0.024,0.863,-0.505,0.061,0.081,0.023,0.652,-0.066,0.074,-0.047,-1.041,1.082
2024-09-23 11:50:24.660,163357.503,-0.034,0.814,-0.58,-0.032,0.088,-0.084,0.682,-0.235,0.06,-0.058,-0.95,1.101
2024-09-23 11:50:24.780,163357.623,-0.041,0.797,-0.602,-0.01,-0.032,-0.003,0.013,0.023,-0.038,-0.068,-0.923,1.102
2024-09-23 11:50:24.900,163357.743,-0.044,0.79,-0.611,-0.004,-0.039,-0.012,-0.01,0.001,-0.056,-0.071,-0.911,1.098
2024-09-23 11:50:25.020,163357.863,-0.05,0.786,-0.616,0.004,-0.005,-0.007,-0.0,-0.009,-0.049,-0.08,-0.904,1.092
2024-09-23 11:50:25.140,163357.983,-0.056,0.779,-0.624,0.006,0.0,-0.01,0.181,-0.093,-0.021,-0.089,-0.893,1.087
2024-09-23 11:50:25.260,163358.102,-0.054,0.783,-0.619,-0.019,-0.041,-0.007,-0.213,0.015,0.056,-0.087,-0.9,1.089
2024-09-23 11:50:25.379,163358.222,-0.056,0.782,-0.62,-0.025,-0.002,-0.02,-0.198,0.038,0.01,-0.09,-0.899,1.094
2024-09-23 11:50:25.499,163358.342,-0.053,0.788,-0.613,-0.008,-0.049,-0.021,-0.089,-0.018,0.034,-0.087,-0.908,1.094
2024-09-23 11:50:25.618,163358.462,-0.057,0.787,-0.614,-0.019,-0.0,-0.012,0.065,-0.106,-0.016,-0.093,-0.906,1.1
2024-09-23 11:50:25.739,163358.582,-0.055,0.795,-0.604,-0.0,-0.001,0.005,-0.009,0.058,-0.009,-0.091,-0.919,1.096
2024-09-23 11:50:25.858,163358.701,-0.055,0.793,-0.606,-0.01,-0.013,-0.014,-0.09,-0.009,0.062,-0.09,-0.916,1.1
2024-09-23 11:50:25.978,163358.821,-0.051,0.798,-0.6,-0.012,0.005,0.007,-0.089,0.149,-0.036,-0.085,-0.925,1.102
2024-09-23 11:50:26.098,163358.941,-0.052,0.794,-0.605,0.027,0.031,0.019,0.357,-0.105,-0.07,-0.086,-0.918,1.094
2024-09-23 11:50:26.218,163359.061,-0.053,0.798,-0.6,-0.026,-0.046,-0.007,-0.24,0.092,0.071,-0.088,-0.924,1.096
2024-09-23 11:50:26.338,163359.181,-0.042,0.808,-0.588,0.022,0.033,0.017,0.098,0.037,-0.034,-0.072,-0.94,1.095
2024-09-23 11:50:26.457,163359.3,-0.048,0.795,-0.605,-0.009,0.013,-0.0,-0.093,0.004,-0.01,-0.079,-0.919,1.092
2024-09-23 11:50:26.577,163359.42,-0.045,0.799,-0.599,-0.002,-0.028,-0.01,-0.081,0.034,0.015,-0.075,-0.926,1.092
2024-09-23 11:50:26.697,163359.54,-0.043,0.802,-0.596,0.003,0.008,-0.001,-0.005,-0.044,0.024,-0.072,-0.931,1.097
2024-09-23 11:50:26.817,163359.66,-0.043,0.804,-0.594,0.001,-0.023,-0.018,0.02,-0.04,0.021,-0.073,-0.933,1.102
2024-09-23 11:50:26.935,163359.78,-0.046,0.802,-0.595,0.0,-0.011,0.001,0.004,0.024,-0.066,-0.077,-0.931,1.096
2024-09-23 11:50:27.056,163359.899,-0.05,0.798,-0.6,0.025,0.05,0.031,0.373,-0.114,-0.079,-0.083,-0.924,1.082
2024-09-23 11:50:27.176,163360.019,-0.054,0.795,-0.604,-0.006,-0.006,0.002,0.055,-0.035,0.041,-0.09,-0.919,1.088
2024-09-23 11:50:27.296,163360.139,-0.044,0.817,-0.576,-0.053,-0.061,-0.012,-0.484,0.194,0.173,-0.077,-0.955,1.092
2024-09-23 11:50:27.415,163360.259,-0.035,0.823,-0.567,-0.01,0.017,0.047,0.291,-0.088,0.063,-0.061,-0.966,1.109
2024-09-23 11:50:27.535,163360.379,-0.032,0.797,-0.603,0.018,-0.077,-0.059,-0.106,0.016,-0.042,-0.052,-0.922,1.122
2024-09-23 11:50:27.655,163360.498,-0.034,0.791,-0.611,0.014,-0.031,-0.026,0.028,-0.036,0.001,-0.055,-0.912,1.125
2024-09-23 11:50:27.775,163360.618,-0.034,0.789,-0.613,-0.011,-0.008,0.008,0.021,0.046,-0.017,-0.056,-0.91,1.123
2024-09-23 11:50:27.894,163360.738,-0.039,0.775,-0.631,0.015,0.047,0.017,0.077,-0.066,-0.029,-0.061,-0.886,1.12
2024-09-23 11:50:28.014,163360.858,-0.037,0.784,-0.62,-0.0,0.008,-0.014,-0.005,-0.061,0.008,-0.059,-0.901,1.12
2024-09-23 11:50:28.135,163360.977,-0.038,0.783,-0.62,0.002,0.014,0.006,0.031,-0.029,-0.002,-0.061,-0.9,1.12
2024-09-23 11:50:28.254,163361.097,-0.042,0.783,-0.621,0.004,0.009,0.01,-0.007,-0.117,0.006,-0.068,-0.9,1.122
2024-09-23 11:50:28.374,163361.217,-0.041,0.791,-0.611,-0.018,-0.022,-0.02,-0.15,0.119,-0.006,-0.068,-0.912,1.118
2024-09-23 11:50:28.493,163361.337,-0.041,0.787,-0.615,-0.006,-0.064,-0.031,-0.087,-0.026,0.05,-0.066,-0.907,1.12
2024-09-23 11:50:28.613,163361.457,-0.04,0.792,-0.609,-0.005,-0.029,-0.019,-0.047,0.073,-0.028,-0.066,-0.914,1.125
2024-09-23 11:50:28.733,163361.576,-0.036,0.794,-0.606,0.005,0.016,-0.002,0.093,0.006,-0.018,-0.059,-0.918,1.116
2024-09-23 11:50:28.853,163361.696,-0.04,0.79,-0.612,-0.009,0.018,0.001,-0.019,-0.032,0.021,-0.065,-0.911,1.117
2024-09-23 11:50:28.974,163361.816,-0.031,0.797,-0.603,-0.019,-0.024,-0.023,-0.124,0.202,-0.004,-0.052,-0.923,1.12
2024-09-23 11:50:29.093,163361.936,-0.035,0.785,-0.618,0.014,0.022,0.02,0.105,-0.026,-0.04,-0.057,-0.903,1.116
2024-09-23 11:50:29.212,163362.056,-0.034,0.787,-0.616,-0.0,-0.001,0.009,-0.031,0.001,0.011,-0.055,-0.906,1.114
2024-09-23 11:50:29.332,163362.175,-0.033,0.79,-0.612,0.007,0.025,0.01,0.014,-0.048,0.029,-0.054,-0.911,1.12
2024-09-23 11:50:29.452,163362.295,-0.036,0.791,-0.611,0.001,0.017,-0.004,-0.036,0.013,-0.033,-0.058,-0.913,1.12
2024-09-23 11:50:29.572,163362.415,-0.034,0.795,-0.606,0.009,-0.018,-0.043,0.055,0.026,-0.039,-0.056,-0.919,1.111
2024-09-23 11:50:29.691,163362.535,-0.038,0.787,-0.616,0.006,0.02,0.0,-0.002,-0.092,0.042,-0.062,-0.906,1.112
2024-09-23 11:50:29.812,163362.655,-0.041,0.788,-0.614,-0.02,-0.013,-0.011,-0.109,0.02,0.042,-0.067,-0.908,1.115
2024-09-23 11:50:29.932,163362.774,-0.03,0.817,-0.575,-0.006,-0.017,-0.026,-1.256,-0.111,0.207,-0.051,-0.957,1.121
2024-09-23 11:50:30.051,163362.894,-0.029,0.799,-0.6,0.107,-0.089,-0.103,0.384,0.101,0.044,-0.049,-0.926,1.14
2024-09-23 11:50:30.171,163363.014,-0.03,0.795,-0.606,-0.008,0.036,0.014,0.1,-0.037,-0.033,-0.05,-0.919,1.13
2024-09-23 11:50:30.290,163363.134,-0.035,0.788,-0.614,0.025,0.013,0.008,0.189,-0.06,-0.045,-0.057,-0.908,1.125
2024-09-23 11:50:30.410,163363.254,-0.038,0.781,-0.623,-0.019,-0.016,0.024,-0.189,0.1,0.034,-0.062,-0.897,1.124
2024-09-23 11:50:30.530,163363.373,-0.037,0.781,-0.624,0.019,0.018,0.009,0.079,-0.024,0.014,-0.06,-0.896,1.128
2024-09-23 11:50:30.650,163363.493,-0.036,0.785,-0.619,0.003,-0.016,0.006,-0.012,-0.022,0.011,-0.058,-0.902,1.127
2024-09-23 11:50:30.770,163363.613,-0.04,0.786,-0.617,0.007,-0.01,-0.013,-0.029,-0.088,-0.015,-0.065,-0.904,1.129
2024-09-23 11:50:30.890,163363.733,-0.037,0.792,-0.609,0.01,0.019,0.008,0.066,0.027,-0.015,-0.061,-0.914,1.128
2024-09-23 11:50:31.009,163363.853,-0.039,0.79,-0.612,-0.008,0.006,0.007,-0.097,-0.078,0.038,-0.063,-0.911,1.132
2024-09-23 11:50:31.130,163363.972,-0.037,0.795,-0.606,-0.009,-0.001,0.004,-0.016,0.147,-0.045,-0.06,-0.918,1.133
2024-09-23 11:50:31.249,163364.092,-0.036,0.792,-0.609,0.008,0.007,0.021,0.001,-0.059,-0.007,-0.059,-0.914,1.127
2024-09-23 11:50:31.368,163364.212,-0.037,0.794,-0.607,-0.023,-0.012,0.013,-0.104,0.07,0.015,-0.061,-0.918,1.129
2024-09-23 11:50:31.489,163364.332,-0.026,0.8,-0.599,0.026,0.03,-0.006,0.107,0.06,-0.055,-0.044,-0.927,1.129
2024-09-23 11:50:31.608,163364.452,-0.028,0.792,-0.61,-0.034,0.0,-0.022,-0.089,0.05,0.012,-0.045,-0.914,1.125
2024-09-23 11:50:31.728,163364.571,-0.026,0.793,-0.609,-0.004,0.006,0.009,0.041,-0.041,0.077,-0.042,-0.915,1.131
2024-09-23 11:50:31.848,163364.691,-0.028,0.794,-0.608,0.012,-0.001,0.005,0.024,-0.037,-0.023,-0.046,-0.917,1.136
2024-09-23 11:50:31.968,163364.811,-0.029,0.795,-0.606,-0.011,-0.065,0.006,-0.071,0.146,-0.074,-0.047,-0.919,1.128
2024-09-23 11:50:32.088,163364.931,-0.029,0.786,-0.618,0.011,-0.005,0.002,0.069,-0.061,0.018,-0.047,-0.904,1.121
2024-09-23 11:50:32.207,163365.051,-0.033,0.788,-0.615,-0.003,-0.005,-0.006,-0.027,-0.087,0.018,-0.053,-0.907,1.128
2024-09-23 11:50:32.327,163365.17,-0.029,0.814,-0.58,-0.016,-0.1,-0.059,-1.039,0.263,-0.031,-0.05,-0.951,1.123
2024-09-23 11:50:32.447,163365.29,-0.015,0.895,-0.446,0.028,0.01,-0.035,-1.223,0.14,-0.045,-0.033,-1.109,1.102
2024-09-23 11:50:32.566,163365.41,-0.007,0.946,-0.325,0.05,0.028,-0.059,-0.573,0.189,0.125,-0.022,-1.24,1.097
2024-09-23 11:50:32.687,163365.53,0.026,0.937,-0.347,0.095,-0.03,0.065,0.327,0.048,0.275,0.073,-1.215,1.175
2024-09-23 11:50:32.807,163365.649,0.03,0.906,-0.422,0.022,-0.156,0.114,0.213,-0.346,-0.112,0.071,-1.134,1.194
2024-09-23 11:50:32.926,163365.769,-0.012,0.888,-0.46,-0.072,0.025,0.03,0.452,-0.324,-0.131,-0.026,-1.092,1.14
2024-09-23 11:50:33.046,163365.889,-0.023,0.85,-0.526,-0.059,-0.011,0.008,0.597,-0.043,0.023,-0.044,-1.016,1.14
2024-09-23 11:50:33.166,163366.009,-0.02,0.834,-0.551,0.035,0.003,0.064,0.007,0.098,0.041,-0.037,-0.986,1.148
2024-09-23 11:50:33.286,163366.129,-0.023,0.825,-0.565,-0.005,-0.017,-0.007,0.098,-0.006,-0.053,-0.041,-0.969,1.142
2024-09-23 11:50:33.405,163366.248,-0.03,0.822,-0.569,0.001,0.01,0.007,0.146,-0.036,-0.049,-0.053,-0.964,1.135
2024-09-23 11:50:33.526,163366.368,-0.033,0.819,-0.573,0.019,0.023,0.012,0.107,-0.045,-0.056,-0.057,-0.959,1.132
2024-09-23 11:50:33.645,163366.488,-0.038,0.82,-0.571,0.012,0.03,0.021,0.111,-0.028,-0.048,-0.066,-0.961,1.125
2024-09-23 11:50:33.765,163366.608,-0.043,0.816,-0.577,-0.01,-0.035,-0.012,0.002,-0.059,0.024,-0.075,-0.954,1.118
2024-09-23 11:50:33.884,163366.728,-0.039,0.823,-0.567,-0.018,0.035,0.025,0.043,0.137,-0.001,-0.069,-0.967,1.123
2024-09-23 11:50:34.004,163366.847,-0.044,0.815,-0.578,0.009,0.024,0.02,0.199,-0.073,-0.053,-0.076,-0.953,1.11
2024-09-23 11:50:34.124,163366.967,-0.043,0.817,-0.576,-0.009,-0.023,-0.017,-0.116,-0.037,0.099,-0.074,-0.955,1.12
2024-09-23 11:50:34.244,163367.087,-0.036,0.824,-0.566,-0.0,-0.009,-0.002,0.002,0.071,-0.017,-0.064,-0.968,1.127
2024-09-23 11:50:34.363,163367.207,-0.042,0.821,-0.569,-0.008,-0.083,-0.008,-0.072,0.055,0.033,-0.073,-0.963,1.118
2024-09-23 11:50:34.483,163367.327,-0.029,0.825,-0.565,-0.023,-0.015,-0.02,-0.258,0.274,0.035,-0.05,-0.969,1.128
2024-09-23 11:50:34.603,163367.446,-0.03,0.822,-0.569,-0.0,-0.055,-0.021,-0.013,-0.032,-0.081,-0.053,-0.965,1.117
2024-09-23 11:50:34.723,163367.566,-0.038,0.815,-0.578,-0.019,-0.138,-0.042,-0.186,-0.061,0.06,-0.065,-0.952,1.111
2024-09-23 11:50:34.843,163367.686,-0.031,0.819,-0.572,-0.004,-0.029,-0.005,-0.079,0.108,0.002,-0.053,-0.96,1.118
2024-09-23 11:50:34.962,163367.806,-0.037,0.815,-0.579,0.005,0.029,0.022,0.036,-0.065,-0.029,-0.064,-0.952,1.107
2024-09-23 11:50:35.083,163367.926,-0.033,0.821,-0.57,-0.004,-0.049,-0.014,-0.141,-0.028,0.065,-0.059,-0.963,1.121
2024-09-23 11:50:35.202,163368.045,-0.031,0.826,-0.562,0.0,-0.004,-0.016,-0.017,0.025,-0.046,-0.055,-0.973,1.12
2024-09-23 11:50:35.322,163368.165,-0.033,0.824,-0.565,-0.017,-0.022,0.025,-0.067,0.028,0.065,-0.059,-0.969,1.116
2024-09-23 11:50:35.442,163368.285,-0.038,0.825,-0.565,0.001,0.034,0.012,-0.044,-0.027,-0.004,-0.067,-0.969,1.115
2024-09-23 11:50:35.562,163368.405,-0.031,0.826,-0.563,-0.003,-0.044,-0.006,-0.117,0.091,0.044,-0.055,-0.972,1.121
2024-09-23 11:50:35.682,163368.525,-0.024,0.839,-0.544,-0.066,-0.001,-0.048,0.246,-0.117,-0.533,-0.044,-0.995,1.119
2024-09-23 11:50:35.801,163368.644,-0.038,0.828,-0.56,0.055,-0.015,0.01,0.229,-0.091,0.1,-0.067,-0.975,1.124
2024-09-23 11:50:35.920,163368.764,-0.038,0.817,-0.575,0.023,-0.03,0.003,0.085,-0.161,-0.096,-0.066,-0.956,1.133
2024-09-23 11:50:36.041,163368.884,-0.045,0.812,-0.581,0.016,0.006,-0.002,0.002,-0.015,-0.048,-0.077,-0.948,1.127
2024-09-23 11:50:36.161,163369.004,-0.051,0.811,-0.583,-0.006,-0.002,-0.001,0.009,0.005,-0.033,-0.088,-0.946,1.117
2024-09-23 11:50:36.279,163369.124,-0.055,0.808,-0.587,-0.0,-0.018,-0.005,-0.038,0.004,-0.031,-0.093,-0.941,1.112
2024-09-23 11:50:36.400,163369.243,-0.058,0.807,-0.588,-0.005,-0.005,0.005,0.015,0.012,0.001,-0.098,-0.939,1.108
2024-09-23 11:50:36.520,163369.363,-0.06,0.805,-0.59,-0.01,-0.014,-0.007,-0.046,-0.065,0.044,-0.101,-0.936,1.109
2024-09-23 11:50:36.640,163369.483,-0.058,0.812,-0.58,0.003,-0.037,0.007,-0.122,0.101,0.008,-0.099,-0.948,1.114
2024-09-23 11:50:36.760,163369.603,-0.051,0.818,-0.573,0.001,-0.002,0.001,-0.029,0.015,0.029,-0.089,-0.958,1.114
2024-09-23 11:50:36.879,163369.723,-0.049,0.816,-0.576,-0.004,0.002,0.001,0.085,0.034,-0.027,-0.085,-0.954,1.112
2024-09-23 11:50:36.999,163369.842,-0.056,0.804,-0.592,0.003,-0.01,0.007,0.012,-0.046,-0.001,-0.095,-0.934,1.104
2024-09-23 11:50:37.119,163369.962,-0.054,0.81,-0.584,-0.005,-0.0,-0.01,-0.105,-0.029,0.089,-0.093,-0.944,1.114
2024-09-23 11:50:37.239,163370.082,-0.049,0.817,-0.575,-0.009,0.005,-0.005,-0.034,0.106,-0.012,-0.085,-0.956,1.119
2024-09-23 11:50:37.359,163370.202,-0.052,0.812,-0.581,-0.024,-0.006,-0.021,-0.029,0.045,0.033,-0.09,-0.948,1.114
2024-09-23 11:50:37.479,163370.321,-0.039,0.818,-0.573,-0.017,-0.038,-0.063,-0.297,0.198,-0.005,-0.067,-0.958,1.121
2024-09-23 11:50:37.598,163370.441,-0.046,0.812,-0.582,-0.0,-0.011,-0.008,0.127,-0.104,-0.021,-0.079,-0.947,1.11
2024-09-23 11:50:37.718,163370.561,-0.044,0.813,-0.581,-0.005,-0.022,0.01,-0.009,0.092,-0.007,-0.076,-0.948,1.112
2024-09-23 11:50:37.838,163370.681,-0.049,0.811,-0.583,-0.007,-0.054,-0.007,-0.046,-0.051,0.034,-0.084,-0.945,1.106
2024-09-23 11:50:37.958,163370.801,-0.045,0.818,-0.574,-0.01,0.004,0.003,-0.1,0.04,0.042,-0.078,-0.958,1.118
2024-09-23 11:50:38.077,163370.92,-0.046,0.818,-0.574,0.017,0.032,-0.004,0.066,-0.042,-0.047,-0.081,-0.958,1.112
2024-09-23 11:50:38.197,163371.04,-0.046,0.819,-0.572,0.009,0.017,0.002,0.019,-0.052,-0.018,-0.08,-0.96,1.113
2024-09-23 11:50:38.318,163371.16,-0.048,0.816,-0.575,-0.008,0.016,0.006,0.104,0.053,0.039,-0.083,-0.955,1.113
2024-09-23 11:50:38.437,163371.28,-0.043,0.822,-0.568,-0.003,-0.043,-0.027,-0.255,0.11,0.028,-0.075,-0.965,1.116
2024-09-23 11:50:38.556,163371.4,-0.04,0.829,-0.558,-0.069,0.029,0.118,-0.042,-0.251,0.049,-0.071,-0.977,1.116
2024-09-23 11:50:38.677,163371.519,-0.037,0.819,-0.572,0.121,0.02,-0.102,0.353,-0.03,0.065,-0.065,-0.96,1.138
2024-09-23 11:50:38.796,163371.639,-0.048,0.817,-0.574,-0.015,0.011,0.028,0.218,-0.094,0.005,-0.084,-0.957,1.127
2024-09-23 11:50:38.917,163371.759,-0.05,0.812,-0.582,-0.0,0.021,0.019,0.151,-0.016,-0.001,-0.085,-0.947,1.126
2024-09-23 11:50:39.036,163371.879,-0.051,0.809,-0.586,-0.001,-0.003,0.005,0.074,0.016,-0.017,-0.087,-0.942,1.123
2024-09-23 11:50:39.155,163371.999,-0.052,0.807,-0.588,-0.02,-0.031,-0.015,-0.134,0.03,0.043,-0.088,-0.939,1.122
2024-09-23 11:50:39.275,163372.118,-0.053,0.808,-0.587,-0.004,-0.015,-0.004,0.037,-0.026,-0.016,-0.09,-0.941,1.12
2024-09-23 11:50:39.395,163372.238,-0.056,0.806,-0.589,0.005,0.026,0.014,-0.001,-0.068,0.023,-0.095,-0.937,1.119
2024-09-23 11:50:39.515,163372.358,-0.053,0.814,-0.578,-0.021,0.015,0.014,-0.098,0.14,0.017,-0.092,-0.951,1.124
2024-09-23 11:50:39.634,163372.478,-0.053,0.811,-0.583,0.008,0.014,0.007,0.212,-0.056,-0.065,-0.091,-0.946,1.114
2024-09-23 11:50:39.755,163372.598,-0.054,0.811,-0.583,-0.007,0.011,-0.002,-0.109,-0.046,0.089,-0.093,-0.946,1.12
2024-09-23 11:50:39.873,163372.717,-0.046,0.817,-0.575,-0.005,0.004,0.003,-0.058,0.104,-0.002,-0.08,-0.956,1.13
2024-09-23 11:50:39.994,163372.837,-0.045,0.82,-0.571,0.018,0.014,0.013,0.163,-0.068,-0.056,-0.079,-0.961,1.124
2024-09-23 11:50:40.114,163372.957,-0.046,0.818,-0.573,-0.004,0.008,0.026,-0.019,0.124,0.03,-0.08,-0.958,1.126
2024-09-23 11:50:40.234,163373.077,-0.041,0.819,-0.572,0.014,0.005,-0.001,0.046,-0.005,-0.069,-0.072,-0.96,1.121
2024-09-23 11:50:40.354,163373.197,-0.048,0.815,-0.577,-0.011,0.003,-0.009,-0.078,-0.05,0.043,-0.083,-0.953,1.118
2024-09-23 11:50:40.473,163373.316,-0.043,0.817,-0.575,0.019,0.007,-0.001,-0.01,0.026,-0.071,-0.074,-0.956,1.119
2024-09-23 11:50:40.593,163373.436,-0.05,0.816,-0.575,-0.011,-0.016,-0.01,-0.145,-0.085,0.094,-0.086,-0.955,1.116
2024-09-23 11:50:40.713,163373.556,-0.044,0.822,-0.568,-0.004,0.007,0.001,-0.015,0.054,-0.012,-0.078,-0.964,1.125
2024-09-23 11:50:40.833,163373.676,-0.047,0.82,-0.57,-0.016,-0.007,0.008,-0.063,0.021,0.03,-0.083,-0.962,1.121
2024-09-23 11:50:40.952,163373.796,-0.048,0.822,-0.567,0.017,0.053,0.032,0.235,-0.138,-0.035,-0.084,-0.965,1.122
2024-09-23 11:50:41.072,163373.915,-0.045,0.819,-0.573,-0.0,-0.012,0.017,-0.03,0.082,0.055,-0.079,-0.959,1.128
2024-09-23 11:50:41.192,163374.035,-0.037,0.824,-0.565,-0.153,0.021,0.053,-0.226,-0.152,-0.007,-0.065,-0.969,1.13
2024-09-23 11:50:41.312,163374.155,-0.039,0.822,-0.569,0.094,-0.071,-0.096,0.682,0.163,0.12,-0.068,-0.964,1.145
2024-09-23 11:50:41.432,163374.275,-0.043,0.803,-0.594,-0.008,-0.007,-0.012,0.065,-0.078,-0.041,-0.072,-0.933,1.138
2024-09-23 11:50:41.551,163374.395,-0.05,0.795,-0.604,0.003,0.006,0.008,0.129,-0.07,-0.033,-0.082,-0.919,1.135
2024-09-23 11:50:41.671,163374.514,-0.052,0.789,-0.612,-0.005,-0.013,-0.003,0.093,-0.002,-0.003,-0.085,-0.909,1.129
2024-09-23 11:50:41.791,163374.634,-0.048,0.793,-0.607,0.006,-0.003,0.003,-0.113,0.111,-0.02,-0.079,-0.916,1.131
2024-09-23 11:50:41.910,163374.754,-0.049,0.788,-0.614,0.012,0.015,0.008,0.251,-0.084,-0.046,-0.079,-0.908,1.123
2024-09-23 11:50:42.031,163374.874,-0.047,0.791,-0.61,-0.005,-0.007,-0.002,-0.066,-0.107,0.09,-0.078,-0.912,1.135
2024-09-23 11:50:42.151,163374.993,-0.046,0.795,-0.605,0.006,0.019,0.007,0.071,0.03,-0.051,-0.077,-0.919,1.134
2024-09-23 11:50:42.270,163375.113,-0.045,0.796,-0.604,-0.034,-0.026,0.03,-0.009,0.125,0.043,-0.075,-0.921,1.134
2024-09-23 11:50:42.390,163375.233,-0.037,0.801,-0.597,0.016,0.014,0.0,0.081,-0.011,-0.041,-0.061,-0.929,1.133
2024-09-23 11:50:42.510,163375.353,-0.044,0.79,-0.612,-0.02,-0.045,-0.027,-0.083,-0.059,0.058,-0.072,-0.91,1.128
2024-09-23 11:50:42.629,163375.473,-0.038,0.794,-0.607,0.007,-0.002,0.004,-0.016,0.082,-0.03,-0.063,-0.917,1.133
2024-09-23 11:50:42.749,163375.592,-0.044,0.789,-0.613,0.001,0.007,0.017,-0.057,-0.048,0.026,-0.071,-0.909,1.127
2024-09-23 11:50:42.869,163375.712,-0.04,0.797,-0.603,-0.004,-0.028,-0.012,-0.179,0.01,0.039,-0.066,-0.922,1.14
2024-09-23 11:50:42.989,163375.832,-0.041,0.799,-0.6,0.028,0.047,0.006,0.164,-0.095,-0.027,-0.067,-0.926,1.135
2024-09-23 11:50:43.109,163375.952,-0.038,0.8,-0.598,0.001,0.0,-0.018,-0.162,0.011,0.027,-0.064,-0.928,1.137
2024-09-23 11:50:43.229,163376.072,-0.042,0.795,-0.605,-0.017,-0.124,-0.043,-0.037,0.02,0.045,-0.069,-0.919,1.138
2024-09-23 11:50:43.348,163376.191,-0.034,0.8,-0.599,-0.006,0.005,-0.025,-0.227,0.126,0.017,-0.057,-0.927,1.144
2024-09-23 11:50:43.468,163376.311,-0.033,0.824,-0.566,-0.099,0.049,0.055,-0.0,-0.118,0.02,-0.059,-0.968,1.141
2024-09-23 11:50:43.588,163376.431,-0.033,0.798,-0.602,0.14,-0.039,-0.044,0.261,-0.081,-0.109,-0.055,-0.924,1.153
2024-09-23 11:50:43.707,163376.551,-0.039,0.793,-0.608,-0.012,0.022,0.021,0.097,-0.073,0.025,-0.065,-0.915,1.149
2024-09-23 11:50:43.827,163376.671,-0.044,0.786,-0.617,0.007,0.003,0.005,0.241,-0.047,-0.026,-0.072,-0.904,1.147
2024-09-23 11:50:43.948,163376.79,-0.044,0.785,-0.618,-0.016,-0.044,-0.008,-0.165,0.119,0.023,-0.072,-0.902,1.15
2024-09-23 11:50:44.067,163376.91,-0.038,0.791,-0.61,0.028,0.036,0.017,0.239,-0.02,-0.052,-0.063,-0.913,1.145
2024-09-23 11:50:44.186,163377.03,-0.042,0.786,-0.617,-0.005,0.003,0.008,-0.031,-0.113,0.067,-0.068,-0.905,1.149
2024-09-23 11:50:44.306,163377.15,-0.041,0.793,-0.608,0.013,-0.021,0.003,-0.017,0.066,-0.044,-0.067,-0.916,1.151
2024-09-23 11:50:44.426,163377.27,-0.041,0.79,-0.612,-0.024,-0.057,0.006,-0.12,0.106,0.053,-0.067,-0.911,1.149
2024-09-23 11:50:44.546,163377.389,-0.031,0.793,-0.608,0.008,0.011,-0.001,0.042,0.086,-0.04,-0.051,-0.916,1.15
2024-09-23 11:50:44.666,163377.509,-0.036,0.785,-0.619,0.002,0.033,-0.005,-0.056,0.035,0.046,-0.058,-0.903,1.15
2024-09-23 11:50:44.786,163377.629,-0.032,0.79,-0.612,0.012,-0.008,-0.012,0.057,0.004,-0.062,-0.053,-0.911,1.146
2024-09-23 11:50:44.906,163377.749,-0.037,0.788,-0.615,-0.012,0.008,-0.006,-0.076,-0.103,0.073,-0.06,-0.907,1.152
2024-09-23 11:50:45.026,163377.869,-0.034,0.794,-0.608,0.002,-0.0,-0.011,0.016,0.066,-0.04,-0.056,-0.917,1.153
2024-09-23 11:50:45.145,163377.988,-0.035,0.793,-0.608,-0.015,-0.031,0.028,-0.06,0.005,0.05,-0.057,-0.916,1.152
2024-09-23 11:50:45.265,163378.108,-0.038,0.791,-0.61,-0.001,-0.084,-0.031,-0.087,-0.004,0.026,-0.062,-0.913,1.152
2024-09-23 11:50:45.385,163378.228,-0.029,0.801,-0.598,-0.051,0.02,0.033,-0.437,0.142,0.145,-0.049,-0.929,1.16
2024-09-23 11:50:45.505,163378.348,-0.034,0.819,-0.572,0.059,-0.015,0.015,0.497,-0.136,0.017,-0.059,-0.96,1.162
2024-09-23 11:50:45.624,163378.468,-0.041,0.796,-0.604,-0.002,0.029,0.012,0.202,-0.082,-0.028,-0.068,-0.921,1.16
2024-09-23 11:50:45.744,163378.587,-0.044,0.789,-0.612,0.007,0.018,0.016,0.198,-0.04,-0.002,-0.072,-0.91,1.16
2024-09-23 11:50:45.864,163378.707,-0.045,0.785,-0.618,-0.008,-0.016,0.012,-0.13,0.137,0.018,-0.073,-0.902,1.161
2024-09-23 11:50:45.983,163378.827,-0.038,0.79,-0.612,0.03,0.038,0.022,0.268,-0.044,-0.051,-0.062,-0.91,1.157
2024-09-23 11:50:46.104,163378.947,-0.041,0.786,-0.616,-0.007,0.024,0.008,-0.095,-0.104,0.069,-0.066,-0.905,1.163
2024-09-23 11:50:46.223,163379.067,-0.039,0.794,-0.607,0.012,0.041,0.006,0.044,0.046,-0.055,-0.064,-0.917,1.163
2024-09-23 11:50:46.343,163379.186,-0.037,0.793,-0.608,-0.032,-0.022,0.037,-0.082,0.144,0.047,-0.061,-0.915,1.164
2024-09-23 11:50:46.463,163379.306,-0.029,0.791,-0.611,0.047,0.066,0.029,0.394,-0.115,-0.027,-0.047,-0.913,1.162
2024-09-23 11:50:46.583,163379.426,-0.027,0.792,-0.61,-0.005,-0.027,0.02,-0.056,0.083,-0.005,-0.044,-0.914,1.166
2024-09-23 11:50:46.703,163379.546,-0.032,0.789,-0.613,-0.022,-0.069,-0.039,-0.06,-0.068,0.039,-0.052,-0.91,1.161
2024-09-23 11:50:46.823,163379.666,-0.031,0.795,-0.606,0.007,-0.005,0.016,-0.096,0.046,-0.006,-0.05,-0.919,1.172
2024-09-23 11:50:46.942,163379.785,-0.032,0.793,-0.608,0.026,0.048,-0.009,0.077,-0.046,-0.02,-0.053,-0.916,1.165
2024-09-23 11:50:47.062,163379.905,-0.03,0.794,-0.607,0.011,-0.011,-0.015,0.145,-0.076,0.006,-0.05,-0.917,1.168
2024-09-23 11:50:47.182,163380.025,-0.03,0.797,-0.603,-0.009,-0.044,-0.018,-0.097,0.073,0.038,-0.05,-0.922,1.171
2024-09-23 11:50:47.302,163380.145,-0.028,0.804,-0.594,0.008,-0.013,-0.049,-0.474,0.075,-0.101,-0.047,-0.933,1.165
2024-09-23 11:50:47.421,163380.264,-0.037,0.875,-0.483,0.025,-0.001,-0.045,-1.062,-0.021,-0.151,-0.076,-1.065,1.118
2024-09-23 11:50:47.541,163380.384,-0.048,0.929,-0.368,0.056,0.021,-0.042,-0.62,0.162,0.081,-0.13,-1.191,1.058
2024-09-23 11:50:47.662,163380.504,-0.02,0.926,-0.376,0.048,-0.099,0.002,0.256,0.168,0.192,-0.053,-1.185,1.115
2024-09-23 11:50:47.782,163380.624,-0.013,0.916,-0.401,-0.026,-0.05,0.041,0.293,0.002,-0.103,-0.033,-1.158,1.121
2024-09-23 11:50:47.901,163380.744,-0.034,0.894,-0.447,-0.081,0.097,0.037,0.974,-0.259,-0.056,-0.076,-1.106,1.095
2024-09-23 11:50:48.020,163380.863,-0.042,0.847,-0.53,-0.023,0.019,0.03,0.951,-0.092,0.051,-0.078,-1.011,1.116
2024-09-23 11:50:48.140,163380.983,-0.035,0.816,-0.577,-0.001,0.005,-0.006,0.188,0.053,0.064,-0.061,-0.955,1.144
2024-09-23 11:50:48.260,163381.103,-0.04,0.814,-0.58,0.012,0.052,0.028,0.276,-0.057,-0.11,-0.069,-0.95,1.134
2024-09-23 11:50:48.380,163381.223,-0.047,0.806,-0.59,0.023,0.034,0.024,0.213,-0.096,-0.044,-0.079,-0.937,1.127
2024-09-23 11:50:48.500,163381.343,-0.055,0.8,-0.597,-0.014,0.032,0.01,0.085,0.011,0.01,-0.092,-0.928,1.122
2024-09-23 11:50:48.619,163381.462,-0.05,0.802,-0.596,0.004,-0.005,0.01,0.037,0.103,-0.011,-0.083,-0.93,1.12
2024-09-23 11:50:48.739,163381.582,-0.054,0.801,-0.597,0.019,0.048,0.019,0.208,-0.12,-0.076,-0.091,-0.928,1.108
2024-09-23 11:50:48.859,163381.702,-0.057,0.802,-0.595,0.004,-0.024,-0.012,-0.054,-0.054,0.073,-0.096,-0.93,1.111
2024-09-23 11:50:48.979,163381.822,-0.052,0.809,-0.586,0.006,-0.019,-0.002,-0.093,-0.035,0.066,-0.089,-0.942,1.126
2024-09-23 11:50:49.099,163381.942,-0.054,0.812,-0.581,-0.016,-0.02,-0.001,-0.103,0.03,0.001,-0.093,-0.948,1.123
2024-09-23 11:50:49.217,163382.061,-0.056,0.811,-0.582,0.008,0.031,-0.003,0.15,-0.09,-0.068,-0.096,-0.946,1.112
2024-09-23 11:50:49.338,163382.181,-0.062,0.806,-0.588,0.005,0.01,0.009,0.096,-0.087,-0.006,-0.106,-0.938,1.114
2024-09-23 11:50:49.458,163382.301,-0.055,0.814,-0.578,-0.012,-0.035,-0.009,-0.098,0.102,0.016,-0.095,-0.951,1.114
2024-09-23 11:50:49.578,163382.421,-0.055,0.811,-0.583,-0.009,0.008,0.006,0.011,0.041,0.044,-0.093,-0.945,1.113
2024-09-23 11:50:49.698,163382.541,-0.048,0.812,-0.581,0.009,-0.011,-0.001,-0.068,0.015,-0.003,-0.083,-0.948,1.119
2024-09-23 11:50:49.817,163382.66,-0.056,0.811,-0.583,0.012,0.037,0.015,0.31,-0.17,-0.059,-0.095,-0.945,1.114
2024-09-23 11:50:49.937,163382.78,-0.054,0.811,-0.583,0.01,-0.038,0.008,-0.209,0.091,0.033,-0.093,-0.946,1.116
2024-09-23 11:50:50.057,163382.9,-0.043,0.83,-0.555,-0.126,0.069,0.025,-0.026,-0.033,-0.077,-0.078,-0.98,1.115
2024-09-23 11:50:50.176,163383.02,-0.047,0.82,-0.57,0.079,-0.041,-0.011,0.264,-0.076,0.045,-0.083,-0.962,1.122
2024-09-23 11:50:50.297,163383.14,-0.053,0.819,-0.571,0.009,0.043,0.021,0.107,-0.111,-0.054,-0.093,-0.96,1.117
2024-09-23 11:50:50.416,163383.259,-0.06,0.814,-0.578,0.005,0.006,0.008,0.048,-0.068,-0.014,-0.103,-0.951,1.115
2024-09-23 11:50:50.536,163383.379,-0.069,0.804,-0.591,-0.003,0.019,0.009,0.108,-0.046,-0.029,-0.116,-0.934,1.111
2024-09-23 11:50:50.655,163383.499,-0.062,0.806,-0.589,0.002,-0.011,0.028,0.005,0.16,0.003,-0.105,-0.937,1.113
2024-09-23 11:50:50.776,163383.619,-0.066,0.803,-0.592,0.008,0.007,0.004,0.064,-0.063,-0.045,-0.111,-0.933,1.105
2024-09-23 11:50:50.896,163383.739,-0.066,0.806,-0.588,-0.011,-0.019,-0.032,-0.138,-0.022,0.08,-0.112,-0.938,1.11
2024-09-23 11:50:51.015,163383.858,-0.063,0.812,-0.58,-0.006,-0.013,-0.006,-0.066,-0.01,0.028,-0.108,-0.948,1.119
2024-09-23 11:50:51.135,163383.978,-0.062,0.815,-0.576,-0.007,-0.021,0.007,0.035,0.1,-0.017,-0.107,-0.953,1.116
2024-09-23 11:50:51.255,163384.098,-0.067,0.809,-0.583,0.005,0.019,0.029,0.029,-0.072,0.013,-0.115,-0.943,1.108
2024-09-23 11:50:51.374,163384.218,-0.069,0.809,-0.583,0.001,-0.063,-0.008,-0.156,0.082,0.013,-0.118,-0.943,1.109
2024-09-23 11:50:51.496,163384.338,-0.063,0.813,-0.579,0.026,0.023,0.011,0.165,-0.062,-0.014,-0.108,-0.95,1.111
2024-09-23 11:50:51.614,163384.457,-0.059,0.815,-0.577,-0.003,-0.036,-0.009,-0.058,0.063,0.025,-0.102,-0.952,1.115
2024-09-23 11:50:51.734,163384.577,-0.062,0.815,-0.576,0.015,0.052,0.018,0.195,-0.123,-0.055,-0.107,-0.953,1.113
2024-09-23 11:50:51.854,163384.697,-0.063,0.815,-0.577,-0.009,-0.019,0.007,-0.141,0.068,0.042,-0.109,-0.952,1.113
2024-09-23 11:50:51.974,163384.817,-0.052,0.827,-0.56,-0.024,0.02,0.019,-0.149,-0.058,-0.037,-0.092,-0.973,1.116
2024-09-23 11:50:52.094,163384.937,-0.053,0.822,-0.568,0.059,-0.018,-0.01,0.291,-0.051,0.049,-0.093,-0.964,1.122
2024-09-23 11:50:52.213,163385.056,-0.059,0.812,-0.581,0.001,-0.003,-0.006,-0.028,-0.151,-0.056,-0.101,-0.947,1.126
2024-09-23 11:50:52.333,163385.176,-0.069,0.804,-0.59,0.005,-0.017,-0.011,0.059,-0.112,-0.032,-0.117,-0.934,1.124
2024-09-23 11:50:52.453,163385.296,-0.074,0.799,-0.597,-0.002,0.002,-0.009,-0.096,0.113,0.015,-0.123,-0.925,1.124
2024-09-23 11:50:52.573,163385.416,-0.065,0.801,-0.595,0.005,-0.017,-0.017,-0.039,0.062,-0.056,-0.109,-0.93,1.121
2024-09-23 11:50:52.693,163385.535,-0.072,0.799,-0.596,-0.019,-0.02,-0.008,-0.102,-0.051,0.035,-0.121,-0.926,1.114
2024-09-23 11:50:52.812,163385.655,-0.071,0.806,-0.587,0.016,-0.002,0.007,-0.025,-0.011,0.013,-0.12,-0.938,1.122
2024-09-23 11:50:52.932,163385.775,-0.07,0.808,-0.585,0.01,0.001,-0.003,0.042,0.008,-0.038,-0.119,-0.941,1.122
2024-09-23 11:50:53.056,163385.895,-0.068,0.807,-0.586,0.009,-0.007,-0.033,-0.059,0.047,-0.044,-0.115,-0.94,1.118
2024-09-23 11:50:53.172,163386.015,-0.073,0.803,-0.591,0.0,-0.007,0.001,0.09,-0.067,0.01,-0.123,-0.933,1.119
2024-09-23 11:50:53.292,163386.134,-0.066,0.811,-0.581,-0.025,-0.023,-0.025,-0.243,0.152,0.03,-0.114,-0.946,1.121
2024-09-23 11:50:53.411,163386.254,-0.066,0.811,-0.582,-0.017,-0.046,0.01,-0.127,0.065,0.048,-0.112,-0.945,1.123
2024-09-23 11:50:53.531,163386.374,-0.064,0.811,-0.582,0.017,0.049,0.008,0.165,-0.11,-0.037,-0.109,-0.945,1.125
2024-09-23 11:50:53.651,163386.494,-0.063,0.813,-0.578,-0.019,0.002,0.009,0.064,0.171,0.098,-0.108,-0.95,1.126
2024-09-23 11:50:53.770,163386.614,-0.057,0.814,-0.578,0.007,0.014,0.026,0.162,-0.08,0.061,-0.099,-0.951,1.137
2024-09-23 11:50:53.889,163386.733,-0.052,0.806,-0.59,0.071,-0.005,-0.003,0.161,-0.023,-0.036,-0.088,-0.937,1.144
2024-09-23 11:50:54.010,163386.853,-0.061,0.794,-0.605,-0.004,0.028,0.01,0.421,-0.178,0.009,-0.101,-0.917,1.145
2024-09-23 11:50:54.130,163386.973,-0.06,0.793,-0.607,-0.014,-0.024,0.044,-0.07,0.127,-0.005,-0.099,-0.915,1.146
2024-09-23 11:50:54.250,163387.093,-0.063,0.79,-0.609,0.003,0.026,0.013,0.042,-0.07,0.004,-0.103,-0.911,1.139
2024-09-23 11:50:54.369,163387.213,-0.064,0.792,-0.607,0.0,0.003,0.005,-0.059,-0.045,0.048,-0.106,-0.915,1.146
2024-09-23 11:50:54.489,163387.332,-0.065,0.794,-0.605,0.017,-0.0,0.012,0.012,0.012,-0.022,-0.107,-0.917,1.148
2024-09-23 11:50:54.609,163387.452,-0.063,0.796,-0.603,0.007,-0.025,-0.013,-0.048,0.073,-0.042,-0.105,-0.92,1.142
2024-09-23 11:50:54.729,163387.572,-0.066,0.793,-0.606,0.001,0.008,0.004,0.055,-0.06,0.011,-0.109,-0.916,1.141
2024-09-23 11:50:54.848,163387.692,-0.06,0.801,-0.596,-0.008,-0.046,-0.036,-0.172,0.12,0.027,-0.1,-0.929,1.141
2024-09-23 11:50:54.968,163387.812,-0.058,0.799,-0.599,-0.011,-0.028,-0.008,-0.087,0.013,0.028,-0.097,-0.925,1.146
2024-09-23 11:50:55.088,163387.931,-0.057,0.805,-0.59,0.005,-0.017,-0.024,-0.072,-0.018,-0.019,-0.095,-0.936,1.144
2024-09-23 11:50:55.208,163388.051,-0.059,0.797,-0.601,-0.03,-0.001,-0.034,-0.156,0.042,0.032,-0.098,-0.923,1.147
2024-09-23 11:50:55.328,163388.171,-0.048,0.813,-0.58,-0.189,0.016,0.053,-0.471,0.054,0.073,-0.083,-0.949,1.152
2024-09-23 11:50:55.447,163388.291,-0.044,0.811,-0.583,0.093,-0.08,-0.085,0.11,0.141,0.088,-0.075,-0.946,1.16
2024-09-23 11:50:55.567,163388.411,-0.051,0.798,-0.601,-0.034,-0.015,-0.011,0.047,-0.086,0.002,-0.084,-0.924,1.157
2024-09-23 11:50:55.687,163388.53,-0.059,0.787,-0.614,-0.02,-0.097,-0.108,-0.189,-0.013,0.034,-0.096,-0.906,1.161
2024-09-23 11:50:55.807,163388.65,-0.051,0.793,-0.607,0.003,0.011,-0.026,0.076,0.069,-0.032,-0.084,-0.916,1.161
2024-09-23 11:50:55.927,163388.77,-0.054,0.791,-0.61,-0.012,-0.005,-0.011,-0.019,-0.111,0.057,-0.088,-0.912,1.163
2024-09-23 11:50:56.047,163388.89,-0.056,0.795,-0.605,-0.002,0.011,0.019,0.025,-0.055,0.015,-0.093,-0.918,1.171
2024-09-23 11:50:56.167,163389.01,-0.054,0.794,-0.605,-0.029,-0.018,0.025,0.016,0.166,-0.023,-0.089,-0.918,1.166
2024-09-23 11:50:56.286,163389.129,-0.055,0.791,-0.61,-0.037,-0.04,-0.021,-0.042,-0.065,0.016,-0.09,-0.912,1.163
2024-09-23 11:50:56.406,163389.249,-0.055,0.796,-0.603,-0.022,-0.023,-0.007,-0.282,0.168,0.008,-0.092,-0.92,1.163
2024-09-23 11:50:56.526,163389.369,-0.053,0.797,-0.602,-0.024,-0.117,-0.068,-0.234,0.054,0.029,-0.088,-0.922,1.164
2024-09-23 11:50:56.646,163389.489,-0.05,0.803,-0.594,-0.007,-0.01,-0.028,-0.101,-0.01,-0.025,-0.083,-0.932,1.165
2024-09-23 11:50:56.765,163389.609,-0.055,0.799,-0.599,-0.034,-0.064,0.01,-0.192,0.048,0.008,-0.091,-0.926,1.163
2024-09-23 11:50:56.885,163389.728,-0.048,0.818,-0.573,-0.111,0.101,0.044,-0.129,-0.031,0.085,-0.084,-0.958,1.166
2024-09-23 11:50:57.005,163389.848,-0.046,0.804,-0.593,0.068,-0.063,-0.078,0.086,0.156,0.067,-0.077,-0.933,1.174
2024-09-23 11:50:57.125,163389.968,-0.048,0.795,-0.605,-0.013,-0.011,-0.011,0.006,0.002,-0.022,-0.079,-0.919,1.173
2024-09-23 11:50:57.245,163390.088,-0.049,0.786,-0.616,-0.001,-0.002,0.023,-0.034,-0.047,0.023,-0.079,-0.904,1.175
2024-09-23 11:50:57.364,163390.208,-0.051,0.788,-0.614,0.015,-0.058,-0.029,-0.102,0.054,-0.029,-0.084,-0.907,1.178
2024-09-23 11:50:57.484,163390.327,-0.044,0.805,-0.592,-0.001,-0.007,-0.011,-0.167,0.081,0.006,-0.073,-0.935,1.174
2024-09-23 11:50:57.604,163390.447,-0.044,0.801,-0.597,-0.001,-0.008,-0.011,0.066,-0.04,0.006,-0.074,-0.929,1.175
2024-09-23 11:50:57.724,163390.567,-0.05,0.787,-0.615,0.009,0.016,0.008,0.002,-0.049,0.033,-0.081,-0.906,1.178
2024-09-23 11:50:57.844,163390.687,-0.043,0.793,-0.607,-0.01,0.035,0.01,0.023,0.103,-0.032,-0.071,-0.916,1.179
2024-09-23 11:50:57.963,163390.806,-0.048,0.788,-0.614,-0.018,-0.006,-0.004,-0.021,-0.102,0.027,-0.078,-0.907,1.174
2024-09-23 11:50:58.084,163390.926,-0.048,0.791,-0.609,0.008,0.006,0.01,-0.026,-0.045,0.024,-0.079,-0.913,1.186
2024-09-23 11:50:58.203,163391.046,-0.048,0.792,-0.608,-0.014,-0.035,0.004,-0.128,0.128,-0.012,-0.079,-0.915,1.182
2024-09-23 11:50:58.323,163391.166,-0.048,0.789,-0.613,0.013,0.029,0.025,0.01,-0.102,0.007,-0.079,-0.909,1.179
2024-09-23 11:50:58.443,163391.286,-0.049,0.794,-0.607,-0.023,-0.034,-0.007,-0.248,0.139,-0.006,-0.08,-0.917,1.178
2024-09-23 11:50:58.562,163391.405,-0.047,0.794,-0.606,-0.007,-0.08,-0.045,-0.129,-0.019,0.049,-0.077,-0.917,1.179
2024-09-23 11:50:58.682,163391.525,-0.044,0.798,-0.601,-0.024,-0.002,-0.015,0.052,-0.004,-0.016,-0.074,-0.925,1.179
2024-09-23 11:50:58.802,163391.645,-0.052,0.794,-0.606,0.01,-0.052,-0.022,-0.055,-0.026,0.016,-0.085,-0.917,1.174
2024-09-23 11:50:58.922,163391.765,-0.049,0.81,-0.584,-0.009,-0.029,-0.031,-0.65,0.137,-0.063,-0.083,-0.944,1.166
2024-09-23 11:50:59.041,163391.885,-0.049,0.886,-0.462,0.015,-0.018,-0.079,-1.486,0.141,-0.13,-0.106,-1.088,1.119
2024-09-23 11:50:59.162,163392.004,-0.045,0.915,-0.402,0.09,0.055,0.017,0.044,0.336,0.149,-0.11,-1.155,1.081
2024-09-23 11:50:59.281,163392.124,-0.012,0.915,-0.404,0.048,-0.016,0.066,0.209,0.01,0.187,-0.03,-1.155,1.147
2024-09-23 11:50:59.401,163392.244,-0.007,0.91,-0.415,-0.057,-0.027,0.05,0.155,-0.152,-0.025,-0.018,-1.143,1.171
2024-09-23 11:50:59.521,163392.364,-0.025,0.891,-0.454,-0.071,-0.001,0.02,0.592,-0.263,-0.034,-0.056,-1.099,1.16
2024-09-23 11:50:59.640,163392.484,-0.039,0.841,-0.54,-0.047,0.066,0.016,0.966,0.003,0.076,-0.071,-0.998,1.167
2024-09-23 11:50:59.760,163392.603,-0.032,0.81,-0.586,0.007,-0.01,-0.038,0.153,-0.03,-0.031,-0.054,-0.944,1.188
2024-09-23 11:50:59.881,163392.723,-0.038,0.808,-0.588,-0.012,0.002,-0.003,-0.011,-0.036,0.017,-0.065,-0.941,1.176
2024-09-23 11:50:59.999,163392.843,-0.042,0.811,-0.584,0.002,0.015,0.004,0.065,-0.059,-0.011,-0.072,-0.945,1.172
2024-09-23 11:51:00.118,163392.963,-0.049,0.802,-0.595,-0.01,0.021,-0.005,0.06,-0.047,-0.008,-0.081,-0.931,1.167
2024-09-23 11:51:00.239,163393.083,-0.039,0.81,-0.585,0.011,-0.031,-0.025,-0.116,0.041,-0.029,-0.066,-0.945,1.171
2024-09-23 11:51:00.359,163393.202,-0.045,0.809,-0.586,0.005,0.006,-0.011,-0.07,-0.111,0.009,-0.076,-0.942,1.171
2024-09-23 11:51:00.479,163393.322,-0.051,0.806,-0.59,-0.008,0.024,0.018,0.051,0.037,0.022,-0.086,-0.937,1.17
2024-09-23 11:51:00.599,163393.442,-0.042,0.809,-0.587,0.016,-0.003,0.007,-0.02,0.034,-0.016,-0.072,-0.942,1.173
2024-09-23 11:51:00.719,163393.562,-0.045,0.813,-0.58,0.007,0.027,0.009,0.035,-0.038,-0.039,-0.078,-0.95,1.169
2024-09-23 11:51:00.839,163393.682,-0.046,0.815,-0.578,0.003,-0.002,0.004,-0.098,0.041,0.004,-0.08,-0.952,1.167
2024-09-23 11:51:00.958,163393.801,-0.046,0.816,-0.576,0.003,0.002,0.006,0.02,-0.013,-0.004,-0.08,-0.955,1.17
2024-09-23 11:51:01.078,163393.921,-0.05,0.811,-0.583,-0.002,-0.001,0.005,0.109,-0.047,-0.019,-0.085,-0.946,1.169
2024-09-23 11:51:01.197,163394.041,-0.048,0.811,-0.583,-0.007,-0.05,0.005,-0.081,0.121,0.006,-0.082,-0.945,1.169
2024-09-23 11:51:01.318,163394.161,-0.051,0.81,-0.584,0.007,0.023,0.004,0.015,-0.071,-0.043,-0.087,-0.944,1.162
2024-09-23 11:51:01.438,163394.281,-0.05,0.815,-0.578,0.01,-0.016,0.014,-0.076,0.061,0.008,-0.086,-0.952,1.169
2024-09-23 11:51:01.557,163394.4,-0.052,0.813,-0.58,0.003,0.022,0.008,0.047,-0.032,-0.025,-0.089,-0.95,1.169
2024-09-23 11:51:01.677,163394.52,-0.045,0.812,-0.583,0.005,-0.058,-0.002,-0.057,0.101,0.022,-0.076,-0.947,1.175
2024-09-23 11:51:01.797,163394.64,-0.045,0.816,-0.576,0.016,0.03,0.014,0.154,-0.091,-0.037,-0.078,-0.955,1.172
2024-09-23 11:51:01.917,163394.76,-0.044,0.816,-0.576,-0.002,0.006,0.003,-0.065,0.096,0.032,-0.076,-0.955,1.174
2024-09-23 11:51:02.037,163394.88,-0.046,0.817,-0.575,-0.003,0.022,0.015,0.028,-0.083,-0.008,-0.079,-0.956,1.175
2024-09-23 11:51:02.155,163394.999,-0.048,0.814,-0.578,-0.005,0.017,0.017,0.044,0.064,0.04,-0.082,-0.952,1.177
2024-09-23 11:51:02.276,163395.119,-0.039,0.818,-0.573,0.009,0.021,0.003,-0.126,0.001,-0.016,-0.069,-0.958,1.182
2024-09-23 11:51:02.396,163395.239,-0.048,0.817,-0.574,0.008,0.046,0.01,0.206,-0.118,-0.035,-0.083,-0.957,1.176
2024-09-23 11:51:02.516,163395.359,-0.047,0.818,-0.573,-0.009,-0.017,-0.018,-0.072,0.044,0.004,-0.082,-0.958,1.175
2024-09-23 11:51:02.636,163395.479,-0.046,0.82,-0.57,0.005,0.017,0.009,0.005,-0.037,-0.007,-0.081,-0.962,1.176
2024-09-23 11:51:02.755,163395.598,-0.047,0.819,-0.572,-0.006,0.003,0.018,0.004,0.038,0.023,-0.082,-0.96,1.177
2024-09-23 11:51:02.875,163395.718,-0.039,0.834,-0.55,-0.06,0.065,-0.035,-0.381,0.329,0.024,-0.07,-0.986,1.176
2024-09-23 11:51:02.995,163395.838,-0.05,0.841,-0.538,0.023,-0.004,0.077,0.083,-0.082,0.029,-0.093,-1.0,1.163
2024-09-23 11:51:03.114,163395.958,-0.051,0.815,-0.577,0.073,-0.089,-0.061,-0.077,0.011,-0.099,-0.087,-0.953,1.177
2024-09-23 11:51:03.234,163396.077,-0.057,0.81,-0.584,0.005,-0.001,0.001,0.075,-0.011,-0.053,-0.098,-0.944,1.166
2024-09-23 11:51:03.354,163396.197,-0.064,0.803,-0.592,-0.012,-0.015,-0.001,-0.002,-0.002,-0.028,-0.109,-0.933,1.159
2024-09-23 11:51:03.474,163396.317,-0.067,0.798,-0.599,-0.002,-0.018,-0.007,0.083,-0.031,-0.029,-0.111,-0.924,1.158
2024-09-23 11:51:03.594,163396.437,-0.065,0.797,-0.6,-0.042,-0.031,0.02,-0.105,0.163,0.072,-0.108,-0.923,1.16
2024-09-23 11:51:03.713,163396.557,-0.065,0.799,-0.598,-0.003,-0.057,-0.016,-0.099,-0.067,0.008,-0.108,-0.925,1.16
2024-09-23 11:51:03.833,163396.676,-0.071,0.797,-0.6,-0.014,-0.03,-0.003,0.01,0.031,0.024,-0.119,-0.923,1.158
2024-09-23 11:51:03.952,163396.796,-0.062,0.801,-0.596,0.018,-0.009,-0.002,-0.043,0.028,-0.002,-0.104,-0.928,1.163
2024-09-23 11:51:04.072,163396.916,-0.067,0.801,-0.595,-0.005,0.0,0.002,-0.066,-0.117,0.055,-0.112,-0.929,1.161
2024-09-23 11:51:04.192,163397.036,-0.064,0.807,-0.587,-0.006,0.007,0.006,-0.024,0.041,-0.002,-0.108,-0.939,1.163
2024-09-23 11:51:04.312,163397.156,-0.064,0.807,-0.587,-0.018,-0.037,0.005,-0.086,0.08,0.044,-0.109,-0.939,1.162
2024-09-23 11:51:04.432,163397.275,-0.066,0.806,-0.588,0.017,0.059,0.023,0.184,-0.061,-0.029,-0.111,-0.938,1.164
2024-09-23 11:51:04.553,163397.395,-0.061,0.809,-0.585,0.014,0.012,-0.025,-0.035,0.005,-0.018,-0.104,-0.942,1.167
2024-09-23 11:51:04.672,163397.515,-0.062,0.81,-0.584,-0.019,0.013,0.026,-0.067,0.11,0.054,-0.105,-0.943,1.168
2024-09-23 11:51:04.791,163397.635,-0.062,0.811,-0.582,0.004,-0.007,0.001,-0.022,-0.099,0.029,-0.106,-0.945,1.168
2024-09-23 11:51:04.911,163397.755,-0.064,0.807,-0.586,-0.02,0.018,0.005,-0.003,0.07,0.036,-0.108,-0.94,1.171
2024-09-23 11:51:05.031,163397.874,-0.054,0.811,-0.582,0.026,-0.042,-0.026,-0.129,-0.006,-0.04,-0.092,-0.947,1.176
2024-09-23 11:51:05.151,163397.994,-0.063,0.81,-0.584,-0.019,-0.174,-0.04,-0.157,0.008,0.003,-0.108,-0.943,1.169
2024-09-23 11:51:05.271,163398.114,-0.061,0.811,-0.581,-0.004,0.002,0.015,0.007,0.003,0.008,-0.105,-0.946,1.169
2024-09-23 11:51:05.391,163398.234,-0.065,0.81,-0.582,-0.0,-0.034,-0.017,0.017,-0.016,-0.004,-0.112,-0.945,1.167
2024-09-23 11:51:05.511,163398.354,-0.058,0.814,-0.577,-0.018,-0.025,-0.017,-0.19,0.177,0.051,-0.1,-0.952,1.174
2024-09-23 11:51:05.630,163398.473,-0.054,0.837,-0.545,-0.053,0.127,-0.007,-0.167,-0.139,-0.025,-0.099,-0.992,1.165
2024-09-23 11:51:05.749,163398.593,-0.057,0.818,-0.573,0.081,-0.028,-0.033,0.544,0.034,0.032,-0.1,-0.958,1.174
2024-09-23 11:51:05.870,163398.713,-0.058,0.796,-0.602,-0.029,-0.043,-0.02,-0.007,0.044,-0.009,-0.096,-0.921,1.177
2024-09-23 11:51:05.990,163398.833,-0.06,0.793,-0.606,0.003,0.005,0.0,0.075,-0.03,-0.032,-0.099,-0.916,1.174
2024-09-23 11:51:06.109,163398.953,-0.065,0.779,-0.623,-0.023,-0.059,-0.054,-0.104,-0.017,0.016,-0.105,-0.893,1.175
2024-09-23 11:51:06.229,163399.072,-0.061,0.784,-0.617,0.023,0.016,-0.013,0.143,-0.071,-0.009,-0.098,-0.902,1.176
2024-09-23 11:51:06.349,163399.192,-0.067,0.781,-0.62,0.004,0.006,0.012,0.226,-0.122,-0.006,-0.108,-0.897,1.176
2024-09-23 11:51:06.470,163399.312,-0.061,0.784,-0.617,-0.016,-0.014,0.006,-0.101,0.131,0.036,-0.099,-0.902,1.18
2024-09-23 11:51:06.589,163399.432,-0.06,0.788,-0.613,0.023,0.032,0.001,0.207,-0.116,-0.034,-0.098,-0.907,1.178
2024-09-23 11:51:06.708,163399.552,-0.059,0.787,-0.614,0.014,0.028,0.005,0.06,-0.035,0.019,-0.096,-0.906,1.18
2024-09-23 11:51:06.828,163399.671,-0.062,0.786,-0.615,-0.003,0.002,-0.006,-0.02,-0.001,0.008,-0.101,-0.904,1.181
2024-09-23 11:51:06.948,163399.791,-0.057,0.79,-0.61,0.005,-0.051,-0.022,-0.131,0.012,0.009,-0.093,-0.911,1.184
2024-09-23 11:51:07.067,163399.911,-0.057,0.798,-0.599,-0.001,-0.03,-0.017,-0.152,-0.0,0.022,-0.094,-0.925,1.183
2024-09-23 11:51:07.187,163400.031,-0.057,0.799,-0.598,0.001,-0.018,-0.007,-0.048,0.039,-0.027,-0.095,-0.926,1.184
2024-09-23 11:51:07.307,163400.151,-0.058,0.798,-0.6,-0.001,-0.009,0.0,0.024,0.018,-0.03,-0.096,-0.923,1.179
2024-09-23 11:51:07.427,163400.27,-0.059,0.79,-0.61,-0.02,-0.068,-0.012,-0.045,0.009,0.045,-0.097,-0.911,1.181
2024-09-23 11:51:07.547,163400.39,-0.059,0.793,-0.606,0.021,0.043,0.016,0.245,-0.099,-0.024,-0.098,-0.916,1.184
2024-09-23 11:51:07.667,163400.51,-0.058,0.794,-0.606,-0.011,-0.008,0.02,-0.064,-0.005,0.025,-0.095,-0.917,1.185
2024-09-23 11:51:07.786,163400.63,-0.059,0.797,-0.601,0.001,0.02,0.021,0.083,-0.041,0.009,-0.098,-0.922,1.184
2024-09-23 11:51:07.906,163400.75,-0.059,0.797,-0.601,-0.001,0.005,0.009,0.086,-0.017,-0.014,-0.098,-0.923,1.185
2024-09-23 11:51:08.026,163400.869,-0.061,0.792,-0.608,-0.032,-0.103,-0.021,-0.191,0.113,0.052,-0.1,-0.913,1.187
2024-09-23 11:51:08.146,163400.989,-0.059,0.795,-0.604,-0.01,-0.045,-0.004,-0.1,-0.048,0.043,-0.097,-0.919,1.189
2024-09-23 11:51:08.267,163401.109,-0.063,0.789,-0.611,0.006,-0.059,-0.022,-0.084,0.06,0.017,-0.102,-0.91,1.19
2024-09-23 11:51:08.385,163401.229,-0.056,0.796,-0.602,0.02,0.001,-0.032,-0.131,0.002,-0.006,-0.092,-0.921,1.191
2024-09-23 11:51:08.505,163401.348,-0.065,0.791,-0.609,-0.038,-0.061,-0.067,-0.235,0.002,0.024,-0.106,-0.912,1.188
2024-09-23 11:51:08.625,163401.468,-0.061,0.795,-0.604,-0.016,-0.068,-0.015,-0.062,0.023,0.017,-0.101,-0.919,1.191
2024-09-23 11:51:08.745,163401.588,-0.064,0.792,-0.607,-0.007,-0.022,-0.032,-0.003,-0.007,0.014,-0.105,-0.914,1.191
2024-09-23 11:51:08.865,163401.708,-0.055,0.803,-0.593,-0.081,0.082,0.004,-0.728,0.098,0.205,-0.093,-0.933,1.196
2024-09-23 11:51:08.984,163401.828,-0.049,0.82,-0.57,0.061,-0.022,-0.008,0.416,0.068,0.02,-0.087,-0.962,1.2
2024-09-23 11:51:09.104,163401.947,-0.05,0.799,-0.6,0.003,0.042,0.019,0.191,-0.014,-0.007,-0.084,-0.925,1.203
2024-09-23 11:51:09.224,163402.067,-0.052,0.791,-0.61,0.004,-0.013,-0.008,0.057,-0.017,-0.033,-0.085,-0.912,1.202
2024-09-23 11:51:09.344,163402.187,-0.053,0.785,-0.618,-0.004,-0.006,0.001,0.217,-0.03,-0.014,-0.086,-0.902,1.2
2024-09-23 11:51:09.464,163402.307,-0.048,0.785,-0.618,-0.036,0.004,0.032,-0.043,0.143,0.036,-0.078,-0.902,1.203
2024-09-23 11:51:09.583,163402.427,-0.05,0.783,-0.619,0.003,-0.064,-0.017,-0.06,-0.097,-0.005,-0.081,-0.9,1.202
2024-09-23 11:51:09.703,163402.546,-0.053,0.784,-0.618,-0.016,-0.022,0.014,-0.166,0.106,0.022,-0.086,-0.902,1.201
2024-09-23 11:51:09.823,163402.666,-0.051,0.785,-0.617,0.009,-0.011,-0.013,-0.081,-0.087,0.028,-0.083,-0.903,1.203
2024-09-23 11:51:09.942,163402.786,-0.051,0.788,-0.614,0.015,0.016,0.002,0.077,-0.036,-0.023,-0.083,-0.907,1.204
2024-09-23 11:51:10.063,163402.906,-0.051,0.79,-0.61,0.004,0.02,-0.017,0.03,-0.051,-0.01,-0.083,-0.911,1.205
