Date,TimeStamp,GravityX,GravityY,GravityZ,UserAccelerationX,UserAccelerationY,UserAccelerationZ,RotationRateX,RotationRateY,RotationRateZ,AttitudeRoll,AttitudePitch,AttitudeYaw
2024-10-15 11:18:52.054,65083.438,0.138,-0.382,-0.914,0.013,-0.018,0.013,-0.112,0.031,-0.093,0.149,0.392,0.484
2024-10-15 11:18:52.167,65083.558,0.147,-0.354,-0.924,-0.01,-0.004,0.015,-0.285,0.075,-0.122,0.158,0.362,0.475
2024-10-15 11:18:52.286,65083.677,0.157,-0.33,-0.931,-0.013,-0.016,0.021,-0.272,0.037,-0.169,0.167,0.337,0.462
2024-10-15 11:18:52.406,65083.797,0.175,-0.278,-0.945,-0.079,-0.065,0.026,-0.611,0.184,-0.444,0.183,0.281,0.438
2024-10-15 11:18:52.525,65083.917,0.209,-0.206,-0.956,-0.064,-0.059,0.037,-0.486,0.105,-0.761,0.215,0.207,0.375
2024-10-15 11:18:52.646,65084.037,0.234,-0.134,-0.963,-0.058,-0.008,0.024,-0.515,0.102,-0.845,0.238,0.134,0.299
2024-10-15 11:18:52.765,65084.157,0.263,0.018,-0.965,-0.055,-0.079,0.013,-1.475,0.433,-1.183,0.266,-0.018,0.216
2024-10-15 11:18:52.885,65084.276,0.302,0.251,-0.92,-0.02,-0.061,0.032,-2.048,0.464,-1.41,0.317,-0.254,0.116
2024-10-15 11:18:53.005,65084.396,0.285,0.549,-0.786,0.015,0.109,0.146,-2.606,-0.134,-0.556,0.348,-0.582,0.104
2024-10-15 11:18:53.126,65084.516,0.213,0.679,-0.703,0.084,0.13,0.136,-0.102,-0.946,0.012,0.294,-0.746,0.142
2024-10-15 11:18:53.245,65084.636,0.176,0.621,-0.764,0.033,-0.058,-0.018,0.341,-0.19,0.174,0.227,-0.67,0.141
2024-10-15 11:18:53.364,65084.756,0.145,0.594,-0.791,-0.008,-0.076,0.053,-0.039,-0.408,0.011,0.181,-0.636,0.133
2024-10-15 11:18:53.485,65084.875,0.133,0.607,-0.783,0.156,-0.027,-0.01,-0.569,-0.605,-0.213,0.169,-0.652,0.123
2024-10-15 11:18:53.604,65084.995,0.167,0.617,-0.769,-0.074,0.057,-0.052,0.499,0.474,-0.547,0.213,-0.665,0.143
2024-10-15 11:18:53.723,65085.115,0.177,0.606,-0.776,-0.005,-0.124,-0.047,-0.762,0.106,-0.014,0.225,-0.651,0.15
2024-10-15 11:18:53.843,65085.235,0.158,0.641,-0.751,-0.0,-0.032,-0.015,-0.142,0.003,0.155,0.207,-0.696,0.146
2024-10-15 11:18:53.963,65085.355,0.14,0.709,-0.691,0.005,0.049,0.034,-0.556,-0.357,-0.001,0.2,-0.788,0.161
2024-10-15 11:18:54.083,65085.474,0.122,0.733,-0.669,-0.03,0.025,0.007,-0.016,-0.056,0.141,0.18,-0.822,0.179
2024-10-15 11:18:54.202,65085.594,0.139,0.726,-0.673,-0.008,-0.023,0.004,-0.197,0.105,0.16,0.204,-0.813,0.203
2024-10-15 11:18:54.323,65085.714,0.147,0.714,-0.684,0.0,-0.008,0.022,0.236,-0.177,0.038,0.211,-0.796,0.217
2024-10-15 11:18:54.442,65085.834,0.146,0.76,-0.633,-0.01,0.041,0.039,-0.371,-0.021,0.01,0.226,-0.863,0.266
2024-10-15 11:18:54.562,65085.954,0.131,0.738,-0.663,0.046,-0.119,-0.064,-0.121,-0.301,0.128,0.195,-0.829,0.246
2024-10-15 11:18:54.683,65086.073,0.135,0.755,-0.641,0.021,-0.003,-0.008,0.677,0.051,-0.209,0.207,-0.856,0.294
2024-10-15 11:18:54.802,65086.193,0.134,0.676,-0.724,-0.046,-0.074,-0.051,-0.659,0.017,0.317,0.183,-0.743,0.285
2024-10-15 11:18:54.922,65086.313,0.128,0.67,-0.731,-0.092,0.186,0.154,1.871,-0.165,0.366,0.173,-0.734,0.3
2024-10-15 11:18:55.041,65086.433,0.151,0.672,-0.725,0.062,0.296,0.104,0.318,0.126,0.042,0.206,-0.736,0.338
2024-10-15 11:18:55.161,65086.553,0.136,0.522,-0.842,-0.046,-0.253,-0.092,-0.243,0.108,0.091,0.16,-0.549,0.298
2024-10-15 11:18:55.281,65086.672,0.135,0.554,-0.822,-0.002,0.297,0.173,1.655,-0.486,-0.09,0.163,-0.587,0.33
2024-10-15 11:18:55.401,65086.792,0.141,0.525,-0.839,-0.021,-0.252,-0.056,0.313,-0.39,0.617,0.166,-0.553,0.335
2024-10-15 11:18:55.520,65086.912,0.11,0.435,-0.894,-0.005,-0.189,-0.001,0.251,-0.108,0.176,0.123,-0.45,0.315
2024-10-15 11:18:55.641,65087.032,0.119,0.474,-0.872,-0.217,-0.032,0.185,0.646,-0.32,-0.337,0.136,-0.494,0.332
2024-10-15 11:18:55.760,65087.152,0.113,0.452,-0.885,0.027,-0.235,-0.015,-0.54,0.347,0.12,0.127,-0.469,0.336
2024-10-15 11:18:55.880,65087.271,0.065,0.333,-0.941,0.002,-0.179,-0.096,0.256,-0.023,0.525,0.069,-0.339,0.33
2024-10-15 11:18:56.000,65087.391,0.094,0.42,-0.902,0.106,0.459,0.139,0.748,-0.461,-0.321,0.104,-0.434,0.339
2024-10-15 11:18:56.119,65087.511,0.077,0.382,-0.921,-0.018,-0.132,-0.026,-0.671,0.288,0.493,0.083,-0.392,0.351
2024-10-15 11:18:56.239,65087.631,0.053,0.307,-0.95,-0.023,-0.081,-0.008,0.233,-0.142,0.223,0.056,-0.312,0.338
2024-10-15 11:18:56.359,65087.751,0.066,0.346,-0.936,-0.021,0.054,0.261,0.6,-0.006,0.069,0.071,-0.353,0.338
2024-10-15 11:18:56.479,65087.87,0.064,0.337,-0.939,-0.014,-0.34,0.005,-0.586,-0.29,0.299,0.068,-0.344,0.351
2024-10-15 11:18:56.599,65087.99,0.056,0.306,-0.95,-0.005,0.059,0.076,0.397,-0.325,0.329,0.059,-0.311,0.336
2024-10-15 11:18:56.719,65088.11,0.062,0.314,-0.947,0.029,0.008,0.118,-0.055,0.287,-0.327,0.066,-0.32,0.35
2024-10-15 11:18:56.838,65088.23,0.059,0.303,-0.951,-0.144,-0.493,-0.104,-0.91,-0.219,0.596,0.062,-0.308,0.356
2024-10-15 11:18:56.958,65088.35,0.058,0.281,-0.958,0.018,0.101,0.109,0.079,-0.369,0.256,0.061,-0.284,0.335
2024-10-15 11:18:57.078,65088.469,0.046,0.275,-0.96,0.022,-0.239,-0.013,0.379,0.091,-0.198,0.048,-0.279,0.362
2024-10-15 11:18:57.198,65088.589,0.042,0.26,-0.965,-0.053,-0.123,-0.181,-0.344,-0.336,0.443,0.043,-0.263,0.361
2024-10-15 11:18:57.318,65088.709,0.046,0.248,-0.968,-0.046,0.165,0.098,0.331,0.133,-0.189,0.048,-0.25,0.358
2024-10-15 11:18:57.438,65088.829,0.035,0.256,-0.966,0.083,0.076,-0.258,0.439,-0.108,0.038,0.036,-0.259,0.384
2024-10-15 11:18:57.557,65088.949,0.028,0.227,-0.974,-0.084,0.28,0.058,0.087,-0.221,0.328,0.029,-0.229,0.378
2024-10-15 11:18:57.677,65089.068,0.021,0.222,-0.975,0.117,0.048,0.09,0.352,-0.009,-0.156,0.022,-0.224,0.39
2024-10-15 11:18:57.798,65089.188,0.02,0.242,-0.97,0.012,-0.215,-0.069,-0.675,0.162,0.076,0.021,-0.244,0.392
2024-10-15 11:18:57.917,65089.308,0.026,0.214,-0.977,-0.002,0.076,0.029,-0.411,0.191,-0.158,0.026,-0.215,0.374
2024-10-15 11:18:58.036,65089.428,0.025,0.225,-0.974,0.168,-0.073,-0.152,0.49,-0.015,-0.137,0.025,-0.227,0.395
2024-10-15 11:18:58.156,65089.548,0.026,0.215,-0.976,-0.094,0.082,0.018,0.037,-0.103,0.458,0.026,-0.217,0.383
2024-10-15 11:18:58.276,65089.667,0.016,0.2,-0.98,0.138,0.014,0.215,0.23,0.016,-0.278,0.017,-0.202,0.397
2024-10-15 11:18:58.396,65089.787,0.009,0.227,-0.974,-0.005,-0.318,-0.235,-0.983,0.031,0.125,0.009,-0.229,0.401
2024-10-15 11:18:58.516,65089.907,0.012,0.204,-0.979,-0.039,0.312,0.035,-0.294,0.073,-0.317,0.012,-0.206,0.377
2024-10-15 11:18:58.636,65090.027,0.0,0.231,-0.973,0.205,0.005,-0.216,0.629,-0.033,0.04,0.0,-0.233,0.406
2024-10-15 11:18:58.755,65090.147,-0.001,0.212,-0.977,-0.228,0.227,0.036,0.168,-0.086,0.318,-0.001,-0.214,0.388
2024-10-15 11:18:58.875,65090.266,-0.004,0.206,-0.979,0.199,-0.137,0.077,0.233,0.126,-0.395,-0.004,-0.207,0.4
2024-10-15 11:18:58.995,65090.386,-0.009,0.225,-0.974,-0.013,-0.294,-0.004,-0.653,0.109,0.172,-0.01,-0.226,0.405
2024-10-15 11:18:59.114,65090.506,-0.007,0.194,-0.981,-0.071,0.193,0.118,-0.337,0.185,-0.365,-0.007,-0.195,0.383
2024-10-15 11:18:59.235,65090.626,-0.004,0.224,-0.975,0.082,0.05,-0.157,0.615,0.1,-0.175,-0.004,-0.226,0.404
2024-10-15 11:18:59.354,65090.746,0.003,0.215,-0.977,-0.042,0.18,-0.027,0.018,-0.13,0.3,0.003,-0.217,0.386
2024-10-15 11:18:59.474,65090.865,0.005,0.206,-0.979,0.043,0.123,0.101,0.592,0.302,-0.489,0.005,-0.207,0.379
2024-10-15 11:18:59.594,65090.985,0.014,0.22,-0.975,-0.077,-0.143,0.1,0.239,-0.119,0.205,0.015,-0.222,0.395
2024-10-15 11:18:59.713,65091.105,0.017,0.21,-0.977,-0.097,0.236,0.164,-0.147,0.015,0.253,0.018,-0.212,0.374
2024-10-15 11:18:59.833,65091.225,0.02,0.207,-0.978,0.066,-0.085,-0.054,0.487,0.146,-0.317,0.021,-0.209,0.377
2024-10-15 11:18:59.953,65091.345,0.021,0.217,-0.976,-0.093,-0.281,-0.112,-1.224,0.064,0.264,0.022,-0.219,0.375
2024-10-15 11:19:00.073,65091.464,0.029,0.195,-0.98,-0.002,0.132,0.189,-0.528,0.042,-0.1,0.03,-0.196,0.352
2024-10-15 11:19:00.193,65091.584,0.027,0.208,-0.978,0.198,-0.178,-0.287,0.423,0.104,-0.19,0.027,-0.21,0.373
2024-10-15 11:19:00.313,65091.704,0.029,0.198,-0.98,-0.089,-0.037,-0.156,-0.774,-0.075,0.189,0.03,-0.2,0.357
2024-10-15 11:19:00.432,65091.824,0.037,0.193,-0.98,-0.121,0.197,0.082,0.223,0.126,-0.326,0.037,-0.195,0.342
2024-10-15 11:19:00.552,65091.944,0.036,0.219,-0.975,0.0,0.051,-0.123,0.579,-0.094,0.008,0.037,-0.221,0.354
2024-10-15 11:19:00.672,65092.063,0.025,0.225,-0.974,-0.045,-0.107,-0.163,-0.73,-0.211,0.364,0.025,-0.227,0.364
2024-10-15 11:19:00.792,65092.183,0.023,0.212,-0.977,-0.1,0.296,0.09,0.098,-0.006,-0.183,0.024,-0.213,0.351
2024-10-15 11:19:00.911,65092.303,0.013,0.219,-0.976,0.114,-0.346,-0.25,0.32,0.021,-0.088,0.013,-0.221,0.379
2024-10-15 11:19:01.031,65092.423,0.001,0.208,-0.978,-0.072,-0.159,-0.262,-0.29,-0.106,0.1,0.001,-0.21,0.382
2024-10-15 11:19:01.151,65092.543,0.002,0.185,-0.983,-0.011,0.078,0.122,0.603,0.224,-0.249,0.002,-0.186,0.386
2024-10-15 11:19:01.271,65092.662,-0.001,0.206,-0.978,-0.062,-0.003,-0.016,-0.045,-0.227,0.305,-0.001,-0.208,0.405
2024-10-15 11:19:01.391,65092.782,0.002,0.192,-0.981,-0.044,0.047,0.157,-0.688,-0.005,-0.087,0.002,-0.193,0.381
2024-10-15 11:19:01.511,65092.902,-0.007,0.209,-0.978,0.052,-0.225,-0.215,0.521,-0.07,-0.234,-0.007,-0.211,0.408
2024-10-15 11:19:01.631,65093.022,-0.003,0.208,-0.978,-0.105,0.26,0.036,0.265,-0.128,0.395,-0.003,-0.209,0.386
2024-10-15 11:19:01.750,65093.142,-0.006,0.194,-0.981,0.049,-0.04,0.115,0.465,0.24,-0.437,-0.006,-0.195,0.391
2024-10-15 11:19:01.870,65093.261,-0.004,0.221,-0.975,0.037,-0.258,0.077,-0.502,0.098,0.318,-0.004,-0.223,0.398
2024-10-15 11:19:01.990,65093.381,-0.002,0.198,-0.98,0.087,-0.015,0.186,-0.674,0.144,-0.24,-0.002,-0.2,0.366
2024-10-15 11:19:02.110,65093.501,-0.009,0.216,-0.976,0.124,-0.28,-0.35,0.424,0.093,-0.191,-0.009,-0.218,0.396
2024-10-15 11:19:02.229,65093.621,-0.004,0.21,-0.978,-0.071,0.248,0.033,0.175,-0.048,0.387,-0.004,-0.212,0.368
2024-10-15 11:19:02.350,65093.741,-0.004,0.205,-0.979,0.121,-0.077,0.04,0.561,0.257,-0.58,-0.004,-0.206,0.37
2024-10-15 11:19:02.469,65093.86,-0.006,0.221,-0.975,0.027,-0.199,0.212,0.057,-0.121,0.314,-0.006,-0.223,0.384
2024-10-15 11:19:02.589,65093.98,-0.003,0.183,-0.983,-0.024,0.007,0.05,-0.207,0.161,-0.303,-0.003,-0.185,0.365
2024-10-15 11:19:02.709,65094.1,-0.003,0.207,-0.978,0.177,-0.219,-0.281,0.413,0.071,-0.204,-0.003,-0.209,0.384
2024-10-15 11:19:02.828,65094.22,0.009,0.199,-0.98,-0.082,0.178,-0.002,0.121,0.001,0.308,0.009,-0.2,0.361
2024-10-15 11:19:02.948,65094.34,0.017,0.188,-0.982,-0.03,0.242,0.069,0.588,0.145,-0.285,0.017,-0.189,0.347
2024-10-15 11:19:03.068,65094.459,0.013,0.212,-0.977,-0.033,-0.04,0.112,0.5,-0.216,0.245,0.013,-0.214,0.365
2024-10-15 11:19:03.188,65094.579,0.008,0.199,-0.98,-0.021,0.543,0.219,-0.142,-0.138,0.408,0.008,-0.201,0.339
2024-10-15 11:19:03.308,65094.699,0.003,0.194,-0.981,0.115,-0.239,-0.003,0.405,0.156,-0.434,0.003,-0.196,0.362
2024-10-15 11:19:03.428,65094.819,0.002,0.187,-0.982,-0.053,-0.173,-0.306,-1.38,-0.364,0.632,0.002,-0.188,0.361
2024-10-15 11:19:03.547,65094.939,0.002,0.167,-0.986,0.006,0.168,0.029,-0.111,0.293,-0.374,0.002,-0.168,0.346
2024-10-15 11:19:03.666,65095.058,0.0,0.186,-0.983,0.162,-0.288,-0.448,0.353,0.121,-0.082,0.0,-0.187,0.381
2024-10-15 11:19:03.787,65095.178,0.005,0.167,-0.986,-0.138,0.411,0.056,0.256,-0.058,0.461,0.005,-0.168,0.358
2024-10-15 11:19:03.906,65095.298,-0.005,0.183,-0.983,0.246,-0.459,-0.056,0.003,0.192,-0.504,-0.005,-0.184,0.385
2024-10-15 11:19:04.026,65095.418,-0.006,0.192,-0.981,-0.022,-0.328,-0.188,-1.391,-0.2,0.64,-0.006,-0.193,0.381
2024-10-15 11:19:04.146,65095.538,-0.006,0.17,-0.985,-0.042,0.327,-0.024,0.084,0.065,-0.283,-0.006,-0.171,0.376
2024-10-15 11:19:04.266,65095.657,-0.013,0.193,-0.981,0.16,-0.345,-0.214,0.246,0.087,0.051,-0.013,-0.194,0.41
2024-10-15 11:19:04.386,65095.777,-0.01,0.175,-0.985,-0.011,0.377,0.265,0.168,-0.129,0.437,-0.01,-0.176,0.39
2024-10-15 11:19:04.506,65095.897,-0.02,0.182,-0.983,0.178,0.057,0.162,0.531,-0.058,-0.276,-0.021,-0.183,0.395
2024-10-15 11:19:04.626,65096.017,-0.032,0.184,-0.982,-0.068,-0.1,0.261,-0.047,-0.448,0.513,-0.033,-0.185,0.42
2024-10-15 11:19:04.745,65096.137,-0.032,0.155,-0.987,-0.086,0.151,0.068,-0.096,0.173,-0.324,-0.032,-0.155,0.385
2024-10-15 11:19:04.865,65096.256,-0.033,0.181,-0.983,0.138,-0.375,-0.348,0.322,0.157,-0.252,-0.033,-0.182,0.411
2024-10-15 11:19:04.985,65096.376,-0.026,0.168,-0.986,-0.137,0.327,-0.1,0.242,-0.007,0.355,-0.026,-0.168,0.383
2024-10-15 11:19:05.105,65096.496,-0.03,0.158,-0.987,0.107,-0.076,0.175,0.82,0.202,-0.693,-0.03,-0.159,0.391
2024-10-15 11:19:05.225,65096.616,-0.03,0.182,-0.983,0.017,-0.365,0.183,-0.504,-0.204,0.323,-0.03,-0.183,0.396
2024-10-15 11:19:05.344,65096.736,-0.03,0.17,-0.985,-0.003,0.193,0.085,-0.277,0.006,0.013,-0.03,-0.171,0.377
2024-10-15 11:19:05.464,65096.855,-0.032,0.182,-0.983,0.043,-0.291,-0.216,0.406,0.055,-0.198,-0.033,-0.183,0.4
2024-10-15 11:19:05.584,65096.975,-0.036,0.154,-0.987,-0.175,0.423,0.005,0.176,-0.077,0.371,-0.037,-0.154,0.396
2024-10-15 11:19:05.704,65097.095,-0.044,0.143,-0.989,0.122,0.096,0.103,0.596,0.165,-0.418,-0.044,-0.144,0.402
2024-10-15 11:19:05.824,65097.215,-0.031,0.16,-0.987,-0.026,-0.385,0.005,-0.991,-0.084,0.237,-0.032,-0.161,0.395
2024-10-15 11:19:05.943,65097.335,-0.023,0.142,-0.99,0.012,0.13,0.031,-0.153,0.234,-0.268,-0.023,-0.142,0.369
2024-10-15 11:19:06.063,65097.454,-0.028,0.158,-0.987,0.034,-0.443,-0.381,0.371,0.098,-0.058,-0.028,-0.159,0.399
2024-10-15 11:19:06.183,65097.574,-0.026,0.14,-0.99,-0.118,0.466,0.216,0.015,-0.042,0.353,-0.026,-0.141,0.375
2024-10-15 11:19:06.303,65097.694,-0.031,0.149,-0.988,0.159,-0.339,-0.087,0.11,0.064,-0.33,-0.031,-0.149,0.403
2024-10-15 11:19:06.422,65097.814,-0.02,0.155,-0.988,-0.193,0.325,-0.017,-0.213,-0.034,0.2,-0.02,-0.155,0.374
2024-10-15 11:19:06.542,65097.934,-0.018,0.175,-0.984,0.164,-0.343,0.081,0.015,0.188,-0.394,-0.019,-0.176,0.391
2024-10-15 11:19:06.662,65098.053,-0.016,0.183,-0.983,-0.125,-0.259,-0.282,-1.334,-0.327,0.631,-0.016,-0.184,0.381
2024-10-15 11:19:06.782,65098.173,-0.025,0.169,-0.985,0.108,0.086,0.168,0.833,0.17,-0.58,-0.025,-0.17,0.39
2024-10-15 11:19:06.902,65098.293,-0.024,0.193,-0.981,-0.159,0.154,0.167,-0.098,-0.495,0.5,-0.025,-0.194,0.402
2024-10-15 11:19:07.022,65098.413,-0.023,0.168,-0.986,-0.03,-0.007,0.201,-0.3,0.051,-0.197,-0.023,-0.168,0.373
2024-10-15 11:19:07.142,65098.532,-0.033,0.188,-0.982,0.115,-0.503,-0.392,0.468,0.028,-0.124,-0.034,-0.189,0.406
2024-10-15 11:19:07.261,65098.652,-0.03,0.17,-0.985,-0.219,0.458,-0.008,-0.07,-0.014,0.334,-0.031,-0.171,0.382
2024-10-15 11:19:07.381,65098.772,-0.034,0.187,-0.982,0.075,-0.212,0.143,0.653,0.206,-0.788,-0.035,-0.188,0.392
2024-10-15 11:19:07.501,65098.892,-0.032,0.219,-0.975,0.047,-0.253,0.178,-0.514,-0.205,0.353,-0.033,-0.22,0.397
2024-10-15 11:19:07.621,65099.012,-0.034,0.218,-0.975,-0.01,0.152,-0.045,-0.321,0.194,-0.261,-0.035,-0.219,0.364
2024-10-15 11:19:07.740,65099.131,-0.031,0.233,-0.972,0.164,-0.22,-0.311,0.322,0.193,-0.112,-0.032,-0.235,0.394
2024-10-15 11:19:07.860,65099.251,-0.024,0.216,-0.976,-0.14,0.605,0.23,0.361,-0.175,0.506,-0.024,-0.218,0.366
2024-10-15 11:19:07.980,65099.371,-0.027,0.212,-0.977,0.152,-0.215,0.187,0.577,0.245,-0.782,-0.028,-0.214,0.375
2024-10-15 11:19:08.100,65099.491,-0.016,0.226,-0.974,-0.115,-0.428,-0.216,-0.954,-0.21,0.477,-0.017,-0.228,0.368
2024-10-15 11:19:08.220,65099.611,-0.014,0.213,-0.977,0.024,0.101,0.109,-0.149,0.291,-0.446,-0.014,-0.214,0.347
2024-10-15 11:19:08.339,65099.73,-0.016,0.231,-0.973,0.021,0.316,-0.077,0.219,-0.333,0.42,-0.016,-0.233,0.391
2024-10-15 11:19:08.459,65099.85,-0.008,0.218,-0.976,-0.048,0.634,0.25,-0.352,-0.014,0.019,-0.008,-0.219,0.35
2024-10-15 11:19:08.578,65099.97,-0.009,0.223,-0.975,0.001,-0.664,-0.409,0.259,0.139,-0.19,-0.009,-0.224,0.388
2024-10-15 11:19:08.699,65100.09,-0.007,0.206,-0.979,-0.144,0.421,0.215,0.242,-0.026,0.349,-0.007,-0.208,0.36
2024-10-15 11:19:08.818,65100.21,-0.015,0.208,-0.978,0.223,-0.291,0.187,0.158,0.078,-0.555,-0.015,-0.21,0.371
2024-10-15 11:19:08.939,65100.329,-0.012,0.222,-0.975,-0.022,-0.249,0.266,0.284,-0.163,0.065,-0.012,-0.224,0.374
2024-10-15 11:19:09.058,65100.449,-0.01,0.223,-0.975,-0.092,0.622,-0.156,0.061,0.137,0.266,-0.01,-0.225,0.353
2024-10-15 11:19:09.178,65100.569,-0.01,0.212,-0.977,0.151,-0.36,0.029,-0.037,-0.008,-0.338,-0.01,-0.214,0.381
2024-10-15 11:19:09.298,65100.689,-0.019,0.205,-0.979,-0.066,-0.097,-0.154,-0.677,-0.166,0.461,-0.019,-0.206,0.382
2024-10-15 11:19:09.418,65100.809,-0.031,0.198,-0.98,0.059,-0.07,0.095,0.509,0.296,-0.499,-0.032,-0.199,0.386
2024-10-15 11:19:09.537,65100.928,-0.025,0.217,-0.976,-0.031,-0.156,0.274,0.359,-0.261,0.376,-0.026,-0.219,0.393
2024-10-15 11:19:09.657,65101.048,-0.032,0.182,-0.983,-0.034,0.021,0.014,-0.221,0.262,-0.433,-0.033,-0.183,0.374
2024-10-15 11:19:09.777,65101.168,-0.039,0.203,-0.978,0.053,0.155,-0.126,0.468,-0.267,0.197,-0.04,-0.205,0.405
2024-10-15 11:19:09.897,65101.288,-0.035,0.156,-0.987,0.021,0.359,0.317,-0.602,0.003,0.122,-0.035,-0.157,0.371
2024-10-15 11:19:10.017,65101.408,-0.039,0.172,-0.984,-0.11,-0.726,-0.247,0.239,-0.025,-0.304,-0.039,-0.173,0.408
2024-10-15 11:19:10.136,65101.527,-0.036,0.163,-0.986,-0.141,0.543,0.089,0.167,0.004,0.357,-0.037,-0.164,0.377
2024-10-15 11:19:10.256,65101.647,-0.034,0.161,-0.986,0.155,-0.142,0.131,1.329,0.175,-0.756,-0.034,-0.162,0.381
2024-10-15 11:19:10.376,65101.767,-0.033,0.167,-0.985,-0.027,-0.333,0.28,-1.152,-0.255,0.411,-0.034,-0.168,0.388
2024-10-15 11:19:10.496,65101.887,-0.035,0.151,-0.988,-0.036,-0.013,0.001,0.386,0.149,-0.879,-0.036,-0.151,0.38
2024-10-15 11:19:10.615,65102.007,-0.035,0.178,-0.984,-0.135,0.157,0.174,0.867,-0.429,0.337,-0.035,-0.178,0.403
2024-10-15 11:19:10.735,65102.126,-0.03,0.121,-0.992,-0.005,0.153,0.233,-0.482,-0.105,-0.043,-0.03,-0.122,0.379
2024-10-15 11:19:10.856,65102.246,-0.037,0.148,-0.988,-0.188,-0.682,-0.205,0.267,-0.051,-0.349,-0.038,-0.148,0.418
2024-10-15 11:19:10.975,65102.366,-0.034,0.143,-0.989,-0.151,0.123,-0.184,0.108,0.022,0.185,-0.035,-0.144,0.394
2024-10-15 11:19:11.095,65102.486,-0.04,0.156,-0.987,0.012,0.338,0.065,0.252,-0.048,-0.197,-0.041,-0.156,0.384
2024-10-15 11:19:11.214,65102.606,-0.045,0.169,-0.985,-0.033,0.055,-0.029,0.55,-0.196,0.034,-0.046,-0.17,0.411
2024-10-15 11:19:11.334,65102.725,-0.039,0.167,-0.985,-0.033,0.569,0.149,0.39,-0.014,0.381,-0.04,-0.168,0.381
2024-10-15 11:19:11.454,65102.845,-0.04,0.172,-0.984,0.085,0.102,0.072,0.358,0.155,-0.468,-0.04,-0.173,0.381
2024-10-15 11:19:11.574,65102.965,-0.038,0.184,-0.982,-0.049,-0.422,-0.041,-0.978,-0.121,0.046,-0.039,-0.185,0.381
2024-10-15 11:19:11.694,65103.085,-0.038,0.2,-0.979,0.014,0.206,0.237,-0.046,-0.079,0.143,-0.039,-0.201,0.372
2024-10-15 11:19:11.814,65103.205,-0.034,0.235,-0.971,0.047,-0.2,0.08,-1.292,0.023,-0.279,-0.035,-0.237,0.371
2024-10-15 11:19:11.933,65103.324,-0.023,0.5,-0.866,-0.041,-0.097,-0.102,-3.045,0.747,-0.251,-0.026,-0.524,0.319
2024-10-15 11:19:12.053,65103.444,0.034,0.705,-0.709,0.062,0.047,-0.032,-0.752,0.425,-0.019,0.048,-0.782,0.313
2024-10-15 11:19:12.173,65103.564,0.046,0.683,-0.729,0.041,0.043,0.027,0.706,0.074,-0.089,0.063,-0.752,0.304
2024-10-15 11:19:12.293,65103.684,0.058,0.648,-0.76,-0.001,0.059,0.009,0.712,0.054,0.254,0.076,-0.704,0.311
2024-10-15 11:19:12.413,65103.804,0.062,0.546,-0.835,-0.09,-0.03,0.043,1.038,-0.243,0.231,0.074,-0.578,0.331
2024-10-15 11:19:12.532,65103.923,0.055,0.503,-0.863,-0.071,-0.055,0.03,0.175,0.016,-0.023,0.063,-0.527,0.336
2024-10-15 11:19:12.652,65104.043,0.052,0.501,-0.864,0.016,0.003,0.038,0.063,-0.025,-0.002,0.06,-0.525,0.328
2024-10-15 11:19:12.772,65104.163,0.047,0.464,-0.885,0.018,0.017,0.019,0.559,-0.075,0.005,0.054,-0.482,0.332
2024-10-15 11:19:12.892,65104.283,0.043,0.417,-0.908,-0.082,-0.029,-0.013,0.19,-0.042,0.097,0.048,-0.43,0.336
2024-10-15 11:19:13.011,65104.403,0.044,0.376,-0.926,0.105,-0.165,-0.041,0.62,0.144,-0.15,0.047,-0.385,0.347
2024-10-15 11:19:13.131,65104.522,0.04,0.33,-0.943,-0.063,-0.085,-0.135,0.35,-0.094,0.259,0.042,-0.336,0.352
2024-10-15 11:19:13.251,65104.642,0.034,0.292,-0.956,0.009,0.116,0.101,0.978,0.245,-0.305,0.035,-0.297,0.352
2024-10-15 11:19:13.371,65104.762,0.029,0.287,-0.957,0.062,-0.297,-0.032,-0.857,0.002,0.361,0.031,-0.291,0.376
2024-10-15 11:19:13.491,65104.882,0.021,0.253,-0.967,0.036,0.153,0.204,-0.43,0.008,-0.027,0.021,-0.256,0.347
2024-10-15 11:19:13.610,65105.002,0.014,0.271,-0.962,0.128,0.03,-0.244,0.462,-0.229,-0.061,0.014,-0.275,0.383
2024-10-15 11:19:13.730,65105.121,0.023,0.272,-0.962,-0.05,0.598,0.216,-0.209,0.051,0.271,0.024,-0.275,0.335
2024-10-15 11:19:13.850,65105.241,0.021,0.274,-0.961,-0.034,-0.663,-0.233,0.222,0.194,-0.368,0.022,-0.278,0.371
2024-10-15 11:19:13.969,65105.361,0.025,0.258,-0.966,-0.186,0.531,0.073,0.49,-0.211,0.489,0.025,-0.261,0.341
2024-10-15 11:19:14.090,65105.481,0.012,0.258,-0.966,0.232,-0.422,-0.049,-0.242,0.278,-0.625,0.012,-0.261,0.358
2024-10-15 11:19:14.209,65105.601,0.02,0.248,-0.969,-0.006,-0.128,-0.346,-0.601,-0.311,0.451,0.02,-0.25,0.342
2024-10-15 11:19:14.330,65105.72,0.013,0.241,-0.97,-0.074,0.264,-0.079,0.508,0.162,-0.413,0.013,-0.244,0.329
2024-10-15 11:19:14.449,65105.84,0.014,0.251,-0.968,-0.116,-0.027,0.196,0.845,-0.359,0.339,0.014,-0.253,0.354
2024-10-15 11:19:14.569,65105.96,0.008,0.229,-0.973,0.047,0.604,0.239,-0.235,-0.089,0.297,0.009,-0.231,0.322
2024-10-15 11:19:14.689,65106.08,0.005,0.244,-0.97,-0.133,-0.533,-0.078,0.237,0.1,-0.38,0.005,-0.246,0.355
2024-10-15 11:19:14.809,65106.2,0.013,0.237,-0.971,-0.069,0.256,-0.083,0.256,-0.034,0.308,0.014,-0.239,0.327
2024-10-15 11:19:14.928,65106.319,0.011,0.233,-0.972,0.078,0.005,0.073,0.304,0.1,-0.479,0.012,-0.236,0.319
2024-10-15 11:19:15.048,65106.439,0.013,0.236,-0.972,-0.088,-0.301,0.031,-0.189,-0.093,-0.182,0.013,-0.239,0.33
2024-10-15 11:19:15.168,65106.559,0.016,0.386,-0.922,-0.007,0.327,-0.126,-0.109,0.102,0.19,0.018,-0.396,0.313
2024-10-15 11:19:15.288,65106.679,0.012,0.306,-0.952,-0.062,0.057,-0.072,0.889,-0.094,0.326,0.013,-0.311,0.351
2024-10-15 11:19:15.408,65106.799,0.016,0.246,-0.969,-0.124,0.099,0.011,0.2,0.053,-0.164,0.017,-0.248,0.347
2024-10-15 11:19:15.528,65106.918,0.017,0.29,-0.957,-0.121,0.027,0.153,0.541,-0.255,0.403,0.018,-0.294,0.371
2024-10-15 11:19:15.647,65107.038,0.01,0.25,-0.968,-0.12,0.295,0.287,-0.428,-0.072,0.096,0.01,-0.253,0.34
2024-10-15 11:19:15.766,65107.158,0.005,0.239,-0.971,0.226,-0.133,-0.257,0.588,-0.108,-0.106,0.005,-0.241,0.378
2024-10-15 11:19:15.886,65107.278,0.006,0.227,-0.974,-0.158,0.677,0.199,0.442,-0.049,0.449,0.007,-0.229,0.353
2024-10-15 11:19:16.006,65107.398,0.002,0.238,-0.971,0.184,-0.425,-0.065,-0.043,0.121,-0.471,0.002,-0.241,0.372
2024-10-15 11:19:16.126,65107.517,0.013,0.235,-0.972,-0.09,-0.086,-0.225,0.086,-0.172,0.341,0.013,-0.237,0.36
2024-10-15 11:19:16.245,65107.637,0.002,0.244,-0.97,-0.049,0.335,-0.078,0.096,0.18,-0.372,0.002,-0.247,0.346
2024-10-15 11:19:16.366,65107.757,0.013,0.266,-0.964,0.004,-0.126,0.149,0.411,-0.079,0.26,0.013,-0.269,0.367
2024-10-15 11:19:16.487,65107.877,0.004,0.245,-0.969,-0.042,0.759,0.158,0.111,-0.111,0.421,0.005,-0.248,0.34
2024-10-15 11:19:16.606,65107.997,-0.002,0.235,-0.972,0.054,-0.504,-0.22,0.065,0.15,-0.349,-0.002,-0.237,0.363
2024-10-15 11:19:16.725,65108.116,0.0,0.219,-0.976,-0.138,-0.342,-0.309,-0.292,0.067,0.005,0.0,-0.221,0.352
2024-10-15 11:19:16.845,65108.236,-0.007,0.251,-0.968,0.028,0.129,0.229,-0.864,-0.086,-0.076,-0.007,-0.253,0.338
2024-10-15 11:19:16.965,65108.356,-0.012,0.415,-0.91,-0.057,0.075,-0.167,-2.073,0.256,0.027,-0.013,-0.428,0.32
2024-10-15 11:19:17.085,65108.476,-0.013,0.388,-0.922,0.015,-0.061,-0.089,0.873,0.059,-0.018,-0.014,-0.398,0.335
2024-10-15 11:19:17.205,65108.596,-0.014,0.31,-0.951,0.056,-0.216,-0.179,0.063,0.116,0.078,-0.015,-0.316,0.361
2024-10-15 11:19:17.324,65108.715,-0.011,0.26,-0.966,-0.181,0.265,0.191,0.295,-0.024,0.22,-0.011,-0.263,0.352
2024-10-15 11:19:17.445,65108.835,-0.018,0.222,-0.975,0.223,0.113,-0.065,1.399,-0.244,0.053,-0.018,-0.224,0.385
2024-10-15 11:19:17.564,65108.955,-0.018,0.205,-0.979,-0.128,0.474,0.304,-0.059,-0.038,0.194,-0.018,-0.207,0.36
2024-10-15 11:19:17.684,65109.075,-0.022,0.215,-0.976,0.091,-0.471,-0.171,0.339,-0.004,-0.338,-0.022,-0.216,0.392
2024-10-15 11:19:17.804,65109.195,-0.018,0.212,-0.977,-0.167,0.457,0.116,0.298,0.025,0.339,-0.018,-0.214,0.357
2024-10-15 11:19:17.923,65109.314,-0.021,0.217,-0.976,0.149,-0.614,0.03,-0.333,0.126,-0.63,-0.022,-0.219,0.366
2024-10-15 11:19:18.043,65109.434,-0.011,0.217,-0.976,-0.093,0.03,-0.141,-0.018,-0.038,0.329,-0.011,-0.219,0.348
2024-10-15 11:19:18.163,65109.554,-0.018,0.226,-0.974,-0.001,0.018,0.031,0.445,0.169,-0.482,-0.018,-0.228,0.344
2024-10-15 11:19:18.283,65109.674,-0.014,0.226,-0.974,-0.055,-0.406,0.021,-1.169,0.008,0.487,-0.014,-0.228,0.356
2024-10-15 11:19:18.402,65109.794,-0.022,0.219,-0.976,-0.01,0.261,-0.076,0.226,0.265,-0.57,-0.023,-0.22,0.344
2024-10-15 11:19:18.522,65109.913,-0.015,0.235,-0.972,0.026,-0.243,0.201,-0.075,-0.017,0.267,-0.015,-0.237,0.358
2024-10-15 11:19:18.642,65110.033,-0.018,0.208,-0.978,-0.042,0.308,0.08,0.057,0.081,-0.224,-0.019,-0.209,0.329
2024-10-15 11:19:18.762,65110.153,-0.021,0.224,-0.974,-0.004,0.295,-0.111,0.286,-0.257,0.387,-0.022,-0.225,0.365
2024-10-15 11:19:18.881,65110.273,-0.017,0.227,-0.974,-0.029,0.613,0.173,-0.052,0.057,0.285,-0.018,-0.229,0.334
2024-10-15 11:19:19.001,65110.393,-0.017,0.232,-0.973,0.058,-0.435,-0.16,0.341,0.088,-0.122,-0.017,-0.234,0.366
2024-10-15 11:19:19.121,65110.512,-0.01,0.224,-0.975,-0.142,0.558,0.193,0.117,0.02,0.343,-0.01,-0.226,0.33
2024-10-15 11:19:19.241,65110.632,-0.015,0.221,-0.975,0.117,-0.703,-0.218,-0.059,-0.008,-0.489,-0.015,-0.223,0.365
2024-10-15 11:19:19.360,65110.752,-0.01,0.215,-0.976,-0.084,-0.024,-0.113,0.071,-0.032,0.211,-0.01,-0.217,0.344
2024-10-15 11:19:19.481,65110.872,-0.011,0.228,-0.974,0.073,-0.042,0.1,0.213,0.174,-0.491,-0.012,-0.23,0.336
2024-10-15 11:19:19.600,65110.992,-0.01,0.226,-0.974,-0.028,-0.389,-0.066,-0.2,-0.025,-0.037,-0.01,-0.228,0.336
2024-10-15 11:19:19.720,65111.111,-0.012,0.206,-0.979,-0.018,0.071,0.112,-0.077,0.103,-0.223,-0.012,-0.207,0.317
2024-10-15 11:19:19.840,65111.231,-0.019,0.208,-0.978,0.094,-0.206,-0.215,0.133,0.012,-0.091,-0.019,-0.21,0.346
2024-10-15 11:19:19.960,65111.351,-0.014,0.208,-0.978,-0.082,0.436,0.247,0.167,-0.004,0.309,-0.015,-0.21,0.333
2024-10-15 11:19:20.079,65111.471,-0.012,0.216,-0.976,0.079,-0.068,0.09,-0.088,-0.066,-0.113,-0.012,-0.218,0.341
2024-10-15 11:19:20.200,65111.591,0.006,0.255,-0.967,0.018,-0.048,0.03,-0.317,0.196,0.129,0.006,-0.258,0.349
2024-10-15 11:19:20.319,65111.71,-0.002,0.263,-0.965,-0.089,-0.288,-0.654,-0.125,0.203,-0.112,-0.002,-0.267,0.369
2024-10-15 11:19:20.439,65111.83,-0.002,0.255,-0.967,-0.073,0.303,0.115,0.05,-0.087,0.211,-0.002,-0.258,0.352
2024-10-15 11:19:20.559,65111.95,-0.008,0.261,-0.965,0.203,-0.33,-0.091,-0.017,0.119,-0.291,-0.009,-0.264,0.367
2024-10-15 11:19:20.678,65112.07,-0.001,0.226,-0.974,-0.158,0.32,0.037,0.455,-0.129,0.392,-0.001,-0.228,0.355
2024-10-15 11:19:20.799,65112.19,-0.001,0.234,-0.972,0.092,-0.027,0.139,1.099,0.192,-0.654,-0.001,-0.236,0.359
2024-10-15 11:19:20.918,65112.309,0.004,0.232,-0.973,-0.091,-0.28,-0.219,-0.406,-0.069,0.151,0.004,-0.234,0.353
2024-10-15 11:19:21.039,65112.429,-0.008,0.227,-0.974,0.111,-0.065,0.116,0.645,0.161,-0.555,-0.008,-0.229,0.354
2024-10-15 11:19:21.158,65112.549,0.005,0.243,-0.97,0.001,-0.378,0.021,-1.314,0.077,0.341,0.005,-0.245,0.358
2024-10-15 11:19:21.278,65112.669,0.003,0.221,-0.975,-0.044,0.238,-0.068,0.407,0.216,-0.545,0.003,-0.223,0.342
2024-10-15 11:19:21.397,65112.789,0.012,0.265,-0.964,0.083,-0.146,0.368,-0.335,-0.155,0.523,0.013,-0.269,0.356
2024-10-15 11:19:21.517,65112.908,-0.001,0.226,-0.974,-0.006,0.268,-0.075,0.391,0.267,-0.543,-0.001,-0.228,0.343
2024-10-15 11:19:21.637,65113.028,0.008,0.251,-0.968,0.01,-0.351,0.104,-1.1,-0.118,0.51,0.008,-0.253,0.356
2024-10-15 11:19:21.757,65113.148,0.003,0.229,-0.974,0.026,0.35,-0.06,0.235,0.297,-0.411,0.003,-0.231,0.322
2024-10-15 11:19:21.877,65113.268,0.012,0.256,-0.967,0.026,-0.101,0.261,0.206,-0.156,0.37,0.012,-0.258,0.346
2024-10-15 11:19:21.997,65113.388,0.007,0.227,-0.974,-0.083,0.207,0.019,0.055,0.259,-0.341,0.007,-0.229,0.31
2024-10-15 11:19:22.116,65113.507,0.008,0.254,-0.967,-0.116,0.259,0.195,0.671,-0.509,0.461,0.008,-0.257,0.338
2024-10-15 11:19:22.236,65113.627,0.01,0.234,-0.972,-0.09,0.178,0.075,-0.093,0.279,-0.355,0.01,-0.236,0.302
2024-10-15 11:19:22.356,65113.747,0.007,0.252,-0.968,-0.055,0.189,-0.092,0.271,-0.412,0.255,0.007,-0.254,0.332
2024-10-15 11:19:22.476,65113.867,0.01,0.242,-0.97,-0.089,0.39,0.198,-0.311,0.014,0.001,0.01,-0.245,0.291
2024-10-15 11:19:22.596,65113.987,0.005,0.251,-0.968,0.065,-0.556,-0.362,-0.191,0.166,-0.311,0.005,-0.254,0.318
2024-10-15 11:19:22.715,65114.106,0.002,0.273,-0.962,-0.045,0.16,0.188,-0.979,-0.068,-0.101,0.002,-0.277,0.284
2024-10-15 11:19:22.835,65114.226,0.013,0.465,-0.885,0.067,0.219,0.064,-0.845,0.013,0.112,0.015,-0.483,0.256
2024-10-15 11:19:22.955,65114.346,0.015,0.442,-0.897,0.036,-0.075,-0.089,0.873,-0.127,0.189,0.016,-0.458,0.296
2024-10-15 11:19:23.074,65114.466,0.012,0.33,-0.944,0.062,0.022,-0.1,0.24,-0.338,0.514,0.012,-0.336,0.335
2024-10-15 11:19:23.195,65114.586,0.01,0.265,-0.964,-0.036,0.178,0.099,0.263,0.013,-0.264,0.01,-0.268,0.331
2024-10-15 11:19:23.314,65114.705,0.001,0.276,-0.961,0.035,-0.086,0.32,0.613,-0.273,0.218,0.001,-0.28,0.356
2024-10-15 11:19:23.434,65114.825,-0.0,0.252,-0.968,-0.09,0.165,0.223,-0.265,0.054,-0.123,-0.0,-0.254,0.318
2024-10-15 11:19:23.554,65114.945,-0.013,0.297,-0.955,0.188,-0.129,-0.196,0.011,-0.161,-0.207,-0.013,-0.302,0.347
2024-10-15 11:19:23.674,65115.065,-0.008,0.291,-0.957,-0.123,0.203,0.202,-0.23,0.086,0.065,-0.008,-0.296,0.312
2024-10-15 11:19:23.794,65115.185,-0.011,0.291,-0.957,0.139,-0.231,-0.345,0.197,0.099,0.039,-0.011,-0.295,0.349
2024-10-15 11:19:23.913,65115.304,-0.0,0.275,-0.961,-0.002,0.415,0.294,-0.365,0.008,0.238,-0.0,-0.279,0.31
2024-10-15 11:19:24.033,65115.424,-0.004,0.288,-0.958,-0.052,-0.515,-0.226,0.343,0.124,-0.056,-0.004,-0.292,0.355
2024-10-15 11:19:24.153,65115.544,0.006,0.278,-0.96,-0.059,0.503,0.209,-0.132,0.037,0.303,0.006,-0.282,0.317
2024-10-15 11:19:24.273,65115.664,-0.005,0.302,-0.953,0.074,-0.703,-0.383,-0.125,0.061,-0.603,-0.006,-0.306,0.348
2024-10-15 11:19:24.393,65115.784,0.001,0.298,-0.954,-0.093,0.45,0.099,0.404,-0.078,0.436,0.001,-0.303,0.328
2024-10-15 11:19:24.512,65115.903,-0.002,0.257,-0.967,0.111,-0.042,0.055,0.983,0.119,-0.42,-0.003,-0.259,0.34
2024-10-15 11:19:24.633,65116.023,0.0,0.243,-0.97,-0.094,-0.151,-0.274,0.012,0.022,0.129,0.0,-0.245,0.334
2024-10-15 11:19:24.752,65116.143,-0.005,0.25,-0.968,0.045,0.045,0.04,0.259,0.251,-0.506,-0.005,-0.253,0.315
2024-10-15 11:19:24.872,65116.263,0.008,0.276,-0.961,0.049,-0.318,0.131,-0.376,0.003,0.253,0.008,-0.279,0.322
2024-10-15 11:19:24.992,65116.383,0.0,0.258,-0.966,-0.002,0.278,0.158,-0.302,-0.021,-0.089,0.0,-0.261,0.298
2024-10-15 11:19:25.111,65116.502,0.002,0.424,-0.906,0.01,0.466,-0.249,-0.894,0.128,-0.02,0.002,-0.438,0.282
2024-10-15 11:19:25.231,65116.622,0.003,0.375,-0.927,-0.038,0.049,-0.18,1.431,-0.159,0.131,0.003,-0.384,0.309
2024-10-15 11:19:25.351,65116.742,0.008,0.33,-0.944,0.022,-0.214,-0.071,0.101,0.086,0.075,0.009,-0.336,0.328
2024-10-15 11:19:25.471,65116.862,0.005,0.298,-0.955,-0.091,0.233,0.098,0.197,-0.091,0.224,0.005,-0.303,0.327
2024-10-15 11:19:25.590,65116.982,-0.001,0.297,-0.955,0.11,-0.436,-0.007,0.143,0.048,-0.278,-0.001,-0.302,0.338
2024-10-15 11:19:25.710,65117.101,0.01,0.276,-0.961,-0.151,0.434,0.085,0.475,-0.133,0.442,0.011,-0.28,0.323
2024-10-15 11:19:25.831,65117.221,0.0,0.276,-0.961,0.154,-0.554,-0.17,-0.404,0.153,-0.449,0.0,-0.279,0.354
2024-10-15 11:19:25.950,65117.341,0.009,0.277,-0.961,-0.136,0.258,-0.057,0.283,-0.061,0.364,0.009,-0.28,0.343
2024-10-15 11:19:26.070,65117.461,0.006,0.292,-0.957,0.087,-0.447,0.087,-0.281,0.216,-0.489,0.006,-0.296,0.358
2024-10-15 11:19:26.189,65117.581,0.014,0.269,-0.963,-0.034,0.319,-0.171,0.369,-0.084,0.35,0.015,-0.272,0.338
2024-10-15 11:19:26.309,65117.7,0.004,0.28,-0.96,0.165,-0.222,0.104,0.434,0.23,-0.714,0.004,-0.284,0.339
2024-10-15 11:19:26.429,65117.82,0.013,0.269,-0.963,-0.031,-0.173,-0.245,-0.836,-0.266,0.357,0.014,-0.272,0.329
2024-10-15 11:19:26.549,65117.94,0.014,0.279,-0.96,-0.064,0.063,0.069,0.356,0.255,-0.571,0.015,-0.282,0.317
2024-10-15 11:19:26.669,65118.06,0.016,0.292,-0.956,0.024,-0.326,0.323,-0.138,-0.144,0.353,0.016,-0.296,0.333
2024-10-15 11:19:26.789,65118.18,0.008,0.255,-0.967,-0.017,0.098,-0.044,-0.111,0.307,-0.403,0.009,-0.258,0.31
2024-10-15 11:19:26.908,65118.299,0.004,0.271,-0.962,0.126,-0.497,-0.351,-0.594,0.167,-0.206,0.004,-0.275,0.336
2024-10-15 11:19:27.028,65118.419,-0.0,0.267,-0.964,-0.027,0.546,0.273,0.428,-0.197,0.344,-0.0,-0.27,0.318
2024-10-15 11:19:27.148,65118.539,-0.004,0.284,-0.959,0.046,0.129,0.014,-0.066,-0.043,-0.101,-0.005,-0.287,0.31
2024-10-15 11:19:27.268,65118.659,0.0,0.368,-0.93,0.069,-0.208,0.112,-1.935,0.227,-0.356,0.0,-0.377,0.291
2024-10-15 11:19:27.387,65118.779,0.035,0.561,-0.827,0.088,0.015,-0.002,-1.569,0.445,-0.067,0.042,-0.595,0.275
2024-10-15 11:19:27.507,65118.898,0.064,0.582,-0.811,-0.054,-0.087,0.092,-0.142,-0.05,0.075,0.078,-0.621,0.287
2024-10-15 11:19:27.628,65119.018,0.049,0.545,-0.837,-0.108,-0.012,-0.022,0.941,0.019,0.016,0.058,-0.576,0.285
2024-10-15 11:19:27.747,65119.138,0.048,0.463,-0.885,-0.052,0.076,-0.004,0.467,-0.047,0.087,0.054,-0.482,0.286
2024-10-15 11:19:27.867,65119.258,0.051,0.411,-0.91,0.061,-0.178,0.054,0.723,-0.009,-0.203,0.056,-0.424,0.291
2024-10-15 11:19:27.986,65119.378,0.04,0.343,-0.938,-0.027,-0.012,-0.205,0.497,-0.144,0.335,0.043,-0.35,0.299
2024-10-15 11:19:28.106,65119.497,0.036,0.331,-0.943,0.062,0.28,0.068,1.523,0.136,-0.421,0.038,-0.337,0.298
2024-10-15 11:19:28.226,65119.617,0.034,0.325,-0.945,0.025,-0.442,-0.084,-1.776,-0.045,0.332,0.036,-0.331,0.307
2024-10-15 11:19:28.346,65119.737,0.033,0.312,-0.95,-0.016,0.273,-0.059,0.049,0.206,-0.442,0.035,-0.317,0.279
2024-10-15 11:19:28.466,65119.857,0.035,0.344,-0.938,-0.109,0.026,0.342,0.571,-0.338,0.675,0.037,-0.351,0.31
2024-10-15 11:19:28.585,65119.977,0.032,0.317,-0.948,0.059,-0.087,0.158,-0.37,0.251,-0.172,0.034,-0.322,0.274
2024-10-15 11:19:28.705,65120.096,0.03,0.323,-0.946,0.017,0.437,-0.088,0.874,-0.561,0.287,0.032,-0.328,0.323
2024-10-15 11:19:28.825,65120.216,0.034,0.318,-0.947,-0.266,0.38,0.3,-0.068,-0.127,0.077,0.036,-0.324,0.275
2024-10-15 11:19:28.945,65120.336,0.032,0.315,-0.948,0.388,-0.56,-0.507,-0.295,0.342,-0.468,0.034,-0.321,0.312
2024-10-15 11:19:29.065,65120.456,0.036,0.313,-0.949,-0.097,0.486,0.24,0.005,0.008,0.291,0.038,-0.319,0.264
2024-10-15 11:19:29.184,65120.576,0.036,0.319,-0.947,-0.16,-0.868,-0.156,-0.122,0.143,-0.329,0.038,-0.325,0.297
2024-10-15 11:19:29.304,65120.695,0.036,0.298,-0.954,-0.152,0.425,-0.121,0.4,-0.043,0.409,0.037,-0.302,0.275
2024-10-15 11:19:29.424,65120.815,0.031,0.321,-0.947,0.34,-0.23,0.069,-0.06,0.266,-0.601,0.033,-0.327,0.286
2024-10-15 11:19:29.545,65120.935,0.036,0.306,-0.951,-0.042,-0.286,-0.169,-1.372,-0.199,0.44,0.037,-0.311,0.284
2024-10-15 11:19:29.664,65121.055,0.029,0.322,-0.946,-0.012,0.233,0.01,-0.14,0.052,-0.327,0.03,-0.328,0.263
2024-10-15 11:19:29.784,65121.175,0.033,0.34,-0.94,-0.106,0.069,0.247,0.709,-0.159,0.282,0.035,-0.347,0.289
2024-10-15 11:19:29.904,65121.294,0.033,0.326,-0.945,-0.053,0.295,0.021,0.147,0.1,0.068,0.035,-0.332,0.277
2024-10-15 11:19:30.023,65121.414,0.038,0.34,-0.94,-0.045,0.104,0.078,0.157,-0.211,0.176,0.04,-0.347,0.293
2024-10-15 11:19:30.143,65121.534,0.037,0.318,-0.947,-0.08,0.168,0.164,-0.357,-0.001,0.255,0.039,-0.324,0.272
2024-10-15 11:19:30.263,65121.654,0.015,0.277,-0.961,0.064,-0.154,-0.171,0.691,-0.312,-0.021,0.016,-0.28,0.317
2024-10-15 11:19:30.383,65121.774,0.018,0.27,-0.963,0.007,0.646,0.343,0.229,0.014,0.445,0.018,-0.273,0.289
2024-10-15 11:19:30.503,65121.893,0.01,0.273,-0.962,0.333,-0.18,-0.039,-0.201,-0.118,-0.411,0.011,-0.276,0.329
2024-10-15 11:19:30.623,65122.013,0.021,0.276,-0.961,-0.089,0.742,0.231,0.731,-0.076,0.526,0.022,-0.279,0.3
2024-10-15 11:19:30.741,65122.133,0.011,0.284,-0.959,0.361,-0.443,0.003,-0.523,0.161,-0.63,0.012,-0.288,0.322
2024-10-15 11:19:30.862,65122.253,0.02,0.264,-0.964,-0.107,0.48,-0.189,0.563,-0.052,0.468,0.021,-0.267,0.296
2024-10-15 11:19:30.982,65122.373,0.008,0.276,-0.961,0.204,0.004,0.124,1.13,0.078,-0.722,0.009,-0.28,0.307
2024-10-15 11:19:31.102,65122.492,0.002,0.26,-0.966,-0.049,-0.34,-0.097,-1.712,-0.29,0.564,0.002,-0.263,0.306
2024-10-15 11:19:31.221,65122.612,-0.005,0.262,-0.965,-0.072,0.238,-0.117,0.175,0.216,-0.638,-0.005,-0.266,0.287
2024-10-15 11:19:31.341,65122.732,0.008,0.292,-0.957,-0.103,-0.23,0.4,0.131,-0.027,0.496,0.008,-0.296,0.307
2024-10-15 11:19:31.461,65122.852,0.004,0.275,-0.961,-0.011,0.056,0.315,0.088,-0.146,-0.056,0.005,-0.279,0.266
2024-10-15 11:19:31.581,65122.972,-0.005,0.278,-0.961,0.022,0.042,-0.138,-0.14,-0.274,0.259,-0.005,-0.281,0.316
2024-10-15 11:19:31.700,65123.091,0.007,0.279,-0.96,-0.16,0.692,0.345,-0.106,-0.135,0.305,0.008,-0.283,0.266
2024-10-15 11:19:31.820,65123.211,0.012,0.288,-0.957,-0.181,-0.87,-0.273,-0.542,0.224,-0.264,0.012,-0.292,0.297
2024-10-15 11:19:31.940,65123.331,0.018,0.284,-0.959,-0.072,0.69,0.153,0.629,-0.068,0.454,0.018,-0.288,0.269
2024-10-15 11:19:32.060,65123.451,0.008,0.307,-0.952,0.178,-0.418,-0.257,0.014,0.104,-0.332,0.009,-0.312,0.329
2024-10-15 11:19:32.180,65123.571,0.013,0.294,-0.956,0.002,0.81,0.243,0.623,-0.072,0.503,0.013,-0.298,0.286
2024-10-15 11:19:32.300,65123.69,0.002,0.291,-0.957,0.07,-0.472,0.011,-0.127,-0.083,-0.469,0.003,-0.296,0.314
2024-10-15 11:19:32.419,65123.81,0.007,0.264,-0.965,-0.078,0.447,-0.078,0.405,-0.229,0.505,0.007,-0.267,0.295
2024-10-15 11:19:32.539,65123.93,-0.001,0.293,-0.956,-0.003,-0.293,0.152,0.093,0.206,-0.405,-0.001,-0.298,0.322
2024-10-15 11:19:32.659,65124.05,0.014,0.265,-0.964,-0.136,0.237,-0.372,-0.396,-0.26,0.526,0.015,-0.268,0.303
2024-10-15 11:19:32.778,65124.17,0.011,0.302,-0.953,0.137,-0.049,0.096,1.132,0.325,-0.671,0.012,-0.306,0.308
2024-10-15 11:19:32.898,65124.289,0.017,0.268,-0.963,-0.076,0.134,-0.35,-0.572,-0.523,0.644,0.018,-0.271,0.296
2024-10-15 11:19:33.018,65124.409,0.008,0.281,-0.96,0.002,0.292,0.031,0.877,-0.09,-0.654,0.008,-0.285,0.293
2024-10-15 11:19:33.138,65124.529,0.015,0.302,-0.953,0.018,-0.472,0.448,-0.937,-0.156,0.565,0.016,-0.307,0.313
2024-10-15 11:19:33.258,65124.649,0.009,0.282,-0.959,0.049,0.035,-0.143,-0.364,0.427,-0.334,0.009,-0.286,0.276
2024-10-15 11:19:33.378,65124.769,0.006,0.3,-0.954,0.158,-0.148,-0.323,-0.273,-0.001,-0.161,0.006,-0.304,0.311
2024-10-15 11:19:33.497,65124.888,0.007,0.267,-0.964,0.085,0.666,0.179,0.262,-0.052,0.42,0.008,-0.27,0.286
2024-10-15 11:19:33.617,65125.008,0.002,0.283,-0.959,0.005,-0.628,-0.21,-0.157,-0.041,-0.506,0.002,-0.287,0.329
2024-10-15 11:19:33.737,65125.128,0.009,0.274,-0.962,-0.146,0.636,0.149,0.56,-0.07,0.533,0.01,-0.278,0.291
2024-10-15 11:19:33.857,65125.248,0.003,0.289,-0.957,0.25,-0.325,-0.076,0.018,0.117,-0.568,0.004,-0.293,0.311
2024-10-15 11:19:33.977,65125.368,0.014,0.231,-0.973,0.003,0.096,-0.352,0.047,-0.101,0.439,0.014,-0.233,0.301
2024-10-15 11:19:34.099,65125.487,0.005,0.264,-0.964,0.047,0.077,0.104,1.221,0.062,-0.798,0.005,-0.267,0.298
2024-10-15 11:19:34.216,65125.607,0.017,0.28,-0.96,-0.088,-0.324,0.02,-0.714,-0.015,-0.01,0.018,-0.284,0.292
2024-10-15 11:19:34.336,65125.727,0.005,0.423,-0.906,-0.068,-0.249,-0.201,-0.53,0.25,-0.253,0.006,-0.437,0.302
2024-10-15 11:19:34.456,65125.847,0.016,0.373,-0.928,0.03,0.079,-0.0,0.425,0.079,-0.082,0.017,-0.382,0.291
2024-10-15 11:19:34.575,65125.967,0.016,0.499,-0.867,-0.051,-0.074,0.034,-3.324,-0.08,0.022,0.018,-0.522,0.274
2024-10-15 11:19:34.695,65126.086,0.01,0.52,-0.854,0.056,-0.035,-0.053,0.398,-0.096,0.028,0.012,-0.547,0.293
2024-10-15 11:19:34.815,65126.206,0.012,0.441,-0.897,0.024,0.15,0.068,0.64,-0.069,0.081,0.013,-0.457,0.298
2024-10-15 11:19:34.935,65126.326,0.003,0.402,-0.916,0.109,-0.268,-0.402,0.949,0.02,-0.081,0.004,-0.414,0.352
2024-10-15 11:19:35.055,65126.446,0.013,0.356,-0.934,-0.101,0.424,0.357,0.141,-0.137,0.337,0.013,-0.364,0.323
2024-10-15 11:19:35.175,65126.566,0.006,0.34,-0.94,0.106,-0.617,-0.232,-0.017,0.245,-0.4,0.006,-0.347,0.353
2024-10-15 11:19:35.294,65126.685,0.017,0.312,-0.95,0.016,0.567,-0.256,0.632,0.077,0.435,0.018,-0.317,0.33
2024-10-15 11:19:35.414,65126.805,0.01,0.322,-0.947,0.219,-0.142,0.064,0.272,0.06,-0.38,0.011,-0.328,0.336
2024-10-15 11:19:35.534,65126.925,0.017,0.28,-0.96,-0.04,-0.193,-0.222,-0.518,-0.375,0.321,0.017,-0.284,0.336
2024-10-15 11:19:35.654,65127.045,0.007,0.267,-0.964,-0.049,0.261,-0.078,0.341,0.053,-0.575,0.007,-0.27,0.313
2024-10-15 11:19:35.773,65127.165,0.008,0.295,-0.956,-0.048,-0.378,0.342,0.16,-0.062,0.276,0.009,-0.299,0.333
2024-10-15 11:19:35.893,65127.284,0.003,0.264,-0.964,0.019,-0.121,0.208,-0.508,0.164,-0.327,0.003,-0.268,0.294
2024-10-15 11:19:36.014,65127.404,0.002,0.287,-0.958,-0.111,0.269,0.062,0.977,-0.477,0.13,0.003,-0.291,0.331
2024-10-15 11:19:36.133,65127.524,0.005,0.287,-0.958,0.112,0.807,0.35,0.339,-0.119,0.529,0.006,-0.291,0.285
2024-10-15 11:19:36.253,65127.644,-0.002,0.298,-0.955,-0.047,-0.257,-0.192,-0.134,0.07,-0.231,-0.002,-0.303,0.301
2024-10-15 11:19:36.372,65127.764,-0.001,0.432,-0.902,0.059,0.192,-0.014,-0.931,0.171,0.127,-0.001,-0.447,0.271
2024-10-15 11:19:36.492,65127.883,-0.003,0.374,-0.927,-0.016,0.088,0.038,0.292,-0.294,0.383,-0.003,-0.383,0.315
2024-10-15 11:19:36.612,65128.003,0.005,0.295,-0.955,-0.084,0.211,0.028,1.071,-0.078,-0.445,0.005,-0.3,0.311
