Date,TimeStamp,GravityX,GravityY,GravityZ,UserAccelerationX,UserAccelerationY,UserAccelerationZ,RotationRateX,RotationRateY,RotationRateZ,AttitudeRoll,AttitudePitch,AttitudeYaw
2024-09-23 11:24:13.568,161786.405,0.036,0.815,-0.579,0.0,-0.028,-0.012,-0.12,0.005,0.018,0.062,-0.952,1.481
2024-09-23 11:24:13.688,161786.525,0.033,0.811,-0.584,0.001,-0.022,-0.002,0.148,0.027,-0.027,0.056,-0.946,1.475
2024-09-23 11:24:13.808,161786.645,0.03,0.79,-0.613,-0.003,-0.032,-0.027,-0.051,-0.061,0.032,0.049,-0.91,1.467
2024-09-23 11:24:13.927,161786.764,0.031,0.797,-0.603,-0.004,-0.027,0.007,-0.082,-0.001,-0.029,0.051,-0.923,1.483
2024-09-23 11:24:14.047,161786.884,0.044,0.803,-0.594,0.013,0.018,0.004,0.081,0.061,-0.031,0.075,-0.932,1.488
2024-09-23 11:24:14.167,161787.004,0.029,0.782,-0.623,-0.035,0.015,-0.02,0.161,-0.052,-0.023,0.046,-0.897,1.464
2024-09-23 11:24:14.287,161787.124,0.038,0.777,-0.628,0.0,-0.018,0.007,0.108,0.018,0.019,0.06,-0.89,1.47
2024-09-23 11:24:14.406,161787.244,0.055,0.81,-0.584,-0.076,0.009,-0.074,-1.527,0.193,0.039,0.094,-0.945,1.489
2024-09-23 11:24:14.526,161787.363,0.047,0.844,-0.533,-0.039,-0.048,0.03,-0.268,-0.184,-0.106,0.089,-1.006,1.495
2024-09-23 11:24:14.646,161787.483,0.036,0.83,-0.556,0.071,-0.051,-0.01,0.37,-0.022,-0.005,0.065,-0.98,1.49
2024-09-23 11:24:14.766,161787.603,0.037,0.814,-0.58,-0.017,-0.021,-0.025,0.173,0.092,0.001,0.063,-0.951,1.485
2024-09-23 11:24:14.887,161787.723,0.037,0.811,-0.583,0.014,-0.029,-0.025,-0.079,-0.047,-0.051,0.063,-0.946,1.478
2024-09-23 11:24:15.005,161787.843,0.029,0.802,-0.597,0.005,0.012,0.011,0.321,-0.098,-0.069,0.048,-0.93,1.466
2024-09-23 11:24:15.125,161787.962,0.029,0.791,-0.611,0.0,0.019,-0.017,0.054,-0.094,0.111,0.048,-0.913,1.472
2024-09-23 11:24:15.245,161788.082,0.037,0.806,-0.591,-0.0,-0.015,-0.04,-0.255,0.115,0.014,0.062,-0.937,1.479
2024-09-23 11:24:15.365,161788.202,0.044,0.811,-0.584,0.025,0.022,0.009,0.148,-0.064,-0.09,0.076,-0.945,1.48
2024-09-23 11:24:15.485,161788.322,0.029,0.786,-0.618,-0.023,0.033,0.009,0.356,-0.045,-0.008,0.047,-0.904,1.46
2024-09-23 11:24:15.604,161788.442,0.037,0.779,-0.626,0.047,-0.021,0.027,-0.049,0.091,-0.024,0.058,-0.893,1.465
2024-09-23 11:24:15.724,161788.561,0.051,0.82,-0.57,-0.054,0.084,-0.035,-0.369,-0.191,-0.19,0.09,-0.961,1.486
2024-09-23 11:24:15.844,161788.681,0.033,0.821,-0.569,0.058,-0.023,0.032,0.271,-0.142,-0.04,0.058,-0.964,1.471
2024-09-23 11:24:15.964,161788.801,0.034,0.812,-0.582,0.034,0.011,-0.006,0.006,0.064,-0.016,0.058,-0.948,1.464
2024-09-23 11:24:16.084,161788.921,0.036,0.809,-0.587,-0.011,0.004,0.002,0.044,0.002,0.013,0.061,-0.942,1.465
2024-09-23 11:24:16.203,161789.041,0.028,0.787,-0.617,0.015,0.025,0.017,0.446,0.054,0.006,0.046,-0.906,1.453
2024-09-23 11:24:16.323,161789.16,0.027,0.784,-0.62,-0.004,-0.065,0.023,-0.196,-0.149,0.067,0.043,-0.901,1.459
2024-09-23 11:24:16.443,161789.28,0.032,0.797,-0.603,-0.023,-0.009,0.001,-0.177,0.093,0.054,0.052,-0.923,1.469
2024-09-23 11:24:16.563,161789.4,0.035,0.795,-0.605,0.025,0.021,-0.002,0.27,0.004,-0.099,0.058,-0.92,1.463
2024-09-23 11:24:16.683,161789.52,0.028,0.768,-0.64,-0.008,0.041,0.003,0.125,0.096,0.006,0.044,-0.876,1.452
2024-09-23 11:24:16.802,161789.64,0.032,0.767,-0.641,-0.017,-0.042,0.057,-0.082,0.026,0.025,0.05,-0.873,1.452
2024-09-23 11:24:16.922,161789.759,0.056,0.816,-0.575,-0.027,0.098,-0.03,-0.236,-0.039,-0.217,0.097,-0.955,1.479
2024-09-23 11:24:17.041,161789.879,0.04,0.814,-0.58,0.041,-0.057,-0.02,0.029,-0.132,-0.09,0.069,-0.95,1.464
2024-09-23 11:24:17.162,161789.999,0.035,0.807,-0.59,0.009,-0.032,-0.017,-0.033,-0.004,-0.036,0.059,-0.939,1.458
2024-09-23 11:24:17.281,161790.119,0.033,0.801,-0.597,0.007,-0.013,-0.005,0.121,-0.019,-0.005,0.055,-0.93,1.456
2024-09-23 11:24:17.401,161790.239,0.026,0.783,-0.622,0.004,0.022,0.02,0.51,-0.115,-0.049,0.041,-0.899,1.449
2024-09-23 11:24:17.521,161790.358,0.023,0.768,-0.64,0.001,-0.018,-0.028,-0.105,-0.091,0.074,0.036,-0.876,1.45
2024-09-23 11:24:17.641,161790.478,0.024,0.778,-0.627,-0.017,0.001,0.06,-0.075,0.064,0.033,0.038,-0.892,1.458
2024-09-23 11:24:17.761,161790.598,0.034,0.789,-0.614,0.017,0.057,0.02,0.249,0.056,-0.046,0.056,-0.909,1.463
2024-09-23 11:24:17.881,161790.718,0.022,0.761,-0.649,-0.023,-0.056,-0.039,0.163,-0.024,-0.055,0.034,-0.864,1.442
2024-09-23 11:24:18.000,161790.837,0.023,0.745,-0.667,0.003,0.043,-0.004,0.327,-0.012,-0.019,0.035,-0.84,1.44
2024-09-23 11:24:18.120,161790.957,0.024,0.752,-0.659,-0.013,-0.081,-0.003,-0.816,0.186,-0.006,0.036,-0.851,1.435
2024-09-23 11:24:18.240,161791.077,0.057,0.869,-0.492,0.038,0.013,-0.035,-1.735,0.367,-0.074,0.115,-1.053,1.467
2024-09-23 11:24:18.360,161791.197,0.048,0.942,-0.332,0.103,0.077,-0.104,-1.348,-0.031,-0.1,0.143,-1.229,1.484
2024-09-23 11:24:18.480,161791.317,0.06,0.937,-0.344,0.06,0.024,0.112,1.103,-0.203,0.282,0.172,-1.214,1.507
2024-09-23 11:24:18.600,161791.436,0.098,0.887,-0.452,-0.03,-0.104,0.003,0.714,-0.304,0.343,0.213,-1.09,1.58
2024-09-23 11:24:18.719,161791.556,0.072,0.833,-0.548,-0.081,-0.034,0.057,0.996,-0.402,-0.195,0.131,-0.985,1.535
2024-09-23 11:24:18.839,161791.676,0.06,0.806,-0.589,-0.051,0.056,-0.03,0.046,0.137,-0.01,0.101,-0.937,1.508
2024-09-23 11:24:18.959,161791.796,0.052,0.786,-0.617,-0.003,-0.071,0.021,0.093,-0.141,-0.194,0.084,-0.904,1.491
2024-09-23 11:24:19.079,161791.916,0.045,0.784,-0.619,0.0,-0.022,0.02,0.183,0.115,-0.026,0.073,-0.901,1.477
2024-09-23 11:24:19.198,161792.035,0.052,0.786,-0.616,0.014,0.028,0.014,-0.035,-0.012,-0.029,0.085,-0.905,1.478
2024-09-23 11:24:19.318,161792.155,0.052,0.792,-0.608,0.007,0.0,0.009,0.048,-0.034,-0.037,0.086,-0.914,1.479
2024-09-23 11:24:19.438,161792.275,0.045,0.781,-0.624,-0.008,-0.036,-0.031,-0.035,0.085,-0.009,0.072,-0.895,1.467
2024-09-23 11:24:19.558,161792.395,0.056,0.799,-0.599,-0.019,0.04,-0.027,-0.413,0.004,0.046,0.093,-0.925,1.485
2024-09-23 11:24:19.678,161792.515,0.05,0.8,-0.598,0.01,-0.008,-0.001,0.095,-0.188,-0.04,0.083,-0.928,1.485
2024-09-23 11:24:19.797,161792.634,0.054,0.787,-0.614,-0.011,-0.053,-0.011,-0.027,0.216,0.029,0.087,-0.906,1.481
2024-09-23 11:24:19.917,161792.754,0.046,0.79,-0.611,-0.001,-0.052,-0.008,0.057,-0.169,0.089,0.075,-0.911,1.483
2024-09-23 11:24:20.037,161792.874,0.053,0.798,-0.601,0.02,-0.053,-0.018,-0.068,0.049,-0.02,0.088,-0.924,1.492
2024-09-23 11:24:20.157,161792.994,0.055,0.797,-0.601,0.01,-0.019,-0.005,-0.12,-0.099,-0.014,0.09,-0.923,1.495
2024-09-23 11:24:20.277,161793.114,0.051,0.799,-0.6,0.011,0.003,0.003,0.09,-0.106,-0.028,0.085,-0.925,1.496
2024-09-23 11:24:20.397,161793.233,0.049,0.788,-0.613,-0.031,0.056,0.015,0.121,0.234,0.061,0.079,-0.908,1.492
2024-09-23 11:24:20.517,161793.353,0.057,0.783,-0.62,-0.016,-0.04,-0.005,-0.063,0.04,0.036,0.091,-0.899,1.488
2024-09-23 11:24:20.636,161793.473,0.068,0.793,-0.605,-0.021,-0.159,-0.04,-0.918,0.463,0.174,0.113,-0.916,1.506
2024-09-23 11:24:20.755,161793.593,0.097,0.875,-0.475,-0.044,0.176,0.021,-0.535,0.01,-0.251,0.202,-1.065,1.56
2024-09-23 11:24:20.875,161793.713,0.067,0.878,-0.474,0.062,-0.073,0.091,0.243,-0.279,-0.083,0.141,-1.071,1.517
2024-09-23 11:24:20.995,161793.832,0.051,0.841,-0.538,0.04,0.491,-0.213,0.525,0.043,0.079,0.094,-1.0,1.487
2024-09-23 11:24:21.115,161793.952,0.042,0.83,-0.556,-0.009,-0.002,-0.015,-0.007,-0.113,-0.042,0.076,-0.979,1.469
2024-09-23 11:24:21.235,161794.072,0.037,0.826,-0.563,-0.007,0.013,0.015,0.123,0.038,-0.008,0.065,-0.972,1.464
2024-09-23 11:24:21.355,161794.192,0.032,0.809,-0.587,0.006,0.041,0.024,0.298,0.059,0.025,0.054,-0.942,1.454
2024-09-23 11:24:21.474,161794.312,0.041,0.809,-0.587,-0.009,-0.067,0.03,-0.378,0.054,0.06,0.07,-0.942,1.458
2024-09-23 11:24:21.594,161794.431,0.051,0.824,-0.564,0.025,0.009,0.02,0.16,-0.13,-0.035,0.09,-0.969,1.476
2024-09-23 11:24:21.714,161794.551,0.039,0.808,-0.588,-0.033,0.012,0.023,0.149,0.142,-0.02,0.066,-0.941,1.464
2024-09-23 11:24:21.834,161794.671,0.045,0.802,-0.596,0.024,-0.005,-0.001,-0.023,-0.135,-0.006,0.075,-0.93,1.462
2024-09-23 11:24:21.953,161794.791,0.044,0.808,-0.588,-0.005,0.067,0.007,0.013,0.086,0.028,0.074,-0.94,1.47
2024-09-23 11:24:22.073,161794.911,0.046,0.815,-0.578,0.012,0.007,0.005,0.043,-0.032,-0.017,0.08,-0.952,1.476
2024-09-23 11:24:22.193,161795.03,0.038,0.806,-0.59,0.008,0.019,0.011,0.195,0.013,-0.018,0.064,-0.938,1.468
2024-09-23 11:24:22.314,161795.15,0.045,0.802,-0.596,0.004,-0.017,0.007,0.01,0.053,-0.004,0.076,-0.93,1.467
2024-09-23 11:24:22.433,161795.27,0.051,0.799,-0.599,0.021,0.007,-0.026,-0.015,-0.04,-0.021,0.085,-0.926,1.469
2024-09-23 11:24:22.553,161795.39,0.071,0.835,-0.546,-0.062,-0.193,-0.116,-1.845,0.431,0.029,0.13,-0.988,1.494
2024-09-23 11:24:22.673,161795.51,0.068,0.886,-0.459,-0.041,0.145,-0.024,0.322,-0.238,-0.06,0.148,-1.088,1.509
2024-09-23 11:24:22.792,161795.629,0.034,0.863,-0.503,0.073,-0.18,0.074,0.837,-0.14,-0.103,0.068,-1.042,1.458
2024-09-23 11:24:22.912,161795.749,0.031,0.828,-0.56,-0.001,-0.019,-0.034,0.165,0.003,-0.001,0.055,-0.976,1.449
2024-09-23 11:24:23.032,161795.869,0.032,0.828,-0.56,0.012,0.022,-0.006,0.044,-0.036,0.023,0.057,-0.976,1.453
2024-09-23 11:24:23.152,161795.989,0.031,0.824,-0.565,-0.006,0.003,0.006,0.159,-0.01,-0.001,0.055,-0.969,1.451
2024-09-23 11:24:23.272,161796.109,0.029,0.808,-0.589,-0.023,0.055,-0.029,-0.065,0.252,-0.041,0.049,-0.94,1.44
2024-09-23 11:24:23.392,161796.228,0.04,0.825,-0.564,0.027,-0.048,-0.003,0.026,-0.079,0.023,0.071,-0.97,1.457
2024-09-23 11:24:23.511,161796.348,0.033,0.807,-0.59,-0.014,-0.173,0.004,-0.075,0.169,-0.049,0.055,-0.939,1.441
2024-09-23 11:24:23.631,161796.468,0.033,0.806,-0.592,0.005,0.037,-0.049,-0.135,-0.129,0.041,0.056,-0.937,1.446
2024-09-23 11:24:23.751,161796.588,0.042,0.819,-0.572,0.009,-0.007,-0.026,-0.234,0.05,0.042,0.074,-0.96,1.459
2024-09-23 11:24:23.883,161796.708,0.041,0.819,-0.573,0.001,-0.016,-0.003,0.023,-0.075,-0.006,0.072,-0.959,1.46
2024-09-23 11:24:23.990,161796.827,0.037,0.817,-0.575,0.0,0.006,0.004,0.034,-0.013,-0.016,0.064,-0.956,1.456
2024-09-23 11:24:24.109,161796.947,0.036,0.812,-0.582,0.004,0.003,0.004,0.13,-0.079,-0.043,0.062,-0.948,1.454
2024-09-23 11:24:24.231,161797.067,0.035,0.803,-0.595,-0.001,0.005,0.014,0.031,0.1,-0.001,0.059,-0.933,1.449
2024-09-23 11:24:24.350,161797.187,0.043,0.803,-0.595,0.004,0.024,-0.01,-0.054,0.044,0.029,0.071,-0.932,1.45
2024-09-23 11:24:24.470,161797.307,0.045,0.802,-0.596,0.011,-0.052,-0.002,-0.274,0.06,-0.0,0.075,-0.931,1.45
2024-09-23 11:24:24.589,161797.426,0.079,0.889,-0.451,0.012,0.006,-0.015,-1.485,0.374,0.054,0.173,-1.095,1.506
2024-09-23 11:24:24.709,161797.546,0.069,0.904,-0.421,-0.031,0.128,0.044,0.895,-0.464,-0.136,0.163,-1.13,1.501
2024-09-23 11:24:24.829,161797.666,0.039,0.85,-0.526,0.089,-0.029,0.03,1.67,-0.194,0.113,0.075,-1.015,1.458
2024-09-23 11:24:24.948,161797.786,0.037,0.818,-0.574,-0.007,-0.042,0.008,0.016,-0.009,-0.031,0.064,-0.959,1.448
2024-09-23 11:24:25.069,161797.906,0.033,0.822,-0.569,-0.011,-0.008,-0.015,-0.077,-0.047,-0.016,0.057,-0.965,1.445
2024-09-23 11:24:25.188,161798.025,0.029,0.821,-0.571,0.017,0.041,0.005,0.302,-0.047,-0.06,0.051,-0.963,1.44
2024-09-23 11:24:25.308,161798.145,0.026,0.804,-0.594,-0.026,-0.043,-0.008,-0.06,0.229,-0.032,0.044,-0.934,1.424
2024-09-23 11:24:25.428,161798.265,0.037,0.829,-0.558,0.04,-0.021,0.011,-0.031,-0.039,0.046,0.066,-0.978,1.442
2024-09-23 11:24:25.547,161798.385,0.033,0.823,-0.568,0.006,-0.007,0.014,0.123,-0.047,-0.023,0.057,-0.966,1.442
2024-09-23 11:24:25.668,161798.505,0.032,0.817,-0.575,-0.003,-0.015,-0.003,0.005,-0.009,0.015,0.055,-0.957,1.441
2024-09-23 11:24:25.787,161798.624,0.032,0.817,-0.576,0.002,0.002,-0.007,-0.004,0.002,-0.002,0.056,-0.956,1.442
2024-09-23 11:24:25.906,161798.744,0.027,0.804,-0.595,-0.0,0.028,0.008,0.182,-0.002,-0.017,0.045,-0.933,1.436
2024-09-23 11:24:26.027,161798.864,0.033,0.802,-0.597,0.029,0.015,0.0,0.071,0.017,-0.025,0.055,-0.93,1.431
2024-09-23 11:24:26.146,161798.984,0.031,0.81,-0.585,-0.012,-0.107,0.036,-0.241,-0.087,0.065,0.053,-0.945,1.44
2024-09-23 11:24:26.266,161799.104,0.038,0.813,-0.581,0.011,-0.01,-0.001,0.029,0.017,0.044,0.066,-0.949,1.452
2024-09-23 11:24:26.386,161799.223,0.036,0.813,-0.581,0.004,0.026,0.018,0.034,-0.058,0.01,0.062,-0.95,1.457
2024-09-23 11:24:26.506,161799.343,0.03,0.808,-0.588,0.012,0.013,-0.004,0.298,-0.091,-0.053,0.052,-0.941,1.453
2024-09-23 11:24:26.626,161799.463,0.032,0.801,-0.598,-0.012,0.013,-0.001,0.094,0.035,0.01,0.053,-0.928,1.444
2024-09-23 11:24:26.746,161799.583,0.038,0.799,-0.6,-0.007,-0.042,0.01,0.014,0.095,0.036,0.063,-0.926,1.446
2024-09-23 11:24:26.865,161799.703,0.043,0.808,-0.587,-0.01,-0.179,0.054,-0.831,0.224,0.069,0.073,-0.942,1.454
2024-09-23 11:24:26.985,161799.822,0.084,0.909,-0.409,-0.014,0.056,-0.0,-0.85,0.114,0.008,0.204,-1.14,1.534
2024-09-23 11:24:27.105,161799.942,0.046,0.876,-0.48,0.066,-0.109,0.117,0.657,-0.486,-0.069,0.095,-1.068,1.464
2024-09-23 11:24:27.225,161800.062,0.029,0.827,-0.561,0.04,-0.036,-0.035,0.287,-0.039,-0.041,0.051,-0.975,1.446
2024-09-23 11:24:27.345,161800.182,0.027,0.818,-0.574,-0.015,-0.01,0.004,0.067,0.02,-0.006,0.047,-0.958,1.441
2024-09-23 11:24:27.464,161800.302,0.025,0.816,-0.578,0.005,0.035,-0.025,0.079,0.021,-0.016,0.044,-0.954,1.437
2024-09-23 11:24:27.584,161800.421,0.021,0.794,-0.607,0.005,0.058,0.036,0.374,0.054,-0.104,0.035,-0.918,1.427
2024-09-23 11:24:27.703,161800.541,0.033,0.811,-0.584,-0.014,0.049,-0.014,-0.379,0.115,0.09,0.057,-0.946,1.435
2024-09-23 11:24:27.824,161800.661,0.025,0.792,-0.61,0.017,0.017,-0.022,0.265,0.04,-0.005,0.041,-0.914,1.431
2024-09-23 11:24:27.944,161800.781,0.031,0.79,-0.612,0.02,0.024,0.011,0.139,-0.069,0.021,0.05,-0.911,1.429
2024-09-23 11:24:28.064,161800.901,0.029,0.796,-0.604,-0.017,-0.064,0.074,-0.265,0.076,0.037,0.048,-0.921,1.435
2024-09-23 11:24:28.183,161801.02,0.037,0.809,-0.587,0.026,0.039,0.017,0.16,-0.07,0.037,0.062,-0.943,1.447
2024-09-23 11:24:28.303,161801.14,0.027,0.794,-0.607,0.016,0.034,0.031,0.416,-0.002,-0.042,0.045,-0.917,1.441
2024-09-23 11:24:28.423,161801.26,0.031,0.79,-0.612,0.004,-0.002,-0.014,0.056,0.012,0.003,0.051,-0.911,1.437
2024-09-23 11:24:28.542,161801.38,0.037,0.787,-0.616,0.005,-0.025,-0.01,-0.063,0.071,0.055,0.059,-0.906,1.44
2024-09-23 11:24:28.662,161801.5,0.044,0.787,-0.615,-0.003,-0.046,0.036,-0.407,0.04,0.061,0.071,-0.906,1.451
2024-09-23 11:24:28.782,161801.619,0.067,0.862,-0.503,-0.046,0.198,0.062,0.186,-0.085,-0.296,0.132,-1.039,1.489
2024-09-23 11:24:28.902,161801.739,0.034,0.826,-0.563,0.073,-0.031,0.029,0.681,-0.263,-0.048,0.061,-0.972,1.443
2024-09-23 11:24:29.022,161801.859,0.027,0.805,-0.592,0.021,0.014,0.005,0.114,0.03,0.017,0.045,-0.937,1.434
2024-09-23 11:24:29.141,161801.979,0.03,0.8,-0.599,-0.012,-0.015,-0.004,0.085,0.019,0.009,0.05,-0.927,1.437
2024-09-23 11:24:29.261,161802.099,0.022,0.784,-0.621,-0.003,-0.077,-0.07,-0.105,0.2,-0.086,0.036,-0.901,1.422
2024-09-23 11:24:29.381,161802.218,0.034,0.806,-0.591,-0.013,0.06,-0.08,-0.109,-0.045,0.039,0.058,-0.937,1.436
2024-09-23 11:24:29.501,161802.338,0.023,0.786,-0.618,-0.021,-0.026,0.012,-0.018,0.122,-0.04,0.038,-0.904,1.427
2024-09-23 11:24:29.621,161802.458,0.028,0.78,-0.625,0.008,-0.017,-0.023,0.0,-0.078,-0.035,0.045,-0.895,1.423
2024-09-23 11:24:29.741,161802.578,0.027,0.788,-0.615,-0.014,-0.031,0.065,-0.217,0.11,0.06,0.044,-0.907,1.427
2024-09-23 11:24:29.861,161802.698,0.034,0.799,-0.6,0.002,0.016,0.019,0.095,-0.078,0.031,0.057,-0.926,1.439
2024-09-23 11:24:29.980,161802.817,0.023,0.785,-0.62,0.005,0.025,0.035,0.066,0.01,-0.036,0.037,-0.902,1.43
2024-09-23 11:24:30.100,161802.937,0.026,0.781,-0.623,0.014,0.023,0.011,0.155,0.025,0.011,0.042,-0.897,1.428
2024-09-23 11:24:30.220,161803.057,0.032,0.782,-0.622,-0.02,-0.008,0.003,-0.129,0.105,0.011,0.052,-0.898,1.43
2024-09-23 11:24:30.339,161803.177,0.034,0.779,-0.626,-0.007,-0.054,-0.004,-0.15,0.056,-0.035,0.055,-0.894,1.428
2024-09-23 11:24:30.459,161803.296,0.066,0.888,-0.455,-0.035,-0.014,-0.074,-2.387,0.744,0.003,0.144,-1.093,1.467
2024-09-23 11:24:30.579,161803.416,0.078,0.956,-0.284,0.039,0.049,-0.037,-0.877,0.098,-0.15,0.267,-1.272,1.546
2024-09-23 11:24:30.699,161803.536,0.064,0.978,-0.197,0.031,0.052,-0.032,-0.452,-0.093,-0.19,0.311,-1.362,1.584
2024-09-23 11:24:30.819,161803.656,0.045,0.989,-0.143,0.045,0.018,-0.024,-0.333,-0.058,-0.057,0.305,-1.42,1.585
2024-09-23 11:24:30.938,161803.776,0.073,0.979,-0.191,0.055,0.098,0.014,0.596,-0.272,0.479,0.365,-1.365,1.673
2024-09-23 11:24:31.058,161803.895,0.123,0.948,-0.293,-0.012,-0.035,0.067,1.106,-0.129,0.423,0.399,-1.248,1.73
2024-09-23 11:24:31.178,161804.015,0.14,0.951,-0.274,-0.051,0.078,-0.001,0.759,-0.317,-0.21,0.472,-1.258,1.829
2024-09-23 11:24:31.298,161804.135,0.09,0.882,-0.463,-0.069,0.046,-0.014,2.04,-0.501,-0.361,0.193,-1.08,1.59
2024-09-23 11:24:31.418,161804.255,0.072,0.837,-0.542,-0.026,0.088,-0.068,0.256,0.132,-0.071,0.132,-0.992,1.527
2024-09-23 11:24:31.538,161804.375,0.07,0.809,-0.583,0.009,-0.023,-0.007,0.33,-0.071,-0.019,0.119,-0.943,1.516
2024-09-23 11:24:31.658,161804.494,0.074,0.819,-0.57,0.014,0.019,0.005,-0.246,-0.032,-0.005,0.129,-0.959,1.518
2024-09-23 11:24:31.777,161804.614,0.065,0.833,-0.55,0.011,0.03,0.015,-0.058,-0.145,-0.027,0.118,-0.984,1.523
2024-09-23 11:24:31.897,161804.734,0.062,0.834,-0.548,-0.004,0.001,0.012,0.083,0.055,0.021,0.113,-0.987,1.526
2024-09-23 11:24:32.017,161804.854,0.056,0.826,-0.56,0.009,0.03,0.012,0.413,-0.157,-0.062,0.1,-0.973,1.519
2024-09-23 11:24:32.136,161804.974,0.057,0.827,-0.56,0.025,-0.095,-0.018,-0.359,-0.021,0.094,0.102,-0.973,1.522
2024-09-23 11:24:32.257,161805.093,0.052,0.817,-0.574,-0.023,-0.002,0.014,0.037,0.218,-0.013,0.091,-0.957,1.522
2024-09-23 11:24:32.376,161805.213,0.052,0.82,-0.571,0.003,-0.05,-0.041,-0.261,-0.193,0.026,0.09,-0.961,1.519
2024-09-23 11:24:32.496,161805.333,0.047,0.83,-0.556,0.031,-0.005,-0.01,0.067,-0.092,-0.089,0.085,-0.978,1.522
2024-09-23 11:24:32.616,161805.453,0.042,0.819,-0.573,0.005,0.018,0.01,0.212,0.029,0.011,0.073,-0.959,1.511
2024-09-23 11:24:32.736,161805.573,0.05,0.806,-0.59,-0.032,0.068,-0.015,-0.034,0.044,0.091,0.084,-0.937,1.512
2024-09-23 11:24:32.855,161805.692,0.055,0.819,-0.571,0.013,0.041,0.017,0.214,0.048,-0.056,0.096,-0.959,1.519
2024-09-23 11:24:32.975,161805.812,0.049,0.809,-0.586,0.01,-0.035,-0.023,-0.081,-0.104,0.003,0.083,-0.943,1.506
2024-09-23 11:24:33.095,161805.932,0.047,0.802,-0.596,-0.003,-0.005,0.013,0.213,0.054,0.004,0.079,-0.93,1.501
2024-09-23 11:24:33.215,161806.052,0.052,0.802,-0.595,0.017,-0.003,-0.003,0.018,0.005,0.013,0.086,-0.931,1.501
2024-09-23 11:24:33.334,161806.172,0.069,0.821,-0.567,0.01,0.068,0.018,0.013,0.053,0.128,0.12,-0.963,1.528
2024-09-23 11:24:33.454,161806.291,0.093,0.81,-0.579,0.023,0.05,0.039,0.272,0.13,0.016,0.16,-0.944,1.545
2024-09-23 11:24:33.575,161806.411,0.091,0.82,-0.565,0.015,0.002,-0.007,-0.172,-0.085,-0.04,0.159,-0.961,1.54
2024-09-23 11:24:33.694,161806.531,0.085,0.819,-0.567,0.011,-0.005,0.001,0.068,-0.063,-0.036,0.148,-0.96,1.534
2024-09-23 11:24:33.814,161806.651,0.082,0.818,-0.569,0.012,0.015,0.014,0.077,-0.028,-0.023,0.143,-0.958,1.528
2024-09-23 11:24:33.934,161806.771,0.074,0.814,-0.576,0.011,0.038,0.021,0.327,-0.162,-0.07,0.127,-0.951,1.518
2024-09-23 11:24:34.053,161806.89,0.073,0.807,-0.586,-0.013,-0.024,-0.021,-0.05,0.002,-0.002,0.123,-0.94,1.509
2024-09-23 11:24:34.173,161807.01,0.067,0.81,-0.583,-0.002,0.005,-0.001,-0.14,-0.069,-0.023,0.114,-0.944,1.503
2024-09-23 11:24:34.293,161807.13,0.058,0.812,-0.581,-0.006,-0.051,0.027,-0.125,0.008,0.041,0.1,-0.947,1.497
2024-09-23 11:24:34.413,161807.25,0.063,0.829,-0.556,0.022,0.088,0.03,0.135,-0.034,-0.045,0.112,-0.977,1.507
2024-09-23 11:24:34.533,161807.37,0.058,0.821,-0.568,0.01,0.011,0.015,0.185,-0.072,-0.088,0.102,-0.963,1.496
2024-09-23 11:24:34.653,161807.489,0.057,0.806,-0.589,0.007,-0.001,-0.002,0.123,-0.002,-0.001,0.096,-0.937,1.487
2024-09-23 11:24:34.772,161807.609,0.056,0.823,-0.565,-0.012,-0.011,-0.002,-0.26,0.199,0.046,0.099,-0.967,1.494
2024-09-23 11:24:34.892,161807.729,0.076,0.865,-0.496,-0.004,-0.04,-0.016,-0.549,0.094,0.002,0.153,-1.046,1.529
2024-09-23 11:24:35.011,161807.849,0.056,0.879,-0.473,-0.014,0.035,0.125,0.794,-0.502,-0.03,0.117,-1.074,1.508
2024-09-23 11:24:35.132,161807.969,0.043,0.844,-0.535,0.087,0.22,-0.126,0.301,0.174,0.067,0.081,-1.005,1.496
2024-09-23 11:24:35.251,161808.088,0.046,0.833,-0.551,-0.007,0.012,0.004,0.125,0.027,0.043,0.083,-0.985,1.485
2024-09-23 11:24:35.372,161808.208,0.048,0.828,-0.559,-0.002,0.008,0.013,0.147,0.037,0.012,0.085,-0.976,1.487
2024-09-23 11:24:35.491,161808.328,0.048,0.816,-0.576,0.004,0.039,0.022,0.465,-0.095,-0.071,0.083,-0.954,1.48
2024-09-23 11:24:35.611,161808.448,0.046,0.812,-0.582,-0.013,-0.014,0.008,-0.317,0.049,0.048,0.079,-0.948,1.473
2024-09-23 11:24:35.731,161808.568,0.051,0.827,-0.56,0.016,0.042,0.027,0.286,-0.154,-0.028,0.09,-0.974,1.486
2024-09-23 11:24:35.851,161808.687,0.043,0.814,-0.58,-0.034,-0.008,-0.003,0.028,0.27,0.023,0.075,-0.951,1.476
2024-09-23 11:24:35.970,161808.807,0.04,0.814,-0.579,0.013,-0.018,-0.021,-0.156,-0.312,0.008,0.07,-0.952,1.476
2024-09-23 11:24:36.090,161808.927,0.042,0.827,-0.561,-0.025,0.01,-0.022,-0.295,0.053,-0.01,0.074,-0.974,1.483
2024-09-23 11:24:36.210,161809.047,0.036,0.818,-0.574,0.019,0.03,0.02,0.358,0.086,-0.018,0.063,-0.958,1.469
2024-09-23 11:24:36.330,161809.167,0.041,0.815,-0.578,-0.015,-0.039,-0.026,-0.119,0.007,0.072,0.071,-0.953,1.474
2024-09-23 11:24:36.449,161809.286,0.048,0.823,-0.566,-0.011,-0.03,-0.064,-0.547,0.013,0.013,0.084,-0.967,1.485
2024-09-23 11:24:36.569,161809.406,0.05,0.824,-0.565,0.018,-0.007,-0.009,0.111,-0.023,-0.078,0.089,-0.968,1.483
2024-09-23 11:24:36.689,161809.526,0.043,0.814,-0.579,0.01,-0.041,-0.008,-0.171,-0.21,0.015,0.074,-0.951,1.469
2024-09-23 11:24:36.809,161809.646,0.042,0.811,-0.584,0.021,0.069,0.035,0.248,-0.006,-0.026,0.072,-0.946,1.469
2024-09-23 11:24:36.929,161809.766,0.046,0.816,-0.577,0.003,-0.047,0.008,-0.174,-0.007,0.08,0.08,-0.954,1.475
2024-09-23 11:24:37.048,161809.885,0.065,0.822,-0.566,0.002,0.03,0.03,0.285,0.101,0.072,0.114,-0.965,1.503
2024-09-23 11:24:37.168,161810.005,0.068,0.806,-0.587,0.011,-0.04,0.004,0.091,0.005,-0.016,0.116,-0.938,1.494
2024-09-23 11:24:37.288,161810.125,0.066,0.81,-0.583,-0.0,-0.008,-0.002,-0.041,-0.052,-0.013,0.112,-0.944,1.494
2024-09-23 11:24:37.408,161810.245,0.075,0.803,-0.592,-0.0,-0.024,-0.008,0.057,0.094,0.023,0.127,-0.931,1.498
2024-09-23 11:24:37.527,161810.365,0.068,0.81,-0.582,-0.003,-0.015,-0.006,-0.185,-0.004,-0.015,0.116,-0.945,1.493
2024-09-23 11:24:37.647,161810.484,0.075,0.81,-0.582,-0.007,-0.005,-0.003,0.047,0.115,0.063,0.129,-0.943,1.498
2024-09-23 11:24:37.767,161810.604,0.072,0.812,-0.579,-0.001,-0.012,0.003,-0.087,-0.053,-0.03,0.124,-0.947,1.496
2024-09-23 11:24:37.887,161810.724,0.071,0.816,-0.574,0.002,0.016,0.013,0.063,-0.002,-0.013,0.122,-0.954,1.496
2024-09-23 11:24:38.007,161810.844,0.07,0.815,-0.575,-0.002,-0.008,0.006,-0.023,0.022,-0.005,0.122,-0.953,1.495
2024-09-23 11:24:38.126,161810.964,0.065,0.81,-0.582,0.017,0.011,0.015,0.287,-0.159,-0.08,0.111,-0.945,1.489
2024-09-23 11:24:38.246,161811.083,0.068,0.803,-0.592,-0.013,-0.018,-0.015,-0.068,0.058,-0.015,0.115,-0.933,1.483
2024-09-23 11:24:38.366,161811.203,0.061,0.807,-0.587,0.007,-0.021,-0.009,-0.25,-0.141,-0.012,0.103,-0.94,1.476
2024-09-23 11:24:38.486,161811.323,0.055,0.81,-0.584,-0.033,-0.04,0.035,-0.012,0.094,0.074,0.094,-0.945,1.474
2024-09-23 11:24:38.605,161811.443,0.059,0.816,-0.574,0.016,0.043,0.034,0.181,0.018,-0.027,0.103,-0.955,1.48
2024-09-23 11:24:38.725,161811.563,0.054,0.805,-0.59,0.005,0.025,0.02,0.163,0.043,-0.05,0.092,-0.936,1.466
2024-09-23 11:24:38.845,161811.682,0.047,0.809,-0.586,0.005,-0.055,-0.011,-0.287,-0.111,0.042,0.08,-0.942,1.463
2024-09-23 11:24:38.965,161811.802,0.058,0.835,-0.548,-0.019,0.003,-0.015,-0.733,0.286,0.011,0.105,-0.987,1.477
2024-09-23 11:24:39.086,161811.922,0.091,0.901,-0.424,-0.024,-0.035,-0.077,-1.478,0.179,-0.006,0.211,-1.122,1.54
2024-09-23 11:24:39.205,161812.042,0.076,0.904,-0.42,-0.001,0.086,0.135,1.055,-0.501,-0.032,0.18,-1.13,1.537
2024-09-23 11:24:39.324,161812.162,0.05,0.845,-0.533,0.13,0.112,-0.11,1.355,-0.108,0.175,0.094,-1.006,1.485
2024-09-23 11:24:39.445,161812.281,0.046,0.835,-0.548,0.006,-0.078,-0.045,-0.608,0.007,-0.001,0.084,-0.989,1.467
2024-09-23 11:24:39.564,161812.401,0.04,0.846,-0.532,0.005,-0.003,-0.01,-0.153,-0.072,-0.087,0.075,-1.008,1.463
2024-09-23 11:24:39.684,161812.521,0.035,0.842,-0.538,0.006,-0.028,-0.015,-0.047,-0.059,-0.04,0.066,-1.001,1.453
2024-09-23 11:24:39.804,161812.641,0.03,0.838,-0.544,0.008,0.009,0.001,0.102,-0.04,-0.034,0.055,-0.995,1.444
2024-09-23 11:24:39.924,161812.761,0.032,0.825,-0.564,0.015,0.039,0.006,-0.022,0.18,0.024,0.057,-0.971,1.442
2024-09-23 11:24:40.043,161812.88,0.035,0.835,-0.549,0.014,0.011,0.009,0.136,-0.079,-0.015,0.063,-0.989,1.451
2024-09-23 11:24:40.163,161813.0,0.034,0.824,-0.566,-0.004,-0.011,-0.003,0.116,0.094,-0.006,0.06,-0.968,1.443
2024-09-23 11:24:40.283,161813.12,0.032,0.825,-0.564,-0.003,-0.026,-0.005,-0.194,-0.125,0.041,0.057,-0.971,1.45
2024-09-23 11:24:40.403,161813.24,0.036,0.832,-0.553,0.026,0.057,0.042,0.383,-0.036,-0.09,0.064,-0.983,1.452
2024-09-23 11:24:40.522,161813.36,0.034,0.818,-0.574,0.022,0.015,0.002,0.132,0.009,0.076,0.06,-0.958,1.444
2024-09-23 11:24:40.643,161813.479,0.042,0.819,-0.572,-0.019,-0.01,0.009,-0.065,0.157,0.097,0.074,-0.96,1.451
2024-09-23 11:24:40.762,161813.599,0.044,0.817,-0.575,0.02,0.015,0.001,0.415,-0.066,-0.119,0.076,-0.956,1.448
2024-09-23 11:24:40.882,161813.719,0.04,0.811,-0.583,-0.006,-0.02,0.001,0.098,0.078,0.014,0.069,-0.946,1.445
2024-09-23 11:24:41.002,161813.839,0.042,0.809,-0.586,-0.014,-0.042,-0.004,-0.181,0.034,0.044,0.071,-0.943,1.444
2024-09-23 11:24:41.122,161813.959,0.06,0.819,-0.57,-0.012,0.015,0.007,0.044,0.255,0.133,0.104,-0.96,1.469
2024-09-23 11:24:41.241,161814.078,0.063,0.815,-0.576,0.023,-0.041,-0.004,-0.086,-0.188,-0.08,0.109,-0.953,1.466
2024-09-23 11:24:41.361,161814.198,0.058,0.821,-0.568,0.003,0.014,0.022,0.048,0.045,-0.005,0.102,-0.963,1.462
2024-09-23 11:24:41.481,161814.318,0.056,0.82,-0.57,0.002,-0.001,0.007,0.116,-0.05,-0.062,0.098,-0.961,1.456
2024-09-23 11:24:41.601,161814.438,0.051,0.809,-0.586,-0.008,0.015,0.02,0.088,0.146,0.035,0.088,-0.942,1.445
2024-09-23 11:24:41.720,161814.558,0.053,0.807,-0.588,0.004,-0.033,-0.016,-0.101,-0.034,-0.062,0.091,-0.94,1.442
2024-09-23 11:24:41.840,161814.677,0.047,0.811,-0.583,0.007,0.007,-0.023,0.128,-0.023,0.04,0.08,-0.946,1.44
2024-09-23 11:24:41.960,161814.797,0.048,0.812,-0.581,0.022,-0.011,0.015,-0.075,0.077,0.02,0.083,-0.948,1.449
2024-09-23 11:24:42.080,161814.917,0.052,0.816,-0.575,-0.005,0.026,0.025,0.145,0.03,-0.023,0.09,-0.955,1.449
2024-09-23 11:24:42.199,161815.037,0.043,0.805,-0.592,-0.019,-0.025,-0.036,0.007,-0.025,-0.056,0.072,-0.936,1.431
2024-09-23 11:24:42.319,161815.157,0.047,0.819,-0.572,-0.028,0.009,0.026,-0.504,0.347,0.075,0.082,-0.959,1.447
2024-09-23 11:24:42.439,161815.276,0.077,0.876,-0.475,-0.021,0.035,-0.001,-0.777,0.343,0.052,0.161,-1.068,1.486
2024-09-23 11:24:42.559,161815.396,0.085,0.898,-0.431,-0.07,0.166,-0.013,0.064,-0.437,-0.063,0.195,-1.116,1.522
2024-09-23 11:24:42.679,161815.516,0.045,0.852,-0.521,0.085,-0.085,0.01,1.018,-0.328,0.092,0.086,-1.02,1.466
2024-09-23 11:24:42.799,161815.636,0.035,0.83,-0.557,0.001,0.006,-0.033,0.054,-0.057,-0.038,0.062,-0.978,1.453
2024-09-23 11:24:42.919,161815.756,0.033,0.828,-0.56,0.002,0.035,0.028,0.145,-0.006,-0.063,0.059,-0.975,1.448
2024-09-23 11:24:43.038,161815.875,0.029,0.827,-0.562,-0.001,0.026,0.022,0.058,-0.0,-0.021,0.052,-0.973,1.439
2024-09-23 11:24:43.158,161815.995,0.025,0.819,-0.573,0.0,0.023,0.012,0.323,-0.071,-0.007,0.044,-0.96,1.432
2024-09-23 11:24:43.278,161816.115,0.027,0.812,-0.583,-0.024,-0.106,0.004,-0.202,-0.002,-0.009,0.046,-0.948,1.431
2024-09-23 11:24:43.397,161816.235,0.028,0.816,-0.577,0.04,0.034,0.014,0.461,-0.249,-0.064,0.048,-0.955,1.441
2024-09-23 11:24:43.518,161816.355,0.029,0.808,-0.588,0.011,0.029,0.045,0.206,-0.007,0.003,0.05,-0.941,1.432
2024-09-23 11:24:43.637,161816.474,0.029,0.813,-0.581,-0.027,-0.007,0.02,-0.343,0.129,0.013,0.049,-0.95,1.441
2024-09-23 11:24:43.757,161816.594,0.027,0.81,-0.585,0.009,0.018,0.015,0.365,0.102,-0.036,0.046,-0.945,1.432
2024-09-23 11:24:43.877,161816.714,0.029,0.807,-0.59,-0.015,-0.031,-0.026,-0.198,0.033,0.009,0.05,-0.939,1.433
2024-09-23 11:24:43.997,161816.834,0.035,0.814,-0.58,0.006,-0.011,-0.041,-0.132,0.085,-0.016,0.06,-0.951,1.435
2024-09-23 11:24:44.115,161816.954,0.029,0.807,-0.59,0.006,-0.128,-0.048,-0.065,-0.134,0.032,0.049,-0.939,1.426
2024-09-23 11:24:44.236,161817.073,0.031,0.8,-0.599,0.003,-0.004,0.001,-0.105,0.061,-0.021,0.052,-0.928,1.426
2024-09-23 11:24:44.356,161817.193,0.043,0.81,-0.585,-0.008,-0.036,-0.035,-0.261,0.247,0.106,0.073,-0.944,1.438
2024-09-23 11:24:44.476,161817.313,0.051,0.805,-0.59,0.035,-0.023,-0.016,-0.049,-0.1,-0.065,0.087,-0.936,1.441
2024-09-23 11:24:44.596,161817.433,0.043,0.805,-0.592,0.011,0.029,0.014,0.133,-0.091,-0.044,0.073,-0.936,1.432
2024-09-23 11:24:44.716,161817.553,0.038,0.796,-0.604,-0.023,0.032,0.017,-0.04,0.127,-0.015,0.062,-0.92,1.423
2024-09-23 11:24:44.835,161817.672,0.038,0.794,-0.607,0.011,0.025,0.002,-0.034,-0.02,0.008,0.062,-0.917,1.418
2024-09-23 11:24:44.955,161817.792,0.038,0.795,-0.605,0.0,-0.027,0.009,-0.021,0.004,-0.027,0.062,-0.92,1.425
2024-09-23 11:24:45.075,161817.912,0.038,0.809,-0.586,0.007,-0.047,-0.01,-0.099,0.056,-0.027,0.064,-0.943,1.427
2024-09-23 11:24:45.195,161818.032,0.03,0.796,-0.605,0.011,0.005,-0.002,0.095,-0.001,-0.045,0.049,-0.921,1.411
2024-09-23 11:24:45.314,161818.152,0.031,0.805,-0.593,-0.024,-0.001,0.035,-0.323,-0.024,0.02,0.051,-0.935,1.42
2024-09-23 11:24:45.434,161818.271,0.046,0.837,-0.545,-0.049,0.096,-0.019,-0.08,-0.108,0.162,0.084,-0.993,1.444
2024-09-23 11:24:45.554,161818.391,0.022,0.827,-0.562,0.063,-0.042,0.033,0.323,-0.21,-0.127,0.04,-0.973,1.427
2024-09-23 11:24:45.674,161818.511,0.015,0.817,-0.577,0.032,-0.038,-0.019,-0.029,0.016,-0.023,0.027,-0.956,1.418
2024-09-23 11:24:45.794,161818.631,0.019,0.817,-0.576,0.007,0.019,-0.017,0.087,-0.029,0.005,0.033,-0.956,1.423
2024-09-23 11:24:45.913,161818.751,0.011,0.801,-0.599,0.007,0.044,0.004,0.028,0.107,-0.095,0.019,-0.929,1.412
2024-09-23 11:24:46.033,161818.87,0.021,0.812,-0.583,0.005,0.075,-0.035,0.066,-0.059,0.004,0.035,-0.948,1.425
2024-09-23 11:24:46.153,161818.99,0.018,0.805,-0.594,-0.018,-0.016,0.014,0.061,0.035,-0.013,0.03,-0.935,1.413
2024-09-23 11:24:46.272,161819.11,0.015,0.802,-0.597,-0.024,-0.01,0.022,-0.134,-0.088,0.081,0.024,-0.931,1.421
2024-09-23 11:24:46.393,161819.23,0.019,0.808,-0.589,0.029,0.077,0.051,0.501,-0.031,-0.095,0.033,-0.94,1.421
2024-09-23 11:24:46.512,161819.35,0.017,0.801,-0.598,-0.008,-0.061,0.073,-0.047,0.015,0.058,0.028,-0.929,1.413
2024-09-23 11:24:46.632,161819.469,0.023,0.802,-0.597,0.015,0.047,0.006,0.326,0.011,-0.052,0.038,-0.93,1.415
2024-09-23 11:24:46.752,161819.589,0.02,0.792,-0.611,-0.028,-0.008,0.029,0.087,0.034,-0.008,0.032,-0.914,1.412
2024-09-23 11:24:46.872,161819.709,0.022,0.793,-0.608,0.003,-0.026,-0.005,-0.269,-0.027,0.062,0.037,-0.916,1.411
2024-09-23 11:24:46.992,161819.829,0.036,0.814,-0.58,0.021,0.051,0.0,0.092,0.084,-0.006,0.061,-0.95,1.417
2024-09-23 11:24:47.111,161819.948,0.025,0.794,-0.607,-0.02,-0.015,0.012,-0.131,0.053,0.008,0.042,-0.918,1.401
2024-09-23 11:24:47.231,161820.068,0.028,0.791,-0.611,0.016,-0.033,-0.012,0.004,0.002,-0.017,0.046,-0.913,1.398
2024-09-23 11:24:47.351,161820.188,0.025,0.792,-0.61,-0.017,-0.062,0.063,0.037,-0.007,0.008,0.042,-0.914,1.398
2024-09-23 11:24:47.471,161820.308,0.029,0.809,-0.588,-0.002,-0.014,-0.008,-0.14,0.052,0.009,0.05,-0.942,1.407
2024-09-23 11:24:47.591,161820.428,0.024,0.794,-0.608,0.014,0.021,0.011,0.217,0.052,-0.01,0.04,-0.917,1.396
2024-09-23 11:24:47.710,161820.547,0.02,0.798,-0.602,-0.023,-0.074,0.054,-0.341,-0.077,0.076,0.034,-0.925,1.4
2024-09-23 11:24:47.830,161820.667,0.033,0.816,-0.577,-0.043,0.06,-0.007,0.116,-0.034,0.138,0.057,-0.954,1.42
2024-09-23 11:24:47.950,161820.787,0.015,0.807,-0.59,0.05,-0.027,0.033,0.125,-0.195,-0.066,0.025,-0.939,1.41
2024-09-23 11:24:48.070,161820.907,0.012,0.807,-0.591,0.029,0.01,-0.001,-0.038,0.057,0.011,0.02,-0.939,1.407
2024-09-23 11:24:48.189,161821.027,0.015,0.809,-0.588,0.006,0.026,0.011,0.207,-0.07,0.006,0.026,-0.942,1.413
2024-09-23 11:24:48.309,161821.146,0.011,0.801,-0.598,-0.028,-0.051,0.061,-0.09,0.135,0.053,0.018,-0.929,1.403
2024-09-23 11:24:48.430,161821.266,0.016,0.803,-0.595,0.023,0.074,0.028,0.429,-0.111,-0.058,0.026,-0.933,1.415
2024-09-23 11:24:48.550,161821.386,0.015,0.794,-0.608,0.001,0.02,0.032,0.31,-0.064,0.045,0.025,-0.917,1.405
2024-09-23 11:24:48.669,161821.506,0.018,0.805,-0.593,-0.027,0.002,0.013,-0.421,0.11,0.042,0.03,-0.936,1.417
2024-09-23 11:24:48.788,161821.626,0.018,0.805,-0.594,0.028,0.018,-0.013,0.326,-0.054,-0.095,0.029,-0.935,1.415
2024-09-23 11:24:48.908,161821.745,0.014,0.791,-0.612,0.006,-0.029,-0.015,-0.046,0.045,-0.013,0.024,-0.912,1.406
2024-09-23 11:24:49.028,161821.865,0.02,0.8,-0.599,-0.005,-0.021,-0.025,-0.359,0.13,0.036,0.033,-0.928,1.41
2024-09-23 11:24:49.148,161821.985,0.021,0.794,-0.608,0.012,0.058,0.0,0.174,0.054,-0.007,0.035,-0.917,1.405
2024-09-23 11:24:49.267,161822.105,0.017,0.787,-0.616,-0.012,-0.016,-0.011,0.048,0.004,-0.029,0.028,-0.906,1.403
2024-09-23 11:24:49.388,161822.225,0.023,0.792,-0.609,-0.01,-0.082,-0.007,-0.344,0.162,0.068,0.038,-0.915,1.408
2024-09-23 11:24:49.508,161822.344,0.037,0.808,-0.588,0.008,0.022,0.008,0.014,0.016,-0.013,0.063,-0.941,1.414
2024-09-23 11:24:49.627,161822.464,0.024,0.789,-0.614,0.013,0.023,-0.007,0.077,0.057,0.006,0.039,-0.91,1.402
2024-09-23 11:24:49.747,161822.584,0.026,0.789,-0.614,0.007,-0.01,-0.005,-0.029,-0.059,-0.012,0.041,-0.908,1.396
2024-09-23 11:24:49.867,161822.704,0.021,0.79,-0.612,-0.026,-0.024,0.037,0.063,0.005,-0.02,0.035,-0.911,1.395
2024-09-23 11:24:49.987,161822.824,0.024,0.804,-0.595,-0.002,-0.016,-0.049,-0.185,0.059,0.006,0.041,-0.933,1.403
2024-09-23 11:24:50.106,161822.943,0.024,0.797,-0.603,0.017,0.026,0.007,0.329,-0.034,-0.064,0.039,-0.923,1.399
2024-09-23 11:24:50.226,161823.063,0.016,0.787,-0.616,0.006,-0.006,0.0,-0.008,-0.219,-0.008,0.026,-0.907,1.39
2024-09-23 11:24:50.347,161823.183,0.015,0.803,-0.596,-0.015,-0.063,0.011,-0.645,0.175,0.002,0.026,-0.932,1.391
2024-09-23 11:24:50.466,161823.303,0.047,0.883,-0.466,-0.006,-0.019,-0.044,-1.527,0.546,-0.034,0.101,-1.083,1.408
2024-09-23 11:24:50.586,161823.423,0.046,0.948,-0.316,0.049,0.014,-0.043,-1.242,0.123,-0.149,0.143,-1.246,1.418
2024-09-23 11:24:50.705,161823.542,0.034,0.98,-0.198,0.037,0.089,-0.039,0.623,-0.084,-0.07,0.17,-1.369,1.441
2024-09-23 11:24:50.825,161823.662,0.082,0.953,-0.291,0.149,-0.011,0.08,0.48,-0.032,0.656,0.274,-1.264,1.545
2024-09-23 11:24:50.945,161823.782,0.129,0.918,-0.374,-0.031,-0.089,0.163,0.887,-0.27,0.374,0.333,-1.164,1.633
2024-09-23 11:24:51.065,161823.902,0.122,0.891,-0.436,-0.081,-0.021,0.045,0.648,-0.456,-0.05,0.274,-1.1,1.63
2024-09-23 11:24:51.185,161824.022,0.093,0.844,-0.528,-0.097,0.04,-0.006,0.183,-0.393,-0.232,0.174,-1.005,1.56
2024-09-23 11:24:51.304,161824.141,0.053,0.813,-0.58,-0.038,-0.02,0.063,0.074,0.248,0.001,0.091,-0.949,1.5
2024-09-23 11:24:51.424,161824.261,0.081,0.792,-0.605,-0.018,-0.013,-0.003,0.015,0.075,0.024,0.133,-0.914,1.52
2024-09-23 11:24:51.544,161824.381,0.085,0.804,-0.588,0.009,0.047,0.005,-0.001,-0.08,-0.009,0.144,-0.934,1.522
2024-09-23 11:24:51.664,161824.501,0.083,0.808,-0.584,-0.01,-0.001,-0.003,-0.126,-0.048,0.083,0.141,-0.94,1.528
2024-09-23 11:24:51.783,161824.621,0.089,0.813,-0.575,-0.0,-0.024,0.01,-0.056,-0.019,-0.082,0.153,-0.95,1.544
2024-09-23 11:24:51.903,161824.74,0.087,0.819,-0.567,0.01,-0.022,-0.006,-0.166,-0.027,-0.035,0.153,-0.96,1.543
2024-09-23 11:24:52.023,161824.86,0.085,0.822,-0.564,0.005,0.001,0.001,-0.023,-0.06,-0.029,0.15,-0.964,1.538
2024-09-23 11:24:52.143,161824.98,0.08,0.825,-0.559,0.004,0.013,0.009,-0.078,-0.104,-0.026,0.143,-0.97,1.538
2024-09-23 11:24:52.263,161825.1,0.075,0.827,-0.557,0.006,-0.004,0.006,0.091,-0.1,0.001,0.133,-0.974,1.538
2024-09-23 11:24:52.382,161825.22,0.065,0.813,-0.579,0.015,0.033,0.031,0.555,-0.167,-0.05,0.112,-0.949,1.528
2024-09-23 11:24:52.502,161825.339,0.062,0.814,-0.577,-0.007,-0.027,-0.006,-0.318,0.167,0.073,0.107,-0.951,1.531
2024-09-23 11:24:52.622,161825.459,0.065,0.815,-0.576,0.004,-0.012,0.003,0.179,-0.026,-0.091,0.112,-0.952,1.528
2024-09-23 11:24:52.742,161825.579,0.056,0.799,-0.599,-0.008,0.022,-0.001,0.096,-0.007,-0.03,0.093,-0.926,1.51
2024-09-23 11:24:52.861,161825.699,0.047,0.802,-0.595,-0.009,0.042,0.019,0.066,0.007,-0.061,0.079,-0.931,1.503
2024-09-23 11:24:52.981,161825.819,0.05,0.812,-0.581,-0.016,0.01,-0.026,-0.399,0.054,0.025,0.086,-0.948,1.508
2024-09-23 11:24:53.102,161825.938,0.049,0.813,-0.581,0.007,0.009,0.008,0.188,-0.071,-0.069,0.083,-0.948,1.504
2024-09-23 11:24:53.222,161826.058,0.044,0.8,-0.598,-0.011,0.018,0.014,0.027,0.065,0.041,0.074,-0.928,1.493
2024-09-23 11:24:53.341,161826.178,0.075,0.801,-0.594,-0.013,0.057,0.004,0.126,0.254,0.142,0.126,-0.929,1.53
2024-09-23 11:24:53.460,161826.298,0.077,0.8,-0.595,-0.004,-0.013,-0.013,-0.11,-0.093,-0.039,0.128,-0.928,1.525
2024-09-23 11:24:53.581,161826.418,0.084,0.788,-0.61,-0.002,0.006,0.017,0.172,0.036,0.02,0.136,-0.907,1.525
2024-09-23 11:24:53.700,161826.537,0.081,0.806,-0.586,0.006,0.008,0.004,-0.197,-0.059,-0.056,0.138,-0.938,1.523
2024-09-23 11:24:53.820,161826.657,0.079,0.811,-0.579,0.003,0.019,0.02,0.077,-0.018,0.0,0.135,-0.946,1.523
2024-09-23 11:24:53.940,161826.777,0.07,0.805,-0.59,0.013,0.026,0.023,0.368,-0.163,-0.082,0.118,-0.935,1.512
2024-09-23 11:24:54.060,161826.897,0.063,0.803,-0.592,-0.012,-0.074,-0.008,-0.465,-0.064,0.075,0.106,-0.933,1.509
2024-09-23 11:24:54.180,161827.017,0.067,0.813,-0.578,0.009,0.045,0.027,0.294,-0.038,-0.05,0.115,-0.949,1.512
2024-09-23 11:24:54.299,161827.136,0.064,0.802,-0.594,-0.018,-0.044,-0.002,-0.117,0.072,0.034,0.107,-0.931,1.498
2024-09-23 11:24:54.419,161827.256,0.07,0.824,-0.562,0.028,0.024,0.016,0.009,-0.186,0.012,0.123,-0.969,1.519
2024-09-23 11:24:54.539,161827.376,0.056,0.803,-0.593,-0.046,-0.014,-0.025,0.198,0.144,-0.021,0.094,-0.933,1.501
2024-09-23 11:24:54.659,161827.496,0.064,0.809,-0.584,0.003,0.03,0.013,-0.199,0.068,0.049,0.11,-0.943,1.507
2024-09-23 11:24:54.779,161827.616,0.059,0.807,-0.587,0.003,0.017,0.009,0.342,-0.01,-0.109,0.1,-0.939,1.497
2024-09-23 11:24:54.898,161827.735,0.055,0.798,-0.6,-0.004,-0.015,-0.022,-0.249,-0.094,-0.021,0.092,-0.924,1.486
2024-09-23 11:24:55.018,161827.855,0.052,0.81,-0.585,0.004,-0.032,-0.02,-0.106,-0.027,0.071,0.089,-0.944,1.494
2024-09-23 11:24:55.138,161827.975,0.055,0.814,-0.578,0.005,0.028,0.021,0.095,-0.047,0.014,0.094,-0.951,1.504
2024-09-23 11:24:55.258,161828.095,0.05,0.81,-0.585,0.013,0.034,0.019,0.273,-0.14,-0.058,0.086,-0.943,1.503
2024-09-23 11:24:55.377,161828.215,0.045,0.791,-0.61,0.003,0.015,0.014,0.232,0.048,-0.012,0.073,-0.913,1.491
2024-09-23 11:24:55.497,161828.334,0.054,0.787,-0.615,0.018,0.003,0.021,-0.015,-0.026,0.01,0.087,-0.906,1.492
2024-09-23 11:24:55.617,161828.454,0.082,0.857,-0.509,-0.028,-0.032,-0.055,-1.498,0.235,0.086,0.161,-1.029,1.539
2024-09-23 11:24:55.737,161828.574,0.055,0.875,-0.481,-0.044,0.067,0.045,0.297,-0.329,-0.232,0.114,-1.065,1.501
2024-09-23 11:24:55.857,161828.694,0.038,0.84,-0.542,0.072,-0.048,-0.037,0.646,-0.137,0.073,0.069,-0.997,1.483
2024-09-23 11:24:55.977,161828.814,0.027,0.822,-0.569,0.001,-0.035,-0.025,-0.102,-0.219,-0.039,0.047,-0.965,1.473
2024-09-23 11:24:56.096,161828.933,0.02,0.818,-0.574,0.001,-0.02,-0.002,-0.024,-0.056,0.014,0.034,-0.958,1.469
2024-09-23 11:24:56.216,161829.053,0.019,0.817,-0.576,-0.012,-0.004,0.006,0.025,0.066,0.028,0.032,-0.957,1.467
2024-09-23 11:24:56.336,161829.173,0.02,0.816,-0.577,-0.002,-0.007,-0.0,0.01,0.024,-0.002,0.034,-0.955,1.464
2024-09-23 11:24:56.456,161829.293,0.02,0.815,-0.579,0.002,-0.007,0.004,0.05,-0.008,-0.002,0.034,-0.953,1.462
2024-09-23 11:24:56.575,161829.413,0.016,0.805,-0.592,-0.023,0.008,-0.011,-0.032,-0.01,-0.01,0.027,-0.936,1.456
2024-09-23 11:24:56.695,161829.532,0.022,0.816,-0.578,-0.001,-0.05,-0.024,-0.094,0.193,-0.045,0.039,-0.954,1.46
2024-09-23 11:24:56.815,161829.652,0.02,0.809,-0.587,0.005,0.023,0.015,0.245,-0.102,-0.073,0.034,-0.943,1.449
2024-09-23 11:24:56.935,161829.772,0.014,0.801,-0.599,0.005,0.017,0.006,0.018,-0.044,0.038,0.024,-0.928,1.441
2024-09-23 11:24:57.055,161829.892,0.018,0.804,-0.594,-0.026,-0.027,0.01,-0.07,0.046,0.008,0.031,-0.934,1.447
2024-09-23 11:24:57.174,161830.012,0.023,0.811,-0.584,0.007,0.001,-0.003,-0.025,-0.019,-0.009,0.039,-0.946,1.452
2024-09-23 11:24:57.294,161830.131,0.017,0.802,-0.597,0.003,-0.079,-0.008,0.125,0.001,-0.011,0.028,-0.931,1.442
2024-09-23 11:24:57.414,161830.251,0.029,0.81,-0.586,-0.013,0.01,0.01,-0.236,0.256,0.198,0.05,-0.944,1.46
2024-09-23 11:24:57.534,161830.371,0.054,0.8,-0.597,-0.033,-0.026,-0.006,-0.035,0.183,0.117,0.09,-0.928,1.481
2024-09-23 11:24:57.654,161830.491,0.047,0.804,-0.593,-0.001,-0.047,-0.017,-0.203,-0.137,-0.055,0.079,-0.934,1.476
2024-09-23 11:24:57.774,161830.611,0.041,0.809,-0.586,0.005,-0.001,0.002,0.003,-0.043,-0.05,0.069,-0.943,1.471
2024-09-23 11:24:57.894,161830.73,0.04,0.81,-0.585,0.005,0.002,0.007,0.077,0.002,-0.03,0.069,-0.944,1.468
2024-09-23 11:24:58.014,161830.85,0.035,0.801,-0.598,-0.001,-0.074,-0.014,0.061,-0.023,-0.027,0.059,-0.929,1.46
2024-09-23 11:24:58.133,161830.97,0.034,0.814,-0.58,-0.0,0.024,0.01,-0.313,0.13,0.008,0.059,-0.951,1.464
2024-09-23 11:24:58.252,161831.09,0.035,0.816,-0.578,0.006,0.012,0.009,0.194,-0.057,-0.045,0.06,-0.954,1.461
2024-09-23 11:24:58.372,161831.21,0.034,0.802,-0.596,-0.014,-0.001,0.013,0.087,0.14,0.027,0.056,-0.931,1.45
2024-09-23 11:24:58.492,161831.329,0.039,0.82,-0.571,0.013,0.059,0.014,0.111,-0.09,0.03,0.069,-0.962,1.468
2024-09-23 11:24:58.612,161831.449,0.03,0.802,-0.597,0.002,-0.106,-0.008,0.216,0.157,-0.03,0.05,-0.93,1.455
2024-09-23 11:24:58.732,161831.569,0.038,0.811,-0.583,-0.022,0.066,0.012,-0.267,0.099,0.034,0.065,-0.947,1.461
2024-09-23 11:24:58.852,161831.689,0.029,0.801,-0.597,-0.003,0.027,0.015,0.422,0.003,-0.123,0.048,-0.93,1.444
2024-09-23 11:24:58.972,161831.809,0.028,0.801,-0.598,0.004,-0.051,-0.027,-0.2,0.028,0.064,0.046,-0.928,1.444
2024-09-23 11:24:59.092,161831.928,0.034,0.814,-0.58,0.011,0.006,-0.006,-0.115,-0.134,0.045,0.058,-0.951,1.461
2024-09-23 11:24:59.210,161832.048,0.024,0.796,-0.605,-0.002,0.036,0.034,0.269,0.056,-0.014,0.04,-0.921,1.453
2024-09-23 11:24:59.331,161832.168,0.035,0.791,-0.61,0.005,-0.028,0.003,-0.029,0.026,0.056,0.057,-0.913,1.454
2024-09-23 11:24:59.451,161832.288,0.052,0.832,-0.553,-0.026,-0.126,-0.069,-1.381,0.163,0.162,0.094,-0.982,1.483
2024-09-23 11:24:59.570,161832.408,0.037,0.847,-0.53,-0.039,0.08,-0.023,0.203,-0.293,-0.192,0.069,-1.011,1.475
2024-09-23 11:24:59.691,161832.527,0.02,0.818,-0.574,0.058,0.111,-0.051,0.326,-0.068,-0.081,0.035,-0.959,1.464
2024-09-23 11:24:59.810,161832.647,0.007,0.81,-0.586,0.007,0.02,0.004,0.191,-0.106,-0.02,0.011,-0.945,1.451
2024-09-23 11:24:59.930,161832.767,0.003,0.806,-0.592,0.001,0.02,0.015,0.08,-0.028,0.018,0.005,-0.937,1.448
2024-09-23 11:25:00.050,161832.887,0.005,0.804,-0.594,-0.007,0.011,0.012,0.055,0.033,0.042,0.009,-0.934,1.449
2024-09-23 11:25:00.169,161833.007,0.006,0.803,-0.596,-0.01,-0.013,-0.004,-0.022,0.045,-0.007,0.01,-0.933,1.446
2024-09-23 11:25:00.289,161833.126,0.007,0.803,-0.597,-0.001,-0.007,0.0,-0.002,0.014,-0.01,0.011,-0.931,1.444
2024-09-23 11:25:00.409,161833.246,0.006,0.803,-0.596,0.001,-0.002,0.005,-0.022,0.009,-0.0,0.011,-0.932,1.443
2024-09-23 11:25:00.529,161833.366,0.008,0.804,-0.594,-0.0,-0.013,-0.002,-0.048,0.042,-0.012,0.013,-0.934,1.441
2024-09-23 11:25:00.649,161833.486,0.008,0.807,-0.591,-0.001,-0.013,-0.001,-0.077,0.024,-0.017,0.014,-0.939,1.44
2024-09-23 11:25:00.768,161833.606,0.009,0.811,-0.585,-0.001,-0.005,0.002,-0.018,0.026,-0.01,0.015,-0.946,1.442
2024-09-23 11:25:00.889,161833.725,0.007,0.81,-0.587,-0.002,-0.012,0.002,0.03,0.009,-0.013,0.012,-0.944,1.44
2024-09-23 11:25:01.008,161833.845,0.008,0.807,-0.59,-0.006,-0.011,0.005,0.001,0.035,0.005,0.013,-0.939,1.44
2024-09-23 11:25:01.128,161833.965,0.003,0.796,-0.605,-0.002,-0.011,0.001,0.078,0.015,0.002,0.005,-0.921,1.435
2024-09-23 11:25:01.247,161834.085,0.003,0.798,-0.603,-0.035,0.046,0.009,-0.097,0.156,0.091,0.005,-0.924,1.445
2024-09-23 11:25:01.367,161834.205,0.006,0.8,-0.6,0.001,0.008,0.005,0.087,0.053,-0.097,0.01,-0.927,1.438
2024-09-23 11:25:01.487,161834.324,0.004,0.803,-0.596,-0.001,0.0,0.001,-0.07,0.007,-0.008,0.006,-0.932,1.432
2024-09-23 11:25:01.607,161834.444,0.002,0.805,-0.593,-0.005,-0.025,-0.007,-0.067,-0.006,0.005,0.003,-0.936,1.429
2024-09-23 11:25:01.727,161834.564,-0.0,0.808,-0.589,-0.006,-0.014,-0.0,-0.058,0.022,-0.001,-0.0,-0.941,1.427
2024-09-23 11:25:01.846,161834.684,-0.0,0.811,-0.584,0.001,-0.012,-0.004,-0.108,0.008,0.003,-0.001,-0.947,1.426
2024-09-23 11:25:01.967,161834.804,-0.0,0.814,-0.581,-0.002,-0.016,0.0,-0.038,-0.018,-0.005,-0.001,-0.951,1.426
2024-09-23 11:25:02.086,161834.923,-0.002,0.812,-0.583,-0.002,-0.006,0.003,0.031,-0.007,-0.011,-0.004,-0.948,1.425
2024-09-23 11:25:02.206,161835.043,-0.005,0.806,-0.592,-0.004,-0.005,-0.002,0.073,-0.002,-0.008,-0.009,-0.938,1.423
2024-09-23 11:25:02.326,161835.163,-0.002,0.803,-0.595,0.018,-0.001,-0.026,0.088,0.034,0.09,-0.003,-0.933,1.429
2024-09-23 11:25:02.446,161835.283,0.001,0.799,-0.601,-0.009,-0.035,0.061,0.102,0.007,0.022,0.002,-0.926,1.434
2024-09-23 11:25:02.565,161835.403,0.009,0.803,-0.595,0.021,0.043,0.009,0.07,0.017,0.016,0.015,-0.933,1.444
2024-09-23 11:25:02.685,161835.522,0.008,0.805,-0.593,0.009,0.035,0.022,0.097,-0.012,-0.036,0.013,-0.936,1.441
2024-09-23 11:25:02.805,161835.642,0.008,0.802,-0.597,-0.004,-0.018,-0.003,0.003,0.037,0.005,0.013,-0.931,1.438
2024-09-23 11:25:02.924,161835.762,0.007,0.801,-0.599,0.003,-0.002,-0.001,0.032,-0.021,-0.032,0.012,-0.929,1.435
2024-09-23 11:25:03.044,161835.882,0.004,0.79,-0.614,0.0,0.001,-0.003,0.077,0.053,-0.035,0.006,-0.91,1.428
2024-09-23 11:25:03.165,161836.002,0.018,0.797,-0.604,-0.009,-0.022,-0.016,-0.13,0.134,0.112,0.03,-0.922,1.442
2024-09-23 11:25:03.284,161836.121,0.04,0.796,-0.604,0.007,0.024,0.021,0.078,0.032,-0.0,0.066,-0.92,1.465
2024-09-23 11:25:03.404,161836.241,0.026,0.798,-0.602,-0.016,-0.0,0.009,-0.003,-0.047,-0.021,0.043,-0.924,1.452
2024-09-23 11:25:03.524,161836.361,0.025,0.798,-0.602,0.008,0.001,0.008,0.074,-0.014,-0.022,0.041,-0.924,1.45
2024-09-23 11:25:03.644,161836.481,0.02,0.788,-0.615,-0.012,0.03,0.023,0.168,0.029,-0.009,0.033,-0.908,1.442
2024-09-23 11:25:03.763,161836.601,0.016,0.793,-0.609,-0.005,-0.036,0.009,-0.157,0.03,0.086,0.026,-0.916,1.444
2024-09-23 11:25:03.883,161836.72,0.027,0.798,-0.602,-0.008,-0.002,0.004,0.168,0.237,0.055,0.045,-0.924,1.453
2024-09-23 11:25:04.003,161836.84,0.031,0.795,-0.606,0.003,-0.019,-0.013,-0.116,-0.059,-0.031,0.051,-0.919,1.455
2024-09-23 11:25:04.123,161836.96,0.026,0.795,-0.607,0.009,0.01,0.013,0.198,-0.104,-0.057,0.042,-0.918,1.45
2024-09-23 11:25:04.241,161837.08,0.025,0.789,-0.614,0.002,-0.039,0.003,-0.11,0.049,0.046,0.041,-0.909,1.444
2024-09-23 11:25:04.362,161837.2,0.033,0.807,-0.589,0.027,0.052,0.031,0.104,-0.131,0.015,0.056,-0.94,1.46
2024-09-23 11:25:04.482,161837.319,0.019,0.79,-0.613,-0.06,0.016,-0.018,0.073,0.102,-0.072,0.031,-0.91,1.446
2024-09-23 11:25:04.602,161837.439,0.026,0.8,-0.6,0.008,0.026,0.001,-0.242,0.13,0.047,0.044,-0.927,1.45
2024-09-23 11:25:04.722,161837.559,0.021,0.796,-0.605,0.011,-0.0,0.001,0.285,-0.089,-0.111,0.035,-0.92,1.439
2024-09-23 11:25:04.842,161837.679,0.015,0.79,-0.613,0.005,0.002,-0.018,-0.09,-0.025,0.076,0.025,-0.911,1.432
2024-09-23 11:25:04.962,161837.799,0.02,0.8,-0.6,0.018,-0.037,-0.009,-0.081,-0.091,0.047,0.034,-0.927,1.445
2024-09-23 11:25:05.081,161837.918,0.014,0.792,-0.61,0.019,0.019,0.016,0.369,-0.207,-0.036,0.022,-0.914,1.446
2024-09-23 11:25:05.201,161838.038,0.017,0.778,-0.628,-0.014,-0.002,-0.016,-0.063,0.204,-0.016,0.027,-0.892,1.444
2024-09-23 11:25:05.321,161838.158,0.027,0.797,-0.603,-0.03,-0.062,-0.039,-1.207,0.29,0.13,0.045,-0.923,1.46
2024-09-23 11:25:05.440,161838.278,0.035,0.824,-0.565,-0.113,0.014,0.101,-0.175,-0.21,-0.192,0.063,-0.969,1.475
2024-09-23 11:25:05.560,161838.398,0.016,0.805,-0.593,0.107,-0.02,-0.004,0.647,-0.175,0.052,0.028,-0.936,1.451
2024-09-23 11:25:05.680,161838.517,-0.002,0.797,-0.604,-0.003,0.041,0.038,0.269,-0.144,0.014,-0.004,-0.922,1.441
2024-09-23 11:25:05.800,161838.637,-0.004,0.79,-0.613,-0.004,-0.011,0.002,-0.076,-0.028,-0.008,-0.007,-0.912,1.44
2024-09-23 11:25:05.920,161838.757,-0.005,0.795,-0.606,-0.001,-0.007,0.001,-0.004,0.02,-0.001,-0.008,-0.919,1.441
2024-09-23 11:25:06.039,161838.877,-0.009,0.784,-0.621,-0.0,0.008,0.01,0.121,0.02,-0.02,-0.014,-0.901,1.435
2024-09-23 11:25:06.159,161838.997,-0.004,0.794,-0.608,-0.02,-0.052,-0.013,-0.527,0.291,0.029,-0.007,-0.917,1.437
2024-09-23 11:25:06.279,161839.116,-0.003,0.796,-0.605,0.023,-0.001,-0.007,0.211,-0.089,-0.11,-0.004,-0.921,1.428
2024-09-23 11:25:06.399,161839.236,-0.008,0.785,-0.619,0.015,0.005,-0.002,-0.092,-0.003,0.072,-0.013,-0.903,1.423
2024-09-23 11:25:06.519,161839.356,-0.003,0.794,-0.608,-0.015,-0.006,0.016,-0.161,-0.06,0.05,-0.005,-0.918,1.43
2024-09-23 11:25:06.638,161839.476,0.0,0.798,-0.603,0.021,0.019,-0.003,0.148,0.028,-0.072,0.0,-0.924,1.43
2024-09-23 11:25:06.758,161839.595,-0.007,0.789,-0.614,-0.004,0.029,0.011,0.034,0.033,0.004,-0.011,-0.909,1.42
2024-09-23 11:25:06.878,161839.715,0.013,0.794,-0.608,-0.016,-0.031,-0.016,0.019,0.379,0.171,0.022,-0.918,1.441
2024-09-23 11:25:06.998,161839.835,0.025,0.793,-0.609,0.021,-0.058,-0.011,-0.218,-0.168,-0.03,0.041,-0.915,1.448
2024-09-23 11:25:07.118,161839.955,0.011,0.792,-0.61,-0.001,0.014,-0.003,0.253,-0.065,-0.07,0.018,-0.915,1.437
2024-09-23 11:25:07.238,161840.075,0.008,0.794,-0.608,-0.015,0.052,0.025,-0.167,0.161,0.052,0.012,-0.917,1.436
2024-09-23 11:25:07.358,161840.194,0.009,0.794,-0.608,0.008,0.031,0.018,0.399,-0.106,-0.081,0.014,-0.918,1.431
2024-09-23 11:25:07.477,161840.314,0.011,0.788,-0.615,0.002,-0.004,0.002,-0.294,-0.038,0.089,0.018,-0.908,1.428
2024-09-23 11:25:07.597,161840.434,0.01,0.794,-0.608,0.024,0.019,0.009,0.363,-0.23,-0.064,0.016,-0.917,1.44
2024-09-23 11:25:07.717,161840.554,0.009,0.783,-0.622,-0.011,-0.078,0.024,-0.088,0.092,0.065,0.015,-0.899,1.429
2024-09-23 11:25:07.837,161840.674,0.014,0.79,-0.612,0.025,0.048,0.023,0.248,-0.114,-0.08,0.023,-0.912,1.434
2024-09-23 11:25:07.956,161840.793,0.002,0.779,-0.627,0.012,-0.03,-0.022,0.047,0.024,0.074,0.004,-0.893,1.422
2024-09-23 11:25:08.076,161840.913,0.012,0.793,-0.609,0.028,-0.002,0.002,-0.005,-0.092,0.042,0.019,-0.915,1.44
2024-09-23 11:25:08.196,161841.033,0.001,0.773,-0.635,-0.005,-0.08,-0.028,0.253,0.027,-0.037,0.001,-0.883,1.436
2024-09-23 11:25:08.316,161841.153,0.01,0.767,-0.642,0.037,0.04,0.024,0.022,-0.038,0.039,0.016,-0.874,1.433
2024-09-23 11:25:08.435,161841.273,0.034,0.829,-0.558,-0.03,-0.029,-0.049,-1.247,0.254,0.242,0.06,-0.978,1.458
2024-09-23 11:25:08.556,161841.392,0.032,0.844,-0.536,0.043,0.059,0.048,0.562,-0.345,-0.104,0.06,-1.004,1.459
2024-09-23 11:25:08.675,161841.512,0.015,0.804,-0.595,0.058,-0.076,-0.063,0.235,-0.112,-0.067,0.024,-0.933,1.455
2024-09-23 11:25:08.795,161841.632,0.006,0.796,-0.605,0.0,-0.02,-0.007,-0.081,-0.101,0.011,0.01,-0.921,1.452
2024-09-23 11:25:08.915,161841.752,0.003,0.795,-0.607,0.005,-0.011,0.003,0.021,-0.069,-0.0,0.004,-0.918,1.452
2024-09-23 11:25:09.035,161841.872,-0.001,0.789,-0.614,-0.001,-0.027,-0.015,0.062,-0.004,-0.012,-0.001,-0.91,1.451
2024-09-23 11:25:09.154,161841.991,-0.005,0.772,-0.636,0.005,-0.132,-0.062,-0.126,-0.051,0.016,-0.009,-0.882,1.448
2024-09-23 11:25:09.274,161842.111,0.004,0.785,-0.619,0.025,0.033,0.012,0.14,0.069,-0.014,0.007,-0.903,1.448
2024-09-23 11:25:09.394,161842.231,-0.003,0.767,-0.642,-0.02,-0.038,-0.03,0.076,-0.031,-0.031,-0.004,-0.874,1.435
2024-09-23 11:25:09.513,161842.351,-0.005,0.773,-0.634,-0.009,-0.038,0.059,-0.051,0.041,0.033,-0.008,-0.884,1.435
2024-09-23 11:25:09.633,161842.471,0.0,0.776,-0.631,0.013,0.033,0.014,0.143,-0.021,-0.017,0.001,-0.888,1.439
2024-09-23 11:25:09.753,161842.59,-0.006,0.765,-0.643,0.016,-0.047,0.0,-0.148,0.096,0.123,-0.009,-0.872,1.431
2024-09-23 11:25:09.873,161842.71,0.024,0.78,-0.626,0.033,0.055,0.027,-0.004,0.033,0.019,0.038,-0.894,1.462
2024-09-23 11:25:09.993,161842.83,0.016,0.777,-0.629,0.001,0.022,0.009,0.108,-0.058,-0.021,0.026,-0.89,1.45
2024-09-23 11:25:10.113,161842.95,0.006,0.76,-0.65,0.019,-0.075,-0.04,0.031,-0.093,-0.046,0.009,-0.863,1.439
2024-09-23 11:25:10.232,161843.07,0.015,0.784,-0.621,0.015,-0.054,-0.028,-0.142,0.093,-0.013,0.024,-0.9,1.449
2024-09-23 11:25:10.353,161843.189,0.009,0.768,-0.64,-0.021,-0.075,-0.002,-0.014,0.182,-0.059,0.014,-0.876,1.433
2024-09-23 11:25:10.472,161843.309,0.019,0.779,-0.627,0.037,0.083,0.009,0.261,-0.183,0.006,0.031,-0.893,1.451
2024-09-23 11:25:10.591,161843.429,0.008,0.762,-0.647,-0.003,-0.059,0.054,0.042,0.12,0.008,0.013,-0.867,1.435
2024-09-23 11:25:10.712,161843.549,0.015,0.773,-0.634,0.026,0.074,0.046,0.284,-0.047,-0.075,0.024,-0.884,1.443
2024-09-23 11:25:10.832,161843.669,0.004,0.755,-0.655,0.005,0.015,-0.025,-0.079,-0.035,0.056,0.006,-0.856,1.429
2024-09-23 11:25:10.952,161843.788,0.013,0.77,-0.638,0.028,-0.012,0.01,0.174,-0.06,0.029,0.021,-0.879,1.448
2024-09-23 11:25:11.071,161843.908,0.006,0.747,-0.665,0.014,0.042,-0.001,0.346,0.033,-0.001,0.009,-0.843,1.447
2024-09-23 11:25:11.191,161844.028,0.014,0.752,-0.659,-0.008,-0.044,0.006,-0.701,0.053,-0.004,0.021,-0.851,1.449
2024-09-23 11:25:11.311,161844.148,0.019,0.794,-0.608,-0.079,-0.054,0.041,-0.112,-0.124,-0.076,0.032,-0.917,1.451
2024-09-23 11:25:11.430,161844.268,-0.003,0.794,-0.608,0.083,-0.043,-0.004,0.041,-0.169,0.068,-0.005,-0.917,1.433
2024-09-23 11:25:11.550,161844.387,-0.008,0.788,-0.616,-0.016,0.004,-0.009,0.099,-0.02,0.02,-0.013,-0.907,1.436
2024-09-23 11:25:11.670,161844.507,-0.01,0.773,-0.634,0.026,0.038,0.006,0.461,-0.012,-0.024,-0.016,-0.884,1.438
2024-09-23 11:25:11.790,161844.627,-0.004,0.778,-0.629,0.001,-0.005,0.003,-0.295,0.208,-0.019,-0.006,-0.891,1.444
2024-09-23 11:25:11.910,161844.747,-0.006,0.761,-0.648,-0.027,0.003,0.009,0.17,0.053,-0.106,-0.009,-0.865,1.428
2024-09-23 11:25:12.029,161844.867,-0.009,0.764,-0.645,-0.022,-0.099,0.008,-0.275,0.079,0.076,-0.014,-0.869,1.426
2024-09-23 11:25:12.150,161844.986,-0.002,0.768,-0.64,0.014,0.046,0.019,0.374,-0.105,-0.056,-0.003,-0.876,1.43
2024-09-23 11:25:12.268,161845.106,-0.002,0.761,-0.649,-0.036,-0.056,0.071,-0.109,0.134,0.19,-0.003,-0.864,1.43
2024-09-23 11:25:12.389,161845.226,0.022,0.765,-0.643,0.002,0.01,-0.004,-0.038,0.016,0.031,0.034,-0.871,1.45
2024-09-23 11:25:12.509,161845.346,0.008,0.744,-0.668,-0.026,0.022,0.018,0.079,-0.072,-0.109,0.012,-0.839,1.433
2024-09-23 11:25:12.629,161845.466,0.012,0.766,-0.643,0.006,-0.033,-0.035,-0.028,0.035,-0.014,0.019,-0.873,1.441
2024-09-23 11:25:12.748,161845.585,0.009,0.754,-0.657,-0.025,-0.12,0.043,-0.151,0.056,0.095,0.014,-0.854,1.428
2024-09-23 11:25:12.869,161845.705,0.008,0.747,-0.664,0.039,0.032,0.013,0.36,-0.003,-0.038,0.012,-0.844,1.44
2024-09-23 11:25:12.988,161845.825,0.012,0.757,-0.653,-0.023,-0.065,-0.006,-0.412,0.153,0.105,0.018,-0.859,1.439
2024-09-23 11:25:13.108,161845.945,0.005,0.746,-0.666,-0.002,-0.009,-0.033,0.033,-0.006,-0.197,0.007,-0.841,1.428
2024-09-23 11:25:13.227,161846.065,0.01,0.76,-0.65,-0.009,0.04,0.006,-0.31,0.105,0.114,0.015,-0.863,1.438
2024-09-23 11:25:13.347,161846.184,0.004,0.745,-0.667,-0.006,0.012,0.002,0.102,-0.041,-0.09,0.005,-0.84,1.441
2024-09-23 11:25:13.467,161846.304,0.008,0.738,-0.674,0.01,-0.025,-0.033,-0.097,-0.007,-0.049,0.012,-0.83,1.43
2024-09-23 11:25:13.587,161846.424,0.03,0.806,-0.591,-0.084,-0.222,-0.114,-2.56,0.855,0.003,0.05,-0.938,1.439
2024-09-23 11:25:13.707,161846.544,0.069,0.938,-0.34,0.077,-0.008,-0.055,-2.034,0.65,-0.198,0.199,-1.216,1.503
2024-09-23 11:25:13.826,161846.664,0.04,0.983,-0.177,0.06,0.082,0.005,-0.576,-0.11,-0.259,0.225,-1.388,1.505
2024-09-23 11:25:13.947,161846.783,0.02,0.983,-0.18,0.03,0.102,0.023,0.617,0.057,-0.128,0.111,-1.388,1.398
2024-09-23 11:25:14.066,161846.903,0.04,0.967,-0.253,0.063,0.128,0.038,1.509,-0.157,0.636,0.156,-1.312,1.444
2024-09-23 11:25:14.186,161847.023,0.08,0.918,-0.388,-0.043,-0.009,0.096,1.427,-0.879,0.287,0.203,-1.163,1.574
2024-09-23 11:25:14.306,161847.143,0.073,0.848,-0.525,-0.07,-0.136,0.047,-0.026,-0.179,-0.129,0.137,-1.012,1.568
2024-09-23 11:25:14.425,161847.263,0.059,0.789,-0.611,-0.019,0.026,0.008,0.129,0.012,-0.075,0.097,-0.91,1.53
2024-09-23 11:25:14.546,161847.382,0.046,0.782,-0.621,0.044,-0.149,0.013,-0.205,0.116,-0.22,0.075,-0.898,1.503
2024-09-23 11:25:14.666,161847.502,0.044,0.799,-0.6,-0.011,-0.043,-0.007,-0.245,0.156,0.064,0.074,-0.925,1.486
2024-09-23 11:25:14.785,161847.622,0.049,0.807,-0.588,-0.004,-0.038,-0.015,-0.208,0.102,0.018,0.083,-0.94,1.485
2024-09-23 11:25:14.904,161847.742,0.057,0.815,-0.577,0.012,-0.016,-0.007,-0.12,0.04,-0.073,0.098,-0.953,1.486
2024-09-23 11:25:15.025,161847.862,0.061,0.814,-0.578,0.009,-0.005,0.005,0.091,0.006,0.007,0.104,-0.951,1.483
2024-09-23 11:25:15.144,161847.981,0.068,0.813,-0.578,0.001,-0.024,-0.006,-0.114,0.04,0.058,0.117,-0.95,1.489
2024-09-23 11:25:15.264,161848.101,0.073,0.819,-0.57,-0.004,-0.009,-0.006,-0.227,0.112,0.057,0.128,-0.959,1.497
2024-09-23 11:25:15.384,161848.221,0.067,0.833,-0.549,0.002,-0.005,0.009,-0.07,-0.01,-0.074,0.122,-0.985,1.489
2024-09-23 11:25:15.504,161848.341,0.071,0.832,-0.55,0.004,-0.012,-0.001,-0.033,0.029,0.043,0.128,-0.983,1.493
2024-09-23 11:25:15.624,161848.461,0.074,0.836,-0.544,0.008,0.017,0.008,0.001,0.019,-0.077,0.136,-0.99,1.499
2024-09-23 11:25:15.743,161848.58,0.08,0.834,-0.545,0.001,-0.004,-0.004,-0.045,0.118,0.006,0.146,-0.987,1.503
2024-09-23 11:25:15.863,161848.7,0.096,0.841,-0.533,0.008,0.017,0.01,-0.117,0.064,0.055,0.178,-0.999,1.522
2024-09-23 11:25:15.983,161848.82,0.096,0.851,-0.516,-0.004,0.009,0.006,-0.135,0.015,0.053,0.184,-1.018,1.531
2024-09-23 11:25:16.103,161848.94,0.098,0.861,-0.499,-0.001,-0.006,0.003,-0.198,-0.019,0.037,0.194,-1.037,1.546
