Date,TimeStamp,GravityX,GravityY,GravityZ,UserAccelerationX,UserAccelerationY,UserAccelerationZ,RotationRateX,RotationRateY,RotationRateZ,AttitudeRoll,AttitudePitch,AttitudeYaw
2024-09-26 15:03:30.608,382369.96,0.016,0.022,-1.0,-0.007,0.016,0.007,0.054,-0.03,-0.02,0.016,-0.022,0.752
2024-09-26 15:03:30.722,382370.08,0.016,0.013,-1.0,-0.001,0.011,0.006,0.058,-0.021,0.026,0.016,-0.013,0.753
2024-09-26 15:03:30.841,382370.2,0.017,0.008,-1.0,-0.002,-0.019,0.003,0.026,-0.012,-0.032,0.017,-0.008,0.755
2024-09-26 15:03:30.961,382370.32,0.014,0.015,-1.0,0.005,0.021,0.005,-0.01,0.001,-0.014,0.014,-0.015,0.751
2024-09-26 15:03:31.081,382370.439,0.016,0.029,-0.999,0.0,-0.048,0.018,-0.41,0.007,-0.061,0.016,-0.029,0.75
2024-09-26 15:03:31.201,382370.559,0.007,0.087,-0.996,-0.021,0.102,-0.012,0.141,0.152,-0.034,0.007,-0.087,0.733
2024-09-26 15:03:31.321,382370.679,0.007,0.094,-0.996,-0.0,-0.03,0.01,-0.317,-0.028,0.015,0.007,-0.095,0.73
2024-09-26 15:03:31.441,382370.799,0.015,0.147,-0.989,0.021,-0.132,-0.013,-0.498,0.421,0.264,0.015,-0.148,0.734
2024-09-26 15:03:31.560,382370.918,0.1,0.467,-0.878,-0.087,-0.232,0.001,-4.875,1.096,0.021,0.114,-0.486,0.769
2024-09-26 15:03:31.679,382371.038,0.173,0.863,-0.475,0.014,-0.078,-0.069,-3.502,0.817,-0.436,0.349,-1.041,0.905
2024-09-26 15:03:31.800,382371.158,0.15,0.926,-0.347,0.005,-0.025,0.182,-0.775,0.337,-0.281,0.407,-1.183,0.897
2024-09-26 15:03:31.919,382371.278,0.123,0.954,-0.272,0.024,-0.007,0.052,-0.658,0.01,-0.296,0.424,-1.267,0.906
2024-09-26 15:03:32.040,382371.398,0.131,0.96,-0.246,-0.01,0.023,-0.016,-0.007,0.232,0.059,0.487,-1.288,0.945
2024-09-26 15:03:32.159,382371.517,0.124,0.954,-0.273,0.009,0.001,0.021,0.324,-0.235,-0.097,0.427,-1.266,0.889
2024-09-26 15:03:32.279,382371.637,0.103,0.95,-0.294,-0.009,-0.008,-0.009,-0.087,-0.0,-0.058,0.337,-1.254,0.812
2024-09-26 15:03:32.399,382371.757,0.104,0.955,-0.28,0.004,0.002,-0.009,-0.155,0.01,-0.034,0.356,-1.268,0.824
2024-09-26 15:03:32.519,382371.877,0.098,0.958,-0.271,-0.026,-0.073,0.037,0.141,0.201,-0.176,0.346,-1.278,0.803
2024-09-26 15:03:32.639,382371.997,0.069,0.956,-0.286,0.02,-0.001,-0.029,-0.381,-0.071,-0.333,0.235,-1.272,0.678
2024-09-26 15:03:32.758,382372.116,0.067,0.978,-0.198,0.014,-0.039,-0.036,-1.085,-0.013,0.036,0.326,-1.36,0.764
2024-09-26 15:03:32.878,382372.236,0.085,0.994,-0.065,-0.015,0.064,-0.098,-0.298,-0.097,0.197,0.918,-1.464,1.369
2024-09-26 15:03:32.998,382372.356,0.083,0.966,-0.245,0.058,-0.182,0.099,1.528,-0.777,-0.001,0.325,-1.309,0.81
2024-09-26 15:03:33.117,382372.476,0.073,0.918,-0.391,0.083,0.002,0.114,0.81,-0.708,0.157,0.185,-1.162,0.755
2024-09-26 15:03:33.238,382372.596,0.073,0.891,-0.448,-0.073,-0.103,0.033,0.117,0.224,-0.004,0.162,-1.099,0.757
2024-09-26 15:03:33.357,382372.715,0.123,0.894,-0.43,-0.017,0.063,-0.024,-0.649,0.42,0.257,0.278,-1.107,0.836
2024-09-26 15:03:33.477,382372.835,0.173,0.957,-0.232,0.037,0.178,0.016,-2.331,0.552,0.704,0.643,-1.277,1.191
2024-09-26 15:03:33.597,382372.955,0.245,0.969,-0.004,0.046,-0.181,0.004,-2.804,0.569,0.69,1.554,-1.323,2.083
2024-09-26 15:03:33.717,382373.075,0.305,0.933,0.19,-0.024,0.004,-0.113,-1.997,-0.325,0.283,2.128,-1.203,2.693
2024-09-26 15:03:33.836,382373.194,0.334,0.9,0.281,-0.074,0.04,0.05,-0.339,0.025,0.18,2.271,-1.119,2.859
2024-09-26 15:03:33.956,382373.314,0.339,0.887,0.314,-0.009,-0.073,0.098,-0.4,0.006,-0.141,2.317,-1.09,2.89
2024-09-26 15:03:34.076,382373.434,0.323,0.893,0.312,0.024,-0.022,0.068,0.003,0.017,-0.086,2.339,-1.105,2.911
2024-09-26 15:03:34.196,382373.554,0.316,0.895,0.314,-0.005,-0.028,0.038,-0.245,0.111,0.019,2.352,-1.109,2.917
2024-09-26 15:03:34.315,382373.674,0.304,0.886,0.352,-0.005,-0.05,0.039,-0.122,0.147,-0.084,2.429,-1.088,2.983
2024-09-26 15:03:34.435,382373.793,0.28,0.893,0.352,0.011,-0.038,0.051,0.001,0.292,-0.06,2.469,-1.104,2.991
2024-09-26 15:03:34.555,382373.913,0.234,0.932,0.278,-0.027,-0.005,0.084,2.312,0.293,-0.615,2.442,-1.199,2.916
2024-09-26 15:03:34.675,382374.033,0.182,0.983,-0.007,0.032,0.022,0.155,3.207,-0.489,-0.645,1.534,-1.387,2.015
2024-09-26 15:03:34.794,382374.153,0.117,0.965,-0.236,0.106,0.135,-0.112,1.798,-0.353,-0.183,0.46,-1.304,0.973
2024-09-26 15:03:34.914,382374.273,0.088,0.905,-0.416,-0.028,0.002,0.075,-0.121,-0.279,-0.039,0.209,-1.132,0.769
2024-09-26 15:03:35.034,382374.392,0.08,0.899,-0.431,-0.046,-0.126,0.035,0.039,-0.001,-0.019,0.183,-1.117,0.747
2024-09-26 15:03:35.154,382374.512,0.066,0.864,-0.5,-0.019,0.071,0.053,1.158,-0.239,-0.231,0.131,-1.043,0.706
2024-09-26 15:03:35.274,382374.632,0.063,0.818,-0.571,-0.005,-0.098,-0.041,-0.123,0.156,0.078,0.111,-0.959,0.668
2024-09-26 15:03:35.394,382374.752,0.064,0.849,-0.524,0.014,0.037,0.026,-0.227,-0.167,-0.091,0.121,-1.015,0.684
2024-09-26 15:03:35.514,382374.872,0.054,0.839,-0.541,-0.018,0.027,0.038,0.531,0.28,-0.013,0.1,-0.996,0.652
2024-09-26 15:03:35.633,382374.991,0.08,0.809,-0.582,0.001,0.054,0.022,0.57,0.192,0.064,0.136,-0.943,0.652
2024-09-26 15:03:35.753,382375.111,0.064,0.792,-0.607,-0.005,-0.03,-0.007,-0.095,-0.087,-0.142,0.105,-0.914,0.623
2024-09-26 15:03:35.873,382375.231,0.06,0.795,-0.603,-0.003,0.033,0.014,0.0,-0.035,0.023,0.099,-0.92,0.622
2024-09-26 15:03:35.992,382375.351,0.056,0.807,-0.588,0.006,0.011,0.012,-0.1,-0.08,-0.014,0.095,-0.939,0.624
2024-09-26 15:03:36.112,382375.47,0.047,0.813,-0.58,0.001,0.003,0.004,-0.192,-0.093,-0.079,0.082,-0.949,0.618
2024-09-26 15:03:36.232,382375.59,0.041,0.812,-0.582,-0.0,-0.0,0.016,0.1,-0.03,-0.024,0.07,-0.947,0.611
2024-09-26 15:03:36.352,382375.71,0.036,0.807,-0.59,-0.001,0.001,0.009,0.038,-0.024,-0.022,0.061,-0.939,0.604
2024-09-26 15:03:36.472,382375.83,0.035,0.803,-0.595,-0.004,0.016,0.016,0.136,0.003,-0.018,0.059,-0.933,0.602
2024-09-26 15:03:36.591,382375.95,0.032,0.79,-0.612,-0.005,0.011,0.017,0.132,0.033,0.018,0.052,-0.911,0.595
2024-09-26 15:03:36.711,382376.069,0.03,0.792,-0.61,0.001,-0.017,-0.003,-0.155,-0.017,-0.036,0.049,-0.913,0.592
2024-09-26 15:03:36.831,382376.189,0.026,0.798,-0.602,0.001,-0.002,-0.001,-0.005,-0.08,0.045,0.044,-0.924,0.593
2024-09-26 15:03:36.951,382376.309,0.025,0.797,-0.603,-0.014,-0.056,0.001,-0.103,0.018,0.035,0.041,-0.923,0.596
2024-09-26 15:03:37.070,382376.429,0.038,0.808,-0.588,-0.004,0.02,0.008,0.005,0.174,0.055,0.064,-0.941,0.609
2024-09-26 15:03:37.190,382376.549,0.038,0.796,-0.604,0.001,-0.004,0.008,0.105,-0.05,-0.059,0.063,-0.921,0.603
2024-09-26 15:03:37.310,382376.668,0.035,0.795,-0.606,-0.001,-0.011,0.007,0.03,-0.002,0.007,0.058,-0.918,0.599
2024-09-26 15:03:37.431,382376.788,0.034,0.793,-0.608,-0.005,-0.013,-0.001,-0.048,-0.001,-0.001,0.056,-0.916,0.597
2024-09-26 15:03:37.550,382376.908,0.034,0.794,-0.606,-0.005,0.002,0.007,-0.016,0.006,-0.002,0.056,-0.918,0.597
2024-09-26 15:03:37.670,382377.028,0.031,0.794,-0.608,-0.001,0.003,0.007,0.057,-0.04,-0.041,0.051,-0.917,0.593
2024-09-26 15:03:37.789,382377.148,0.028,0.783,-0.622,0.0,0.017,0.016,0.207,0.031,-0.022,0.045,-0.899,0.587
2024-09-26 15:03:37.909,382377.267,0.028,0.784,-0.62,-0.008,0.01,-0.002,0.011,-0.001,0.019,0.045,-0.901,0.584
2024-09-26 15:03:38.029,382377.387,0.026,0.783,-0.622,0.005,-0.046,0.008,-0.009,-0.035,-0.031,0.042,-0.899,0.585
2024-09-26 15:03:38.149,382377.507,0.025,0.786,-0.618,-0.007,0.008,0.007,-0.028,-0.01,-0.004,0.04,-0.904,0.586
2024-09-26 15:03:38.268,382377.627,0.024,0.787,-0.617,-0.0,0.003,0.008,-0.017,0.029,0.014,0.039,-0.905,0.585
2024-09-26 15:03:38.388,382377.746,0.04,0.822,-0.568,-0.025,-0.078,-0.058,-1.927,0.595,0.297,0.069,-0.965,0.609
2024-09-26 15:03:38.508,382377.866,0.046,0.936,-0.349,-0.074,0.24,0.035,-0.998,-0.215,-0.145,0.132,-1.211,0.666
2024-09-26 15:03:38.628,382377.986,0.026,0.907,-0.42,0.033,-0.169,0.154,1.191,-0.195,0.147,0.061,-1.137,0.626
2024-09-26 15:03:38.747,382378.106,0.035,0.854,-0.519,0.03,0.035,-0.054,0.586,-0.086,-0.016,0.067,-1.024,0.639
2024-09-26 15:03:38.867,382378.226,0.014,0.827,-0.562,-0.005,-0.013,0.01,0.294,-0.073,-0.059,0.025,-0.974,0.616
2024-09-26 15:03:38.987,382378.345,0.011,0.82,-0.573,0.007,0.03,0.023,0.222,-0.001,-0.02,0.019,-0.961,0.607
2024-09-26 15:03:39.107,382378.465,0.012,0.815,-0.58,-0.002,0.042,0.018,0.185,0.012,0.022,0.021,-0.952,0.61
2024-09-26 15:03:39.227,382378.585,0.016,0.802,-0.598,-0.007,0.036,0.021,0.262,0.073,-0.013,0.026,-0.93,0.609
2024-09-26 15:03:39.347,382378.705,0.014,0.789,-0.614,0.002,0.003,0.011,0.092,-0.016,-0.016,0.023,-0.91,0.602
2024-09-26 15:03:39.466,382378.825,0.01,0.79,-0.613,0.001,-0.002,-0.004,-0.145,-0.038,-0.01,0.016,-0.911,0.595
2024-09-26 15:03:39.586,382378.944,0.01,0.794,-0.608,-0.002,0.018,0.028,0.007,0.002,0.004,0.017,-0.917,0.597
2024-09-26 15:03:39.706,382379.064,0.011,0.793,-0.609,-0.005,-0.031,0.001,-0.088,-0.052,0.011,0.017,-0.916,0.601
2024-09-26 15:03:39.826,382379.184,0.011,0.791,-0.612,-0.004,-0.043,0.003,0.052,0.037,0.024,0.019,-0.912,0.604
2024-09-26 15:03:39.945,382379.304,0.031,0.804,-0.594,-0.045,0.008,-0.073,-0.662,0.235,0.127,0.053,-0.934,0.623
2024-09-26 15:03:40.065,382379.424,0.046,0.806,-0.59,0.018,-0.02,0.002,0.138,-0.054,-0.077,0.078,-0.938,0.634
2024-09-26 15:03:40.185,382379.543,0.033,0.796,-0.605,-0.008,-0.019,-0.012,-0.033,-0.025,-0.017,0.054,-0.92,0.616
2024-09-26 15:03:40.305,382379.663,0.031,0.792,-0.609,0.004,-0.004,0.007,0.091,-0.03,-0.032,0.051,-0.915,0.614
2024-09-26 15:03:40.425,382379.783,0.028,0.786,-0.617,0.008,0.007,0.011,0.192,-0.037,-0.046,0.045,-0.905,0.61
2024-09-26 15:03:40.544,382379.903,0.027,0.779,-0.626,-0.003,0.02,0.018,0.206,0.046,0.0,0.043,-0.893,0.606
2024-09-26 15:03:40.664,382380.022,0.027,0.767,-0.641,-0.004,-0.011,-0.001,0.055,-0.053,-0.013,0.041,-0.874,0.603
2024-09-26 15:03:40.784,382380.142,0.022,0.765,-0.644,-0.01,-0.029,-0.019,-0.076,0.027,-0.023,0.035,-0.87,0.599
2024-09-26 15:03:40.904,382380.262,0.023,0.763,-0.646,0.002,-0.041,-0.01,-0.038,0.013,0.029,0.035,-0.868,0.596
2024-09-26 15:03:41.024,382380.382,0.026,0.761,-0.648,0.02,0.03,-0.004,-0.048,0.001,0.01,0.04,-0.865,0.598
2024-09-26 15:03:41.144,382380.502,0.024,0.763,-0.646,-0.002,-0.021,-0.0,-0.058,-0.01,-0.019,0.037,-0.867,0.594
2024-09-26 15:03:41.263,382380.621,0.053,0.806,-0.589,-0.096,-0.318,-0.121,-2.662,1.307,0.579,0.089,-0.938,0.63
2024-09-26 15:03:41.383,382380.741,0.058,0.917,-0.395,-0.044,0.169,0.123,0.383,-0.475,-0.233,0.146,-1.16,0.671
2024-09-26 15:03:41.503,382380.861,0.036,0.878,-0.477,0.088,-0.019,0.023,1.262,-0.203,0.057,0.075,-1.072,0.639
2024-09-26 15:03:41.623,382380.981,0.022,0.828,-0.561,-0.021,-0.044,0.006,0.294,-0.058,-0.117,0.04,-0.975,0.617
2024-09-26 15:03:41.742,382381.101,0.015,0.817,-0.577,0.006,-0.038,-0.018,-0.026,-0.026,-0.021,0.026,-0.956,0.606
2024-09-26 15:03:41.862,382381.22,0.013,0.812,-0.583,-0.006,-0.015,0.004,0.061,0.054,0.03,0.022,-0.948,0.602
2024-09-26 15:03:41.982,382381.34,0.012,0.802,-0.597,0.001,-0.013,-0.007,0.193,-0.018,-0.045,0.021,-0.931,0.599
2024-09-26 15:03:42.102,382381.46,0.012,0.788,-0.615,0.006,0.016,0.01,0.222,0.009,-0.037,0.019,-0.908,0.594
2024-09-26 15:03:42.222,382381.58,0.01,0.788,-0.616,0.002,0.015,-0.0,-0.025,-0.002,0.007,0.015,-0.907,0.591
2024-09-26 15:03:42.341,382381.7,0.008,0.791,-0.612,-0.004,-0.002,0.0,-0.03,-0.016,0.034,0.013,-0.912,0.595
2024-09-26 15:03:42.461,382381.819,0.008,0.792,-0.61,-0.001,-0.012,-0.003,0.005,-0.06,0.053,0.013,-0.914,0.6
2024-09-26 15:03:42.581,382381.939,0.007,0.792,-0.61,-0.001,-0.014,0.004,-0.072,-0.04,-0.009,0.011,-0.914,0.601
2024-09-26 15:03:42.701,382382.059,0.015,0.8,-0.6,-0.018,-0.016,-0.029,-0.226,0.215,0.063,0.025,-0.927,0.609
2024-09-26 15:03:42.821,382382.179,0.034,0.8,-0.599,0.006,0.008,0.017,0.212,0.045,0.046,0.057,-0.927,0.623
2024-09-26 15:03:42.941,382382.298,0.024,0.794,-0.607,-0.0,-0.011,-0.003,-0.001,-0.077,-0.06,0.04,-0.918,0.612
2024-09-26 15:03:43.060,382382.418,0.021,0.795,-0.606,0.007,0.005,0.011,0.079,-0.021,-0.039,0.035,-0.919,0.609
2024-09-26 15:03:43.180,382382.538,0.016,0.792,-0.61,-0.001,-0.007,-0.003,0.045,-0.029,-0.013,0.027,-0.914,0.604
2024-09-26 15:03:43.300,382382.658,0.014,0.788,-0.616,0.0,-0.017,-0.002,0.051,-0.015,-0.006,0.022,-0.907,0.601
2024-09-26 15:03:43.420,382382.778,0.012,0.779,-0.627,-0.004,0.002,-0.001,0.099,0.015,-0.018,0.02,-0.893,0.598
2024-09-26 15:03:43.539,382382.897,0.011,0.77,-0.638,0.0,-0.019,0.001,0.035,0.012,-0.013,0.017,-0.879,0.593
2024-09-26 15:03:43.659,382383.017,0.011,0.767,-0.642,0.01,-0.029,0.002,-0.002,0.064,0.055,0.017,-0.874,0.591
2024-09-26 15:03:43.779,382383.137,0.017,0.763,-0.647,0.015,-0.066,-0.002,-0.005,0.084,0.066,0.026,-0.868,0.594
2024-09-26 15:03:43.899,382383.257,0.02,0.762,-0.648,0.004,0.004,0.002,0.053,-0.012,-0.012,0.031,-0.866,0.597
2024-09-26 15:03:44.019,382383.377,0.029,0.779,-0.627,-0.027,-0.176,-0.058,-1.154,0.316,0.203,0.046,-0.893,0.61
2024-09-26 15:03:44.138,382383.496,0.063,0.844,-0.532,-0.078,0.154,0.057,0.051,-0.007,0.038,0.119,-1.005,0.663
2024-09-26 15:03:44.258,382383.616,0.045,0.828,-0.559,-0.016,0.003,0.031,0.217,-0.076,-0.026,0.08,-0.975,0.639
2024-09-26 15:03:44.378,382383.736,0.034,0.814,-0.58,0.004,-0.01,0.037,0.321,-0.099,0.081,0.059,-0.95,0.63
2024-09-26 15:03:44.497,382383.856,0.029,0.801,-0.598,-0.001,0.002,-0.001,0.119,-0.013,0.008,0.048,-0.928,0.625
2024-09-26 15:03:44.617,382383.976,0.029,0.795,-0.606,0.005,-0.0,0.006,0.132,-0.037,-0.044,0.047,-0.919,0.625
2024-09-26 15:03:44.737,382384.095,0.023,0.786,-0.618,-0.001,0.001,-0.004,0.094,-0.031,-0.015,0.037,-0.904,0.617
2024-09-26 15:03:44.857,382384.215,0.017,0.786,-0.618,-0.002,0.006,-0.0,-0.006,-0.02,-0.027,0.028,-0.904,0.61
2024-09-26 15:03:44.977,382384.335,0.016,0.787,-0.617,-0.019,-0.013,-0.008,0.044,0.015,0.03,0.026,-0.905,0.611
2024-09-26 15:03:45.097,382384.455,0.014,0.787,-0.616,-0.004,0.002,-0.006,0.004,0.004,0.004,0.023,-0.906,0.613
2024-09-26 15:03:45.216,382384.574,0.014,0.786,-0.618,-0.002,0.032,0.004,0.015,-0.026,0.009,0.022,-0.904,0.615
2024-09-26 15:03:45.335,382384.694,0.013,0.786,-0.618,0.003,-0.018,-0.004,-0.02,-0.03,-0.014,0.021,-0.904,0.616
2024-09-26 15:03:45.456,382384.814,0.013,0.781,-0.624,0.003,-0.025,-0.005,0.054,0.029,-0.006,0.021,-0.897,0.615
2024-09-26 15:03:45.576,382384.934,0.024,0.789,-0.614,-0.028,0.026,-0.032,-0.337,0.187,0.08,0.039,-0.909,0.627
2024-09-26 15:03:45.695,382385.054,0.039,0.8,-0.599,0.017,0.02,0.009,0.126,-0.034,-0.016,0.065,-0.928,0.635
2024-09-26 15:03:45.815,382385.173,0.031,0.792,-0.609,-0.002,-0.011,0.003,0.06,-0.032,-0.04,0.051,-0.915,0.623
2024-09-26 15:03:45.935,382385.293,0.029,0.788,-0.615,-0.001,0.005,0.007,0.068,0.008,-0.022,0.048,-0.907,0.618
2024-09-26 15:03:46.055,382385.413,0.028,0.784,-0.62,0.002,-0.007,0.001,0.059,0.01,-0.007,0.045,-0.902,0.616
2024-09-26 15:03:46.174,382385.533,0.026,0.781,-0.624,0.002,0.013,0.007,0.09,-0.011,-0.02,0.041,-0.897,0.612
2024-09-26 15:03:46.294,382385.653,0.026,0.777,-0.629,-0.01,-0.02,-0.008,-0.051,0.028,0.006,0.041,-0.89,0.61
2024-09-26 15:03:46.414,382385.772,0.024,0.776,-0.63,0.001,-0.019,-0.011,-0.079,-0.049,-0.012,0.038,-0.888,0.609
2024-09-26 15:03:46.534,382385.892,0.021,0.773,-0.634,0.005,-0.003,-0.002,0.078,-0.071,-0.028,0.033,-0.883,0.606
2024-09-26 15:03:46.654,382386.012,0.017,0.767,-0.641,0.004,-0.015,0.0,0.105,-0.029,-0.008,0.027,-0.875,0.603
2024-09-26 15:03:46.774,382386.132,0.017,0.765,-0.644,-0.008,-0.013,-0.006,0.005,0.034,-0.013,0.026,-0.87,0.6
2024-09-26 15:03:46.893,382386.252,0.016,0.765,-0.643,0.009,-0.027,-0.0,-0.037,0.001,0.006,0.025,-0.872,0.598
2024-09-26 15:03:47.013,382386.371,0.017,0.769,-0.638,0.001,-0.016,-0.008,-0.028,0.024,-0.016,0.027,-0.878,0.598
2024-09-26 15:03:47.133,382386.491,0.016,0.769,-0.639,-0.005,-0.016,0.001,-0.109,-0.021,0.038,0.026,-0.878,0.597
2024-09-26 15:03:47.253,382386.611,0.054,0.842,-0.537,-0.001,0.111,0.024,-0.587,0.149,0.104,0.101,-1.001,0.646
2024-09-26 15:03:47.372,382386.731,0.039,0.828,-0.559,-0.036,0.009,0.018,0.5,-0.171,-0.013,0.069,-0.976,0.634
2024-09-26 15:03:47.492,382386.85,0.023,0.803,-0.595,0.135,0.016,-0.024,0.353,-0.132,-0.076,0.039,-0.933,0.619
2024-09-26 15:03:47.612,382386.97,0.015,0.792,-0.61,-0.017,0.001,-0.008,0.031,0.052,0.054,0.025,-0.914,0.609
2024-09-26 15:03:47.732,382387.09,0.017,0.787,-0.616,-0.006,-0.02,-0.007,-0.02,0.005,0.012,0.027,-0.906,0.608
2024-09-26 15:03:47.852,382387.21,0.018,0.783,-0.622,0.005,0.013,0.007,0.136,-0.012,-0.029,0.029,-0.899,0.607
2024-09-26 15:03:47.971,382387.33,0.014,0.769,-0.639,-0.018,0.01,-0.008,0.117,0.035,-0.028,0.022,-0.878,0.599
2024-09-26 15:03:48.091,382387.449,0.012,0.768,-0.64,0.013,-0.021,0.001,-0.126,-0.024,0.0,0.019,-0.876,0.594
2024-09-26 15:03:48.211,382387.569,0.011,0.772,-0.636,0.012,0.02,0.007,0.001,-0.103,0.024,0.018,-0.882,0.598
2024-09-26 15:03:48.331,382387.689,0.01,0.772,-0.635,-0.004,0.013,0.004,0.02,-0.062,0.038,0.015,-0.883,0.603
2024-09-26 15:03:48.451,382387.809,0.01,0.774,-0.633,-0.012,-0.024,-0.007,-0.132,0.123,0.059,0.016,-0.885,0.607
2024-09-26 15:03:48.571,382387.929,0.03,0.796,-0.604,0.002,0.048,0.028,0.018,0.132,0.039,0.05,-0.921,0.625
2024-09-26 15:03:48.690,382388.048,0.046,0.794,-0.606,0.02,0.033,0.033,0.333,-0.088,-0.067,0.075,-0.917,0.633
2024-09-26 15:03:48.810,382388.168,0.03,0.788,-0.615,-0.002,0.022,0.007,0.051,-0.067,-0.031,0.048,-0.908,0.617
2024-09-26 15:03:48.930,382388.288,0.024,0.786,-0.618,-0.001,-0.007,0.004,0.025,-0.038,-0.011,0.039,-0.904,0.613
2024-09-26 15:03:49.050,382388.408,0.02,0.783,-0.622,-0.004,-0.002,0.003,0.019,-0.023,-0.019,0.032,-0.9,0.608
2024-09-26 15:03:49.169,382388.528,0.017,0.78,-0.625,-0.009,-0.012,0.004,0.026,-0.012,-0.01,0.027,-0.895,0.604
2024-09-26 15:03:49.289,382388.647,0.014,0.775,-0.631,0.0,-0.011,0.002,0.08,0.006,-0.014,0.023,-0.887,0.6
2024-09-26 15:03:49.409,382388.767,0.013,0.772,-0.635,-0.006,-0.011,-0.011,-0.057,0.006,-0.023,0.02,-0.883,0.596
2024-09-26 15:03:49.529,382388.887,0.015,0.776,-0.631,0.009,-0.02,-0.002,-0.022,0.024,-0.003,0.024,-0.888,0.596
2024-09-26 15:03:49.648,382389.007,0.016,0.776,-0.63,-0.003,-0.021,-0.0,0.0,0.009,0.0,0.025,-0.889,0.596
2024-09-26 15:03:49.768,382389.126,0.014,0.777,-0.629,-0.012,-0.003,0.019,0.05,0.01,0.007,0.023,-0.89,0.598
2024-09-26 15:03:49.888,382389.246,0.018,0.775,-0.631,-0.013,-0.031,0.013,-0.249,0.046,0.186,0.028,-0.887,0.603
2024-09-26 15:03:50.008,382389.366,0.044,0.808,-0.587,0.018,0.072,0.04,0.265,-0.194,-0.131,0.075,-0.941,0.637
2024-09-26 15:03:50.128,382389.486,0.034,0.791,-0.611,0.022,-0.001,-0.018,0.266,-0.263,-0.037,0.056,-0.912,0.638
2024-09-26 15:03:50.247,382389.606,0.018,0.785,-0.619,0.0,0.003,0.011,0.027,-0.087,-0.133,0.03,-0.903,0.624
2024-09-26 15:03:50.368,382389.725,0.019,0.777,-0.629,0.005,0.008,0.001,0.162,0.024,-0.004,0.03,-0.89,0.621
2024-09-26 15:03:50.487,382389.845,0.013,0.763,-0.646,-0.004,0.014,0.014,0.183,0.011,-0.015,0.02,-0.868,0.612
2024-09-26 15:03:50.607,382389.965,0.012,0.759,-0.651,-0.0,-0.005,-0.004,-0.068,-0.02,-0.012,0.018,-0.862,0.609
2024-09-26 15:03:50.727,382390.085,0.012,0.762,-0.648,0.006,0.012,0.006,0.012,-0.015,-0.069,0.019,-0.866,0.612
2024-09-26 15:03:50.846,382390.205,0.012,0.761,-0.649,-0.008,-0.005,-0.004,-0.013,-0.061,0.016,0.018,-0.865,0.614
2024-09-26 15:03:50.966,382390.324,0.011,0.763,-0.647,-0.021,-0.009,0.004,-0.021,-0.045,0.018,0.017,-0.867,0.619
2024-09-26 15:03:51.086,382390.444,0.014,0.761,-0.648,-0.006,-0.007,0.005,-0.09,0.042,0.052,0.021,-0.865,0.622
2024-09-26 15:03:51.206,382390.564,0.029,0.778,-0.627,0.007,0.036,0.03,0.125,0.178,0.011,0.046,-0.892,0.634
2024-09-26 15:03:51.326,382390.684,0.031,0.775,-0.631,0.001,-0.063,0.004,0.047,-0.05,-0.028,0.049,-0.887,0.629
2024-09-26 15:03:51.446,382390.804,0.025,0.774,-0.632,-0.011,-0.006,0.001,-0.029,0.006,-0.003,0.04,-0.886,0.622
2024-09-26 15:03:51.565,382390.923,0.021,0.773,-0.635,0.001,-0.017,-0.009,-0.017,-0.041,-0.037,0.033,-0.883,0.617
2024-09-26 15:03:51.685,382391.043,0.014,0.767,-0.641,0.008,0.008,-0.001,0.133,-0.08,-0.043,0.022,-0.875,0.61
2024-09-26 15:03:51.805,382391.163,0.011,0.763,-0.646,0.001,0.001,0.005,0.071,-0.015,-0.02,0.017,-0.868,0.607
2024-09-26 15:03:51.924,382391.283,0.008,0.759,-0.651,0.002,0.002,0.001,0.056,0.013,-0.013,0.012,-0.861,0.603
2024-09-26 15:03:52.044,382391.403,0.012,0.759,-0.651,0.012,0.005,0.003,-0.048,0.025,-0.076,0.018,-0.862,0.604
2024-09-26 15:03:52.164,382391.522,0.014,0.762,-0.647,-0.023,-0.015,-0.005,-0.042,0.018,-0.003,0.021,-0.867,0.606
2024-09-26 15:03:52.285,382391.642,0.012,0.763,-0.647,0.01,0.02,-0.002,0.023,-0.022,-0.009,0.019,-0.868,0.606
2024-09-26 15:03:52.404,382391.762,0.013,0.763,-0.646,0.009,-0.004,0.002,-0.016,0.037,0.079,0.02,-0.868,0.605
2024-09-26 15:03:52.523,382391.882,0.013,0.762,-0.648,-0.005,-0.037,-0.004,-0.272,0.1,0.046,0.021,-0.866,0.607
2024-09-26 15:03:52.643,382392.001,0.051,0.847,-0.529,0.044,0.03,0.001,-1.071,0.334,-0.043,0.096,-1.011,0.639
2024-09-26 15:03:52.763,382392.121,0.056,0.886,-0.461,0.014,0.012,-0.017,-0.446,0.128,-0.052,0.121,-1.088,0.64
2024-09-26 15:03:52.883,382392.241,0.05,0.901,-0.431,0.053,-0.024,-0.055,-0.201,0.013,-0.14,0.114,-1.121,0.634
2024-09-26 15:03:53.003,382392.361,0.035,0.904,-0.425,0.046,-0.001,-0.011,0.066,0.025,-0.107,0.082,-1.13,0.591
2024-09-26 15:03:53.122,382392.481,0.028,0.895,-0.445,-0.019,0.012,0.035,0.155,-0.04,0.004,0.063,-1.108,0.578
2024-09-26 15:03:53.242,382392.6,0.032,0.872,-0.489,-0.048,0.003,0.029,0.762,-0.045,0.112,0.065,-1.059,0.587
2024-09-26 15:03:53.362,382392.72,0.038,0.828,-0.56,-0.066,-0.02,0.059,0.704,0.041,0.029,0.067,-0.975,0.589
2024-09-26 15:03:53.482,382392.84,0.044,0.766,-0.641,0.016,-0.092,0.008,0.248,0.144,-0.121,0.069,-0.873,0.583
2024-09-26 15:03:53.602,382392.96,0.047,0.772,-0.634,0.004,-0.015,-0.003,-0.004,0.032,-0.007,0.074,-0.882,0.569
2024-09-26 15:03:53.721,382393.08,0.038,0.788,-0.615,-0.012,-0.019,-0.006,-0.287,0.089,-0.061,0.061,-0.907,0.552
2024-09-26 15:03:53.841,382393.199,0.035,0.796,-0.605,-0.006,-0.001,0.004,-0.032,-0.081,-0.034,0.057,-0.92,0.547
2024-09-26 15:03:53.961,382393.319,0.029,0.798,-0.602,-0.004,0.0,0.005,0.008,-0.048,0.019,0.047,-0.924,0.543
2024-09-26 15:03:54.081,382393.439,0.027,0.798,-0.603,-0.007,-0.005,0.006,0.019,0.004,0.029,0.045,-0.923,0.542
2024-09-26 15:03:54.201,382393.559,0.022,0.791,-0.612,-0.008,0.011,0.008,0.074,-0.001,-0.021,0.036,-0.912,0.536
2024-09-26 15:03:54.320,382393.679,0.021,0.79,-0.613,-0.002,-0.066,-0.008,-0.115,0.031,-0.003,0.033,-0.911,0.535
2024-09-26 15:03:54.440,382393.798,0.027,0.795,-0.606,0.005,0.003,0.002,0.017,0.03,0.025,0.045,-0.918,0.541
2024-09-26 15:03:54.560,382393.918,0.025,0.791,-0.611,-0.004,-0.008,0.0,0.061,-0.013,0.006,0.041,-0.913,0.539
2024-09-26 15:03:54.680,382394.038,0.023,0.787,-0.616,0.001,0.006,0.008,0.12,-0.055,-0.045,0.037,-0.907,0.534
2024-09-26 15:03:54.800,382394.158,0.025,0.784,-0.62,-0.008,-0.008,0.006,-0.019,0.083,0.027,0.04,-0.901,0.532
2024-09-26 15:03:54.919,382394.277,0.021,0.787,-0.617,-0.006,-0.001,-0.005,-0.09,0.006,-0.002,0.034,-0.906,0.529
2024-09-26 15:03:55.039,382394.397,0.027,0.787,-0.617,-0.015,-0.013,0.003,-0.058,0.046,0.08,0.043,-0.905,0.536
2024-09-26 15:03:55.159,382394.517,0.027,0.788,-0.615,-0.003,-0.012,-0.003,0.013,-0.009,-0.025,0.044,-0.907,0.537
2024-09-26 15:03:55.279,382394.637,0.025,0.785,-0.619,0.004,-0.0,0.004,0.114,-0.042,-0.042,0.04,-0.903,0.533
2024-09-26 15:03:55.399,382394.757,0.027,0.783,-0.621,0.0,-0.036,0.012,-0.07,0.02,0.092,0.043,-0.9,0.534
2024-09-26 15:03:55.518,382394.876,0.028,0.789,-0.614,0.002,0.022,0.011,0.083,-0.048,-0.006,0.045,-0.909,0.54
2024-09-26 15:03:55.638,382394.996,0.024,0.781,-0.623,-0.023,0.006,-0.008,0.081,0.038,0.002,0.039,-0.897,0.536
2024-09-26 15:03:55.758,382395.116,0.032,0.778,-0.628,0.007,0.001,0.011,-0.05,-0.027,0.04,0.051,-0.891,0.541
2024-09-26 15:03:55.878,382395.236,0.037,0.788,-0.615,-0.008,0.024,0.021,0.072,0.019,0.07,0.06,-0.907,0.557
2024-09-26 15:03:55.997,382395.356,0.038,0.787,-0.616,-0.011,-0.003,0.01,0.045,0.025,0.029,0.062,-0.906,0.558
2024-09-26 15:03:56.118,382395.475,0.04,0.783,-0.621,-0.006,-0.013,-0.009,-0.042,0.004,0.023,0.065,-0.899,0.561
2024-09-26 15:03:56.237,382395.595,0.04,0.784,-0.62,0.005,0.002,-0.011,-0.023,-0.021,-0.018,0.065,-0.901,0.562
2024-09-26 15:03:56.357,382395.715,0.039,0.783,-0.621,-0.003,-0.007,-0.0,-0.005,0.009,-0.005,0.062,-0.899,0.561
2024-09-26 15:03:56.476,382395.835,0.038,0.782,-0.622,-0.001,-0.001,0.006,0.065,0.009,-0.016,0.062,-0.897,0.56
2024-09-26 15:03:56.597,382395.955,0.037,0.777,-0.628,-0.011,-0.01,-0.005,-0.008,0.021,-0.009,0.059,-0.89,0.555
2024-09-26 15:03:56.716,382396.074,0.034,0.78,-0.625,-0.004,0.021,0.007,-0.018,-0.016,-0.035,0.054,-0.894,0.553
2024-09-26 15:03:56.836,382396.194,0.036,0.778,-0.628,-0.008,0.015,0.009,0.013,0.016,-0.01,0.058,-0.891,0.552
2024-09-26 15:03:56.956,382396.314,0.031,0.781,-0.624,-0.003,-0.005,-0.005,-0.176,-0.073,0.016,0.05,-0.896,0.549
2024-09-26 15:03:57.075,382396.434,0.038,0.786,-0.617,-0.004,-0.046,-0.011,-0.194,0.159,0.017,0.062,-0.905,0.557
2024-09-26 15:03:57.196,382396.553,0.041,0.788,-0.614,0.002,-0.025,-0.007,-0.036,-0.003,-0.037,0.067,-0.908,0.557
2024-09-26 15:03:57.315,382396.673,0.039,0.787,-0.615,0.0,-0.013,0.003,0.039,-0.026,-0.002,0.064,-0.907,0.553
2024-09-26 15:03:57.435,382396.793,0.035,0.781,-0.624,-0.001,-0.008,0.001,0.041,-0.054,-0.033,0.056,-0.896,0.548
2024-09-26 15:03:57.555,382396.913,0.034,0.772,-0.635,-0.02,0.012,0.014,0.168,0.187,-0.009,0.053,-0.882,0.542
2024-09-26 15:03:57.674,382397.033,0.046,0.803,-0.594,-0.009,0.008,-0.001,-0.6,0.113,0.135,0.078,-0.933,0.565
2024-09-26 15:03:57.794,382397.152,0.064,0.809,-0.584,-0.22,-0.043,0.028,0.326,-0.096,-0.058,0.109,-0.942,0.591
2024-09-26 15:03:57.914,382397.272,0.051,0.797,-0.602,0.075,0.051,0.03,0.28,-0.13,0.031,0.085,-0.921,0.581
2024-09-26 15:03:58.034,382397.392,0.035,0.787,-0.615,-0.02,-0.018,-0.019,-0.051,0.013,0.041,0.057,-0.907,0.565
2024-09-26 15:03:58.153,382397.512,0.036,0.789,-0.614,0.001,-0.003,0.005,0.043,-0.013,-0.015,0.058,-0.909,0.571
2024-09-26 15:03:58.273,382397.632,0.036,0.787,-0.616,0.005,-0.03,-0.007,-0.022,-0.057,-0.009,0.058,-0.906,0.574
2024-09-26 15:03:58.393,382397.751,0.032,0.782,-0.623,0.0,0.001,0.003,0.094,-0.022,-0.017,0.052,-0.898,0.57
2024-09-26 15:03:58.513,382397.871,0.029,0.774,-0.632,-0.004,0.004,-0.002,0.018,-0.0,-0.021,0.046,-0.885,0.563
2024-09-26 15:03:58.633,382397.991,0.03,0.776,-0.63,-0.009,-0.007,0.006,-0.02,0.089,0.044,0.047,-0.888,0.562
2024-09-26 15:03:58.753,382398.111,0.032,0.777,-0.629,0.001,-0.009,-0.006,0.048,-0.012,-0.027,0.052,-0.89,0.562
2024-09-26 15:03:58.872,382398.231,0.027,0.771,-0.636,0.001,-0.065,-0.013,-0.046,0.016,-0.041,0.043,-0.881,0.555
2024-09-26 15:03:58.992,382398.35,0.028,0.77,-0.638,0.009,-0.021,-0.009,-0.027,-0.036,-0.049,0.044,-0.878,0.552
2024-09-26 15:03:59.112,382398.47,0.025,0.774,-0.633,-0.01,-0.029,0.01,0.01,0.035,0.009,0.039,-0.885,0.55
2024-09-26 15:03:59.232,382398.59,0.029,0.775,-0.631,0.007,-0.0,0.004,-0.004,-0.042,-0.015,0.047,-0.887,0.556
2024-09-26 15:03:59.351,382398.71,0.024,0.77,-0.637,0.001,0.027,0.012,0.112,0.047,-0.017,0.038,-0.879,0.55
2024-09-26 15:03:59.471,382398.829,0.03,0.773,-0.634,0.001,-0.032,-0.014,-0.174,0.031,0.064,0.047,-0.884,0.556
2024-09-26 15:03:59.591,382398.949,0.026,0.77,-0.637,-0.002,0.017,0.012,0.017,0.002,-0.019,0.04,-0.879,0.553
2024-09-26 15:03:59.711,382399.069,0.039,0.773,-0.633,-0.045,0.021,0.03,-0.052,0.349,0.393,0.062,-0.884,0.574
2024-09-26 15:03:59.831,382399.189,0.068,0.772,-0.632,-0.046,0.042,0.026,0.049,-0.098,-0.048,0.108,-0.882,0.607
2024-09-26 15:03:59.951,382399.309,0.047,0.779,-0.625,-0.024,0.007,0.001,-0.063,-0.013,0.023,0.074,-0.893,0.583
2024-09-26 15:04:00.070,382399.428,0.047,0.776,-0.629,0.005,0.007,0.011,0.175,-0.016,-0.058,0.074,-0.889,0.583
2024-09-26 15:04:00.190,382399.548,0.039,0.771,-0.635,0.001,-0.0,0.01,0.014,-0.003,-0.014,0.062,-0.881,0.576
2024-09-26 15:04:00.310,382399.668,0.043,0.766,-0.642,0.01,0.051,0.023,0.093,-0.025,-0.019,0.068,-0.872,0.572
2024-09-26 15:04:00.430,382399.788,0.042,0.773,-0.633,-0.007,0.051,0.018,0.032,0.092,0.021,0.066,-0.883,0.575
2024-09-26 15:04:00.549,382399.908,0.045,0.774,-0.632,-0.004,0.014,0.008,0.034,0.007,-0.013,0.071,-0.885,0.572
2024-09-26 15:04:00.669,382400.027,0.043,0.775,-0.63,-0.002,0.007,0.009,0.034,0.016,-0.019,0.068,-0.887,0.568
2024-09-26 15:04:00.789,382400.147,0.04,0.772,-0.634,0.004,0.014,0.007,0.196,-0.084,-0.043,0.063,-0.883,0.563
2024-09-26 15:04:00.909,382400.267,0.044,0.775,-0.63,0.003,-0.058,-0.032,-0.471,0.109,0.098,0.069,-0.887,0.562
2024-09-26 15:04:01.029,382400.387,0.051,0.809,-0.585,-0.06,0.047,0.014,0.139,-0.031,0.023,0.088,-0.943,0.578
2024-09-26 15:04:01.148,382400.507,0.044,0.803,-0.594,0.037,0.004,0.004,0.233,-0.143,-0.004,0.074,-0.933,0.574
2024-09-26 15:04:01.268,382400.626,0.036,0.788,-0.614,0.022,-0.023,0.01,0.157,-0.096,-0.022,0.059,-0.908,0.57
2024-09-26 15:04:01.388,382400.746,0.036,0.786,-0.617,0.014,-0.015,-0.004,-0.022,-0.065,0.014,0.058,-0.905,0.576
2024-09-26 15:04:01.508,382400.866,0.032,0.785,-0.619,-0.007,-0.003,0.003,0.049,0.012,0.012,0.051,-0.903,0.572
2024-09-26 15:04:01.628,382400.986,0.033,0.783,-0.621,-0.008,-0.006,0.001,0.034,0.014,0.023,0.053,-0.9,0.572
2024-09-26 15:04:01.747,382401.106,0.029,0.773,-0.634,-0.001,-0.069,-0.017,0.002,-0.053,-0.011,0.046,-0.883,0.565
2024-09-26 15:04:01.867,382401.225,0.029,0.775,-0.631,-0.017,-0.018,0.006,-0.025,0.104,0.029,0.045,-0.887,0.564
2024-09-26 15:04:01.987,382401.345,0.03,0.779,-0.627,-0.001,0.002,0.0,0.027,-0.027,-0.025,0.047,-0.893,0.562
2024-09-26 15:04:02.107,382401.465,0.025,0.771,-0.637,0.0,0.027,0.016,0.1,0.02,-0.025,0.039,-0.88,0.556
2024-09-26 15:04:02.226,382401.585,0.027,0.766,-0.642,-0.009,0.005,0.007,0.091,0.065,-0.023,0.042,-0.873,0.552
2024-09-26 15:04:02.346,382401.704,0.024,0.769,-0.638,0.011,-0.009,-0.005,-0.082,-0.008,0.028,0.037,-0.878,0.549
2024-09-26 15:04:02.466,382401.824,0.029,0.77,-0.637,-0.01,0.024,0.013,0.056,0.051,0.052,0.046,-0.879,0.554
2024-09-26 15:04:02.586,382401.944,0.03,0.774,-0.632,0.001,0.017,0.016,0.073,-0.03,-0.018,0.048,-0.885,0.558
2024-09-26 15:04:02.706,382402.064,0.025,0.768,-0.64,-0.031,-0.003,-0.03,-0.05,-0.006,-0.034,0.039,-0.875,0.552
2024-09-26 15:04:02.825,382402.184,0.035,0.773,-0.633,-0.015,0.023,-0.015,-0.178,0.051,0.04,0.055,-0.884,0.562
2024-09-26 15:04:02.945,382402.303,0.027,0.768,-0.639,0.001,0.016,0.016,0.264,-0.076,-0.036,0.042,-0.876,0.559
2024-09-26 15:04:03.065,382402.423,0.034,0.767,-0.641,-0.011,0.001,-0.009,-0.031,0.017,0.133,0.053,-0.874,0.564
2024-09-26 15:04:03.185,382402.543,0.062,0.763,-0.643,-0.001,0.05,0.011,0.129,0.047,0.153,0.096,-0.868,0.597
2024-09-26 15:04:03.304,382402.663,0.053,0.771,-0.635,-0.007,-0.001,0.006,-0.119,-0.056,-0.005,0.084,-0.881,0.592
2024-09-26 15:04:03.425,382402.783,0.051,0.773,-0.632,0.001,-0.008,0.004,0.028,-0.0,-0.032,0.08,-0.884,0.591
2024-09-26 15:04:03.545,382402.902,0.046,0.765,-0.642,-0.032,0.003,-0.041,-0.133,-0.1,-0.049,0.071,-0.871,0.581
2024-09-26 15:04:03.664,382403.022,0.044,0.767,-0.64,-0.007,0.001,-0.004,0.002,0.036,-0.0,0.069,-0.874,0.578
2024-09-26 15:04:03.784,382403.142,0.039,0.77,-0.637,0.006,-0.023,-0.018,-0.215,-0.136,-0.004,0.061,-0.879,0.575
2024-09-26 15:04:03.903,382403.262,0.042,0.776,-0.63,-0.005,-0.035,-0.008,-0.133,0.072,0.009,0.066,-0.888,0.581
2024-09-26 15:04:04.023,382403.382,0.047,0.779,-0.625,-0.0,-0.009,-0.0,-0.031,0.041,-0.029,0.074,-0.893,0.581
2024-09-26 15:04:04.143,382403.501,0.042,0.775,-0.631,0.003,0.003,0.003,0.185,-0.074,-0.085,0.066,-0.886,0.574
2024-09-26 15:04:04.263,382403.621,0.042,0.765,-0.643,-0.014,-0.054,0.009,-0.065,0.043,0.063,0.065,-0.871,0.563
2024-09-26 15:04:04.383,382403.741,0.072,0.781,-0.62,-0.031,0.057,-0.006,0.065,0.31,0.375,0.116,-0.896,0.604
2024-09-26 15:04:04.502,382403.861,0.074,0.776,-0.627,-0.012,-0.012,-0.007,-0.079,-0.028,-0.079,0.117,-0.888,0.6
2024-09-26 15:04:04.622,382403.98,0.055,0.783,-0.62,0.063,-0.05,-0.017,-0.076,-0.215,-0.189,0.088,-0.899,0.582
2024-09-26 15:04:04.742,382404.1,0.045,0.781,-0.622,0.002,-0.009,0.001,0.027,-0.029,-0.006,0.072,-0.897,0.575
2024-09-26 15:04:04.862,382404.22,0.041,0.776,-0.629,-0.003,-0.01,0.001,0.07,-0.024,-0.02,0.066,-0.889,0.569
2024-09-26 15:04:04.982,382404.34,0.035,0.768,-0.639,0.002,-0.071,-0.012,0.042,-0.006,0.002,0.055,-0.876,0.561
2024-09-26 15:04:05.103,382404.46,0.035,0.771,-0.636,-0.005,-0.015,0.047,0.082,0.031,-0.011,0.054,-0.88,0.558
2024-09-26 15:04:05.220,382404.579,0.04,0.774,-0.631,0.006,0.012,0.001,-0.012,-0.004,-0.008,0.063,-0.886,0.564
2024-09-26 15:04:05.341,382404.699,0.037,0.768,-0.639,-0.002,0.02,0.009,0.228,-0.038,-0.048,0.057,-0.876,0.558
2024-09-26 15:04:05.461,382404.819,0.038,0.764,-0.644,-0.014,-0.009,0.006,0.051,0.091,0.031,0.059,-0.87,0.554
2024-09-26 15:04:05.581,382404.939,0.035,0.766,-0.642,-0.011,0.012,0.012,-0.064,-0.002,-0.01,0.055,-0.872,0.551
2024-09-26 15:04:05.700,382405.059,0.038,0.765,-0.643,-0.008,-0.018,-0.001,-0.031,-0.008,0.063,0.058,-0.871,0.553
2024-09-26 15:04:05.820,382405.178,0.038,0.771,-0.636,0.006,0.007,0.013,0.03,-0.046,-0.027,0.06,-0.88,0.557
2024-09-26 15:04:05.940,382405.298,0.033,0.764,-0.644,-0.035,-0.011,-0.047,-0.147,-0.003,-0.046,0.051,-0.87,0.551
2024-09-26 15:04:06.060,382405.418,0.039,0.773,-0.633,-0.017,0.012,-0.007,-0.216,0.055,0.041,0.062,-0.883,0.56
2024-09-26 15:04:06.180,382405.538,0.033,0.768,-0.639,0.007,0.008,0.008,0.205,-0.156,-0.056,0.052,-0.876,0.558
2024-09-26 15:04:06.300,382405.658,0.036,0.767,-0.641,-0.012,-0.021,-0.001,-0.131,-0.024,0.087,0.055,-0.874,0.558
2024-09-26 15:04:06.419,382405.777,0.038,0.778,-0.627,0.002,0.034,0.019,0.11,-0.058,-0.023,0.061,-0.891,0.568
2024-09-26 15:04:06.539,382405.897,0.03,0.771,-0.636,-0.014,-0.007,-0.0,-0.043,0.014,-0.01,0.047,-0.88,0.559
2024-09-26 15:04:06.659,382406.017,0.034,0.768,-0.64,0.007,-0.003,-0.001,0.021,-0.022,-0.03,0.053,-0.875,0.559
2024-09-26 15:04:06.779,382406.137,0.031,0.777,-0.628,-0.018,-0.056,-0.008,-0.125,0.092,0.052,0.049,-0.89,0.562
2024-09-26 15:04:06.898,382406.257,0.039,0.783,-0.621,0.013,0.024,-0.001,0.156,0.037,-0.023,0.063,-0.899,0.564
2024-09-26 15:04:07.018,382406.376,0.031,0.769,-0.639,-0.048,-0.006,-0.038,-0.025,0.051,-0.071,0.048,-0.877,0.548
2024-09-26 15:04:07.138,382406.496,0.049,0.777,-0.627,-0.049,0.008,-0.03,-0.328,0.274,0.284,0.079,-0.89,0.567
2024-09-26 15:04:07.258,382406.616,0.059,0.781,-0.622,-0.064,0.182,0.047,0.084,-0.191,-0.11,0.095,-0.896,0.585
2024-09-26 15:04:07.378,382406.736,0.048,0.775,-0.63,0.088,-0.022,-0.011,-0.003,0.005,-0.012,0.076,-0.887,0.576
2024-09-26 15:04:07.497,382406.855,0.036,0.779,-0.626,-0.018,0.006,-0.002,0.012,0.007,0.04,0.058,-0.892,0.566
2024-09-26 15:04:07.619,382406.975,0.036,0.778,-0.627,-0.005,-0.026,-0.006,-0.059,-0.012,-0.031,0.058,-0.891,0.567
2024-09-26 15:04:07.737,382407.095,0.033,0.777,-0.628,-0.002,-0.015,0.003,-0.035,-0.027,-0.022,0.053,-0.89,0.564
2024-09-26 15:04:07.857,382407.215,0.029,0.768,-0.64,-0.0,-0.003,0.008,0.179,0.014,-0.042,0.045,-0.875,0.556
2024-09-26 15:04:07.977,382407.335,0.026,0.767,-0.641,0.001,-0.055,-0.018,-0.148,0.054,-0.039,0.04,-0.875,0.551
2024-09-26 15:04:08.096,382407.454,0.031,0.77,-0.637,-0.012,-0.027,-0.023,-0.228,0.052,0.009,0.049,-0.88,0.553
2024-09-26 15:04:08.216,382407.574,0.027,0.766,-0.642,0.007,-0.004,-0.005,0.168,-0.078,-0.054,0.042,-0.873,0.548
2024-09-26 15:04:08.336,382407.694,0.028,0.762,-0.647,-0.002,-0.007,-0.007,0.082,0.033,0.03,0.044,-0.866,0.545
2024-09-26 15:04:08.456,382407.814,0.026,0.765,-0.643,-0.0,-0.007,0.031,-0.046,0.026,0.03,0.04,-0.872,0.544
2024-09-26 15:04:08.576,382407.934,0.03,0.768,-0.639,0.003,-0.033,-0.013,-0.139,-0.017,0.017,0.047,-0.876,0.55
2024-09-26 15:04:08.695,382408.053,0.027,0.769,-0.638,-0.005,-0.001,0.007,0.029,0.002,-0.003,0.043,-0.878,0.549
2024-09-26 15:04:08.815,382408.173,0.029,0.771,-0.636,-0.0,0.006,0.006,0.016,0.015,-0.005,0.046,-0.88,0.55
2024-09-26 15:04:08.935,382408.293,0.025,0.764,-0.645,0.002,-0.0,0.009,0.116,-0.011,-0.015,0.039,-0.87,0.545
2024-09-26 15:04:09.055,382408.413,0.027,0.766,-0.642,-0.024,-0.039,0.004,-0.163,0.041,0.084,0.043,-0.873,0.547
2024-09-26 15:04:09.175,382408.533,0.031,0.771,-0.637,0.01,0.019,0.007,0.211,-0.11,-0.05,0.049,-0.88,0.554
2024-09-26 15:04:09.294,382408.652,0.028,0.764,-0.645,-0.01,-0.0,0.021,-0.007,0.055,0.093,0.043,-0.87,0.552
2024-09-26 15:04:09.414,382408.772,0.054,0.764,-0.643,-0.0,0.013,0.011,0.129,0.132,0.161,0.084,-0.869,0.58
2024-09-26 15:04:09.534,382408.892,0.055,0.759,-0.649,0.041,-0.068,-0.011,-0.171,-0.015,-0.024,0.085,-0.862,0.581
2024-09-26 15:04:09.653,382409.012,0.047,0.763,-0.645,0.001,0.014,0.005,0.143,-0.083,-0.061,0.073,-0.868,0.573
2024-09-26 15:04:09.774,382409.131,0.04,0.76,-0.648,-0.016,0.029,0.037,0.102,0.108,-0.002,0.062,-0.864,0.566
2024-09-26 15:04:09.893,382409.251,0.042,0.758,-0.651,0.008,-0.018,-0.009,-0.062,-0.12,-0.046,0.065,-0.861,0.564
2024-09-26 15:04:10.013,382409.371,0.037,0.766,-0.641,-0.02,0.001,0.012,0.087,0.117,0.065,0.057,-0.873,0.564
2024-09-26 15:04:10.133,382409.491,0.045,0.771,-0.635,0.009,0.05,0.025,0.163,0.019,-0.01,0.071,-0.88,0.566
2024-09-26 15:04:10.252,382409.611,0.039,0.759,-0.65,-0.059,0.019,-0.031,-0.01,0.125,-0.04,0.06,-0.861,0.555
2024-09-26 15:04:10.372,382409.73,0.064,0.772,-0.632,-0.016,0.021,0.012,-0.039,0.193,0.273,0.101,-0.883,0.583
2024-09-26 15:04:10.492,382409.85,0.059,0.77,-0.635,-0.029,-0.006,0.003,0.055,-0.182,-0.123,0.093,-0.879,0.577
2024-09-26 15:04:10.612,382409.97,0.043,0.765,-0.642,0.14,-0.035,-0.03,-0.1,-0.098,-0.056,0.066,-0.871,0.562
2024-09-26 15:04:10.732,382410.09,0.032,0.774,-0.633,-0.016,0.016,-0.0,0.027,0.008,0.035,0.05,-0.885,0.55
2024-09-26 15:04:10.851,382410.21,0.031,0.774,-0.633,-0.006,0.026,0.017,0.153,-0.017,-0.034,0.049,-0.884,0.549
2024-09-26 15:04:10.972,382410.329,0.024,0.762,-0.647,0.024,-0.099,-0.028,-0.078,-0.026,-0.028,0.037,-0.867,0.539
2024-09-26 15:04:11.091,382410.449,0.028,0.77,-0.638,-0.015,0.032,-0.008,-0.014,0.103,-0.016,0.044,-0.879,0.538
2024-09-26 15:04:11.211,382410.569,0.024,0.764,-0.645,0.01,0.025,0.012,0.27,-0.091,-0.05,0.038,-0.869,0.532
2024-09-26 15:04:11.330,382410.689,0.023,0.763,-0.646,-0.003,0.021,0.019,0.067,0.05,-0.013,0.036,-0.868,0.527
2024-09-26 15:04:11.451,382410.809,0.024,0.768,-0.64,-0.023,-0.04,0.024,-0.06,0.026,0.01,0.038,-0.876,0.53
2024-09-26 15:04:11.570,382410.928,0.031,0.772,-0.635,0.008,0.008,-0.004,-0.018,-0.013,0.022,0.049,-0.882,0.539
2024-09-26 15:04:11.690,382411.048,0.025,0.763,-0.646,-0.002,0.019,0.01,-0.002,0.002,-0.009,0.039,-0.867,0.534
2024-09-26 15:04:11.810,382411.168,0.031,0.769,-0.638,-0.018,0.002,-0.032,-0.219,0.034,0.072,0.049,-0.877,0.541
2024-09-26 15:04:11.930,382411.288,0.027,0.763,-0.646,-0.038,-0.019,-0.041,-0.116,0.024,-0.057,0.041,-0.867,0.537
2024-09-26 15:04:12.049,382411.408,0.034,0.77,-0.637,-0.004,-0.014,-0.035,-0.316,0.051,0.076,0.054,-0.879,0.545
2024-09-26 15:04:12.169,382411.527,0.029,0.763,-0.645,0.013,0.018,0.0,0.265,-0.004,-0.085,0.045,-0.868,0.54
2024-09-26 15:04:12.289,382411.647,0.029,0.765,-0.644,-0.014,-0.003,-0.005,-0.054,0.068,-0.008,0.044,-0.871,0.539
2024-09-26 15:04:12.409,382411.767,0.028,0.768,-0.639,-0.001,-0.019,0.023,-0.185,-0.016,0.046,0.044,-0.876,0.538
2024-09-26 15:04:12.528,382411.887,0.035,0.777,-0.629,0.003,-0.008,-0.011,-0.117,0.087,-0.03,0.056,-0.889,0.544
2024-09-26 15:04:12.648,382412.006,0.036,0.776,-0.63,-0.003,-0.011,0.003,0.001,0.018,-0.011,0.057,-0.888,0.541
2024-09-26 15:04:12.768,382412.126,0.032,0.768,-0.639,0.007,0.015,0.015,0.303,-0.107,-0.057,0.05,-0.876,0.533
2024-09-26 15:04:12.888,382412.246,0.035,0.773,-0.633,-0.03,0.027,-0.017,-0.563,0.205,0.079,0.056,-0.884,0.53
2024-09-26 15:04:13.008,382412.366,0.061,0.842,-0.537,-0.003,-0.044,-0.041,-1.376,0.407,0.109,0.114,-1.0,0.555
2024-09-26 15:04:13.127,382412.486,0.085,0.92,-0.383,0.039,0.017,-0.027,-1.184,0.264,-0.078,0.218,-1.168,0.616
2024-09-26 15:04:13.247,382412.605,0.086,0.939,-0.333,0.027,0.022,0.064,-0.13,-0.098,-0.043,0.254,-1.22,0.646
2024-09-26 15:04:13.367,382412.725,0.076,0.938,-0.338,0.056,-0.019,0.008,-0.004,-0.148,-0.033,0.222,-1.218,0.621
2024-09-26 15:04:13.487,382412.845,0.071,0.936,-0.344,0.005,0.047,0.06,0.199,-0.26,0.112,0.203,-1.211,0.629
2024-09-26 15:04:13.607,382412.965,0.079,0.928,-0.365,-0.033,0.015,0.041,0.234,-0.308,0.252,0.214,-1.188,0.678
2024-09-26 15:04:13.726,382413.085,0.088,0.911,-0.403,-0.066,-0.037,0.026,0.277,-0.322,0.134,0.214,-1.146,0.718
2024-09-26 15:04:13.846,382413.204,0.079,0.891,-0.447,-0.053,-0.065,-0.038,0.621,-0.244,0.002,0.174,-1.1,0.716
2024-09-26 15:04:13.966,382413.324,0.06,0.833,-0.551,-0.006,0.003,-0.006,1.549,-0.289,-0.204,0.109,-0.984,0.666
2024-09-26 15:04:14.086,382413.444,0.041,0.779,-0.626,0.025,0.061,-0.007,0.0,0.276,0.009,0.065,-0.893,0.63
2024-09-26 15:04:14.206,382413.564,0.037,0.787,-0.616,0.003,-0.036,0.004,0.01,0.136,-0.084,0.06,-0.906,0.609
2024-09-26 15:04:14.325,382413.684,0.043,0.78,-0.625,-0.013,-0.064,-0.025,-0.291,0.141,-0.047,0.069,-0.894,0.604
2024-09-26 15:04:14.445,382413.803,0.046,0.79,-0.611,-0.018,-0.005,0.017,0.022,0.116,0.004,0.075,-0.911,0.597
2024-09-26 15:04:14.565,382413.923,0.048,0.796,-0.604,-0.018,-0.02,-0.02,-0.239,0.006,0.026,0.08,-0.92,0.597
2024-09-26 15:04:14.685,382414.043,0.043,0.798,-0.601,-0.012,-0.035,-0.011,-0.071,-0.042,0.002,0.071,-0.925,0.593
2024-09-26 15:04:14.805,382414.163,0.036,0.785,-0.619,-0.004,-0.01,-0.016,0.077,0.033,-0.04,0.058,-0.902,0.583
2024-09-26 15:04:14.924,382414.282,0.039,0.807,-0.589,-0.035,-0.03,-0.047,-0.646,0.096,0.132,0.066,-0.939,0.595
2024-09-26 15:04:15.044,382414.402,0.044,0.805,-0.592,0.003,-0.024,-0.008,0.068,-0.03,-0.046,0.074,-0.935,0.601
2024-09-26 15:04:15.164,382414.522,0.045,0.796,-0.603,-0.004,0.0,0.004,0.11,0.015,0.013,0.074,-0.921,0.6
2024-09-26 15:04:15.284,382414.642,0.042,0.793,-0.607,-0.009,0.003,-0.001,0.016,-0.025,0.003,0.069,-0.916,0.597
2024-09-26 15:04:15.403,382414.762,0.043,0.784,-0.62,-0.01,-0.023,0.001,0.066,0.212,0.001,0.069,-0.9,0.592
2024-09-26 15:04:15.523,382414.881,0.047,0.778,-0.626,-0.005,-0.01,-0.004,0.001,-0.041,-0.023,0.075,-0.892,0.59
2024-09-26 15:04:15.643,382415.001,0.044,0.789,-0.613,-0.027,0.029,0.014,0.047,0.17,0.069,0.072,-0.909,0.598
2024-09-26 15:04:15.763,382415.121,0.061,0.796,-0.602,-0.01,0.011,-0.007,-0.021,0.019,0.114,0.101,-0.921,0.616
2024-09-26 15:04:15.882,382415.241,0.055,0.794,-0.606,-0.009,0.005,0.007,0.108,-0.051,-0.052,0.09,-0.917,0.613
2024-09-26 15:04:16.002,382415.361,0.053,0.792,-0.608,0.001,-0.002,0.002,0.04,-0.04,-0.034,0.087,-0.915,0.612
2024-09-26 15:04:16.122,382415.48,0.05,0.792,-0.609,0.001,-0.008,-0.004,0.01,-0.048,-0.013,0.082,-0.914,0.611
2024-09-26 15:04:16.242,382415.6,0.049,0.787,-0.615,-0.011,0.015,0.006,0.046,0.088,-0.017,0.079,-0.906,0.607
2024-09-26 15:04:16.362,382415.72,0.048,0.782,-0.621,-0.001,-0.009,-0.001,0.04,-0.008,-0.041,0.077,-0.898,0.603
2024-09-26 15:04:16.482,382415.84,0.048,0.777,-0.627,-0.017,-0.003,0.0,0.089,0.058,-0.003,0.076,-0.89,0.6
2024-09-26 15:04:16.602,382415.96,0.051,0.775,-0.63,-0.009,0.008,0.004,-0.046,0.093,0.021,0.08,-0.886,0.598
2024-09-26 15:04:16.721,382416.079,0.055,0.774,-0.63,0.001,0.022,0.01,0.024,0.05,-0.047,0.087,-0.886,0.597
2024-09-26 15:04:16.841,382416.199,0.056,0.783,-0.619,-0.004,-0.062,-0.02,-0.787,-0.019,0.06,0.091,-0.9,0.602
2024-09-26 15:04:16.961,382416.319,0.088,0.874,-0.477,-0.012,0.105,0.032,-0.722,-0.181,-0.141,0.182,-1.064,0.675
2024-09-26 15:04:17.081,382416.439,0.062,0.86,-0.507,0.021,-0.002,0.071,0.62,-0.105,0.022,0.121,-1.035,0.634
2024-09-26 15:04:17.200,382416.559,0.061,0.806,-0.589,0.109,0.017,-0.017,0.632,-0.166,0.069,0.103,-0.938,0.633
2024-09-26 15:04:17.320,382416.678,0.057,0.8,-0.597,-0.016,0.054,0.01,0.047,0.054,0.025,0.095,-0.928,0.631
2024-09-26 15:04:17.440,382416.798,0.057,0.802,-0.594,-0.004,0.013,0.01,0.076,0.038,-0.015,0.096,-0.931,0.628
2024-09-26 15:04:17.560,382416.918,0.059,0.8,-0.597,-0.006,0.0,0.006,0.026,0.028,0.003,0.098,-0.928,0.628
2024-09-26 15:04:17.680,382417.038,0.058,0.8,-0.598,-0.007,-0.018,-0.005,-0.012,-0.006,-0.014,0.097,-0.926,0.625
2024-09-26 15:04:17.799,382417.157,0.054,0.789,-0.612,-0.028,-0.002,-0.04,-0.011,0.018,-0.013,0.088,-0.909,0.617
2024-09-26 15:04:17.919,382417.277,0.058,0.799,-0.599,-0.017,-0.025,-0.024,-0.427,0.061,0.077,0.097,-0.925,0.625
2024-09-26 15:04:18.039,382417.397,0.057,0.802,-0.595,-0.004,-0.023,-0.01,0.005,-0.032,-0.022,0.096,-0.93,0.628
2024-09-26 15:04:18.159,382417.517,0.052,0.795,-0.605,0.006,0.005,0.005,0.16,-0.013,-0.037,0.085,-0.918,0.622
2024-09-26 15:04:18.278,382417.637,0.055,0.791,-0.609,0.003,-0.012,0.002,0.039,0.078,-0.017,0.091,-0.913,0.618
2024-09-26 15:04:18.399,382417.756,0.047,0.795,-0.605,0.004,-0.013,-0.016,-0.214,-0.207,0.051,0.078,-0.919,0.615
2024-09-26 15:04:18.520,382417.876,0.05,0.807,-0.588,-0.005,-0.034,-0.01,-0.143,0.066,0.03,0.085,-0.94,0.625
2024-09-26 15:04:18.638,382417.996,0.051,0.808,-0.587,0.005,-0.011,-0.008,0.003,-0.049,-0.001,0.087,-0.941,0.626
2024-09-26 15:04:18.758,382418.116,0.049,0.807,-0.589,-0.004,-0.009,-0.001,-0.002,-0.039,0.006,0.083,-0.939,0.627
2024-09-26 15:04:18.877,382418.236,0.044,0.799,-0.6,0.0,0.012,0.009,0.054,-0.025,-0.025,0.073,-0.926,0.621
2024-09-26 15:04:18.997,382418.355,0.048,0.793,-0.608,0.007,-0.007,0.004,0.104,0.003,-0.036,0.079,-0.915,0.619
2024-09-26 15:04:19.117,382418.475,0.045,0.789,-0.613,-0.004,-0.006,0.001,0.023,0.01,-0.027,0.073,-0.909,0.612
2024-09-26 15:04:19.237,382418.595,0.047,0.787,-0.615,-0.009,0.038,0.001,0.053,0.053,-0.016,0.076,-0.906,0.611
2024-09-26 15:04:19.357,382418.715,0.047,0.788,-0.614,-0.002,-0.053,-0.006,-0.06,0.005,0.017,0.077,-0.908,0.609
2024-09-26 15:04:19.476,382418.835,0.047,0.789,-0.613,-0.001,0.024,0.012,0.04,0.004,-0.024,0.076,-0.909,0.607
2024-09-26 15:04:19.596,382418.954,0.046,0.788,-0.614,0.005,-0.006,0.002,0.038,-0.003,-0.015,0.075,-0.908,0.605
2024-09-26 15:04:19.716,382419.074,0.047,0.786,-0.616,-0.002,-0.002,-0.003,0.004,0.031,-0.007,0.076,-0.905,0.603
2024-09-26 15:04:19.836,382419.194,0.047,0.785,-0.618,-0.004,-0.003,0.007,-0.01,-0.017,0.013,0.075,-0.903,0.601
2024-09-26 15:04:19.956,382419.314,0.082,0.868,-0.49,-0.007,-0.084,-0.082,-2.093,0.275,0.249,0.166,-1.051,0.667
2024-09-26 15:04:20.075,382419.433,0.078,0.872,-0.484,-0.052,0.01,0.064,0.754,-0.261,-0.091,0.16,-1.059,0.668
2024-09-26 15:04:20.195,382419.553,0.063,0.826,-0.56,0.063,-0.001,-0.0,0.494,-0.265,-0.061,0.112,-0.972,0.648
2024-09-26 15:04:20.315,382419.673,0.047,0.813,-0.58,-0.008,-0.011,0.005,0.123,-0.038,0.004,0.082,-0.95,0.633
2024-09-26 15:04:20.435,382419.793,0.045,0.809,-0.586,-0.014,-0.015,-0.004,0.032,0.065,-0.011,0.077,-0.942,0.626
2024-09-26 15:04:20.555,382419.913,0.043,0.806,-0.591,-0.001,0.006,0.001,0.138,-0.032,-0.041,0.072,-0.937,0.622
2024-09-26 15:04:20.674,382420.032,0.037,0.792,-0.609,-0.015,0.052,0.011,0.118,0.087,-0.049,0.061,-0.915,0.608
2024-09-26 15:04:20.794,382420.152,0.045,0.8,-0.599,-0.009,-0.021,-0.017,-0.434,0.075,0.146,0.075,-0.927,0.619
2024-09-26 15:04:20.914,382420.272,0.044,0.808,-0.587,-0.001,-0.026,-0.003,-0.043,-0.067,-0.026,0.075,-0.941,0.624
2024-09-26 15:04:21.034,382420.392,0.041,0.806,-0.59,0.002,-0.012,-0.01,0.025,-0.071,-0.033,0.069,-0.938,0.622
2024-09-26 15:04:21.154,382420.512,0.036,0.798,-0.601,-0.015,0.048,0.011,0.06,0.103,-0.024,0.06,-0.925,0.616
2024-09-26 15:04:21.273,382420.631,0.039,0.794,-0.607,0.0,-0.011,-0.009,0.008,-0.035,-0.014,0.064,-0.917,0.614
2024-09-26 15:04:21.393,382420.751,0.032,0.805,-0.592,-0.014,-0.066,-0.009,-0.172,-0.011,0.067,0.053,-0.936,0.62
2024-09-26 15:04:21.513,382420.871,0.038,0.81,-0.585,-0.003,0.0,0.005,-0.006,0.008,0.047,0.065,-0.944,0.628
2024-09-26 15:04:21.633,382420.991,0.036,0.809,-0.587,-0.006,-0.003,0.007,0.028,-0.049,-0.005,0.062,-0.942,0.629
2024-09-26 15:04:21.753,382421.111,0.035,0.808,-0.588,0.006,0.013,0.01,0.077,-0.026,-0.036,0.059,-0.94,0.628
2024-09-26 15:04:21.872,382421.23,0.03,0.802,-0.597,-0.002,-0.058,-0.005,0.073,0.082,0.001,0.051,-0.931,0.622
2024-09-26 15:04:21.992,382421.35,0.032,0.798,-0.602,0.003,0.005,0.001,0.042,-0.023,-0.039,0.052,-0.923,0.619
2024-09-26 15:04:22.112,382421.47,0.028,0.794,-0.608,-0.002,-0.009,0.015,0.12,0.035,-0.034,0.046,-0.917,0.613
2024-09-26 15:04:22.232,382421.59,0.029,0.792,-0.61,-0.004,-0.001,0.013,0.007,0.024,0.032,0.047,-0.914,0.613
2024-09-26 15:04:22.352,382421.71,0.029,0.793,-0.609,0.001,0.002,0.003,-0.0,0.017,-0.014,0.048,-0.915,0.613
2024-09-26 15:04:22.471,382421.829,0.029,0.795,-0.607,-0.012,-0.029,-0.018,-0.005,0.009,0.01,0.048,-0.918,0.611
2024-09-26 15:04:22.591,382421.949,0.029,0.794,-0.607,0.002,0.003,-0.001,0.03,0.005,-0.023,0.048,-0.917,0.609
2024-09-26 15:04:22.711,382422.069,0.031,0.794,-0.607,-0.014,-0.001,-0.001,0.003,0.002,-0.01,0.051,-0.917,0.609
2024-09-26 15:04:22.831,382422.189,0.03,0.791,-0.61,-0.005,0.006,-0.002,0.025,-0.021,-0.001,0.05,-0.913,0.606
2024-09-26 15:04:22.950,382422.308,0.037,0.809,-0.587,-0.022,-0.154,-0.057,-1.043,0.385,0.125,0.062,-0.942,0.615
2024-09-26 15:04:23.070,382422.428,0.061,0.876,-0.478,0.019,0.036,0.081,0.149,-0.038,0.219,0.128,-1.068,0.665
2024-09-26 15:04:23.190,382422.548,0.051,0.842,-0.537,-0.052,0.037,0.039,0.489,-0.201,-0.132,0.095,-1.001,0.632
2024-09-26 15:04:23.310,382422.668,0.037,0.812,-0.582,0.015,-0.033,-0.013,0.282,0.001,0.008,0.063,-0.948,0.616
2024-09-26 15:04:23.429,382422.788,0.034,0.799,-0.601,0.026,-0.019,-0.014,0.056,-0.105,-0.08,0.056,-0.925,0.612
2024-09-26 15:04:23.550,382422.907,0.031,0.799,-0.601,-0.004,0.01,-0.001,-0.026,0.035,-0.001,0.052,-0.925,0.608
2024-09-26 15:04:23.669,382423.027,0.028,0.799,-0.6,-0.012,0.013,0.002,0.002,0.001,0.0,0.047,-0.926,0.601
2024-09-26 15:04:23.789,382423.147,0.025,0.788,-0.616,-0.03,0.044,-0.008,0.166,0.017,-0.043,0.041,-0.907,0.595
2024-09-26 15:04:23.909,382423.267,0.029,0.79,-0.613,-0.02,-0.019,-0.014,-0.295,0.126,0.115,0.047,-0.91,0.596
2024-09-26 15:04:24.029,382423.387,0.035,0.8,-0.599,0.006,-0.03,-0.009,-0.054,-0.057,-0.045,0.058,-0.928,0.609
2024-09-26 15:04:24.148,382423.506,0.032,0.798,-0.602,-0.006,-0.005,-0.004,0.002,-0.013,-0.005,0.054,-0.924,0.607
2024-09-26 15:04:24.268,382423.626,0.029,0.793,-0.608,-0.0,0.013,0.007,0.147,-0.075,-0.023,0.048,-0.916,0.604
2024-09-26 15:04:24.388,382423.746,0.028,0.788,-0.615,-0.005,-0.018,0.002,-0.053,0.049,-0.017,0.046,-0.908,0.599
2024-09-26 15:04:24.508,382423.866,0.026,0.787,-0.617,0.0,-0.011,-0.004,-0.028,-0.049,-0.037,0.043,-0.905,0.595
2024-09-26 15:04:24.627,382423.986,0.02,0.795,-0.606,-0.005,-0.075,-0.026,-0.27,-0.08,0.146,0.033,-0.92,0.599
2024-09-26 15:04:24.747,382424.105,0.034,0.813,-0.581,0.013,0.01,0.017,-0.054,0.052,0.031,0.059,-0.95,0.615
2024-09-26 15:04:24.867,382424.225,0.053,0.808,-0.587,0.011,0.007,-0.002,0.244,-0.023,0.077,0.091,-0.94,0.64
2024-09-26 15:04:24.987,382424.345,0.039,0.805,-0.592,-0.003,0.008,0.002,0.027,-0.106,-0.055,0.065,-0.935,0.627
2024-09-26 15:04:25.106,382424.465,0.034,0.804,-0.594,0.0,-0.001,0.002,0.043,-0.032,-0.016,0.058,-0.934,0.624
2024-09-26 15:04:25.226,382424.585,0.028,0.797,-0.603,0.007,0.029,0.017,0.291,0.027,-0.027,0.046,-0.922,0.617
2024-09-26 15:04:25.346,382424.704,0.029,0.789,-0.613,-0.003,-0.011,-0.003,0.102,-0.005,-0.012,0.048,-0.91,0.614
2024-09-26 15:04:25.466,382424.824,0.028,0.784,-0.621,-0.004,0.003,0.01,0.111,0.01,-0.017,0.045,-0.9,0.612
2024-09-26 15:04:25.585,382424.944,0.027,0.777,-0.629,-0.018,-0.01,-0.011,0.037,0.083,0.009,0.043,-0.89,0.606
2024-09-26 15:04:25.705,382425.064,0.028,0.777,-0.629,-0.015,-0.022,-0.005,0.021,0.029,0.009,0.045,-0.89,0.604
2024-09-26 15:04:25.825,382425.183,0.033,0.777,-0.628,-0.015,0.025,-0.013,-0.016,0.039,-0.009,0.053,-0.89,0.607
2024-09-26 15:04:25.946,382425.303,0.035,0.778,-0.627,-0.011,-0.028,-0.013,-0.003,0.08,0.017,0.056,-0.892,0.606
2024-09-26 15:04:26.065,382425.423,0.038,0.783,-0.621,-0.015,-0.067,-0.007,-0.584,-0.026,0.061,0.061,-0.899,0.61
2024-09-26 15:04:26.185,382425.543,0.067,0.844,-0.533,-0.009,0.075,0.056,-0.142,0.222,0.214,0.124,-1.004,0.654
2024-09-26 15:04:26.304,382425.663,0.078,0.828,-0.555,-0.009,0.042,0.041,0.393,-0.114,-0.144,0.139,-0.976,0.657
2024-09-26 15:04:26.424,382425.782,0.061,0.807,-0.587,0.045,-0.055,-0.021,0.057,-0.118,-0.033,0.103,-0.94,0.635
2024-09-26 15:04:26.544,382425.902,0.047,0.807,-0.588,-0.013,-0.017,-0.001,-0.003,-0.073,-0.004,0.08,-0.939,0.625
2024-09-26 15:04:26.664,382426.022,0.047,0.805,-0.592,0.004,-0.017,-0.009,-0.038,-0.041,-0.033,0.079,-0.936,0.627
2024-09-26 15:04:26.784,382426.142,0.042,0.802,-0.596,-0.004,-0.013,-0.004,0.003,-0.012,0.008,0.071,-0.93,0.619
2024-09-26 15:04:26.903,382426.262,0.038,0.792,-0.609,0.012,0.038,0.015,0.29,0.007,-0.035,0.062,-0.914,0.614
2024-09-26 15:04:27.023,382426.381,0.038,0.791,-0.611,0.003,-0.037,-0.007,-0.187,0.011,0.077,0.062,-0.912,0.614
2024-09-26 15:04:27.143,382426.501,0.043,0.798,-0.602,0.001,0.003,0.003,-0.013,-0.047,-0.016,0.071,-0.923,0.623
2024-09-26 15:04:27.263,382426.621,0.041,0.795,-0.605,-0.007,-0.009,0.001,0.028,0.0,-0.0,0.068,-0.92,0.622
2024-09-26 15:04:27.382,382426.741,0.04,0.793,-0.607,0.003,0.008,0.009,0.128,-0.031,-0.024,0.066,-0.916,0.622
2024-09-26 15:04:27.502,382426.861,0.033,0.785,-0.618,-0.015,0.007,-0.008,0.05,-0.049,-0.032,0.053,-0.903,0.615
2024-09-26 15:04:27.622,382426.98,0.035,0.78,-0.625,-0.007,-0.05,-0.006,-0.076,0.106,-0.027,0.056,-0.895,0.612
2024-09-26 15:04:27.742,382427.1,0.031,0.781,-0.624,-0.004,0.006,-0.005,-0.077,-0.071,-0.016,0.05,-0.896,0.608
2024-09-26 15:04:27.862,382427.22,0.034,0.793,-0.608,-0.006,0.003,0.008,-0.216,0.075,0.004,0.055,-0.916,0.618
2024-09-26 15:04:27.981,382427.34,0.033,0.799,-0.6,0.004,0.01,0.009,0.045,-0.049,-0.022,0.055,-0.926,0.622
2024-09-26 15:04:28.101,382427.459,0.034,0.796,-0.605,-0.003,-0.027,-0.003,0.007,-0.002,0.022,0.057,-0.92,0.623
2024-09-26 15:04:28.221,382427.579,0.033,0.794,-0.607,-0.002,-0.004,-0.001,0.028,-0.026,-0.029,0.055,-0.918,0.622
2024-09-26 15:04:28.341,382427.699,0.03,0.786,-0.617,-0.009,0.026,0.01,0.102,0.047,-0.024,0.049,-0.905,0.615
2024-09-26 15:04:28.461,382427.819,0.031,0.781,-0.623,0.007,-0.005,-0.005,0.044,-0.041,-0.013,0.05,-0.897,0.614
2024-09-26 15:04:28.581,382427.939,0.029,0.778,-0.627,0.001,-0.004,-0.0,0.076,0.012,-0.037,0.046,-0.892,0.61
2024-09-26 15:04:28.700,382428.058,0.03,0.775,-0.631,0.001,-0.009,0.002,0.05,0.022,0.001,0.047,-0.887,0.607
2024-09-26 15:04:28.820,382428.178,0.03,0.776,-0.631,0.0,-0.023,0.002,-0.002,0.04,-0.009,0.047,-0.888,0.605
2024-09-26 15:04:28.940,382428.298,0.032,0.777,-0.628,0.009,0.006,0.001,-0.007,0.001,-0.008,0.051,-0.89,0.606
2024-09-26 15:04:29.059,382428.418,0.032,0.779,-0.626,0.009,-0.01,-0.003,-0.019,0.005,-0.003,0.051,-0.894,0.605
2024-09-26 15:04:29.180,382428.538,0.031,0.781,-0.624,0.005,-0.024,-0.009,-0.025,-0.021,-0.022,0.05,-0.897,0.604
2024-09-26 15:04:29.299,382428.657,0.03,0.781,-0.623,-0.003,0.001,0.005,0.008,-0.008,-0.001,0.048,-0.897,0.602
2024-09-26 15:04:29.419,382428.777,0.055,0.831,-0.553,0.009,-0.121,-0.047,-1.009,0.307,0.182,0.099,-0.981,0.635
2024-09-26 15:04:29.539,382428.897,0.074,0.84,-0.538,-0.008,-0.029,0.025,0.258,-0.058,-0.05,0.136,-0.997,0.658
2024-09-26 15:04:29.659,382429.017,0.06,0.815,-0.576,0.011,0.004,-0.009,0.427,-0.312,-0.116,0.103,-0.953,0.639
2024-09-26 15:04:29.778,382429.137,0.039,0.802,-0.597,0.018,-0.031,0.008,0.004,-0.121,-0.111,0.065,-0.93,0.616
2024-09-26 15:04:29.898,382429.256,0.036,0.798,-0.602,0.0,0.003,0.001,0.052,0.017,0.003,0.06,-0.924,0.612
2024-09-26 15:04:30.018,382429.376,0.036,0.796,-0.604,-0.01,-0.005,0.005,0.048,0.034,0.015,0.06,-0.92,0.611
2024-09-26 15:04:30.138,382429.496,0.03,0.786,-0.617,0.005,0.025,0.009,0.349,-0.145,-0.056,0.048,-0.905,0.605
2024-09-26 15:04:30.258,382429.616,0.029,0.782,-0.622,-0.02,-0.096,0.004,-0.244,0.034,0.078,0.046,-0.898,0.601
2024-09-26 15:04:30.377,382429.736,0.035,0.794,-0.607,0.008,-0.008,0.0,-0.017,-0.038,-0.011,0.057,-0.917,0.613
2024-09-26 15:04:30.497,382429.855,0.035,0.793,-0.608,-0.005,-0.017,0.001,-0.014,0.001,0.014,0.057,-0.915,0.614
2024-09-26 15:04:30.617,382429.975,0.028,0.783,-0.621,0.003,0.015,0.007,0.117,-0.067,-0.034,0.045,-0.9,0.608
2024-09-26 15:04:30.737,382430.095,0.03,0.78,-0.625,0.001,-0.009,-0.011,0.011,0.007,0.01,0.048,-0.895,0.606
2024-09-26 15:04:30.856,382430.215,0.024,0.783,-0.621,-0.017,-0.04,-0.001,-0.373,-0.086,0.105,0.039,-0.9,0.606
2024-09-26 15:04:30.976,382430.334,0.034,0.796,-0.604,0.024,0.022,0.007,0.088,-0.041,-0.023,0.056,-0.921,0.62
2024-09-26 15:04:31.096,382430.454,0.032,0.795,-0.606,-0.004,0.005,0.008,0.047,0.032,0.004,0.053,-0.919,0.619
2024-09-26 15:04:31.216,382430.574,0.033,0.795,-0.606,0.0,-0.001,-0.001,0.013,0.002,0.011,0.054,-0.919,0.62
2024-09-26 15:04:31.336,382430.694,0.032,0.792,-0.609,0.001,-0.012,-0.003,0.028,-0.036,-0.017,0.053,-0.915,0.618
2024-09-26 15:04:31.456,382430.814,0.027,0.785,-0.619,-0.001,-0.074,-0.003,0.088,0.101,-0.011,0.044,-0.902,0.612
2024-09-26 15:04:31.575,382430.933,0.028,0.779,-0.626,-0.001,0.021,0.009,0.075,-0.009,-0.017,0.045,-0.894,0.609
2024-09-26 15:04:31.695,382431.053,0.026,0.776,-0.63,-0.014,-0.007,-0.001,0.04,0.003,-0.003,0.042,-0.888,0.605
2024-09-26 15:04:31.815,382431.173,0.026,0.775,-0.631,-0.005,-0.018,-0.005,-0.047,-0.002,-0.022,0.042,-0.887,0.604
2024-09-26 15:04:31.935,382431.293,0.026,0.776,-0.63,-0.002,-0.015,0.014,0.023,0.007,-0.007,0.041,-0.888,0.602
2024-09-26 15:04:32.055,382431.413,0.025,0.778,-0.628,-0.002,0.003,0.01,-0.044,0.003,0.012,0.04,-0.891,0.601
2024-09-26 15:04:32.174,382431.532,0.024,0.78,-0.625,-0.01,0.028,0.004,-0.06,0.006,-0.002,0.039,-0.895,0.601
2024-09-26 15:04:32.294,382431.652,0.023,0.781,-0.625,0.0,-0.01,-0.001,-0.005,-0.01,-0.019,0.037,-0.896,0.599
2024-09-26 15:04:32.414,382431.772,0.021,0.78,-0.626,-0.009,-0.009,0.001,0.013,-0.02,0.001,0.034,-0.894,0.595
2024-09-26 15:04:32.534,382431.892,0.021,0.786,-0.617,-0.005,-0.033,0.015,-0.446,0.12,0.07,0.034,-0.905,0.596
2024-09-26 15:04:32.653,382432.012,0.051,0.873,-0.485,0.032,0.16,0.122,-0.026,0.098,-0.06,0.104,-1.061,0.627
2024-09-26 15:04:32.773,382432.131,0.053,0.872,-0.487,0.003,0.03,0.006,0.009,0.081,0.004,0.109,-1.059,0.621
2024-09-26 15:04:32.893,382432.251,0.055,0.878,-0.476,0.015,0.017,0.011,0.012,0.041,0.039,0.115,-1.071,0.62
2024-09-26 15:04:33.013,382432.371,0.061,0.872,-0.485,0.054,0.021,-0.039,0.174,-0.043,0.016,0.124,-1.06,0.642
2024-09-26 15:04:33.133,382432.491,0.065,0.857,-0.512,0.024,0.038,-0.022,0.224,-0.067,0.062,0.127,-1.028,0.643
2024-09-26 15:04:33.253,382432.611,0.064,0.841,-0.538,-0.01,-0.031,0.047,0.492,-0.226,0.016,0.118,-0.999,0.651
2024-09-26 15:04:33.373,382432.73,0.045,0.807,-0.589,-0.088,0.033,0.014,0.564,-0.086,0.002,0.076,-0.938,0.633
2024-09-26 15:04:33.492,382432.85,0.038,0.767,-0.641,-0.063,-0.008,0.09,0.67,-0.079,-0.069,0.059,-0.874,0.625
2024-09-26 15:04:33.612,382432.97,0.026,0.762,-0.647,-0.012,0.018,-0.035,-0.496,0.067,-0.198,0.04,-0.866,0.603
2024-09-26 15:04:33.732,382433.09,0.031,0.792,-0.609,-0.013,-0.045,-0.019,-0.527,0.265,0.012,0.051,-0.915,0.591
2024-09-26 15:04:33.851,382433.209,0.03,0.814,-0.58,-0.023,0.041,0.02,0.099,-0.019,0.009,0.051,-0.951,0.585
2024-09-26 15:04:33.971,382433.329,0.025,0.815,-0.579,-0.003,0.012,0.002,0.078,0.004,-0.046,0.044,-0.952,0.581
2024-09-26 15:04:34.091,382433.449,0.024,0.807,-0.59,0.006,0.016,0.011,0.146,-0.028,-0.064,0.041,-0.939,0.572
2024-09-26 15:04:34.211,382433.569,0.022,0.807,-0.591,0.0,-0.007,0.003,0.015,-0.021,-0.013,0.037,-0.938,0.568
2024-09-26 15:04:34.331,382433.689,0.02,0.807,-0.59,0.001,0.014,0.01,0.061,-0.053,-0.039,0.034,-0.939,0.568
2024-09-26 15:04:34.450,382433.808,0.014,0.801,-0.599,0.006,-0.031,-0.007,-0.003,-0.038,-0.054,0.024,-0.929,0.56
2024-09-26 15:04:34.570,382433.928,0.014,0.794,-0.607,0.0,-0.019,-0.007,0.087,0.02,-0.012,0.023,-0.918,0.557
2024-09-26 15:04:34.690,382434.048,0.018,0.79,-0.613,-0.007,-0.021,-0.003,0.055,-0.007,0.016,0.03,-0.91,0.558
2024-09-26 15:04:34.810,382434.168,0.022,0.801,-0.599,-0.039,0.03,-0.007,-0.271,0.073,0.076,0.037,-0.928,0.568
2024-09-26 15:04:34.930,382434.288,0.022,0.796,-0.605,-0.006,-0.016,-0.005,0.051,0.009,-0.022,0.037,-0.921,0.563
2024-09-26 15:04:35.049,382434.407,0.017,0.789,-0.615,-0.01,-0.012,-0.01,0.006,0.011,-0.027,0.028,-0.908,0.554
2024-09-26 15:04:35.169,382434.527,0.016,0.791,-0.612,-0.008,-0.032,-0.008,-0.064,-0.028,0.034,0.027,-0.913,0.551
2024-09-26 15:04:35.289,382434.647,0.017,0.793,-0.609,0.011,0.009,0.007,0.064,-0.05,-0.046,0.028,-0.916,0.559
2024-09-26 15:04:35.409,382434.767,0.012,0.789,-0.615,0.001,-0.0,0.007,0.125,-0.008,-0.062,0.02,-0.909,0.549
2024-09-26 15:04:35.529,382434.887,0.01,0.787,-0.617,-0.002,0.004,-0.001,-0.004,-0.007,-0.049,0.017,-0.905,0.545
2024-09-26 15:04:35.648,382435.006,0.012,0.786,-0.618,0.006,0.003,-0.003,0.02,0.007,-0.015,0.019,-0.905,0.545
2024-09-26 15:04:35.768,382435.126,0.015,0.793,-0.609,-0.006,-0.017,-0.012,-0.15,-0.045,0.049,0.024,-0.916,0.558
2024-09-26 15:04:35.888,382435.246,0.013,0.793,-0.609,-0.003,0.018,0.012,0.083,-0.005,-0.018,0.022,-0.916,0.559
2024-09-26 15:04:36.007,382435.366,0.011,0.786,-0.618,-0.002,-0.035,-0.005,0.04,0.026,-0.026,0.018,-0.905,0.55
2024-09-26 15:04:36.128,382435.485,0.011,0.782,-0.623,-0.004,0.001,0.002,0.049,0.007,0.002,0.018,-0.898,0.548
2024-09-26 15:04:36.247,382435.605,0.016,0.779,-0.626,-0.004,-0.029,-0.003,0.021,0.022,0.033,0.025,-0.894,0.551
2024-09-26 15:04:36.367,382435.725,0.017,0.79,-0.612,-0.016,-0.004,-0.008,-0.092,0.011,0.032,0.028,-0.912,0.558
2024-09-26 15:04:36.487,382435.845,0.014,0.782,-0.623,-0.007,-0.005,0.001,0.077,0.021,-0.003,0.023,-0.898,0.549
2024-09-26 15:04:36.607,382435.965,0.014,0.777,-0.629,-0.002,-0.006,0.001,0.044,0.01,-0.006,0.023,-0.89,0.546
2024-09-26 15:04:36.727,382436.084,0.014,0.775,-0.631,0.0,-0.002,0.006,0.028,-0.006,-0.009,0.021,-0.887,0.545
2024-09-26 15:04:36.846,382436.204,0.012,0.775,-0.631,-0.007,0.001,0.005,0.032,0.009,0.024,0.019,-0.887,0.544
2024-09-26 15:04:36.966,382436.324,0.012,0.776,-0.631,-0.003,0.006,0.006,0.023,0.024,-0.005,0.019,-0.888,0.544
2024-09-26 15:04:37.086,382436.444,0.013,0.775,-0.632,-0.002,0.002,0.003,0.01,0.015,-0.012,0.021,-0.887,0.544
2024-09-26 15:04:37.206,382436.564,0.013,0.776,-0.631,0.0,-0.015,0.004,0.003,0.024,-0.008,0.021,-0.888,0.543
2024-09-26 15:04:37.325,382436.683,0.015,0.776,-0.631,-0.001,-0.004,-0.003,-0.032,-0.021,-0.001,0.023,-0.888,0.545
2024-09-26 15:04:37.445,382436.803,0.016,0.781,-0.624,-0.002,-0.054,-0.022,-0.396,-0.067,0.06,0.025,-0.896,0.549
2024-09-26 15:04:37.565,382436.923,0.025,0.796,-0.605,0.012,0.046,0.023,0.2,-0.035,-0.071,0.042,-0.92,0.56
2024-09-26 15:04:37.685,382437.043,0.02,0.789,-0.614,0.002,-0.014,0.002,0.079,-0.028,-0.03,0.032,-0.91,0.553
2024-09-26 15:04:37.804,382437.163,0.018,0.789,-0.614,-0.004,-0.014,-0.004,-0.058,-0.028,0.007,0.03,-0.909,0.554
2024-09-26 15:04:37.924,382437.282,0.015,0.785,-0.619,-0.003,-0.038,-0.011,0.025,-0.031,-0.004,0.024,-0.903,0.552
2024-09-26 15:04:38.044,382437.402,0.016,0.776,-0.63,-0.01,-0.001,-0.001,0.108,0.103,0.029,0.025,-0.888,0.551
2024-09-26 15:04:38.164,382437.522,0.021,0.791,-0.611,-0.018,-0.013,-0.018,-0.563,-0.005,0.198,0.034,-0.913,0.568
2024-09-26 15:04:38.284,382437.642,0.047,0.783,-0.62,-0.22,-0.007,0.033,0.478,0.005,-0.017,0.075,-0.9,0.611
2024-09-26 15:04:38.403,382437.762,0.043,0.766,-0.641,0.002,-0.08,0.004,0.028,-0.013,-0.021,0.067,-0.873,0.605
2024-09-26 15:04:38.523,382437.881,0.036,0.767,-0.64,0.005,0.036,0.005,-0.013,-0.056,0.016,0.056,-0.875,0.598
2024-09-26 15:04:38.643,382438.001,0.037,0.772,-0.635,-0.003,-0.014,-0.001,-0.141,0.068,-0.024,0.058,-0.882,0.601
2024-09-26 15:04:38.763,382438.121,0.035,0.775,-0.631,-0.0,-0.015,-0.003,-0.026,-0.037,-0.042,0.055,-0.887,0.597
2024-09-26 15:04:38.882,382438.241,0.032,0.774,-0.633,0.002,-0.005,0.002,0.064,-0.023,-0.026,0.05,-0.884,0.593
2024-09-26 15:04:39.003,382438.36,0.029,0.771,-0.636,0.006,-0.015,-0.009,-0.09,-0.051,-0.023,0.046,-0.881,0.588
2024-09-26 15:04:39.122,382438.48,0.029,0.769,-0.639,-0.005,-0.002,0.003,0.062,0.026,0.002,0.046,-0.877,0.585
2024-09-26 15:04:39.242,382438.6,0.031,0.769,-0.638,0.003,0.045,0.021,0.068,0.012,0.016,0.048,-0.878,0.584
2024-09-26 15:04:39.362,382438.72,0.034,0.778,-0.628,-0.019,0.015,-0.004,-0.231,0.061,0.036,0.054,-0.891,0.59
2024-09-26 15:04:39.481,382438.84,0.034,0.778,-0.627,0.001,-0.004,-0.003,0.07,-0.009,-0.042,0.054,-0.892,0.587
2024-09-26 15:04:39.601,382438.959,0.029,0.771,-0.636,0.002,-0.0,-0.004,0.018,-0.0,-0.032,0.046,-0.88,0.579
2024-09-26 15:04:39.721,382439.079,0.03,0.773,-0.634,-0.008,-0.039,0.019,0.007,0.02,0.046,0.047,-0.883,0.578
2024-09-26 15:04:39.841,382439.199,0.03,0.778,-0.628,0.01,0.041,0.021,0.13,-0.06,-0.027,0.047,-0.891,0.585
2024-09-26 15:04:39.961,382439.319,0.025,0.771,-0.636,-0.009,-0.048,-0.012,-0.005,0.044,0.001,0.039,-0.881,0.577
2024-09-26 15:04:40.080,382439.439,0.024,0.773,-0.634,-0.015,0.031,0.009,-0.003,0.038,0.008,0.038,-0.883,0.574
2024-09-26 15:04:40.200,382439.558,0.026,0.776,-0.631,0.002,0.019,0.007,-0.029,-0.062,0.01,0.041,-0.888,0.581
2024-09-26 15:04:40.320,382439.678,0.022,0.771,-0.636,-0.018,-0.013,-0.008,0.036,0.029,-0.008,0.034,-0.881,0.578
2024-09-26 15:04:40.440,382439.798,0.027,0.765,-0.643,-0.006,-0.005,-0.004,-0.019,0.051,0.028,0.041,-0.871,0.577
2024-09-26 15:04:40.560,382439.918,0.027,0.764,-0.644,-0.01,-0.024,-0.001,-0.284,-0.094,0.074,0.041,-0.87,0.579
2024-09-26 15:04:40.680,382440.038,0.059,0.769,-0.637,-0.051,0.074,0.01,0.323,-0.123,0.057,0.092,-0.877,0.621
2024-09-26 15:04:40.799,382440.157,0.052,0.764,-0.643,0.038,-0.036,0.011,-0.078,-0.031,-0.035,0.081,-0.87,0.606
2024-09-26 15:04:40.919,382440.277,0.037,0.776,-0.63,0.027,-0.02,-0.007,-0.119,-0.148,-0.138,0.058,-0.888,0.592
2024-09-26 15:04:41.039,382440.397,0.033,0.779,-0.626,-0.007,-0.009,-0.006,-0.126,-0.025,0.005,0.053,-0.893,0.591
2024-09-26 15:04:41.159,382440.517,0.03,0.782,-0.623,-0.009,0.007,0.005,0.032,0.012,0.011,0.048,-0.898,0.59
2024-09-26 15:04:41.278,382440.637,0.026,0.774,-0.633,-0.005,0.016,0.02,0.104,0.025,-0.028,0.041,-0.885,0.582
2024-09-26 15:04:41.398,382440.756,0.022,0.774,-0.633,-0.008,-0.005,-0.003,0.051,0.01,-0.007,0.036,-0.885,0.578
2024-09-26 15:04:41.518,382440.876,0.027,0.772,-0.636,0.002,-0.001,0.007,-0.016,-0.035,0.028,0.042,-0.881,0.58
2024-09-26 15:04:41.638,382440.996,0.029,0.78,-0.625,-0.01,-0.01,-0.013,-0.202,0.037,0.025,0.047,-0.895,0.585
2024-09-26 15:04:41.758,382441.116,0.027,0.776,-0.63,-0.002,0.009,0.012,0.254,0.001,-0.058,0.043,-0.888,0.578
2024-09-26 15:04:41.877,382441.235,0.024,0.772,-0.635,-0.003,0.007,0.001,-0.011,0.01,-0.016,0.037,-0.883,0.572
2024-09-26 15:04:41.997,382441.355,0.027,0.775,-0.631,0.002,-0.035,-0.008,-0.11,-0.029,0.028,0.042,-0.887,0.577
2024-09-26 15:04:42.117,382441.475,0.024,0.776,-0.63,0.004,-0.009,-0.008,-0.004,-0.053,-0.044,0.038,-0.888,0.577
2024-09-26 15:04:42.237,382441.595,0.021,0.772,-0.635,0.006,-0.054,-0.006,-0.01,0.011,-0.015,0.034,-0.882,0.571
2024-09-26 15:04:42.356,382441.715,0.02,0.773,-0.634,-0.001,0.039,0.016,0.005,0.011,0.007,0.032,-0.884,0.569
2024-09-26 15:04:42.476,382441.834,0.022,0.775,-0.632,-0.004,-0.016,-0.015,-0.131,-0.05,0.041,0.035,-0.886,0.575
2024-09-26 15:04:42.596,382441.954,0.019,0.777,-0.629,-0.0,0.026,0.014,0.095,-0.015,-0.023,0.031,-0.89,0.577
2024-09-26 15:04:42.716,382442.074,0.017,0.769,-0.639,-0.0,0.017,0.015,0.173,0.041,-0.01,0.027,-0.878,0.573
2024-09-26 15:04:42.836,382442.194,0.022,0.765,-0.644,0.005,0.023,0.012,0.115,-0.024,0.016,0.035,-0.871,0.574
2024-09-26 15:04:42.955,382442.314,0.032,0.781,-0.624,-0.047,-0.031,-0.022,-0.391,0.216,0.271,0.051,-0.895,0.592
2024-09-26 15:04:43.075,382442.433,0.041,0.77,-0.637,0.009,0.177,0.018,0.2,-0.056,-0.037,0.065,-0.879,0.599
2024-09-26 15:04:43.195,382442.553,0.036,0.769,-0.638,0.07,-0.014,-0.01,-0.025,-0.112,0.003,0.057,-0.878,0.594
2024-09-26 15:04:43.315,382442.673,0.023,0.776,-0.631,-0.02,-0.016,-0.011,-0.138,-0.037,0.011,0.037,-0.888,0.585
2024-09-26 15:04:43.435,382442.793,0.023,0.777,-0.629,-0.005,-0.017,-0.006,-0.046,-0.019,-0.007,0.036,-0.89,0.588
2024-09-26 15:04:43.554,382442.913,0.022,0.775,-0.631,0.006,-0.003,-0.001,0.071,-0.004,-0.035,0.034,-0.887,0.587
2024-09-26 15:04:43.674,382443.032,0.018,0.77,-0.638,0.005,-0.002,0.0,-0.063,-0.078,-0.033,0.028,-0.879,0.581
2024-09-26 15:04:43.794,382443.152,0.018,0.766,-0.642,-0.005,-0.008,-0.005,0.049,0.055,0.013,0.029,-0.873,0.578
2024-09-26 15:04:43.914,382443.272,0.021,0.769,-0.639,-0.002,-0.05,-0.001,-0.241,-0.032,0.034,0.032,-0.878,0.581
2024-09-26 15:04:44.033,382443.392,0.023,0.779,-0.627,0.006,0.009,0.007,0.035,-0.039,-0.039,0.036,-0.893,0.582
2024-09-26 15:04:44.153,382443.512,0.017,0.771,-0.636,-0.002,-0.084,-0.023,-0.077,-0.024,0.007,0.027,-0.881,0.575
2024-09-26 15:04:44.273,382443.631,0.019,0.775,-0.632,-0.0,-0.016,-0.006,-0.107,0.067,0.041,0.031,-0.887,0.576
2024-09-26 15:04:44.393,382443.751,0.019,0.776,-0.63,0.004,-0.013,0.0,-0.003,-0.032,-0.027,0.03,-0.889,0.576
2024-09-26 15:04:44.513,382443.871,0.019,0.778,-0.628,-0.002,0.007,-0.002,-0.034,-0.014,-0.014,0.029,-0.892,0.577
2024-09-26 15:04:44.633,382443.991,0.016,0.776,-0.631,0.002,0.003,0.006,0.092,-0.027,-0.038,0.026,-0.888,0.574
2024-09-26 15:04:44.752,382444.11,0.014,0.772,-0.636,0.002,0.003,-0.001,-0.038,-0.014,-0.039,0.022,-0.881,0.569
2024-09-26 15:04:44.872,382444.23,0.014,0.773,-0.635,-0.013,-0.027,0.02,0.067,0.022,0.038,0.022,-0.883,0.57
2024-09-26 15:04:44.992,382444.35,0.014,0.777,-0.63,0.013,0.022,0.011,0.087,-0.046,-0.029,0.022,-0.89,0.577
2024-09-26 15:04:45.111,382444.47,0.012,0.773,-0.635,-0.003,-0.029,-0.003,0.005,0.012,-0.01,0.018,-0.883,0.573
2024-09-26 15:04:45.231,382444.59,0.01,0.772,-0.636,-0.015,-0.007,0.02,0.106,0.063,0.014,0.016,-0.882,0.568
2024-09-26 15:04:45.351,382444.709,0.01,0.77,-0.638,-0.001,-0.003,0.002,0.012,-0.015,-0.004,0.015,-0.879,0.569
2024-09-26 15:04:45.471,382444.829,0.009,0.77,-0.637,-0.002,-0.01,0.0,-0.015,-0.01,-0.014,0.014,-0.88,0.568
2024-09-26 15:04:45.591,382444.949,0.01,0.773,-0.635,-0.014,-0.014,0.003,-0.175,0.028,-0.0,0.016,-0.883,0.568
2024-09-26 15:04:45.711,382445.069,0.012,0.779,-0.627,0.003,-0.019,-0.009,-0.081,-0.022,-0.004,0.019,-0.893,0.569
2024-09-26 15:04:45.830,382445.189,0.01,0.778,-0.628,-0.001,-0.025,-0.011,-0.007,-0.067,-0.012,0.016,-0.891,0.569
2024-09-26 15:04:45.951,382445.308,0.011,0.771,-0.636,-0.004,0.009,-0.002,0.092,0.099,-0.026,0.017,-0.881,0.567
2024-09-26 15:04:46.070,382445.428,0.014,0.769,-0.639,-0.005,-0.035,0.002,-0.141,-0.04,0.056,0.021,-0.877,0.568
2024-09-26 15:04:46.190,382445.548,0.038,0.772,-0.634,-0.014,-0.001,-0.002,0.032,0.022,0.088,0.06,-0.882,0.602
2024-09-26 15:04:46.310,382445.668,0.031,0.764,-0.644,-0.006,-0.044,-0.01,-0.029,-0.012,-0.088,0.049,-0.87,0.587
2024-09-26 15:04:46.430,382445.788,0.023,0.766,-0.643,0.069,-0.035,-0.016,-0.061,0.042,0.093,0.035,-0.872,0.576
2024-09-26 15:04:46.550,382445.907,0.016,0.77,-0.638,-0.018,-0.01,-0.007,-0.115,-0.004,0.001,0.025,-0.879,0.568
2024-09-26 15:04:46.669,382446.027,0.013,0.772,-0.636,0.001,-0.021,-0.006,-0.058,-0.045,-0.068,0.02,-0.882,0.565
2024-09-26 15:04:46.789,382446.147,0.007,0.768,-0.641,-0.001,-0.013,0.001,0.112,0.039,-0.028,0.012,-0.876,0.558
2024-09-26 15:04:46.909,382446.267,0.006,0.768,-0.64,-0.015,0.007,0.038,0.125,0.068,-0.033,0.009,-0.876,0.553
2024-09-26 15:04:47.028,382446.387,0.011,0.763,-0.646,0.005,-0.03,0.002,-0.091,0.025,0.043,0.017,-0.868,0.553
2024-09-26 15:04:47.148,382446.506,0.013,0.777,-0.63,0.003,0.046,0.03,0.169,0.038,-0.032,0.021,-0.889,0.555
2024-09-26 15:04:47.268,382446.626,0.008,0.765,-0.644,-0.039,-0.017,-0.03,-0.078,-0.041,-0.013,0.012,-0.871,0.547
2024-09-26 15:04:47.388,382446.746,0.01,0.767,-0.641,-0.008,-0.013,0.023,0.088,0.068,0.058,0.015,-0.875,0.548
2024-09-26 15:04:47.508,382446.866,0.013,0.769,-0.639,0.004,0.023,0.012,0.047,-0.043,-0.023,0.02,-0.878,0.554
2024-09-26 15:04:47.627,382446.985,0.006,0.764,-0.645,-0.02,0.012,-0.0,-0.009,0.008,-0.031,0.01,-0.87,0.547
2024-09-26 15:04:47.747,382447.105,0.005,0.768,-0.641,-0.01,-0.033,0.001,-0.077,0.038,0.023,0.008,-0.875,0.546
2024-09-26 15:04:47.867,382447.225,0.011,0.772,-0.635,-0.005,-0.022,-0.009,-0.158,-0.038,0.044,0.017,-0.882,0.554
2024-09-26 15:04:47.987,382447.345,0.007,0.773,-0.634,0.001,0.023,0.01,0.089,-0.068,-0.017,0.011,-0.884,0.555
2024-09-26 15:04:48.107,382447.465,0.003,0.764,-0.645,-0.003,0.037,0.02,0.184,0.027,-0.009,0.004,-0.87,0.55
2024-09-26 15:04:48.226,382447.584,0.009,0.759,-0.65,0.005,0.055,0.013,0.096,0.033,0.017,0.014,-0.863,0.551
2024-09-26 15:04:48.347,382447.704,0.018,0.768,-0.64,-0.058,0.038,0.007,-0.137,0.275,0.339,0.027,-0.876,0.57
2024-09-26 15:04:48.466,382447.824,0.046,0.76,-0.648,-0.102,0.103,0.011,0.078,-0.074,-0.21,0.07,-0.863,0.592
2024-09-26 15:04:48.586,382447.944,0.029,0.763,-0.645,0.072,-0.001,0.002,-0.036,-0.144,0.02,0.045,-0.868,0.575
2024-09-26 15:04:48.706,382448.064,0.014,0.771,-0.637,-0.018,0.008,0.006,-0.065,-0.004,0.005,0.022,-0.88,0.561
2024-09-26 15:04:48.825,382448.183,0.015,0.772,-0.635,-0.001,-0.026,-0.007,-0.034,0.004,-0.027,0.023,-0.882,0.562
2024-09-26 15:04:48.945,382448.303,0.01,0.768,-0.64,0.001,0.016,0.007,0.142,-0.024,-0.055,0.015,-0.876,0.556
2024-09-26 15:04:49.065,382448.423,0.006,0.765,-0.644,-0.017,-0.007,0.013,0.123,0.025,-0.018,0.009,-0.872,0.55
2024-09-26 15:04:49.185,382448.543,0.007,0.762,-0.648,-0.008,0.019,0.005,0.033,0.042,0.005,0.011,-0.866,0.549
2024-09-26 15:04:49.305,382448.663,0.008,0.769,-0.639,-0.001,-0.058,-0.019,-0.277,-0.004,0.026,0.013,-0.878,0.55
2024-09-26 15:04:49.424,382448.782,0.012,0.775,-0.632,-0.004,-0.0,0.002,0.012,0.018,-0.019,0.019,-0.886,0.551
2024-09-26 15:04:49.544,382448.902,0.008,0.765,-0.644,0.0,0.016,0.013,0.273,-0.002,-0.026,0.013,-0.871,0.546
2024-09-26 15:04:49.664,382449.022,0.008,0.766,-0.643,-0.009,-0.022,-0.001,-0.085,0.043,0.007,0.012,-0.872,0.542
2024-09-26 15:04:49.784,382449.142,0.012,0.773,-0.635,-0.003,-0.022,-0.006,-0.124,-0.013,0.046,0.019,-0.883,0.547
2024-09-26 15:04:49.904,382449.262,0.011,0.772,-0.635,-0.002,0.01,0.002,0.037,-0.022,-0.005,0.017,-0.882,0.547
2024-09-26 15:04:50.023,382449.381,0.007,0.767,-0.641,0.005,0.008,0.007,0.143,-0.082,-0.024,0.011,-0.874,0.544
2024-09-26 15:04:50.143,382449.501,0.005,0.765,-0.644,0.001,-0.013,-0.012,-0.088,-0.028,0.001,0.008,-0.87,0.543
2024-09-26 15:04:50.263,382449.621,0.006,0.77,-0.638,-0.002,-0.036,0.006,-0.029,0.023,0.074,0.01,-0.879,0.546
2024-09-26 15:04:50.382,382449.741,0.009,0.775,-0.631,-0.003,0.008,0.004,-0.009,0.001,-0.0,0.015,-0.887,0.553
2024-09-26 15:04:50.503,382449.86,0.011,0.774,-0.633,-0.005,-0.014,0.001,0.048,0.011,-0.024,0.017,-0.886,0.553
2024-09-26 15:04:50.622,382449.98,0.006,0.761,-0.649,-0.034,0.015,-0.019,0.04,0.019,-0.051,0.01,-0.865,0.545
2024-09-26 15:04:50.742,382450.1,0.006,0.761,-0.649,-0.017,-0.018,0.003,-0.018,0.145,0.006,0.009,-0.865,0.539
2024-09-26 15:04:50.862,382450.22,0.004,0.759,-0.651,-0.008,-0.035,0.003,-0.269,0.005,0.033,0.007,-0.862,0.537
2024-09-26 15:04:50.981,382450.34,0.025,0.8,-0.599,0.003,-0.028,-0.012,-0.616,0.311,0.036,0.042,-0.928,0.553
2024-09-26 15:04:51.102,382450.459,0.038,0.843,-0.536,0.01,-0.024,-0.023,-1.082,0.229,-0.201,0.07,-1.004,0.541
2024-09-26 15:04:51.221,382450.579,0.026,0.889,-0.456,0.055,-0.0,-0.042,-0.348,-0.047,-0.049,0.058,-1.096,0.524
2024-09-26 15:04:51.341,382450.699,0.044,0.883,-0.467,0.066,0.061,0.04,0.145,-0.118,0.399,0.094,-1.082,0.569
2024-09-26 15:04:51.461,382450.819,0.078,0.872,-0.484,-0.006,-0.059,0.042,0.126,-0.342,0.35,0.16,-1.059,0.674
2024-09-26 15:04:51.580,382450.939,0.079,0.849,-0.522,-0.081,-0.065,0.032,0.322,-0.284,0.049,0.15,-1.015,0.714
2024-09-26 15:04:51.701,382451.058,0.063,0.822,-0.566,-0.079,-0.009,0.022,0.155,-0.106,-0.063,0.112,-0.965,0.695
2024-09-26 15:04:51.820,382451.178,0.041,0.803,-0.595,-0.017,-0.025,0.022,0.16,-0.087,-0.123,0.068,-0.932,0.668
2024-09-26 15:04:51.940,382451.298,0.025,0.807,-0.591,-0.02,-0.003,0.007,0.073,0.048,0.029,0.043,-0.938,0.655
2024-09-26 15:04:52.060,382451.418,0.036,0.802,-0.596,0.001,-0.06,-0.007,-0.266,-0.08,0.015,0.06,-0.931,0.664
2024-09-26 15:04:52.180,382451.538,0.036,0.816,-0.577,0.004,-0.036,-0.014,-0.313,-0.053,-0.026,0.062,-0.954,0.664
2024-09-26 15:04:52.300,382451.657,0.034,0.825,-0.564,0.003,-0.001,0.004,-0.031,-0.054,-0.039,0.06,-0.97,0.659
2024-09-26 15:04:52.419,382451.777,0.03,0.827,-0.562,-0.007,-0.006,-0.001,-0.022,0.017,0.002,0.053,-0.973,0.655
2024-09-26 15:04:52.539,382451.897,0.028,0.82,-0.572,0.001,0.024,0.005,0.277,-0.066,-0.036,0.049,-0.961,0.65
2024-09-26 15:04:52.659,382452.017,0.03,0.81,-0.585,0.018,-0.072,-0.004,-0.176,-0.116,0.076,0.051,-0.945,0.65
2024-09-26 15:04:52.778,382452.137,0.034,0.816,-0.576,0.004,0.011,0.011,0.063,-0.054,-0.014,0.059,-0.955,0.66
2024-09-26 15:04:52.898,382452.256,0.03,0.813,-0.582,0.003,0.008,0.007,0.17,-0.123,-0.041,0.052,-0.949,0.659
2024-09-26 15:04:53.018,382452.376,0.03,0.804,-0.594,-0.015,0.019,0.016,0.136,0.13,-0.02,0.05,-0.934,0.653
2024-09-26 15:04:53.138,382452.496,0.024,0.804,-0.594,-0.002,-0.007,-0.014,-0.161,-0.25,0.065,0.041,-0.934,0.65
2024-09-26 15:04:53.257,382452.616,0.03,0.816,-0.577,-0.002,-0.054,-0.023,-0.243,0.181,0.008,0.052,-0.955,0.664
2024-09-26 15:04:53.377,382452.735,0.034,0.817,-0.575,0.011,0.007,0.007,0.086,-0.067,-0.046,0.058,-0.957,0.664
2024-09-26 15:04:53.497,382452.855,0.029,0.814,-0.58,-0.001,0.003,0.004,0.026,-0.012,0.003,0.05,-0.952,0.659
2024-09-26 15:04:53.618,382452.975,0.026,0.812,-0.583,-0.007,-0.002,0.007,0.02,-0.003,-0.012,0.044,-0.948,0.654
2024-09-26 15:04:53.737,382453.095,0.022,0.808,-0.589,-0.003,-0.015,-0.005,0.04,0.04,-0.034,0.037,-0.941,0.646
2024-09-26 15:04:53.857,382453.215,0.022,0.806,-0.592,-0.016,0.008,0.004,-0.041,-0.017,0.005,0.036,-0.937,0.645
2024-09-26 15:04:53.977,382453.334,0.029,0.809,-0.587,0.009,0.036,0.02,0.108,0.018,-0.014,0.05,-0.943,0.657
2024-09-26 15:04:54.096,382453.454,0.042,0.802,-0.596,-0.014,0.01,0.0,-0.014,0.154,0.098,0.071,-0.93,0.662
2024-09-26 15:04:54.216,382453.574,0.04,0.802,-0.596,0.003,-0.012,-0.007,-0.051,-0.046,-0.07,0.067,-0.931,0.662
2024-09-26 15:04:54.336,382453.694,0.039,0.805,-0.591,-0.002,-0.001,0.01,-0.025,0.005,-0.016,0.066,-0.936,0.659
2024-09-26 15:04:54.455,382453.814,0.038,0.804,-0.593,-0.002,-0.001,0.004,-0.006,-0.024,0.007,0.063,-0.934,0.656
2024-09-26 15:04:54.575,382453.933,0.036,0.803,-0.595,0.006,-0.01,-0.003,0.083,-0.016,-0.018,0.061,-0.932,0.654
2024-09-26 15:04:54.695,382454.053,0.032,0.804,-0.594,-0.001,-0.029,0.019,-0.146,-0.114,0.04,0.053,-0.933,0.653
2024-09-26 15:04:54.815,382454.173,0.03,0.801,-0.598,-0.002,0.012,-0.001,0.154,0.063,-0.039,0.05,-0.929,0.648
2024-09-26 15:04:54.935,382454.293,0.031,0.8,-0.599,-0.012,-0.028,-0.005,-0.179,-0.06,0.101,0.052,-0.927,0.646
2024-09-26 15:04:55.055,382454.413,0.044,0.804,-0.592,0.004,0.025,0.017,0.091,0.109,0.047,0.075,-0.935,0.666
2024-09-26 15:04:55.174,382454.532,0.056,0.795,-0.604,0.028,-0.0,0.017,0.268,-0.039,-0.096,0.093,-0.92,0.671
2024-09-26 15:04:55.294,382454.652,0.048,0.797,-0.602,0.005,0.012,0.013,0.006,-0.08,-0.027,0.079,-0.923,0.665
2024-09-26 15:04:55.414,382454.772,0.045,0.798,-0.601,-0.005,0.005,0.005,0.007,-0.007,0.019,0.075,-0.924,0.661
2024-09-26 15:04:55.534,382454.892,0.041,0.796,-0.604,0.002,-0.001,0.004,0.054,-0.018,-0.024,0.068,-0.92,0.656
2024-09-26 15:04:55.653,382455.012,0.042,0.792,-0.609,-0.002,-0.034,-0.005,-0.043,0.045,-0.022,0.07,-0.915,0.651
2024-09-26 15:04:55.774,382455.131,0.039,0.793,-0.608,-0.0,0.002,0.003,-0.019,-0.028,-0.021,0.064,-0.915,0.646
2024-09-26 15:04:55.894,382455.251,0.034,0.795,-0.605,0.009,-0.018,0.004,-0.05,-0.053,-0.029,0.057,-0.919,0.644
2024-09-26 15:04:56.013,382455.371,0.036,0.799,-0.601,0.004,-0.019,-0.017,-0.247,0.004,0.038,0.059,-0.925,0.648
2024-09-26 15:04:56.132,382455.491,0.034,0.8,-0.599,-0.007,-0.02,-0.01,0.014,0.023,-0.006,0.057,-0.928,0.646
2024-09-26 15:04:56.252,382455.61,0.033,0.794,-0.608,-0.005,-0.0,-0.002,0.095,0.073,-0.033,0.055,-0.917,0.639
2024-09-26 15:04:56.372,382455.73,0.03,0.794,-0.607,-0.004,-0.009,-0.034,-0.277,-0.159,0.021,0.049,-0.917,0.633
2024-09-26 15:04:56.492,382455.85,0.045,0.812,-0.582,-0.005,-0.029,-0.01,-0.288,0.115,0.142,0.077,-0.947,0.659
2024-09-26 15:04:56.612,382455.97,0.066,0.804,-0.591,-0.08,0.004,0.0,0.302,-0.024,-0.021,0.111,-0.934,0.685
2024-09-26 15:04:56.732,382456.09,0.05,0.796,-0.603,0.083,-0.015,0.002,0.02,-0.228,-0.055,0.083,-0.921,0.667
2024-09-26 15:04:56.851,382456.209,0.036,0.805,-0.593,-0.024,0.044,0.005,-0.132,-0.04,-0.031,0.06,-0.935,0.659
2024-09-26 15:04:56.971,382456.329,0.036,0.81,-0.585,-0.004,0.002,0.005,0.033,0.003,0.004,0.062,-0.945,0.662
2024-09-26 15:04:57.091,382456.449,0.038,0.81,-0.585,0.005,0.011,0.006,0.078,0.008,-0.009,0.065,-0.945,0.663
2024-09-26 15:04:57.211,382456.569,0.035,0.804,-0.594,-0.004,0.036,0.01,0.162,0.08,-0.02,0.06,-0.934,0.656
2024-09-26 15:04:57.330,382456.689,0.039,0.811,-0.584,0.011,-0.002,-0.003,-0.057,-0.094,0.018,0.067,-0.945,0.666
2024-09-26 15:04:57.450,382456.808,0.033,0.804,-0.594,0.002,0.031,0.018,0.074,0.062,-0.014,0.055,-0.934,0.662
2024-09-26 15:04:57.570,382456.928,0.036,0.802,-0.597,0.006,-0.028,-0.002,-0.025,-0.042,-0.014,0.06,-0.93,0.659
2024-09-26 15:04:57.690,382457.048,0.029,0.804,-0.594,0.002,-0.075,0.004,-0.091,-0.034,0.048,0.048,-0.934,0.661
2024-09-26 15:04:57.810,382457.168,0.035,0.81,-0.585,0.008,0.0,0.007,0.01,0.02,0.003,0.06,-0.944,0.665
2024-09-26 15:04:57.929,382457.288,0.032,0.807,-0.589,-0.003,0.003,0.006,0.081,-0.053,-0.024,0.055,-0.94,0.66
2024-09-26 15:04:58.049,382457.407,0.028,0.798,-0.603,-0.003,-0.044,-0.01,0.093,0.014,0.001,0.047,-0.923,0.653
2024-09-26 15:04:58.169,382457.527,0.027,0.793,-0.608,-0.002,-0.001,-0.002,-0.033,-0.005,-0.035,0.045,-0.916,0.649
2024-09-26 15:04:58.289,382457.647,0.025,0.794,-0.607,-0.018,-0.037,0.019,-0.002,0.026,0.03,0.04,-0.918,0.646
2024-09-26 15:04:58.409,382457.767,0.029,0.799,-0.601,-0.002,0.023,0.017,0.122,0.078,-0.002,0.049,-0.925,0.649
2024-09-26 15:04:58.528,382457.887,0.031,0.796,-0.604,-0.005,-0.013,-0.003,-0.007,-0.003,0.001,0.051,-0.921,0.648
2024-09-26 15:04:58.648,382458.006,0.029,0.789,-0.614,0.008,0.004,0.005,0.209,-0.043,-0.045,0.047,-0.909,0.643
2024-09-26 15:04:58.768,382458.126,0.026,0.788,-0.615,0.003,-0.036,-0.002,-0.108,0.003,0.034,0.042,-0.907,0.64
2024-09-26 15:04:58.888,382458.246,0.027,0.786,-0.618,-0.003,0.009,0.006,0.157,-0.016,-0.02,0.043,-0.904,0.641
2024-09-26 15:04:59.008,382458.366,0.028,0.781,-0.624,-0.008,-0.006,0.011,0.023,0.062,0.014,0.044,-0.896,0.637
2024-09-26 15:04:59.127,382458.485,0.04,0.79,-0.612,-0.01,-0.018,0.002,-0.155,0.167,0.136,0.065,-0.911,0.656
2024-09-26 15:04:59.247,382458.605,0.049,0.784,-0.619,0.012,-0.018,-0.006,0.091,-0.066,-0.034,0.078,-0.901,0.662
2024-09-26 15:04:59.366,382458.725,0.042,0.787,-0.616,-0.003,0.002,-0.003,-0.036,-0.022,-0.018,0.068,-0.905,0.658
2024-09-26 15:04:59.487,382458.845,0.037,0.785,-0.619,-0.003,0.0,0.004,0.136,-0.029,-0.039,0.06,-0.902,0.651
2024-09-26 15:04:59.607,382458.965,0.039,0.78,-0.624,-0.012,-0.03,0.005,-0.013,0.091,-0.004,0.062,-0.895,0.645
2024-09-26 15:04:59.726,382459.084,0.036,0.78,-0.625,-0.002,0.003,-0.004,0.013,-0.025,-0.022,0.058,-0.895,0.642
2024-09-26 15:04:59.846,382459.204,0.033,0.78,-0.624,-0.003,-0.006,-0.002,-0.038,-0.03,-0.012,0.053,-0.895,0.637
2024-09-26 15:04:59.966,382459.324,0.026,0.785,-0.619,-0.014,0.018,0.005,0.017,-0.02,-0.02,0.042,-0.903,0.631
2024-09-26 15:05:00.086,382459.444,0.026,0.787,-0.616,0.005,0.007,0.015,-0.155,-0.093,0.009,0.042,-0.906,0.634
2024-09-26 15:05:00.205,382459.564,0.028,0.794,-0.607,-0.002,0.012,0.006,0.087,0.056,-0.022,0.045,-0.918,0.635
2024-09-26 15:05:00.325,382459.683,0.025,0.789,-0.614,0.004,0.005,0.009,0.178,-0.036,-0.067,0.041,-0.909,0.629
2024-09-26 15:05:00.445,382459.803,0.025,0.781,-0.624,-0.007,0.001,0.006,0.093,0.054,-0.03,0.04,-0.896,0.622
2024-09-26 15:05:00.565,382459.923,0.025,0.79,-0.613,-0.01,0.081,0.008,-0.087,0.02,0.152,0.041,-0.911,0.631
2024-09-26 15:05:00.685,382460.043,0.056,0.794,-0.605,-0.036,0.079,0.02,0.249,-0.034,0.032,0.092,-0.918,0.671
2024-09-26 15:05:00.804,382460.163,0.054,0.788,-0.613,0.009,-0.016,0.005,-0.031,-0.056,-0.066,0.087,-0.908,0.664
2024-09-26 15:05:00.924,382460.282,0.043,0.794,-0.606,0.062,-0.001,-0.01,-0.133,-0.097,0.021,0.071,-0.918,0.66
2024-09-26 15:05:01.044,382460.402,0.03,0.799,-0.6,-0.018,-0.004,-0.009,-0.059,-0.031,-0.014,0.05,-0.926,0.649
2024-09-26 15:05:01.164,382460.522,0.03,0.8,-0.599,0.001,-0.008,0.005,0.012,0.004,-0.033,0.05,-0.927,0.645
2024-09-26 15:05:01.284,382460.642,0.027,0.796,-0.604,-0.003,0.019,0.001,0.136,0.012,-0.016,0.045,-0.921,0.64
2024-09-26 15:05:01.404,382460.762,0.032,0.798,-0.602,0.008,-0.064,-0.014,-0.251,0.102,0.095,0.054,-0.924,0.645
2024-09-26 15:05:01.523,382460.881,0.035,0.802,-0.597,-0.007,-0.025,-0.007,-0.026,-0.044,-0.011,0.058,-0.93,0.649
2024-09-26 15:05:01.643,382461.001,0.03,0.795,-0.606,0.004,0.027,0.013,0.131,0.039,-0.038,0.049,-0.919,0.644
2024-09-26 15:05:01.763,382461.121,0.033,0.788,-0.614,-0.005,-0.003,0.009,0.041,0.029,-0.011,0.054,-0.908,0.64
2024-09-26 15:05:01.883,382461.241,0.026,0.792,-0.61,-0.006,-0.003,-0.009,-0.207,-0.194,0.027,0.042,-0.915,0.637
2024-09-26 15:05:02.002,382461.36,0.028,0.802,-0.596,0.003,-0.029,-0.016,-0.13,0.026,0.007,0.048,-0.931,0.644
2024-09-26 15:05:02.122,382461.48,0.029,0.802,-0.596,-0.001,0.002,0.008,0.048,0.029,-0.013,0.049,-0.931,0.64
2024-09-26 15:05:02.242,382461.6,0.03,0.801,-0.598,-0.002,0.002,0.004,0.034,-0.012,-0.016,0.049,-0.929,0.639
2024-09-26 15:05:02.362,382461.72,0.028,0.8,-0.599,-0.006,-0.003,0.004,0.023,0.011,-0.0,0.047,-0.928,0.638
2024-09-26 15:05:02.482,382461.84,0.023,0.795,-0.606,-0.003,0.018,0.011,0.21,-0.028,-0.047,0.038,-0.919,0.631
2024-09-26 15:05:02.601,382461.959,0.021,0.79,-0.613,-0.004,-0.003,-0.013,-0.068,-0.051,-0.014,0.034,-0.911,0.626
2024-09-26 15:05:02.721,382462.079,0.021,0.79,-0.613,-0.012,-0.001,0.011,0.032,0.024,0.06,0.034,-0.911,0.627
2024-09-26 15:05:02.841,382462.199,0.025,0.792,-0.61,-0.001,0.023,0.013,0.074,0.027,-0.031,0.041,-0.914,0.63
2024-09-26 15:05:02.961,382462.319,0.022,0.785,-0.619,0.009,0.016,0.006,0.212,0.039,-0.056,0.036,-0.903,0.624
2024-09-26 15:05:03.081,382462.439,0.021,0.788,-0.615,-0.02,-0.016,0.014,-0.084,0.033,0.026,0.034,-0.908,0.625
2024-09-26 15:05:03.201,382462.558,0.019,0.785,-0.619,0.005,0.006,0.005,0.255,-0.032,-0.049,0.031,-0.902,0.621
2024-09-26 15:05:03.320,382462.678,0.021,0.784,-0.621,-0.009,-0.04,-0.008,-0.18,-0.076,0.145,0.033,-0.901,0.624
2024-09-26 15:05:03.440,382462.798,0.041,0.789,-0.613,-0.019,0.005,0.004,-0.063,0.107,0.132,0.067,-0.909,0.647
2024-09-26 15:05:03.560,382462.918,0.039,0.787,-0.616,-0.003,-0.014,-0.006,-0.087,-0.111,-0.03,0.063,-0.905,0.642
2024-09-26 15:05:03.680,382463.038,0.033,0.789,-0.614,0.003,0.01,0.004,0.052,-0.021,-0.037,0.054,-0.909,0.639
2024-09-26 15:05:03.799,382463.157,0.029,0.783,-0.621,0.007,-0.049,-0.001,0.047,0.065,-0.02,0.047,-0.899,0.63
2024-09-26 15:05:03.919,382463.277,0.031,0.78,-0.625,0.003,-0.013,-0.005,-0.01,-0.005,-0.035,0.049,-0.894,0.628
2024-09-26 15:05:04.039,382463.397,0.029,0.778,-0.627,-0.003,0.003,0.002,0.003,-0.009,-0.009,0.046,-0.892,0.626
2024-09-26 15:05:04.159,382463.517,0.024,0.782,-0.623,-0.001,0.016,0.0,-0.019,-0.031,-0.04,0.038,-0.897,0.622
2024-09-26 15:05:04.279,382463.637,0.023,0.786,-0.618,0.005,-0.005,0.001,-0.093,0.019,0.013,0.038,-0.904,0.625
2024-09-26 15:05:04.398,382463.756,0.023,0.787,-0.616,0.0,-0.009,-0.006,0.059,-0.013,-0.02,0.037,-0.906,0.622
2024-09-26 15:05:04.518,382463.876,0.021,0.78,-0.625,0.005,0.006,0.007,0.067,0.012,-0.054,0.033,-0.895,0.615
2024-09-26 15:05:04.638,382463.996,0.016,0.781,-0.624,-0.003,0.004,-0.006,-0.108,-0.065,-0.008,0.026,-0.896,0.608
2024-09-26 15:05:04.758,382464.116,0.028,0.795,-0.606,0.006,-0.047,-0.016,-0.158,0.114,0.145,0.046,-0.918,0.63
2024-09-26 15:05:04.878,382464.235,0.066,0.785,-0.616,-0.103,0.106,0.061,0.299,-0.028,0.04,0.107,-0.903,0.674
2024-09-26 15:05:04.997,382464.355,0.055,0.78,-0.624,0.071,-0.022,-0.011,0.007,-0.057,-0.05,0.088,-0.894,0.655
2024-09-26 15:05:05.117,382464.475,0.045,0.784,-0.619,0.043,-0.012,-0.014,-0.169,-0.079,-0.131,0.072,-0.901,0.646
2024-09-26 15:05:05.236,382464.595,0.038,0.792,-0.609,-0.009,-0.011,-0.01,-0.163,0.033,-0.006,0.062,-0.914,0.638
2024-09-26 15:05:05.356,382464.715,0.037,0.798,-0.601,-0.009,0.022,0.014,0.04,-0.022,-0.002,0.061,-0.924,0.635
2024-09-26 15:05:05.477,382464.834,0.035,0.798,-0.601,-0.005,0.027,0.015,0.107,-0.017,-0.033,0.058,-0.925,0.633
2024-09-26 15:05:05.596,382464.954,0.032,0.792,-0.61,-0.019,-0.016,0.03,0.017,0.059,0.031,0.053,-0.913,0.625
2024-09-26 15:05:05.716,382465.074,0.041,0.802,-0.596,0.006,0.055,0.029,0.096,-0.019,0.024,0.069,-0.93,0.639
2024-09-26 15:05:05.836,382465.194,0.037,0.802,-0.597,-0.002,0.012,0.01,0.083,-0.052,-0.025,0.063,-0.93,0.638
2024-09-26 15:05:05.956,382465.314,0.031,0.794,-0.607,-0.031,-0.005,-0.021,0.002,0.026,-0.03,0.05,-0.917,0.631
2024-09-26 15:05:06.075,382465.433,0.032,0.79,-0.613,0.006,0.008,-0.003,0.009,-0.079,0.01,0.052,-0.91,0.63
2024-09-26 15:05:06.195,382465.553,0.025,0.798,-0.602,-0.029,-0.051,0.008,-0.125,0.079,0.032,0.042,-0.924,0.634
2024-09-26 15:05:06.315,382465.673,0.028,0.805,-0.593,-0.013,0.004,-0.0,0.02,0.026,-0.018,0.047,-0.936,0.635
2024-09-26 15:05:06.435,382465.793,0.022,0.794,-0.607,-0.012,-0.006,0.008,0.037,0.02,-0.04,0.036,-0.918,0.625
2024-09-26 15:05:06.554,382465.913,0.019,0.794,-0.607,-0.002,-0.033,-0.011,-0.137,-0.053,-0.01,0.032,-0.918,0.622
2024-09-26 15:05:06.675,382466.032,0.022,0.796,-0.605,-0.005,-0.038,-0.028,-0.163,0.075,0.043,0.036,-0.921,0.627
2024-09-26 15:05:06.794,382466.152,0.024,0.793,-0.609,-0.002,-0.004,0.001,0.124,0.012,-0.039,0.039,-0.916,0.624
2024-09-26 15:05:06.914,382466.272,0.02,0.787,-0.617,0.005,-0.012,0.009,-0.009,-0.082,-0.01,0.033,-0.905,0.619
2024-09-26 15:05:07.034,382466.392,0.022,0.784,-0.621,-0.008,0.002,0.003,0.052,0.062,-0.011,0.035,-0.901,0.617
2024-09-26 15:05:07.153,382466.512,0.024,0.785,-0.619,-0.017,-0.005,-0.003,-0.052,0.015,0.104,0.038,-0.903,0.622
2024-09-26 15:05:07.273,382466.631,0.044,0.786,-0.616,-0.009,0.014,0.008,0.113,0.15,0.065,0.071,-0.905,0.642
2024-09-26 15:05:07.393,382466.751,0.04,0.784,-0.62,-0.001,-0.007,0.004,-0.066,-0.066,-0.029,0.065,-0.901,0.634
2024-09-26 15:05:07.513,382466.871,0.037,0.788,-0.614,0.001,0.011,0.005,0.008,-0.021,-0.029,0.06,-0.908,0.632
2024-09-26 15:05:07.633,382466.991,0.033,0.786,-0.618,-0.0,0.011,0.012,0.123,-0.05,-0.044,0.053,-0.904,0.627
2024-09-26 15:05:07.752,382467.11,0.032,0.78,-0.625,-0.012,-0.033,0.0,0.01,0.088,0.003,0.051,-0.895,0.619
2024-09-26 15:05:07.872,382467.23,0.03,0.779,-0.627,-0.003,-0.002,-0.003,-0.017,-0.027,-0.042,0.048,-0.892,0.615
2024-09-26 15:05:07.992,382467.35,0.025,0.782,-0.623,-0.001,0.013,0.011,0.02,-0.105,0.001,0.04,-0.898,0.612
2024-09-26 15:05:08.112,382467.47,0.024,0.786,-0.618,-0.004,0.022,-0.012,-0.08,-0.035,0.035,0.039,-0.905,0.616
2024-09-26 15:05:08.231,382467.59,0.025,0.789,-0.614,0.0,0.026,0.013,0.102,0.023,-0.017,0.04,-0.91,0.616
2024-09-26 15:05:08.351,382467.709,0.021,0.783,-0.622,-0.013,-0.004,-0.02,-0.006,-0.001,-0.043,0.033,-0.899,0.607
2024-09-26 15:05:08.471,382467.829,0.015,0.786,-0.618,-0.003,-0.014,0.021,-0.207,-0.145,0.074,0.024,-0.904,0.602
2024-09-26 15:05:08.591,382467.949,0.032,0.799,-0.6,-0.01,-0.041,-0.003,-0.209,0.299,0.241,0.053,-0.926,0.629
2024-09-26 15:05:08.711,382468.069,0.076,0.796,-0.6,-0.062,0.022,0.031,0.153,-0.007,-0.04,0.126,-0.921,0.676
2024-09-26 15:05:08.831,382468.189,0.061,0.788,-0.613,0.034,-0.025,-0.016,0.024,-0.219,-0.145,0.099,-0.907,0.654
2024-09-26 15:05:08.951,382468.308,0.039,0.789,-0.613,0.079,-0.064,-0.028,-0.168,-0.179,-0.008,0.064,-0.909,0.644
2024-09-26 15:05:09.070,382468.428,0.024,0.797,-0.603,-0.017,0.007,0.01,-0.044,0.003,-0.013,0.04,-0.923,0.629
2024-09-26 15:05:09.190,382468.548,0.023,0.8,-0.6,-0.003,0.013,0.008,0.038,-0.039,-0.016,0.039,-0.927,0.629
2024-09-26 15:05:09.310,382468.668,0.022,0.8,-0.6,-0.007,0.002,0.008,0.016,0.01,-0.011,0.037,-0.926,0.627
2024-09-26 15:05:09.429,382468.788,0.02,0.795,-0.606,-0.001,0.0,0.003,0.156,-0.057,-0.053,0.033,-0.919,0.624
2024-09-26 15:05:09.549,382468.907,0.022,0.791,-0.611,-0.014,-0.017,0.01,-0.106,-0.002,0.063,0.036,-0.913,0.621
2024-09-26 15:05:09.669,382469.027,0.024,0.8,-0.599,0.004,0.017,0.015,0.068,-0.054,-0.026,0.041,-0.927,0.631
2024-09-26 15:05:09.789,382469.147,0.018,0.791,-0.612,-0.049,-0.002,-0.018,-0.013,0.099,-0.035,0.029,-0.912,0.623
2024-09-26 15:05:09.909,382469.267,0.022,0.786,-0.618,-0.003,-0.028,-0.008,0.025,0.02,-0.004,0.036,-0.904,0.618
2024-09-26 15:05:10.028,382469.387,0.015,0.787,-0.616,-0.001,-0.032,-0.009,-0.232,-0.253,0.127,0.025,-0.907,0.619
2024-09-26 15:05:10.148,382469.506,0.019,0.794,-0.608,-0.005,-0.032,-0.021,-0.264,0.082,-0.0,0.032,-0.917,0.627
2024-09-26 15:05:10.268,382469.626,0.02,0.796,-0.605,0.005,-0.013,-0.005,0.066,-0.026,-0.065,0.034,-0.92,0.624
2024-09-26 15:05:10.387,382469.746,0.015,0.784,-0.621,0.001,0.018,0.001,0.099,0.016,-0.041,0.025,-0.901,0.613
2024-09-26 15:05:10.508,382469.866,0.012,0.789,-0.615,-0.005,0.003,-0.011,-0.198,-0.008,0.025,0.02,-0.909,0.612
2024-09-26 15:05:10.627,382469.985,0.015,0.79,-0.612,-0.005,-0.017,0.006,-0.018,0.03,0.015,0.025,-0.911,0.615
2024-09-26 15:05:10.748,382470.105,0.014,0.785,-0.619,0.011,0.015,0.01,0.248,-0.07,-0.062,0.023,-0.903,0.612
2024-09-26 15:05:10.867,382470.225,0.009,0.783,-0.622,-0.013,0.007,0.024,0.026,0.039,-0.005,0.015,-0.899,0.608
2024-09-26 15:05:10.987,382470.345,0.011,0.778,-0.628,-0.028,0.011,-0.003,-0.007,0.032,-0.039,0.017,-0.892,0.605
2024-09-26 15:05:11.107,382470.465,0.014,0.781,-0.625,-0.009,-0.011,0.008,-0.091,0.035,0.118,0.022,-0.896,0.61
2024-09-26 15:05:11.226,382470.584,0.037,0.784,-0.62,-0.01,0.027,0.019,0.15,0.222,0.108,0.06,-0.9,0.634
2024-09-26 15:05:11.346,382470.704,0.035,0.778,-0.627,-0.001,-0.049,-0.02,-0.167,-0.156,-0.066,0.055,-0.891,0.626
2024-09-26 15:05:11.466,382470.824,0.03,0.785,-0.619,-0.001,0.003,0.005,-0.063,-0.061,-0.025,0.048,-0.903,0.624
2024-09-26 15:05:11.586,382470.944,0.027,0.789,-0.614,0.0,-0.014,-0.009,-0.029,-0.015,-0.012,0.044,-0.908,0.623
2024-09-26 15:05:11.706,382471.064,0.022,0.784,-0.62,0.006,0.008,0.009,0.184,-0.088,-0.043,0.036,-0.901,0.617
2024-09-26 15:05:11.825,382471.183,0.023,0.78,-0.626,0.001,-0.024,-0.0,0.0,0.046,-0.005,0.036,-0.894,0.613
2024-09-26 15:05:11.945,382471.303,0.021,0.778,-0.628,-0.007,-0.006,0.009,0.047,0.004,-0.007,0.033,-0.891,0.609
2024-09-26 15:05:12.065,382471.423,0.02,0.776,-0.63,-0.004,-0.004,-0.001,0.01,-0.016,-0.016,0.032,-0.888,0.607
2024-09-26 15:05:12.185,382471.543,0.016,0.778,-0.628,0.001,-0.019,-0.006,-0.008,-0.033,-0.018,0.026,-0.891,0.604
2024-09-26 15:05:12.304,382471.663,0.017,0.78,-0.626,-0.006,-0.01,0.014,-0.112,-0.008,0.037,0.027,-0.895,0.608
2024-09-26 15:05:12.424,382471.782,0.017,0.786,-0.618,-0.004,-0.04,-0.012,-0.113,0.04,-0.021,0.027,-0.904,0.608
2024-09-26 15:05:12.544,382471.902,0.015,0.779,-0.626,0.002,0.013,0.01,0.18,0.081,-0.056,0.024,-0.894,0.603
2024-09-26 15:05:12.664,382472.022,0.012,0.777,-0.63,0.0,-0.012,-0.003,-0.076,-0.025,-0.001,0.019,-0.89,0.594
2024-09-26 15:05:12.784,382472.142,0.022,0.79,-0.613,-0.012,-0.042,-0.029,-0.209,0.115,0.11,0.035,-0.911,0.612
2024-09-26 15:05:12.903,382472.262,0.056,0.785,-0.617,-0.118,0.023,0.068,0.104,0.008,-0.084,0.091,-0.903,0.652
2024-09-26 15:05:13.023,382472.381,0.041,0.781,-0.623,0.039,-0.021,-0.014,-0.02,-0.161,-0.094,0.066,-0.897,0.638
2024-09-26 15:05:13.143,382472.501,0.029,0.785,-0.619,0.046,-0.041,-0.001,-0.153,-0.116,-0.101,0.047,-0.903,0.629
2024-09-26 15:05:13.263,382472.621,0.027,0.79,-0.613,0.002,-0.013,-0.001,-0.11,-0.023,-0.004,0.045,-0.91,0.627
2024-09-26 15:05:13.383,382472.741,0.024,0.791,-0.612,0.005,-0.001,-0.004,0.049,-0.044,-0.029,0.04,-0.912,0.622
2024-09-26 15:05:13.502,382472.861,0.019,0.779,-0.626,-0.03,0.034,-0.031,0.067,0.044,-0.085,0.03,-0.894,0.614
2024-09-26 15:05:13.622,382472.98,0.025,0.786,-0.618,-0.02,0.043,-0.021,-0.367,0.064,0.076,0.04,-0.904,0.619
2024-09-26 15:05:13.742,382473.1,0.023,0.79,-0.612,-0.004,-0.018,-0.002,-0.008,-0.024,-0.007,0.038,-0.911,0.621
2024-09-26 15:05:13.862,382473.22,0.022,0.79,-0.613,-0.002,0.004,0.005,0.035,-0.028,0.001,0.036,-0.911,0.622
2024-09-26 15:05:13.981,382473.34,0.015,0.782,-0.623,0.012,-0.123,-0.011,0.044,0.09,-0.033,0.025,-0.898,0.616
2024-09-26 15:05:14.101,382473.459,0.017,0.776,-0.63,0.008,0.032,0.007,0.04,-0.057,0.006,0.026,-0.889,0.611
2024-09-26 15:05:14.221,382473.579,0.014,0.786,-0.618,-0.038,-0.036,0.012,-0.142,0.015,0.088,0.022,-0.905,0.627
2024-09-26 15:05:14.341,382473.699,0.02,0.796,-0.605,-0.007,0.008,0.009,0.032,0.032,-0.016,0.032,-0.92,0.627
2024-09-26 15:05:14.461,382473.819,0.017,0.792,-0.61,-0.001,0.011,0.008,0.167,-0.023,-0.054,0.027,-0.915,0.622
2024-09-26 15:05:14.581,382473.939,0.01,0.78,-0.625,-0.017,-0.023,-0.01,0.082,-0.003,0.006,0.016,-0.895,0.614
2024-09-26 15:05:14.700,382474.058,0.008,0.776,-0.631,-0.0,-0.02,-0.009,-0.1,-0.033,-0.007,0.013,-0.888,0.61
2024-09-26 15:05:14.820,382474.178,0.009,0.782,-0.624,-0.002,0.013,-0.001,-0.113,0.0,0.023,0.015,-0.897,0.613
2024-09-26 15:05:14.940,382474.298,0.009,0.782,-0.623,-0.01,-0.013,0.0,-0.009,0.048,0.014,0.015,-0.898,0.611
2024-09-26 15:05:15.060,382474.418,0.01,0.78,-0.626,0.001,0.001,0.0,0.095,0.009,-0.036,0.016,-0.894,0.608
2024-09-26 15:05:15.180,382474.538,0.007,0.776,-0.631,-0.002,-0.024,0.003,-0.003,-0.003,0.009,0.011,-0.888,0.604
2024-09-26 15:05:15.299,382474.657,0.007,0.773,-0.634,0.01,0.012,0.005,0.106,0.074,-0.022,0.012,-0.883,0.602
2024-09-26 15:05:15.419,382474.777,0.012,0.777,-0.63,-0.013,-0.078,-0.009,-0.17,0.054,0.138,0.018,-0.889,0.607
2024-09-26 15:05:15.539,382474.897,0.033,0.776,-0.63,-0.014,0.003,-0.009,0.108,0.256,0.077,0.052,-0.889,0.622
2024-09-26 15:05:15.659,382475.017,0.031,0.774,-0.632,-0.007,-0.023,-0.009,-0.085,-0.103,-0.013,0.049,-0.886,0.618
2024-09-26 15:05:15.778,382475.137,0.025,0.778,-0.628,-0.002,-0.01,-0.002,-0.051,-0.029,-0.009,0.04,-0.892,0.616
2024-09-26 15:05:15.898,382475.256,0.023,0.779,-0.626,-0.004,-0.004,0.002,-0.039,0.002,0.001,0.037,-0.893,0.615
2024-09-26 15:05:16.018,382475.376,0.022,0.779,-0.626,-0.007,-0.012,-0.003,-0.003,-0.015,-0.012,0.035,-0.894,0.614
2024-09-26 15:05:16.138,382475.496,0.02,0.776,-0.631,-0.007,0.017,0.001,0.001,0.101,-0.025,0.031,-0.888,0.609
2024-09-26 15:05:16.258,382475.616,0.021,0.775,-0.632,0.008,-0.01,-0.005,-0.023,-0.005,-0.03,0.033,-0.887,0.606
2024-09-26 15:05:16.378,382475.736,0.019,0.774,-0.633,0.0,-0.004,-0.002,0.002,-0.024,-0.021,0.03,-0.885,0.604
2024-09-26 15:05:16.497,382475.855,0.014,0.776,-0.63,0.008,-0.002,-0.008,-0.085,-0.076,-0.009,0.023,-0.889,0.601
2024-09-26 15:05:16.617,382475.975,0.012,0.776,-0.631,-0.015,-0.007,0.006,-0.012,0.017,0.044,0.019,-0.888,0.6
2024-09-26 15:05:16.737,382476.095,0.013,0.782,-0.623,0.005,0.044,0.022,0.038,-0.04,-0.005,0.021,-0.898,0.605
2024-09-26 15:05:16.857,382476.215,0.013,0.784,-0.62,-0.0,0.017,0.01,0.043,0.001,-0.002,0.022,-0.902,0.602
2024-09-26 15:05:16.976,382476.334,0.013,0.783,-0.622,-0.001,-0.009,0.003,0.022,-0.004,-0.029,0.021,-0.899,0.601
2024-09-26 15:05:17.096,382476.454,0.011,0.778,-0.628,-0.001,-0.005,0.004,0.018,0.009,-0.019,0.017,-0.892,0.595
2024-09-26 15:05:17.216,382476.574,0.011,0.791,-0.612,-0.024,-0.036,-0.006,-0.248,0.146,0.115,0.017,-0.912,0.604
2024-09-26 15:05:17.336,382476.694,0.028,0.82,-0.572,-0.023,0.009,0.016,-0.231,0.354,0.03,0.049,-0.961,0.61
2024-09-26 15:05:17.456,382476.814,0.044,0.848,-0.528,0.029,0.074,0.04,-0.113,0.107,-0.061,0.082,-1.012,0.608
2024-09-26 15:05:17.575,382476.933,0.048,0.86,-0.509,0.011,0.004,-0.02,0.004,-0.095,-0.027,0.095,-1.034,0.622
2024-09-26 15:05:17.695,382477.053,0.044,0.859,-0.51,0.036,0.018,-0.063,0.221,0.005,-0.023,0.086,-1.034,0.614
2024-09-26 15:05:17.815,382477.173,0.049,0.845,-0.532,0.039,-0.008,0.02,0.306,-0.139,0.17,0.092,-1.007,0.627
2024-09-26 15:05:17.935,382477.293,0.05,0.828,-0.558,-0.003,-0.027,0.021,0.235,-0.206,0.016,0.09,-0.976,0.639
2024-09-26 15:05:18.055,382477.413,0.038,0.813,-0.58,-0.022,0.039,0.009,0.227,-0.143,0.063,0.066,-0.95,0.637
2024-09-26 15:05:18.175,382477.532,0.03,0.797,-0.603,-0.055,0.031,0.018,0.055,0.029,-0.026,0.05,-0.922,0.63
2024-09-26 15:05:18.295,382477.652,0.023,0.794,-0.608,-0.055,0.069,-0.098,0.152,0.079,0.081,0.037,-0.917,0.619
2024-09-26 15:05:18.414,382477.772,0.023,0.802,-0.597,-0.006,0.022,-0.001,-0.144,0.08,-0.011,0.039,-0.931,0.614
2024-09-26 15:05:18.534,382477.892,0.021,0.811,-0.584,-0.012,-0.041,-0.012,-0.226,-0.036,-0.009,0.036,-0.947,0.611
2024-09-26 15:05:18.654,382478.012,0.022,0.818,-0.575,-0.009,0.019,0.019,-0.017,0.132,-0.051,0.039,-0.958,0.606
2024-09-26 15:05:18.773,382478.131,0.025,0.816,-0.578,-0.006,-0.008,0.003,-0.011,0.041,-0.034,0.043,-0.954,0.599
2024-09-26 15:05:18.893,382478.251,0.026,0.815,-0.578,0.001,-0.018,-0.009,-0.031,-0.022,0.016,0.045,-0.953,0.598
2024-09-26 15:05:19.013,382478.371,0.021,0.804,-0.594,-0.019,-0.045,-0.014,0.124,0.126,-0.01,0.036,-0.934,0.592
2024-09-26 15:05:19.132,382478.491,0.031,0.805,-0.593,-0.039,0.039,-0.009,-0.324,0.074,0.069,0.053,-0.935,0.605
2024-09-26 15:05:19.253,382478.611,0.031,0.808,-0.588,-0.007,-0.036,-0.011,-0.076,0.016,0.016,0.052,-0.942,0.603
2024-09-26 15:05:19.372,382478.73,0.03,0.809,-0.588,0.003,-0.003,0.001,0.003,-0.061,-0.039,0.051,-0.942,0.603
2024-09-26 15:05:19.492,382478.85,0.024,0.8,-0.599,-0.015,-0.01,-0.021,0.04,0.028,-0.026,0.041,-0.927,0.598
2024-09-26 15:05:19.612,382478.97,0.032,0.793,-0.608,0.015,-0.03,-0.01,-0.17,-0.037,0.036,0.052,-0.917,0.599
2024-09-26 15:05:19.732,382479.09,0.033,0.8,-0.599,0.006,0.015,0.011,0.052,-0.035,-0.035,0.055,-0.928,0.604
2024-09-26 15:05:19.852,382479.209,0.029,0.797,-0.603,-0.001,-0.008,0.011,0.111,-0.051,-0.056,0.047,-0.923,0.598
2024-09-26 15:05:19.971,382479.329,0.025,0.794,-0.608,0.006,-0.016,-0.004,-0.065,-0.018,-0.016,0.041,-0.917,0.591
2024-09-26 15:05:20.092,382479.449,0.034,0.801,-0.598,0.001,0.045,0.012,0.025,0.054,0.062,0.057,-0.929,0.606
2024-09-26 15:05:20.211,382479.569,0.043,0.799,-0.6,0.012,-0.002,0.009,0.053,-0.023,0.008,0.072,-0.925,0.62
2024-09-26 15:05:20.330,382479.689,0.039,0.796,-0.604,-0.004,0.005,0.007,0.079,0.005,-0.022,0.065,-0.921,0.615
2024-09-26 15:05:20.451,382479.808,0.038,0.785,-0.618,-0.015,0.002,-0.007,0.07,0.015,-0.023,0.061,-0.903,0.608
2024-09-26 15:05:20.570,382479.928,0.035,0.792,-0.609,-0.016,-0.017,-0.015,-0.175,-0.014,0.055,0.057,-0.914,0.609
2024-09-26 15:05:20.690,382480.048,0.034,0.793,-0.608,-0.0,-0.001,0.003,0.088,0.026,-0.029,0.055,-0.916,0.606
2024-09-26 15:05:20.810,382480.168,0.031,0.786,-0.617,-0.005,-0.033,-0.004,0.097,0.058,-0.015,0.051,-0.905,0.598
2024-09-26 15:05:20.930,382480.288,0.035,0.786,-0.618,0.004,-0.012,0.009,-0.127,0.028,0.083,0.056,-0.904,0.597
2024-09-26 15:05:21.050,382480.407,0.056,0.806,-0.589,-0.006,0.059,0.023,0.141,0.25,0.227,0.096,-0.937,0.633
2024-09-26 15:05:21.169,382480.527,0.06,0.789,-0.611,-0.017,0.003,0.014,0.145,-0.082,-0.066,0.098,-0.91,0.63
2024-09-26 15:05:21.289,382480.647,0.049,0.794,-0.607,0.06,0.006,0.005,-0.03,-0.136,-0.016,0.08,-0.917,0.623
2024-09-26 15:05:21.409,382480.767,0.042,0.797,-0.603,-0.006,0.015,0.009,0.083,0.018,-0.017,0.069,-0.922,0.614
2024-09-26 15:05:21.528,382480.887,0.041,0.799,-0.6,-0.002,0.04,0.019,0.096,-0.023,-0.006,0.069,-0.925,0.614
2024-09-26 15:05:21.648,382481.006,0.039,0.798,-0.602,-0.001,0.017,0.012,0.107,-0.006,-0.008,0.064,-0.924,0.61
2024-09-26 15:05:21.768,382481.126,0.035,0.792,-0.609,-0.006,-0.036,-0.003,0.11,0.107,0.005,0.058,-0.914,0.606
2024-09-26 15:05:21.888,382481.246,0.042,0.796,-0.604,-0.019,0.028,-0.005,-0.306,0.032,0.051,0.07,-0.92,0.613
2024-09-26 15:05:22.008,382481.366,0.041,0.801,-0.597,-0.003,-0.033,-0.011,-0.065,-0.046,-0.006,0.069,-0.93,0.617
2024-09-26 15:05:22.128,382481.486,0.038,0.8,-0.598,0.002,0.001,0.002,0.09,-0.061,-0.032,0.064,-0.928,0.616
2024-09-26 15:05:22.247,382481.605,0.039,0.79,-0.611,-0.008,-0.002,0.013,0.09,0.135,0.013,0.064,-0.912,0.609
2024-09-26 15:05:22.367,382481.725,0.042,0.799,-0.599,0.007,0.041,0.024,0.095,-0.024,-0.013,0.07,-0.926,0.618
2024-09-26 15:05:22.487,382481.845,0.038,0.797,-0.602,0.001,0.002,0.006,0.075,-0.055,-0.034,0.063,-0.923,0.613
2024-09-26 15:05:22.606,382481.965,0.035,0.789,-0.613,0.003,0.013,0.003,0.042,0.005,-0.035,0.056,-0.91,0.604
2024-09-26 15:05:22.726,382482.085,0.053,0.792,-0.609,-0.02,-0.034,-0.016,0.024,0.231,0.289,0.087,-0.913,0.63
2024-09-26 15:05:22.846,382482.204,0.063,0.779,-0.624,0.021,-0.025,-0.012,-0.021,-0.028,-0.031,0.1,-0.893,0.64
2024-09-26 15:05:22.966,382482.324,0.056,0.784,-0.619,-0.004,-0.007,-0.003,-0.043,0.005,-0.025,0.09,-0.9,0.636
2024-09-26 15:05:23.086,382482.444,0.054,0.781,-0.622,-0.004,-0.011,0.003,0.072,0.017,-0.038,0.086,-0.896,0.629
2024-09-26 15:05:23.205,382482.564,0.051,0.773,-0.632,0.0,-0.068,-0.013,0.02,0.01,-0.015,0.08,-0.883,0.621
2024-09-26 15:05:23.325,382482.683,0.048,0.78,-0.624,0.004,-0.044,-0.018,-0.191,0.086,0.022,0.078,-0.895,0.624
2024-09-26 15:05:23.445,382482.803,0.049,0.785,-0.617,-0.004,-0.026,-0.014,0.009,0.02,-0.015,0.079,-0.903,0.623
2024-09-26 15:05:23.565,382482.923,0.047,0.78,-0.624,0.004,-0.002,-0.002,0.107,0.005,-0.042,0.075,-0.895,0.618
2024-09-26 15:05:23.685,382483.043,0.046,0.776,-0.628,-0.002,0.016,-0.005,0.001,0.039,-0.019,0.073,-0.889,0.612
2024-09-26 15:05:23.805,382483.163,0.062,0.799,-0.599,0.006,0.004,-0.008,-0.278,0.092,0.173,0.103,-0.925,0.638
2024-09-26 15:05:23.924,382483.282,0.074,0.793,-0.605,-0.09,0.051,0.013,0.19,0.054,-0.033,0.121,-0.915,0.647
2024-09-26 15:05:24.044,382483.402,0.059,0.779,-0.624,0.008,0.002,0.007,0.134,0.009,-0.062,0.094,-0.894,0.63
2024-09-26 15:05:24.164,382483.522,0.059,0.776,-0.628,0.03,-0.021,0.003,0.026,0.043,-0.0,0.094,-0.888,0.624
2024-09-26 15:05:24.284,382483.642,0.06,0.779,-0.624,-0.01,-0.019,-0.008,-0.101,0.028,0.01,0.096,-0.893,0.621
2024-09-26 15:05:24.403,382483.762,0.054,0.78,-0.624,-0.001,-0.007,0.002,0.028,-0.059,-0.017,0.086,-0.894,0.613
2024-09-26 15:05:24.523,382483.881,0.045,0.78,-0.624,-0.007,-0.003,0.006,-0.017,-0.087,-0.004,0.072,-0.895,0.607
2024-09-26 15:05:24.643,382484.001,0.042,0.784,-0.62,-0.005,0.009,0.005,0.046,-0.014,-0.008,0.068,-0.901,0.609
2024-09-26 15:05:24.763,382484.121,0.04,0.783,-0.62,-0.004,0.005,0.005,0.026,-0.016,0.006,0.064,-0.9,0.607
2024-09-26 15:05:24.883,382484.241,0.039,0.782,-0.623,-0.011,0.004,-0.013,-0.058,-0.093,0.002,0.062,-0.897,0.606
2024-09-26 15:05:25.002,382484.361,0.042,0.79,-0.612,-0.011,-0.032,-0.018,-0.088,0.127,0.014,0.068,-0.911,0.613
2024-09-26 15:05:25.122,382484.48,0.043,0.784,-0.62,0.006,0.013,0.009,0.206,-0.103,-0.046,0.069,-0.901,0.608
2024-09-26 15:05:25.242,382484.6,0.036,0.776,-0.63,-0.007,-0.011,0.004,-0.097,-0.151,0.04,0.058,-0.888,0.604
2024-09-26 15:05:25.362,382484.72,0.043,0.782,-0.621,0.007,0.019,0.015,0.073,0.013,0.001,0.068,-0.898,0.611
2024-09-26 15:05:25.482,382484.84,0.041,0.782,-0.622,-0.001,0.005,0.008,0.023,-0.016,-0.004,0.066,-0.898,0.61
2024-09-26 15:05:25.601,382484.96,0.036,0.776,-0.629,0.0,0.016,0.015,0.229,0.057,-0.036,0.058,-0.889,0.603
2024-09-26 15:05:25.722,382485.079,0.038,0.777,-0.628,-0.012,-0.027,-0.003,-0.004,0.052,0.067,0.061,-0.891,0.605
2024-09-26 15:05:25.841,382485.199,0.042,0.781,-0.623,-0.0,-0.003,0.001,-0.06,-0.041,-0.003,0.068,-0.897,0.613
2024-09-26 15:05:25.961,382485.319,0.041,0.782,-0.622,-0.006,-0.008,0.002,0.026,0.023,-0.005,0.066,-0.898,0.613
2024-09-26 15:05:26.081,382485.439,0.038,0.773,-0.634,0.0,0.015,0.011,0.08,0.008,-0.008,0.06,-0.883,0.606
2024-09-26 15:05:26.200,382485.558,0.035,0.777,-0.629,-0.026,0.006,0.003,-0.161,0.053,0.036,0.056,-0.889,0.609
2024-09-26 15:05:26.320,382485.678,0.036,0.777,-0.629,0.006,-0.005,-0.005,0.182,-0.039,-0.072,0.057,-0.89,0.607
2024-09-26 15:05:26.440,382485.798,0.036,0.771,-0.636,-0.011,-0.02,0.014,-0.008,0.082,0.045,0.056,-0.88,0.601
2024-09-26 15:05:26.560,382485.918,0.064,0.782,-0.62,-0.03,0.058,0.01,0.119,0.298,0.306,0.103,-0.897,0.641
2024-09-26 15:05:26.680,382486.038,0.065,0.77,-0.635,-0.048,0.006,-0.007,-0.084,0.047,-0.025,0.102,-0.879,0.633
2024-09-26 15:05:26.799,382486.157,0.05,0.78,-0.623,0.058,0.001,0.005,-0.148,-0.168,-0.004,0.079,-0.895,0.627
2024-09-26 15:05:26.919,382486.277,0.033,0.786,-0.617,-0.021,0.012,0.01,0.054,0.023,-0.044,0.053,-0.905,0.61
2024-09-26 15:05:27.039,382486.397,0.032,0.789,-0.614,-0.001,0.0,0.012,0.005,-0.021,-0.01,0.052,-0.909,0.609
2024-09-26 15:05:27.159,382486.517,0.03,0.789,-0.614,-0.006,-0.023,-0.005,-0.05,-0.01,-0.013,0.048,-0.909,0.607
2024-09-26 15:05:27.279,382486.637,0.026,0.785,-0.619,0.0,-0.077,-0.012,0.042,0.166,-0.006,0.042,-0.902,0.602
2024-09-26 15:05:27.398,382486.756,0.036,0.795,-0.606,-0.004,-0.006,-0.01,-0.181,-0.023,0.073,0.06,-0.919,0.614
2024-09-26 15:05:27.519,382486.876,0.032,0.795,-0.605,-0.008,0.033,0.019,0.107,-0.048,-0.005,0.052,-0.92,0.615
2024-09-26 15:05:27.639,382486.996,0.026,0.786,-0.617,-0.001,0.023,0.014,0.157,0.076,-0.037,0.043,-0.905,0.609
2024-09-26 15:05:27.758,382487.116,0.034,0.784,-0.62,-0.004,-0.029,0.01,-0.142,0.081,0.061,0.055,-0.901,0.61
2024-09-26 15:05:27.877,382487.236,0.035,0.791,-0.611,-0.001,-0.034,-0.007,-0.042,-0.025,-0.027,0.057,-0.912,0.616
2024-09-26 15:05:27.997,382487.355,0.028,0.783,-0.622,0.003,0.02,0.008,0.206,0.032,-0.056,0.045,-0.899,0.605
2024-09-26 15:05:28.117,382487.475,0.034,0.786,-0.618,-0.017,-0.015,-0.01,-0.204,0.104,0.166,0.055,-0.904,0.614
2024-09-26 15:05:28.237,382487.595,0.048,0.784,-0.619,0.002,0.006,0.003,0.044,0.008,-0.002,0.077,-0.901,0.631
2024-09-26 15:05:28.357,382487.715,0.041,0.786,-0.617,-0.002,-0.001,-0.001,-0.004,-0.063,-0.027,0.066,-0.904,0.627
2024-09-26 15:05:28.476,382487.835,0.038,0.786,-0.617,-0.004,-0.012,0.004,0.009,0.008,-0.012,0.061,-0.904,0.625
2024-09-26 15:05:28.596,382487.954,0.034,0.78,-0.625,-0.004,0.022,0.017,0.178,0.035,-0.019,0.055,-0.894,0.619
2024-09-26 15:05:28.716,382488.074,0.03,0.78,-0.625,-0.011,-0.049,-0.018,-0.219,-0.021,0.037,0.048,-0.895,0.618
2024-09-26 15:05:28.836,382488.194,0.032,0.789,-0.613,0.002,0.031,0.018,0.105,0.009,-0.026,0.053,-0.909,0.619
2024-09-26 15:05:28.956,382488.314,0.027,0.781,-0.624,-0.001,0.008,0.006,0.122,0.013,-0.029,0.043,-0.896,0.611
2024-09-26 15:05:29.075,382488.433,0.026,0.773,-0.634,-0.002,-0.005,-0.0,0.078,0.056,-0.042,0.041,-0.883,0.606
2024-09-26 15:05:29.196,382488.553,0.037,0.788,-0.614,-0.046,0.013,-0.0,-0.4,0.22,0.195,0.059,-0.908,0.62
2024-09-26 15:05:29.315,382488.673,0.056,0.782,-0.621,-0.129,0.057,0.029,0.27,0.101,0.008,0.089,-0.897,0.637
2024-09-26 15:05:29.435,382488.793,0.041,0.784,-0.619,0.079,-0.003,-0.001,-0.045,-0.224,-0.041,0.065,-0.901,0.624
2024-09-26 15:05:29.554,382488.913,0.023,0.793,-0.609,-0.011,0.014,0.009,-0.04,-0.095,-0.032,0.038,-0.915,0.612
2024-09-26 15:05:29.674,382489.032,0.02,0.797,-0.603,0.001,0.006,0.011,-0.002,-0.032,-0.008,0.033,-0.923,0.612
2024-09-26 15:05:29.794,382489.152,0.017,0.797,-0.603,0.004,0.016,0.009,0.072,-0.038,-0.028,0.029,-0.923,0.61
2024-09-26 15:05:29.914,382489.272,0.014,0.793,-0.609,0.002,0.012,0.015,0.245,-0.094,-0.018,0.022,-0.916,0.608
2024-09-26 15:05:30.034,382489.392,0.014,0.784,-0.621,-0.007,-0.046,0.011,-0.032,0.023,0.04,0.023,-0.901,0.603
2024-09-26 15:05:30.154,382489.512,0.021,0.795,-0.607,0.016,0.051,0.032,0.106,-0.056,-0.034,0.035,-0.919,0.616
2024-09-26 15:05:30.273,382489.631,0.019,0.793,-0.609,-0.007,-0.022,-0.004,0.001,0.021,0.008,0.031,-0.915,0.613
2024-09-26 15:05:30.393,382489.751,0.015,0.79,-0.613,0.004,0.009,0.01,0.164,-0.091,-0.031,0.025,-0.911,0.611
2024-09-26 15:05:30.513,382489.871,0.018,0.78,-0.626,-0.016,0.001,0.014,0.02,0.122,0.008,0.029,-0.894,0.607
2024-09-26 15:05:30.633,382489.991,0.022,0.792,-0.61,0.006,0.016,0.007,-0.006,-0.056,0.023,0.036,-0.915,0.616
2024-09-26 15:05:30.752,382490.111,0.015,0.783,-0.622,-0.002,0.008,0.013,0.258,-0.038,-0.052,0.025,-0.9,0.607
2024-09-26 15:05:30.873,382490.23,0.016,0.782,-0.623,-0.021,-0.011,0.012,0.041,0.144,0.133,0.025,-0.898,0.608
2024-09-26 15:05:30.992,382490.35,0.044,0.774,-0.632,-0.053,0.008,0.008,0.103,0.021,-0.066,0.07,-0.884,0.636
2024-09-26 15:05:31.112,382490.47,0.034,0.776,-0.63,0.027,0.071,0.011,-0.014,-0.047,-0.137,0.054,-0.889,0.624
2024-09-26 15:05:31.232,382490.59,0.029,0.775,-0.631,0.0,0.008,-0.0,0.045,-0.015,0.001,0.045,-0.887,0.617
2024-09-26 15:05:31.352,382490.71,0.024,0.764,-0.645,0.002,0.023,0.018,0.281,0.058,-0.034,0.036,-0.87,0.609
2024-09-26 15:05:31.471,382490.829,0.021,0.767,-0.641,-0.019,-0.007,0.008,-0.256,0.023,0.07,0.032,-0.874,0.607
2024-09-26 15:05:31.591,382490.949,0.022,0.773,-0.634,-0.013,-0.041,-0.015,-0.041,0.012,-0.042,0.035,-0.884,0.607
2024-09-26 15:05:31.711,382491.069,0.018,0.767,-0.641,0.001,-0.007,0.0,0.139,-0.013,-0.047,0.028,-0.874,0.602
2024-09-26 15:05:31.831,382491.189,0.018,0.763,-0.646,-0.004,-0.011,0.007,-0.084,0.03,0.008,0.028,-0.868,0.598
2024-09-26 15:05:31.951,382491.309,0.051,0.779,-0.625,-0.028,0.043,0.007,0.065,0.36,0.349,0.081,-0.893,0.637
2024-09-26 15:05:32.070,382491.428,0.049,0.771,-0.635,-0.021,-0.018,0.003,-0.008,-0.136,-0.09,0.077,-0.88,0.629
2024-09-26 15:05:32.190,382491.548,0.032,0.776,-0.63,0.012,0.046,0.01,-0.055,-0.154,-0.023,0.051,-0.888,0.617
2024-09-26 15:05:32.310,382491.668,0.025,0.782,-0.623,-0.015,0.015,0.014,-0.009,-0.04,0.012,0.04,-0.898,0.614
2024-09-26 15:05:32.430,382491.788,0.022,0.787,-0.617,0.003,0.016,0.006,-0.018,-0.079,-0.022,0.035,-0.906,0.613
2024-09-26 15:05:32.550,382491.907,0.019,0.786,-0.618,0.001,-0.011,-0.002,-0.023,-0.051,0.002,0.031,-0.905,0.613
2024-09-26 15:05:32.669,382492.027,0.013,0.779,-0.627,0.003,0.001,0.002,0.224,-0.154,-0.031,0.02,-0.892,0.608
2024-09-26 15:05:32.789,382492.147,0.017,0.771,-0.637,0.009,-0.017,-0.005,-0.146,0.02,0.044,0.026,-0.88,0.604
2024-09-26 15:05:32.909,382492.267,0.021,0.784,-0.621,-0.001,0.028,0.009,-0.023,-0.074,-0.004,0.034,-0.901,0.615
2024-09-26 15:05:33.029,382492.387,0.019,0.785,-0.619,-0.007,-0.008,-0.003,0.01,0.008,-0.014,0.03,-0.902,0.615
2024-09-26 15:05:33.149,382492.506,0.012,0.775,-0.632,-0.014,-0.009,0.005,0.038,0.044,-0.033,0.019,-0.887,0.61
2024-09-26 15:05:33.268,382492.626,0.017,0.78,-0.625,-0.014,-0.003,-0.017,-0.349,0.08,0.055,0.028,-0.895,0.61
2024-09-26 15:05:33.388,382492.746,0.018,0.785,-0.619,-0.002,-0.025,-0.001,0.039,-0.035,-0.02,0.029,-0.902,0.613
2024-09-26 15:05:33.508,382492.866,0.01,0.772,-0.635,-0.003,0.001,0.009,0.099,0.006,-0.035,0.016,-0.883,0.603
2024-09-26 15:05:33.628,382492.986,0.015,0.774,-0.633,-0.02,-0.023,-0.006,-0.174,0.137,0.078,0.024,-0.885,0.605
2024-09-26 15:05:33.747,382493.105,0.017,0.781,-0.625,-0.004,-0.018,-0.008,-0.043,-0.048,-0.016,0.028,-0.896,0.61
2024-09-26 15:05:33.867,382493.225,0.014,0.774,-0.633,0.0,-0.027,-0.012,0.048,-0.032,-0.042,0.022,-0.886,0.607
2024-09-26 15:05:33.987,382493.345,0.009,0.765,-0.644,0.004,-0.001,-0.007,-0.02,-0.08,-0.009,0.014,-0.871,0.603
2024-09-26 15:05:34.107,382493.465,0.015,0.78,-0.625,0.01,-0.045,-0.019,-0.17,0.026,0.012,0.023,-0.895,0.611
2024-09-26 15:05:34.227,382493.585,0.009,0.772,-0.635,0.001,0.031,0.012,0.315,-0.096,-0.065,0.014,-0.883,0.601
2024-09-26 15:05:34.346,382493.704,0.005,0.763,-0.646,-0.009,-0.018,-0.003,-0.021,0.035,-0.023,0.008,-0.868,0.594
2024-09-26 15:05:34.466,382493.824,0.016,0.79,-0.613,0.001,-0.09,-0.039,-0.4,0.159,0.069,0.026,-0.911,0.603
2024-09-26 15:05:34.586,382493.944,0.025,0.808,-0.588,-0.016,-0.028,-0.024,-0.495,0.243,-0.022,0.043,-0.941,0.604
2024-09-26 15:05:34.706,382494.064,0.034,0.841,-0.54,0.006,-0.011,-0.025,-0.549,0.142,-0.041,0.063,-0.999,0.604
2024-09-26 15:05:34.825,382494.184,0.039,0.855,-0.517,0.041,0.004,-0.032,-0.364,0.156,0.059,0.075,-1.025,0.601
2024-09-26 15:05:34.945,382494.303,0.051,0.854,-0.517,0.087,-0.01,0.035,0.163,-0.055,0.171,0.097,-1.024,0.615
2024-09-26 15:05:35.065,382494.423,0.097,0.821,-0.563,0.01,-0.026,0.013,-0.174,0.021,0.696,0.172,-0.963,0.701
2024-09-26 15:05:35.185,382494.543,0.124,0.811,-0.573,-0.012,-0.155,0.048,0.193,-0.329,0.076,0.213,-0.945,0.785
2024-09-26 15:05:35.304,382494.663,0.097,0.805,-0.586,-0.089,0.052,-0.012,0.034,-0.123,-0.08,0.164,-0.935,0.772
2024-09-26 15:05:35.425,382494.782,0.072,0.807,-0.586,-0.062,-0.04,0.0,-0.015,-0.211,-0.173,0.123,-0.939,0.744
2024-09-26 15:05:35.544,382494.902,0.049,0.815,-0.578,-0.017,-0.043,0.006,-0.024,0.409,0.354,0.084,-0.952,0.712
2024-09-26 15:05:35.664,382495.022,0.049,0.829,-0.557,-0.008,0.133,0.03,0.342,0.044,-0.034,0.087,-0.978,0.708
2024-09-26 15:05:35.784,382495.142,0.05,0.814,-0.579,-0.031,0.005,-0.006,-0.09,0.158,-0.058,0.086,-0.951,0.695
2024-09-26 15:05:35.904,382495.262,0.044,0.817,-0.575,0.004,-0.034,0.008,0.108,-0.034,-0.037,0.077,-0.956,0.678
2024-09-26 15:05:36.024,382495.381,0.024,0.809,-0.588,-0.02,0.144,0.041,0.321,-0.022,-0.15,0.041,-0.942,0.659
2024-09-26 15:05:36.143,382495.501,0.006,0.809,-0.587,0.011,-0.008,-0.015,-0.035,-0.058,-0.069,0.01,-0.943,0.64
2024-09-26 15:05:36.263,382495.621,-0.001,0.813,-0.582,-0.031,0.004,0.017,-0.024,0.04,0.041,-0.002,-0.95,0.628
2024-09-26 15:05:36.383,382495.741,-0.004,0.816,-0.578,-0.01,-0.019,-0.004,-0.066,-0.061,0.02,-0.007,-0.954,0.626
2024-09-26 15:05:36.502,382495.861,-0.006,0.818,-0.575,-0.002,-0.017,-0.001,-0.013,-0.022,-0.017,-0.011,-0.959,0.627
2024-09-26 15:05:36.623,382495.98,-0.01,0.807,-0.59,-0.004,0.004,0.012,0.108,-0.012,0.008,-0.017,-0.94,0.624
2024-09-26 15:05:36.742,382496.1,-0.005,0.811,-0.586,-0.032,-0.035,-0.009,-0.073,0.203,0.044,-0.009,-0.945,0.638
2024-09-26 15:05:36.862,382496.22,-0.005,0.805,-0.593,-0.003,-0.03,-0.007,-0.019,0.016,-0.014,-0.009,-0.936,0.626
2024-09-26 15:05:36.982,382496.34,-0.009,0.8,-0.6,0.002,0.017,0.007,0.231,-0.083,-0.07,-0.016,-0.928,0.619
2024-09-26 15:05:37.102,382496.46,-0.016,0.791,-0.612,0.005,-0.007,-0.011,-0.05,-0.062,-0.021,-0.027,-0.912,0.609
2024-09-26 15:05:37.222,382496.579,-0.011,0.788,-0.616,-0.008,-0.077,0.003,-0.135,-0.041,0.023,-0.017,-0.907,0.621
2024-09-26 15:05:37.341,382496.699,-0.007,0.793,-0.609,0.0,0.011,0.001,-0.026,-0.023,-0.007,-0.011,-0.916,0.628
2024-09-26 15:05:37.461,382496.819,-0.008,0.793,-0.609,-0.005,0.002,0.003,0.008,0.005,0.004,-0.014,-0.915,0.622
2024-09-26 15:05:37.581,382496.939,-0.009,0.793,-0.61,-0.009,-0.003,0.005,0.025,0.044,-0.005,-0.015,-0.915,0.619
2024-09-26 15:05:37.700,382497.059,-0.009,0.792,-0.61,-0.006,-0.007,0.002,-0.023,0.007,0.014,-0.015,-0.914,0.618
2024-09-26 15:05:37.820,382497.178,-0.011,0.792,-0.61,-0.006,-0.001,0.004,0.027,0.011,-0.01,-0.019,-0.914,0.615
2024-09-26 15:05:37.940,382497.298,-0.013,0.785,-0.619,-0.009,-0.007,-0.006,0.089,0.029,-0.027,-0.021,-0.903,0.61
2024-09-26 15:05:38.060,382497.418,-0.002,0.788,-0.615,-0.052,0.042,0.004,-0.253,0.135,0.189,-0.004,-0.908,0.623
2024-09-26 15:05:38.180,382497.538,0.012,0.79,-0.614,-0.03,-0.016,-0.006,-0.045,0.195,0.117,0.019,-0.91,0.638
2024-09-26 15:05:38.300,382497.658,0.011,0.788,-0.616,-0.013,-0.066,-0.031,-0.235,-0.035,0.003,0.018,-0.908,0.634
2024-09-26 15:05:38.419,382497.777,0.008,0.792,-0.61,-0.0,-0.008,-0.005,-0.016,0.002,-0.057,0.014,-0.914,0.632
2024-09-26 15:05:38.539,382497.897,0.008,0.793,-0.61,-0.001,-0.019,-0.007,-0.045,0.003,-0.006,0.013,-0.915,0.63
2024-09-26 15:05:38.659,382498.017,0.005,0.79,-0.613,0.004,-0.005,-0.003,0.092,-0.042,-0.045,0.008,-0.911,0.625
2024-09-26 15:05:38.779,382498.137,0.002,0.785,-0.62,0.004,-0.025,-0.007,-0.199,-0.141,0.008,0.003,-0.902,0.62
2024-09-26 15:05:38.898,382498.256,0.006,0.794,-0.608,-0.009,-0.014,-0.001,-0.032,0.092,0.012,0.009,-0.917,0.625
2024-09-26 15:05:39.018,382498.376,0.005,0.793,-0.609,0.001,-0.004,-0.001,0.0,-0.024,-0.02,0.009,-0.916,0.623
2024-09-26 15:05:39.138,382498.496,0.004,0.793,-0.61,-0.001,-0.001,-0.002,0.059,-0.021,-0.033,0.006,-0.915,0.622
2024-09-26 15:05:39.258,382498.616,0.005,0.781,-0.624,-0.011,-0.016,0.006,0.103,0.165,0.005,0.009,-0.897,0.617
2024-09-26 15:05:39.378,382498.736,0.009,0.793,-0.61,-0.011,-0.026,-0.023,-0.321,-0.032,0.053,0.015,-0.915,0.625
2024-09-26 15:05:39.497,382498.855,0.008,0.795,-0.606,-0.002,0.006,0.007,0.027,-0.029,-0.005,0.013,-0.919,0.628
2024-09-26 15:05:39.617,382498.975,0.005,0.794,-0.608,0.001,0.001,0.004,0.057,-0.046,-0.017,0.008,-0.917,0.626
2024-09-26 15:05:39.737,382499.095,0.002,0.785,-0.619,-0.001,-0.059,-0.003,0.098,0.142,-0.001,0.003,-0.903,0.621
2024-09-26 15:05:39.857,382499.215,0.008,0.784,-0.621,-0.0,0.014,0.004,-0.243,-0.118,0.053,0.013,-0.901,0.621
2024-09-26 15:05:39.977,382499.335,0.008,0.793,-0.609,0.002,0.022,0.012,0.067,0.002,-0.058,0.013,-0.916,0.622
2024-09-26 15:05:40.096,382499.454,0.004,0.79,-0.613,0.002,-0.033,-0.01,-0.004,-0.03,-0.026,0.007,-0.911,0.615
