Date,TimeStamp,GravityX,GravityY,GravityZ,UserAccelerationX,UserAccelerationY,UserAccelerationZ,RotationRateX,RotationRateY,RotationRateZ,AttitudeRoll,AttitudePitch,AttitudeYaw
2024-10-15 13:29:11.065,72902.503,0.28,0.35,-0.894,0.032,-0.005,0.009,-0.06,-0.023,-0.028,0.304,-0.358,0.896
2024-10-15 13:29:11.173,72902.623,0.281,0.352,-0.893,-0.004,-0.008,0.006,-0.003,-0.015,0.007,0.304,-0.36,0.898
2024-10-15 13:29:11.293,72902.742,0.281,0.353,-0.892,-0.003,-0.006,0.003,-0.008,0.006,0.007,0.305,-0.361,0.9
2024-10-15 13:29:11.413,72902.862,0.281,0.353,-0.892,-0.001,-0.005,0.004,0.001,-0.006,-0.005,0.305,-0.361,0.9
2024-10-15 13:29:11.532,72902.982,0.279,0.353,-0.893,-0.004,-0.001,0.004,0.02,-0.021,-0.02,0.303,-0.361,0.898
2024-10-15 13:29:11.653,72903.102,0.277,0.354,-0.894,0.008,-0.02,0.011,-0.175,-0.073,0.061,0.3,-0.361,0.9
2024-10-15 13:29:11.772,72903.222,0.273,0.375,-0.886,0.013,-0.001,0.019,-0.171,-0.118,0.185,0.299,-0.385,0.928
2024-10-15 13:29:11.892,72903.341,0.268,0.349,-0.898,0.015,-0.001,0.034,0.336,-0.14,0.162,0.29,-0.357,0.938
2024-10-15 13:29:12.011,72903.461,0.264,0.296,-0.918,-0.02,-0.023,0.024,0.239,-0.022,0.108,0.28,-0.3,0.936
2024-10-15 13:29:12.131,72903.581,0.262,0.265,-0.928,0.025,-0.004,-0.01,0.311,-0.05,0.033,0.275,-0.268,0.935
2024-10-15 13:29:12.251,72903.701,0.258,0.234,-0.937,-0.0,0.034,0.001,0.415,-0.06,0.077,0.269,-0.236,0.936
2024-10-15 13:29:12.371,72903.821,0.26,0.197,-0.945,-0.003,-0.105,-0.051,-0.292,0.102,0.253,0.269,-0.198,0.942
2024-10-15 13:29:12.491,72903.94,0.245,0.21,-0.947,-0.054,0.148,0.069,0.398,-0.148,0.074,0.253,-0.211,0.953
2024-10-15 13:29:12.611,72904.06,0.241,0.217,-0.946,0.08,0.139,-0.068,0.29,-0.062,-0.178,0.25,-0.219,0.972
2024-10-15 13:29:12.730,72904.18,0.226,0.175,-0.958,-0.11,-0.055,-0.093,0.127,-0.024,0.071,0.231,-0.176,0.957
2024-10-15 13:29:12.850,72904.3,0.231,0.215,-0.949,0.201,0.149,0.08,0.197,-0.109,-0.142,0.238,-0.217,0.971
2024-10-15 13:29:12.971,72904.42,0.225,0.18,-0.958,-0.156,-0.019,0.025,-0.07,0.158,0.192,0.23,-0.181,0.962
2024-10-15 13:29:13.090,72904.539,0.225,0.234,-0.946,0.096,0.191,0.074,0.214,-0.152,-0.11,0.234,-0.236,0.971
2024-10-15 13:29:13.210,72904.659,0.232,0.212,-0.949,-0.143,-0.2,-0.049,-0.713,0.358,0.313,0.24,-0.214,0.97
2024-10-15 13:29:13.330,72904.779,0.218,0.218,-0.951,-0.043,0.253,0.022,0.753,0.083,-0.187,0.225,-0.22,0.962
2024-10-15 13:29:13.449,72904.899,0.24,0.244,-0.94,-0.03,-0.354,-0.108,-1.715,0.102,0.282,0.25,-0.247,0.984
2024-10-15 13:29:13.569,72905.019,0.216,0.22,-0.951,0.017,0.317,0.037,1.019,-0.013,-0.143,0.223,-0.222,0.961
2024-10-15 13:29:13.689,72905.138,0.238,0.268,-0.934,0.073,0.276,-0.068,-0.379,0.048,0.274,0.249,-0.271,1.003
2024-10-15 13:29:13.809,72905.258,0.212,0.226,-0.951,0.02,-0.367,0.012,-0.008,-0.018,-0.196,0.219,-0.228,0.963
2024-10-15 13:29:13.928,72905.378,0.236,0.281,-0.93,0.117,0.135,0.082,-0.157,-0.121,-0.052,0.248,-0.284,1.003
2024-10-15 13:29:14.048,72905.498,0.22,0.219,-0.951,-0.234,0.019,-0.05,0.043,0.111,0.293,0.227,-0.221,0.966
2024-10-15 13:29:14.168,72905.618,0.229,0.287,-0.93,0.226,0.014,0.052,-0.404,-0.034,-0.313,0.241,-0.291,1.001
2024-10-15 13:29:14.288,72905.737,0.225,0.256,-0.94,-0.066,-0.033,0.078,-0.058,0.139,0.14,0.235,-0.259,0.967
2024-10-15 13:29:14.408,72905.857,0.221,0.3,-0.928,0.159,0.442,-0.036,0.862,-0.169,-0.232,0.234,-0.305,0.981
2024-10-15 13:29:14.527,72905.977,0.23,0.262,-0.937,-0.127,-0.255,-0.07,-0.721,0.187,0.19,0.24,-0.266,0.966
2024-10-15 13:29:14.647,72906.097,0.226,0.305,-0.925,-0.021,0.257,-0.028,0.825,0.021,-0.142,0.24,-0.309,0.978
2024-10-15 13:29:14.767,72906.216,0.233,0.271,-0.934,-0.018,-0.21,-0.136,-0.734,0.139,0.189,0.244,-0.275,0.976
2024-10-15 13:29:14.887,72906.336,0.223,0.276,-0.935,-0.033,0.131,0.073,0.391,-0.018,-0.129,0.234,-0.279,0.964
2024-10-15 13:29:15.007,72906.456,0.243,0.322,-0.915,0.071,0.098,-0.119,-0.641,0.264,0.088,0.259,-0.328,0.99
2024-10-15 13:29:15.127,72906.576,0.244,0.348,-0.905,0.028,0.076,0.267,0.315,-0.13,-0.328,0.263,-0.355,0.989
2024-10-15 13:29:15.246,72906.696,0.255,0.46,-0.851,0.029,0.09,0.178,-0.684,0.2,-0.059,0.292,-0.478,0.992
2024-10-15 13:29:15.366,72906.815,0.265,0.481,-0.836,-0.023,0.113,0.012,0.58,-0.144,-0.035,0.308,-0.501,0.997
2024-10-15 13:29:15.487,72906.935,0.27,0.405,-0.874,-0.036,-0.035,0.056,0.857,0.162,-0.023,0.3,-0.417,0.978
2024-10-15 13:29:15.605,72907.055,0.272,0.335,-0.902,0.072,0.007,-0.082,0.582,-0.05,0.177,0.293,-0.342,0.952
2024-10-15 13:29:15.726,72907.175,0.269,0.273,-0.923,0.038,0.005,0.075,0.476,-0.191,0.218,0.284,-0.277,0.944
2024-10-15 13:29:15.845,72907.295,0.261,0.22,-0.94,-0.108,-0.076,-0.134,-0.383,0.173,0.309,0.27,-0.222,0.947
2024-10-15 13:29:15.965,72907.414,0.256,0.211,-0.943,-0.08,0.103,-0.012,0.23,-0.156,0.068,0.265,-0.212,0.952
2024-10-15 13:29:16.085,72907.534,0.263,0.241,-0.934,0.173,-0.038,0.102,0.431,-0.092,-0.04,0.274,-0.244,0.982
2024-10-15 13:29:16.205,72907.654,0.239,0.205,-0.949,-0.192,0.129,-0.064,0.158,-0.055,0.049,0.246,-0.206,0.96
2024-10-15 13:29:16.324,72907.774,0.249,0.239,-0.939,0.25,-0.012,0.196,0.106,-0.29,-0.135,0.259,-0.241,0.98
2024-10-15 13:29:16.444,72907.894,0.243,0.223,-0.944,-0.113,-0.243,-0.131,-1.007,0.377,0.076,0.252,-0.225,0.971
2024-10-15 13:29:16.563,72908.013,0.237,0.251,-0.939,-0.035,0.091,0.024,0.546,-0.283,-0.189,0.247,-0.253,0.976
2024-10-15 13:29:16.684,72908.133,0.254,0.26,-0.932,-0.022,-0.11,-0.054,-0.752,0.363,0.177,0.266,-0.263,0.985
2024-10-15 13:29:16.804,72908.253,0.244,0.272,-0.931,-0.088,0.048,-0.065,0.218,-0.081,-0.109,0.256,-0.276,0.985
2024-10-15 13:29:16.923,72908.373,0.252,0.262,-0.932,-0.066,-0.105,-0.125,-0.373,0.335,0.123,0.264,-0.266,0.981
2024-10-15 13:29:17.043,72908.493,0.242,0.273,-0.931,-0.041,0.233,0.02,0.852,-0.185,-0.157,0.254,-0.276,0.978
2024-10-15 13:29:17.163,72908.612,0.259,0.273,-0.927,-0.035,-0.112,-0.13,-0.819,0.441,0.212,0.273,-0.276,0.985
2024-10-15 13:29:17.284,72908.732,0.237,0.253,-0.938,-0.098,0.122,0.046,1.304,0.053,-0.253,0.248,-0.256,0.966
2024-10-15 13:29:17.402,72908.852,0.261,0.276,-0.925,-0.017,-0.119,-0.229,-0.652,0.161,0.09,0.275,-0.279,0.988
2024-10-15 13:29:17.522,72908.972,0.229,0.239,-0.943,0.005,-0.195,-0.014,-0.243,-0.08,-0.178,0.238,-0.242,0.957
2024-10-15 13:29:17.642,72909.092,0.266,0.284,-0.921,0.141,-0.088,0.088,-0.118,-0.04,-0.03,0.281,-0.288,0.988
2024-10-15 13:29:17.762,72909.211,0.236,0.248,-0.939,-0.322,0.04,-0.257,-0.319,0.402,0.138,0.246,-0.251,0.959
2024-10-15 13:29:17.881,72909.331,0.261,0.286,-0.922,0.249,-0.284,0.392,-0.116,-0.387,-0.243,0.276,-0.29,0.98
2024-10-15 13:29:18.001,72909.451,0.268,0.388,-0.882,-0.106,0.026,-0.157,-1.782,0.603,-0.115,0.295,-0.398,0.976
2024-10-15 13:29:18.121,72909.571,0.282,0.419,-0.863,0.001,0.086,0.006,0.406,0.014,0.141,0.316,-0.433,0.985
2024-10-15 13:29:18.241,72909.691,0.284,0.366,-0.886,0.056,-0.173,0.042,0.313,0.046,-0.147,0.31,-0.375,0.972
2024-10-15 13:29:18.360,72909.81,0.287,0.341,-0.895,0.008,0.077,0.017,0.653,-0.068,0.118,0.31,-0.348,0.95
2024-10-15 13:29:18.481,72909.93,0.283,0.306,-0.909,0.044,-0.043,-0.039,0.114,0.062,-0.003,0.302,-0.311,0.946
2024-10-15 13:29:18.600,72910.05,0.273,0.257,-0.927,0.034,0.086,-0.005,0.853,-0.215,0.118,0.287,-0.26,0.938
2024-10-15 13:29:18.720,72910.17,0.275,0.256,-0.927,-0.05,-0.273,-0.11,-1.51,0.125,0.258,0.289,-0.258,0.96
2024-10-15 13:29:18.840,72910.289,0.255,0.247,-0.935,-0.02,0.102,0.116,0.499,-0.358,-0.117,0.266,-0.25,0.954
2024-10-15 13:29:18.960,72910.409,0.269,0.286,-0.92,0.096,0.196,0.036,0.078,0.145,0.104,0.284,-0.29,0.983
2024-10-15 13:29:19.080,72910.529,0.244,0.243,-0.939,-0.118,0.003,-0.096,-0.107,0.036,0.001,0.254,-0.246,0.954
2024-10-15 13:29:19.199,72910.649,0.267,0.291,-0.919,0.256,-0.177,0.286,0.46,-0.311,-0.156,0.283,-0.295,0.994
2024-10-15 13:29:19.319,72910.769,0.243,0.254,-0.936,-0.331,0.074,-0.33,-0.312,0.321,0.162,0.254,-0.257,0.967
2024-10-15 13:29:19.439,72910.888,0.269,0.311,-0.912,0.237,-0.156,0.267,0.237,-0.268,-0.158,0.287,-0.316,1.006
2024-10-15 13:29:19.559,72911.008,0.251,0.283,-0.926,-0.239,0.157,-0.215,-0.064,0.294,0.129,0.265,-0.287,0.983
2024-10-15 13:29:19.678,72911.128,0.271,0.321,-0.907,0.118,0.01,0.167,0.289,-0.206,-0.069,0.291,-0.327,1.008
2024-10-15 13:29:19.798,72911.248,0.247,0.278,-0.928,-0.099,0.169,-0.066,0.231,0.019,-0.025,0.26,-0.282,0.969
2024-10-15 13:29:19.918,72911.368,0.27,0.311,-0.911,0.026,-0.18,-0.068,-0.39,0.112,-0.034,0.288,-0.316,0.996
2024-10-15 13:29:20.038,72911.487,0.242,0.265,-0.933,-0.05,-0.113,-0.057,-0.253,0.075,-0.049,0.254,-0.269,0.961
2024-10-15 13:29:20.158,72911.607,0.275,0.324,-0.905,0.02,-0.118,-0.048,-0.344,0.066,0.208,0.295,-0.33,1.011
2024-10-15 13:29:20.277,72911.727,0.248,0.284,-0.926,0.06,-0.009,0.081,0.367,-0.316,-0.159,0.262,-0.288,0.977
2024-10-15 13:29:20.397,72911.847,0.269,0.317,-0.909,0.045,0.181,-0.056,-0.001,0.053,0.095,0.288,-0.323,1.013
2024-10-15 13:29:20.517,72911.967,0.243,0.279,-0.929,-0.022,-0.072,-0.012,0.148,-0.219,-0.037,0.256,-0.283,0.98
2024-10-15 13:29:20.637,72912.086,0.269,0.333,-0.904,0.116,0.041,0.049,-0.173,-0.006,0.018,0.289,-0.339,1.02
2024-10-15 13:29:20.757,72912.206,0.246,0.3,-0.922,-0.051,0.071,0.0,-0.08,0.064,0.033,0.261,-0.305,0.977
2024-10-15 13:29:20.876,72912.326,0.266,0.331,-0.905,0.036,0.116,-0.009,0.019,0.021,-0.041,0.286,-0.337,1.004
2024-10-15 13:29:20.996,72912.446,0.245,0.298,-0.923,-0.032,-0.084,0.094,0.322,-0.069,-0.111,0.26,-0.302,0.968
2024-10-15 13:29:21.116,72912.566,0.269,0.323,-0.908,0.096,-0.125,-0.002,-0.136,-0.021,-0.087,0.288,-0.329,0.995
2024-10-15 13:29:21.236,72912.685,0.251,0.307,-0.918,-0.071,-0.113,0.011,-0.21,0.05,-0.003,0.267,-0.312,0.97
2024-10-15 13:29:21.356,72912.805,0.279,0.349,-0.895,0.04,0.062,-0.033,-0.142,0.1,-0.008,0.302,-0.357,1.0
2024-10-15 13:29:21.475,72912.925,0.26,0.321,-0.911,0.036,-0.123,0.064,0.41,-0.069,-0.085,0.278,-0.327,0.973
2024-10-15 13:29:21.595,72913.045,0.272,0.314,-0.91,-0.033,-0.432,-0.116,-1.549,-0.152,0.303,0.29,-0.32,0.994
2024-10-15 13:29:21.715,72913.165,0.255,0.305,-0.918,0.021,0.175,0.224,0.695,-0.216,-0.129,0.271,-0.309,0.972
2024-10-15 13:29:21.835,72913.284,0.269,0.345,-0.899,0.042,-0.268,0.125,-0.514,-0.025,0.36,0.29,-0.352,1.016
2024-10-15 13:29:21.955,72913.404,0.259,0.353,-0.899,-0.097,-0.173,0.047,0.133,0.144,-0.748,0.28,-0.361,0.986
2024-10-15 13:29:22.074,72913.524,0.295,0.462,-0.837,0.041,0.123,0.118,-0.657,0.259,-0.008,0.339,-0.48,0.978
2024-10-15 13:29:22.194,72913.644,0.302,0.431,-0.85,0.053,0.032,-0.026,0.722,0.028,0.022,0.341,-0.446,0.965
2024-10-15 13:29:22.314,72913.764,0.304,0.375,-0.876,-0.035,-0.023,0.012,0.205,0.003,0.062,0.334,-0.385,0.952
2024-10-15 13:29:22.434,72913.883,0.307,0.354,-0.884,0.111,-0.071,0.087,0.357,-0.205,0.193,0.334,-0.362,0.958
2024-10-15 13:29:22.553,72914.003,0.288,0.28,-0.916,-0.074,0.107,-0.053,0.23,-0.098,0.191,0.305,-0.284,0.943
2024-10-15 13:29:22.673,72914.123,0.289,0.308,-0.906,0.079,-0.156,0.13,0.586,-0.058,-0.134,0.308,-0.314,0.99
2024-10-15 13:29:22.793,72914.243,0.274,0.281,-0.92,-0.203,0.089,-0.183,-0.146,0.018,0.163,0.29,-0.285,0.968
2024-10-15 13:29:22.913,72914.362,0.282,0.348,-0.894,0.261,-0.187,0.245,0.283,-0.349,-0.331,0.305,-0.356,1.003
2024-10-15 13:29:23.033,72914.482,0.272,0.313,-0.91,-0.207,-0.045,-0.278,-0.473,0.233,0.281,0.29,-0.318,0.986
2024-10-15 13:29:23.152,72914.602,0.282,0.37,-0.885,0.203,0.038,0.145,0.29,-0.131,-0.247,0.309,-0.379,1.021
2024-10-15 13:29:23.272,72914.722,0.276,0.336,-0.901,-0.078,-0.101,-0.043,-0.586,0.086,0.253,0.297,-0.343,1.004
2024-10-15 13:29:23.392,72914.842,0.268,0.362,-0.893,0.056,0.16,0.025,0.743,-0.303,-0.244,0.292,-0.371,1.014
2024-10-15 13:29:23.512,72914.961,0.273,0.341,-0.899,-0.064,-0.26,-0.133,-1.291,0.399,0.184,0.295,-0.348,1.002
2024-10-15 13:29:23.632,72915.081,0.267,0.362,-0.893,0.001,0.331,0.104,1.432,0.086,-0.313,0.29,-0.371,0.993
2024-10-15 13:29:23.752,72915.201,0.279,0.375,-0.884,-0.127,-0.288,-0.253,-2.358,0.272,0.411,0.305,-0.385,1.009
2024-10-15 13:29:23.871,72915.321,0.254,0.339,-0.906,0.066,-0.408,0.012,0.56,-0.339,-0.471,0.274,-0.346,0.968
2024-10-15 13:29:23.991,72915.441,0.287,0.419,-0.861,0.014,0.232,-0.072,-0.282,0.322,0.005,0.322,-0.432,1.014
2024-10-15 13:29:24.111,72915.56,0.268,0.394,-0.879,-0.14,-0.122,-0.022,0.005,0.136,-0.137,0.296,-0.405,0.981
2024-10-15 13:29:24.230,72915.68,0.295,0.479,-0.827,0.028,0.1,0.086,-0.407,0.213,-0.0,0.342,-0.5,1.001
2024-10-15 13:29:24.350,72915.8,0.305,0.456,-0.836,-0.082,-0.02,-0.093,0.229,-0.026,0.129,0.35,-0.473,1.0
2024-10-15 13:29:24.470,72915.92,0.305,0.411,-0.859,0.039,0.021,0.09,1.066,-0.371,0.075,0.341,-0.424,1.005
2024-10-15 13:29:24.590,72916.04,0.287,0.332,-0.899,0.13,0.062,0.12,0.581,-0.289,0.029,0.309,-0.339,0.976
2024-10-15 13:29:24.710,72916.159,0.288,0.361,-0.887,0.074,0.045,0.301,0.189,-0.062,-0.026,0.314,-0.37,1.006
2024-10-15 13:29:24.830,72916.279,0.262,0.325,-0.909,-0.431,0.249,-0.512,0.081,0.508,0.273,0.28,-0.331,0.981
2024-10-15 13:29:24.949,72916.399,0.265,0.371,-0.89,0.177,0.266,0.285,1.094,-0.467,-0.286,0.289,-0.38,1.008
2024-10-15 13:29:25.069,72916.519,0.275,0.392,-0.878,-0.096,-0.502,-0.097,-2.903,-0.033,0.624,0.303,-0.403,1.029
2024-10-15 13:29:25.189,72916.639,0.269,0.374,-0.887,-0.03,0.058,0.212,1.232,0.024,-0.297,0.294,-0.384,1.004
2024-10-15 13:29:25.309,72916.758,0.284,0.408,-0.868,0.125,-0.055,-0.015,-0.234,0.325,-0.043,0.316,-0.42,1.045
2024-10-15 13:29:25.429,72916.878,0.252,0.346,-0.904,-0.276,0.161,-0.36,0.179,0.02,0.245,0.272,-0.353,0.998
2024-10-15 13:29:25.549,72916.998,0.283,0.41,-0.867,0.386,-0.21,0.434,0.048,-0.201,-0.27,0.316,-0.422,1.04
2024-10-15 13:29:25.668,72917.118,0.27,0.365,-0.891,-0.047,0.02,-0.146,0.131,0.082,0.179,0.294,-0.374,1.004
2024-10-15 13:29:25.788,72917.238,0.262,0.372,-0.89,0.033,0.182,0.231,1.689,-0.053,-0.586,0.286,-0.381,0.995
2024-10-15 13:29:25.908,72917.357,0.286,0.382,-0.879,-0.046,-0.271,-0.29,-2.218,0.243,0.484,0.315,-0.392,1.008
2024-10-15 13:29:26.028,72917.477,0.267,0.357,-0.895,-0.007,-0.244,-0.22,0.109,-0.282,-0.203,0.29,-0.365,0.975
2024-10-15 13:29:26.147,72917.597,0.304,0.43,-0.85,0.156,0.308,0.367,0.316,0.059,-0.045,0.344,-0.445,1.021
2024-10-15 13:29:26.267,72917.717,0.271,0.381,-0.884,-0.421,-0.148,-0.467,-1.142,0.302,-0.019,0.298,-0.39,0.979
2024-10-15 13:29:26.387,72917.836,0.304,0.49,-0.817,0.089,0.046,0.104,-0.593,0.071,0.264,0.356,-0.512,1.025
2024-10-15 13:29:26.507,72917.956,0.296,0.413,-0.861,0.096,-0.044,-0.043,1.261,-0.473,0.082,0.331,-0.426,1.014
2024-10-15 13:29:26.628,72918.076,0.3,0.39,-0.871,0.146,-0.221,0.29,0.316,-0.182,-0.169,0.332,-0.4,1.032
2024-10-15 13:29:26.747,72918.196,0.28,0.345,-0.896,-0.372,0.079,-0.433,-0.498,0.386,0.437,0.303,-0.352,1.001
2024-10-15 13:29:26.866,72918.316,0.287,0.405,-0.868,0.122,-0.057,0.22,0.527,-0.309,-0.258,0.319,-0.417,1.044
2024-10-15 13:29:26.986,72918.435,0.288,0.379,-0.879,0.009,-0.476,-0.256,-2.298,0.337,0.262,0.316,-0.389,1.031
2024-10-15 13:29:27.106,72918.555,0.276,0.387,-0.88,-0.054,0.224,0.11,1.108,-0.019,-0.418,0.304,-0.398,1.018
2024-10-15 13:29:27.226,72918.675,0.302,0.421,-0.855,-0.047,-0.175,-0.168,-0.556,0.239,0.222,0.339,-0.434,1.054
2024-10-15 13:29:27.345,72918.795,0.275,0.361,-0.891,-0.008,-0.537,-0.111,-0.529,-0.38,-0.21,0.299,-0.369,0.992
2024-10-15 13:29:27.465,72918.915,0.31,0.439,-0.843,0.029,0.174,0.055,-0.231,0.108,0.064,0.352,-0.455,1.059
2024-10-15 13:29:27.585,72919.034,0.281,0.382,-0.88,-0.064,-0.188,-0.105,0.148,-0.377,0.119,0.309,-0.392,1.006
2024-10-15 13:29:27.705,72919.154,0.301,0.413,-0.86,0.298,0.007,0.446,0.526,-0.4,-0.269,0.336,-0.425,1.042
2024-10-15 13:29:27.825,72919.274,0.274,0.355,-0.894,-0.229,0.145,-0.385,0.252,0.121,0.114,0.298,-0.363,0.996
2024-10-15 13:29:27.944,72919.394,0.329,0.458,-0.826,-0.038,0.306,0.361,0.798,0.662,-0.593,0.379,-0.476,1.037
2024-10-15 13:29:28.064,72919.514,0.343,0.433,-0.834,0.101,0.123,0.17,-0.106,-0.541,0.41,0.391,-0.447,1.009
2024-10-15 13:29:28.184,72919.633,0.308,0.4,-0.863,-0.191,-0.135,-0.752,-0.837,0.548,0.169,0.343,-0.412,1.008
2024-10-15 13:29:28.304,72919.753,0.33,0.438,-0.836,0.086,-0.103,0.332,0.561,-0.326,-0.256,0.376,-0.454,1.022
2024-10-15 13:29:28.424,72919.873,0.383,0.421,-0.822,0.203,0.024,-0.027,0.243,0.375,0.344,0.436,-0.435,1.016
2024-10-15 13:29:28.543,72919.993,0.335,0.395,-0.856,-0.016,-0.096,0.051,0.39,-0.952,-0.632,0.373,-0.406,0.973
2024-10-15 13:29:28.663,72920.113,0.19,0.385,-0.903,-0.352,0.139,-0.088,0.227,-0.798,0.245,0.207,-0.396,0.948
2024-10-15 13:29:28.783,72920.232,0.193,0.392,-0.9,0.001,0.003,0.032,0.305,0.327,-0.065,0.211,-0.403,0.964
2024-10-15 13:29:28.902,72920.352,0.189,0.278,-0.942,0.026,0.107,0.022,1.471,-0.438,0.377,0.198,-0.281,0.95
2024-10-15 13:29:29.023,72920.472,0.178,0.274,-0.945,0.182,-0.203,-0.056,-0.031,-0.664,-0.51,0.186,-0.278,0.967
2024-10-15 13:29:29.142,72920.592,0.184,0.279,-0.943,-0.063,-0.487,-0.155,-2.339,0.077,0.356,0.193,-0.282,0.991
2024-10-15 13:29:29.262,72920.712,0.178,0.264,-0.948,-0.003,0.131,-0.058,0.672,-0.245,-0.028,0.186,-0.268,0.975
2024-10-15 13:29:29.382,72920.831,0.193,0.318,-0.928,0.286,0.074,0.162,-0.215,-0.059,-0.292,0.205,-0.324,1.01
2024-10-15 13:29:29.502,72920.951,0.18,0.286,-0.941,-0.341,-0.018,-0.223,0.127,0.275,0.305,0.189,-0.29,0.984
2024-10-15 13:29:29.621,72921.071,0.202,0.352,-0.914,0.248,0.006,0.359,0.449,-0.218,-0.474,0.218,-0.36,1.014
2024-10-15 13:29:29.741,72921.191,0.2,0.295,-0.934,-0.092,-0.37,-0.099,-0.199,0.061,0.316,0.211,-0.299,0.983
2024-10-15 13:29:29.861,72921.311,0.193,0.351,-0.916,0.051,0.366,0.342,1.39,-0.196,-0.444,0.208,-0.359,0.993
2024-10-15 13:29:29.981,72921.43,0.212,0.34,-0.916,-0.072,-0.316,-0.323,-2.047,0.451,0.376,0.228,-0.347,0.999
2024-10-15 13:29:30.100,72921.55,0.202,0.341,-0.918,-0.121,-0.31,-0.355,0.284,0.4,-0.035,0.217,-0.348,0.983
2024-10-15 13:29:30.221,72921.67,0.227,0.445,-0.866,-0.145,0.129,-0.072,-1.12,0.682,-0.153,0.256,-0.462,1.004
2024-10-15 13:29:30.340,72921.79,0.256,0.455,-0.853,0.127,-0.087,0.007,0.607,-0.103,0.299,0.292,-0.473,1.011
2024-10-15 13:29:30.460,72921.909,0.238,0.329,-0.914,0.053,-0.109,-0.003,0.963,-0.115,-0.049,0.254,-0.335,0.974
2024-10-15 13:29:30.580,72922.029,0.238,0.352,-0.905,0.019,-0.385,0.0,-0.581,-0.036,0.423,0.257,-0.36,1.018
2024-10-15 13:29:30.699,72922.149,0.216,0.304,-0.928,-0.111,0.359,-0.131,0.804,-0.06,0.314,0.229,-0.309,0.979
2024-10-15 13:29:30.819,72922.269,0.228,0.366,-0.902,0.356,0.114,0.408,0.218,-0.235,-0.394,0.247,-0.375,1.029
2024-10-15 13:29:30.938,72922.389,0.222,0.294,-0.93,-0.072,-0.624,-0.206,-0.926,-0.093,0.33,0.235,-0.299,1.008
2024-10-15 13:29:31.059,72922.508,0.219,0.351,-0.91,-0.254,0.344,0.026,0.696,0.4,-0.49,0.237,-0.358,0.99
2024-10-15 13:29:31.178,72922.628,0.229,0.367,-0.902,-0.147,-0.415,-0.316,-2.509,0.322,0.476,0.248,-0.376,1.01
2024-10-15 13:29:31.299,72922.748,0.216,0.352,-0.911,0.015,0.028,-0.105,0.558,0.009,-0.161,0.233,-0.359,0.973
2024-10-15 13:29:31.418,72922.868,0.235,0.403,-0.884,0.14,-0.086,0.188,-0.37,-0.135,0.178,0.259,-0.415,1.035
2024-10-15 13:29:31.538,72922.988,0.222,0.334,-0.916,-0.261,0.311,-0.211,0.767,0.228,0.395,0.238,-0.341,0.983
2024-10-15 13:29:31.658,72923.107,0.239,0.468,-0.851,-0.082,0.418,0.172,-0.173,0.407,-0.179,0.274,-0.487,1.059
2024-10-15 13:29:31.778,72923.227,0.256,0.4,-0.88,0.107,-0.077,-0.027,0.571,-0.118,0.081,0.283,-0.411,1.023
2024-10-15 13:29:31.897,72923.347,0.246,0.327,-0.912,-0.044,-0.288,-0.16,-0.709,0.171,0.318,0.264,-0.333,1.015
2024-10-15 13:29:32.017,72923.467,0.217,0.294,-0.931,-0.0,-0.218,0.066,0.136,-0.41,-0.227,0.229,-0.298,0.991
2024-10-15 13:29:32.137,72923.587,0.245,0.382,-0.891,0.233,-0.02,0.177,-0.136,-0.039,-0.099,0.268,-0.392,1.062
2024-10-15 13:29:32.257,72923.706,0.217,0.32,-0.922,-0.541,0.262,-0.477,-0.112,0.444,0.357,0.232,-0.326,0.998
2024-10-15 13:29:32.377,72923.826,0.239,0.391,-0.889,0.399,-0.329,0.55,0.907,-0.531,-0.564,0.263,-0.401,1.046
2024-10-15 13:29:32.496,72923.946,0.232,0.33,-0.915,-0.092,-0.089,-0.137,-0.222,0.14,0.53,0.248,-0.336,1.008
2024-10-15 13:29:32.616,72924.066,0.223,0.379,-0.898,0.122,0.156,0.153,1.66,-0.202,-0.634,0.243,-0.389,1.036
2024-10-15 13:29:32.736,72924.186,0.24,0.339,-0.909,0.001,-0.279,-0.134,-0.65,0.28,0.358,0.258,-0.346,1.021
2024-10-15 13:29:32.856,72924.305,0.222,0.331,-0.917,-0.133,0.513,0.069,1.343,0.118,-0.218,0.237,-0.338,0.998
2024-10-15 13:29:32.975,72924.425,0.248,0.354,-0.902,-0.047,-0.35,-0.287,-1.953,0.449,0.496,0.269,-0.362,1.024
2024-10-15 13:29:33.096,72924.545,0.218,0.337,-0.916,0.151,-0.447,-0.056,0.193,-0.387,-0.403,0.233,-0.344,0.991
2024-10-15 13:29:33.215,72924.665,0.26,0.447,-0.856,0.002,-0.169,0.211,-1.794,0.086,-0.063,0.295,-0.463,1.045
2024-10-15 13:29:33.335,72924.785,0.271,0.492,-0.827,-0.008,0.034,-0.207,-0.174,0.369,-0.339,0.316,-0.514,0.997
2024-10-15 13:29:33.455,72924.904,0.278,0.469,-0.838,0.038,-0.003,-0.004,0.688,-0.17,0.118,0.32,-0.488,0.984
2024-10-15 13:29:33.575,72925.024,0.275,0.394,-0.877,-0.024,-0.012,-0.021,0.539,-0.015,0.174,0.303,-0.405,0.97
2024-10-15 13:29:33.694,72925.144,0.264,0.307,-0.915,-0.04,0.058,-0.123,0.108,-0.06,0.48,0.281,-0.312,0.968
2024-10-15 13:29:33.814,72925.264,0.247,0.296,-0.923,-0.015,0.157,0.138,0.917,-0.183,-0.172,0.261,-0.3,0.986
2024-10-15 13:29:33.934,72925.384,0.26,0.336,-0.905,0.132,-0.182,-0.032,-0.413,0.07,0.228,0.28,-0.343,1.037
2024-10-15 13:29:34.054,72925.503,0.227,0.296,-0.928,-0.166,0.267,-0.473,0.377,0.167,0.063,0.24,-0.301,0.999
2024-10-15 13:29:34.174,72925.623,0.254,0.369,-0.894,0.256,-0.505,0.2,-0.073,-0.139,-0.315,0.277,-0.378,1.053
2024-10-15 13:29:34.293,72925.743,0.227,0.326,-0.918,-0.573,-0.049,-0.484,-0.552,0.407,0.39,0.242,-0.332,1.018
2024-10-15 13:29:34.413,72925.863,0.234,0.389,-0.891,0.158,-0.067,0.173,0.703,-0.258,-0.521,0.257,-0.4,1.042
2024-10-15 13:29:34.533,72925.982,0.243,0.361,-0.9,-0.075,-0.199,-0.269,-0.579,0.396,0.393,0.263,-0.37,1.027
2024-10-15 13:29:34.653,72926.102,0.232,0.364,-0.902,-0.221,0.36,0.07,0.942,0.024,-0.218,0.251,-0.372,1.009
2024-10-15 13:29:34.773,72926.222,0.264,0.396,-0.879,-0.135,-0.269,-0.224,-1.131,0.419,0.578,0.292,-0.408,1.044
2024-10-15 13:29:34.892,72926.342,0.226,0.367,-0.903,0.074,-0.208,-0.117,0.126,-0.199,-0.323,0.245,-0.375,0.999
2024-10-15 13:29:35.012,72926.462,0.27,0.408,-0.872,0.2,0.097,0.121,0.066,0.216,0.149,0.3,-0.42,1.042
2024-10-15 13:29:35.132,72926.581,0.235,0.372,-0.898,-0.526,0.118,-0.52,-0.489,0.37,0.113,0.256,-0.381,1.004
2024-10-15 13:29:35.251,72926.701,0.257,0.493,-0.831,-0.063,0.103,0.331,-0.943,0.081,-0.058,0.299,-0.516,1.054
2024-10-15 13:29:35.371,72926.821,0.298,0.49,-0.819,-0.013,0.015,0.037,0.305,0.112,-0.034,0.349,-0.512,1.046
2024-10-15 13:29:35.491,72926.941,0.268,0.421,-0.867,0.158,0.107,-0.007,1.404,-0.479,0.045,0.3,-0.434,1.018
2024-10-15 13:29:35.611,72927.061,0.263,0.367,-0.892,-0.016,-0.288,-0.22,-0.826,0.05,0.401,0.287,-0.376,1.033
2024-10-15 13:29:35.731,72927.18,0.24,0.335,-0.911,0.008,0.012,-0.039,0.158,-0.675,-0.19,0.258,-0.341,1.014
2024-10-15 13:29:35.851,72927.3,0.264,0.37,-0.891,0.216,-0.227,0.129,0.051,0.099,-0.13,0.288,-0.379,1.066
2024-10-15 13:29:35.971,72927.42,0.228,0.338,-0.913,-0.356,0.383,-0.216,-0.127,0.103,0.197,0.245,-0.344,1.017
2024-10-15 13:29:36.090,72927.54,0.262,0.393,-0.881,0.418,-0.447,0.499,0.114,-0.43,-0.514,0.289,-0.404,1.063
2024-10-15 13:29:36.210,72927.66,0.241,0.362,-0.9,-0.202,0.117,-0.202,-0.14,0.374,0.39,0.262,-0.37,1.024
2024-10-15 13:29:36.330,72927.779,0.251,0.398,-0.882,0.191,-0.15,0.327,0.54,-0.669,-0.568,0.277,-0.41,1.043
2024-10-15 13:29:36.450,72927.899,0.253,0.359,-0.898,-0.004,-0.338,-0.165,-0.744,0.432,0.372,0.274,-0.367,1.029
2024-10-15 13:29:36.569,72928.019,0.246,0.372,-0.895,-0.166,0.414,0.115,1.293,-0.05,-0.247,0.269,-0.381,1.026
2024-10-15 13:29:36.689,72928.139,0.267,0.443,-0.856,0.036,-0.195,0.18,-2.222,0.042,-0.093,0.303,-0.459,1.064
2024-10-15 13:29:36.809,72928.259,0.299,0.463,-0.834,0.004,0.06,-0.057,-0.01,0.474,-0.465,0.344,-0.482,0.995
2024-10-15 13:29:36.929,72928.378,0.295,0.464,-0.835,0.065,-0.041,-0.01,-0.053,-0.373,0.241,0.34,-0.483,0.982
2024-10-15 13:29:37.048,72928.498,0.29,0.416,-0.862,-0.002,0.013,0.116,0.309,-0.121,0.349,0.325,-0.429,1.015
2024-10-15 13:29:37.169,72928.618,0.274,0.33,-0.903,-0.016,-0.019,-0.059,0.798,-0.096,-0.031,0.295,-0.336,0.999
2024-10-15 13:29:37.288,72928.738,0.266,0.298,-0.917,-0.024,-0.018,-0.039,-0.21,0.052,0.382,0.282,-0.302,1.006
2024-10-15 13:29:37.408,72928.858,0.246,0.283,-0.927,-0.049,0.194,0.027,0.109,-0.329,-0.089,0.26,-0.287,0.995
2024-10-15 13:29:37.527,72928.977,0.266,0.345,-0.9,0.161,0.189,0.158,0.415,0.249,-0.122,0.288,-0.352,1.052
2024-10-15 13:29:37.648,72929.097,0.233,0.309,-0.922,-0.56,0.316,-0.45,-0.498,0.411,0.303,0.248,-0.314,1.013
2024-10-15 13:29:37.768,72929.217,0.262,0.38,-0.887,0.319,-0.311,0.515,0.567,-0.613,-0.476,0.287,-0.39,1.054
2024-10-15 13:29:37.887,72929.337,0.25,0.346,-0.904,-0.1,0.016,-0.266,-0.345,0.298,0.344,0.269,-0.353,1.026
2024-10-15 13:29:38.007,72929.457,0.247,0.378,-0.892,-0.113,0.286,-0.051,1.222,0.032,-0.433,0.27,-0.388,1.032
2024-10-15 13:29:38.127,72929.576,0.271,0.362,-0.892,0.037,-0.161,-0.357,-1.19,0.513,0.35,0.295,-0.37,1.037
2024-10-15 13:29:38.247,72929.696,0.242,0.375,-0.895,0.074,-0.434,-0.16,-0.445,-0.462,-0.288,0.264,-0.384,1.011
2024-10-15 13:29:38.366,72929.816,0.282,0.422,-0.862,0.098,0.11,0.22,-0.244,0.141,-0.139,0.316,-0.436,1.044
2024-10-15 13:29:38.486,72929.936,0.317,0.379,-0.869,0.174,0.164,-0.218,0.345,0.801,-0.083,0.35,-0.389,0.974
2024-10-15 13:29:38.606,72930.055,0.344,0.377,-0.86,0.078,-0.109,-0.043,-0.217,-0.204,-0.047,0.38,-0.387,0.999
2024-10-15 13:29:38.726,72930.175,0.303,0.409,-0.861,-0.068,-0.095,-0.009,-0.629,-0.591,-0.074,0.338,-0.421,1.011
2024-10-15 13:29:38.845,72930.295,0.223,0.415,-0.882,-0.118,-0.017,-0.002,0.198,-0.754,-0.049,0.248,-0.428,0.992
2024-10-15 13:29:38.965,72930.415,0.184,0.357,-0.916,0.017,-0.061,-0.065,0.607,-0.037,-0.002,0.198,-0.365,0.988
2024-10-15 13:29:39.085,72930.535,0.164,0.279,-0.946,-0.115,0.232,-0.288,0.904,-0.079,0.264,0.171,-0.283,0.971
2024-10-15 13:29:39.206,72930.654,0.161,0.268,-0.95,0.025,-0.032,0.239,0.013,-0.294,-0.344,0.168,-0.272,0.988
2024-10-15 13:29:39.325,72930.774,0.157,0.288,-0.945,-0.028,-0.626,-0.096,-2.581,0.193,0.35,0.164,-0.292,1.007
2024-10-15 13:29:39.444,72930.894,0.145,0.292,-0.945,0.096,-0.078,0.115,0.663,-0.389,-0.324,0.153,-0.296,0.989
2024-10-15 13:29:39.564,72931.014,0.16,0.329,-0.931,0.147,-0.316,-0.17,-0.949,0.262,0.063,0.171,-0.335,1.017
2024-10-15 13:29:39.684,72931.134,0.137,0.296,-0.945,-0.238,0.345,-0.269,0.399,0.088,0.091,0.144,-0.3,0.983
2024-10-15 13:29:39.804,72931.253,0.166,0.364,-0.917,0.317,-0.286,0.277,-0.114,-0.315,-0.338,0.179,-0.372,1.02
2024-10-15 13:29:39.924,72931.373,0.154,0.307,-0.939,-0.162,-0.098,-0.084,0.122,0.156,0.383,0.163,-0.312,0.987
2024-10-15 13:29:40.043,72931.493,0.156,0.365,-0.918,0.077,0.266,0.184,0.655,-0.253,-0.506,0.168,-0.373,1.0
2024-10-15 13:29:40.163,72931.613,0.168,0.33,-0.929,-0.04,-0.343,-0.327,-1.317,0.482,0.255,0.179,-0.336,0.995
2024-10-15 13:29:40.283,72931.733,0.158,0.35,-0.923,0.037,-0.274,0.218,0.132,-0.15,-0.598,0.169,-0.358,0.979
2024-10-15 13:29:40.402,72931.852,0.201,0.452,-0.869,0.053,0.082,0.14,-0.05,-0.27,0.237,0.227,-0.469,0.999
2024-10-15 13:29:40.523,72931.972,0.187,0.368,-0.911,0.098,-0.072,0.031,1.501,-0.247,-0.106,0.203,-0.377,1.004
2024-10-15 13:29:40.643,72932.092,0.177,0.307,-0.935,-0.111,-0.261,-0.23,-0.397,0.156,0.436,0.188,-0.312,0.995
2024-10-15 13:29:40.762,72932.212,0.173,0.366,-0.914,-0.195,0.28,0.042,0.919,0.24,-0.428,0.187,-0.375,1.007
2024-10-15 13:29:40.882,72932.332,0.178,0.344,-0.922,-0.094,-0.388,-0.32,-1.88,0.272,0.414,0.191,-0.351,1.028
2024-10-15 13:29:41.002,72932.451,0.17,0.345,-0.923,-0.007,-0.191,0.173,0.281,-0.208,-0.318,0.182,-0.353,1.005
2024-10-15 13:29:41.121,72932.571,0.193,0.371,-0.908,0.004,-0.462,-0.165,-1.253,0.098,0.43,0.209,-0.38,1.041
2024-10-15 13:29:41.241,72932.691,0.164,0.361,-0.918,-0.092,0.498,0.019,0.128,-0.0,0.014,0.177,-0.369,0.997
