Date,TimeStamp,GravityX,GravityY,GravityZ,UserAccelerationX,UserAccelerationY,UserAccelerationZ,RotationRateX,RotationRateY,RotationRateZ,AttitudeRoll,AttitudePitch,AttitudeYaw
2024-09-23 11:40:14.407,162747.249,0.134,0.898,-0.419,-0.058,-0.126,0.013,0.45,-0.027,-0.032,0.31,-1.115,1.39
2024-09-23 11:40:14.527,162747.369,0.105,0.877,-0.469,-0.007,0.033,0.006,0.424,-0.201,-0.341,0.22,-1.07,1.309
2024-09-23 11:40:14.646,162747.489,0.111,0.871,-0.478,0.011,0.016,0.015,0.173,-0.016,0.102,0.228,-1.057,1.315
2024-09-23 11:40:14.766,162747.609,0.104,0.86,-0.5,-0.029,-0.05,0.001,0.12,-0.082,0.135,0.206,-1.035,1.297
2024-09-23 11:40:14.886,162747.728,0.108,0.868,-0.484,-0.021,-0.06,-0.029,-0.296,0.138,-0.125,0.22,-1.052,1.317
2024-09-23 11:40:15.006,162747.848,0.125,0.867,-0.483,-0.032,-0.093,-0.079,-0.795,0.2,0.043,0.253,-1.048,1.334
2024-09-23 11:40:15.125,162747.968,0.152,0.898,-0.413,-0.12,-0.052,-0.102,-0.7,0.391,0.42,0.352,-1.115,1.415
2024-09-23 11:40:15.245,162748.088,0.132,0.892,-0.432,0.065,-0.12,0.028,0.565,-0.097,-0.041,0.297,-1.102,1.378
2024-09-23 11:40:15.365,162748.208,0.107,0.873,-0.477,-0.04,0.077,-0.006,0.096,-0.087,-0.139,0.221,-1.06,1.312
2024-09-23 11:40:15.484,162748.327,0.106,0.873,-0.476,0.014,0.021,0.01,0.15,-0.084,-0.113,0.219,-1.061,1.314
2024-09-23 11:40:15.605,162748.447,0.1,0.872,-0.479,-0.008,0.016,-0.01,0.067,0.033,-0.011,0.206,-1.06,1.302
2024-09-23 11:40:15.724,162748.567,0.099,0.856,-0.508,-0.028,-0.011,-0.022,-0.174,0.008,0.206,0.192,-1.027,1.29
2024-09-23 11:40:15.845,162748.687,0.1,0.866,-0.49,-0.022,0.016,-0.018,-0.202,0.164,-0.129,0.202,-1.047,1.303
2024-09-23 11:40:15.964,162748.807,0.114,0.864,-0.491,-0.025,-0.06,-0.07,-0.711,0.205,0.1,0.228,-1.043,1.318
2024-09-23 11:40:16.084,162748.926,0.139,0.887,-0.441,-0.074,0.023,-0.109,-0.784,0.495,0.549,0.305,-1.09,1.383
2024-09-23 11:40:16.203,162749.046,0.13,0.889,-0.439,0.048,-0.108,-0.032,0.59,-0.041,0.092,0.287,-1.095,1.376
2024-09-23 11:40:16.323,162749.166,0.102,0.88,-0.464,-0.033,0.049,-0.008,0.05,-0.036,-0.088,0.216,-1.076,1.311
2024-09-23 11:40:16.443,162749.286,0.109,0.875,-0.471,0.01,-0.03,-0.019,-0.042,-0.001,-0.104,0.228,-1.066,1.322
2024-09-23 11:40:16.563,162749.406,0.108,0.862,-0.496,-0.025,-0.02,-0.04,-0.193,0.064,0.271,0.214,-1.039,1.31
2024-09-23 11:40:16.682,162749.525,0.104,0.869,-0.484,-0.031,0.011,-0.037,-0.272,0.142,-0.114,0.212,-1.053,1.315
2024-09-23 11:40:16.803,162749.645,0.12,0.867,-0.484,-0.01,-0.084,-0.063,-0.522,0.144,0.003,0.243,-1.049,1.334
2024-09-23 11:40:16.923,162749.765,0.152,0.895,-0.42,-0.105,0.066,-0.049,-0.466,-0.038,-0.422,0.348,-1.108,1.42
2024-09-23 11:40:17.041,162749.885,0.128,0.896,-0.424,0.141,-0.15,-0.03,0.218,0.022,0.002,0.293,-1.112,1.374
2024-09-23 11:40:17.162,162750.005,0.122,0.887,-0.446,-0.003,0.017,0.006,0.338,-0.1,-0.099,0.266,-1.091,1.338
2024-09-23 11:40:17.281,162750.124,0.129,0.88,-0.457,0.007,-0.013,-0.008,0.129,0.016,-0.108,0.276,-1.076,1.347
2024-09-23 11:40:17.401,162750.244,0.138,0.869,-0.474,-0.017,-0.074,-0.066,-0.595,-0.033,0.045,0.283,-1.054,1.359
2024-09-23 11:40:17.521,162750.364,0.128,0.879,-0.459,-0.02,0.096,0.044,0.576,-0.027,0.121,0.272,-1.074,1.342
2024-09-23 11:40:17.641,162750.484,0.144,0.883,-0.446,-0.004,0.017,0.035,-0.137,0.039,0.135,0.313,-1.082,1.375
2024-09-23 11:40:17.761,162750.604,0.141,0.898,-0.418,-0.105,0.135,0.081,0.055,-0.201,-0.056,0.325,-1.115,1.39
2024-09-23 11:40:17.881,162750.723,0.128,0.89,-0.437,0.185,-0.1,-0.06,0.037,0.122,0.007,0.286,-1.098,1.36
2024-09-23 11:40:18.000,162750.843,0.134,0.889,-0.438,-0.084,-0.013,-0.036,0.03,-0.021,0.007,0.296,-1.095,1.362
2024-09-23 11:40:18.120,162750.963,0.133,0.87,-0.475,-0.025,-0.074,-0.004,-0.179,-0.043,0.153,0.274,-1.055,1.348
2024-09-23 11:40:18.240,162751.083,0.136,0.886,-0.444,-0.019,0.022,-0.031,0.282,0.033,-0.051,0.297,-1.089,1.372
2024-09-23 11:40:18.360,162751.203,0.138,0.874,-0.466,0.004,-0.086,-0.026,-0.626,0.159,-0.07,0.288,-1.063,1.36
2024-09-23 11:40:18.480,162751.322,0.141,0.927,-0.347,0.089,0.082,-0.145,-1.385,0.191,0.092,0.385,-1.187,1.447
2024-09-23 11:40:18.600,162751.442,0.208,0.923,-0.325,0.193,-0.191,0.132,-0.064,-0.129,0.551,0.571,-1.175,1.619
2024-09-23 11:40:18.719,162751.562,0.197,0.909,-0.367,-0.241,-0.128,0.086,0.159,-0.689,-0.533,0.492,-1.141,1.591
2024-09-23 11:40:18.839,162751.682,0.118,0.903,-0.413,-0.178,1.937,0.092,0.661,-0.242,0.303,0.278,-1.127,1.386
2024-09-23 11:40:18.959,162751.802,0.093,0.865,-0.494,-0.023,-0.205,-0.095,0.057,0.074,-0.149,0.186,-1.045,1.299
2024-09-23 11:40:19.077,162751.921,0.084,0.863,-0.498,-0.013,-0.023,-0.012,-0.174,0.006,-0.052,0.167,-1.041,1.282
2024-09-23 11:40:19.198,162752.041,0.074,0.857,-0.51,-0.011,0.028,0.006,0.411,-0.003,-0.006,0.144,-1.029,1.259
2024-09-23 11:40:19.318,162752.161,0.084,0.871,-0.484,-0.005,-0.012,-0.017,-0.367,0.019,0.08,0.173,-1.058,1.285
2024-09-23 11:40:19.438,162752.281,0.092,0.858,-0.505,-0.053,-0.007,-0.049,-0.136,0.146,0.103,0.18,-1.032,1.291
2024-09-23 11:40:19.558,162752.401,0.095,0.873,-0.479,-0.015,0.04,0.007,0.101,-0.046,0.039,0.195,-1.061,1.3
2024-09-23 11:40:19.678,162752.52,0.089,0.864,-0.495,0.033,0.102,0.039,0.426,-0.207,-0.227,0.177,-1.043,1.298
2024-09-23 11:40:19.797,162752.64,0.106,0.876,-0.47,0.001,-0.011,-0.016,-0.368,0.223,0.113,0.222,-1.068,1.326
2024-09-23 11:40:19.917,162752.76,0.114,0.89,-0.441,-0.022,-0.166,-0.072,-1.052,0.246,0.148,0.254,-1.098,1.346
2024-09-23 11:40:20.037,162752.88,0.128,0.906,-0.404,-0.214,-0.012,0.177,0.0,-0.357,0.024,0.307,-1.133,1.402
2024-09-23 11:40:20.157,162753.0,0.111,0.87,-0.48,0.019,-0.073,-0.072,-0.203,0.038,-0.622,0.227,-1.056,1.327
2024-09-23 11:40:20.277,162753.119,0.092,0.884,-0.458,-0.015,0.0,-0.013,-0.034,-0.004,-0.015,0.198,-1.085,1.293
2024-09-23 11:40:20.397,162753.239,0.08,0.875,-0.477,-0.027,0.015,-0.007,0.379,0.006,0.036,0.167,-1.066,1.267
2024-09-23 11:40:20.516,162753.359,0.084,0.877,-0.473,0.007,-0.101,-0.017,-0.554,-0.044,0.095,0.176,-1.07,1.275
2024-09-23 11:40:20.637,162753.479,0.083,0.872,-0.482,-0.03,-0.013,-0.03,-0.091,0.076,0.03,0.171,-1.06,1.274
2024-09-23 11:40:20.756,162753.599,0.088,0.881,-0.465,0.004,0.029,0.018,0.178,-0.171,0.098,0.188,-1.078,1.287
2024-09-23 11:40:20.876,162753.718,0.083,0.876,-0.475,-0.032,-0.045,-0.019,-0.147,0.144,0.095,0.172,-1.068,1.281
2024-09-23 11:40:20.996,162753.838,0.094,0.887,-0.451,-0.005,0.009,-0.016,-0.121,0.055,-0.089,0.206,-1.092,1.301
2024-09-23 11:40:21.115,162753.958,0.115,0.914,-0.389,-0.056,0.002,-0.056,-0.381,0.354,0.371,0.288,-1.153,1.367
2024-09-23 11:40:21.235,162754.078,0.124,0.89,-0.438,0.139,-0.142,-0.01,1.652,-0.013,0.506,0.276,-1.098,1.371
2024-09-23 11:40:21.355,162754.198,0.101,0.878,-0.467,-0.025,0.116,0.016,0.097,-0.096,-0.048,0.212,-1.072,1.315
2024-09-23 11:40:21.475,162754.317,0.098,0.87,-0.483,-0.013,0.063,0.011,0.35,0.009,-0.008,0.199,-1.055,1.305
2024-09-23 11:40:21.595,162754.437,0.107,0.878,-0.466,-0.013,0.014,0.003,-0.005,-0.021,0.126,0.227,-1.073,1.329
2024-09-23 11:40:21.715,162754.557,0.11,0.878,-0.465,-0.026,-0.049,-0.042,-0.412,0.204,0.018,0.232,-1.072,1.328
2024-09-23 11:40:21.834,162754.677,0.116,0.878,-0.465,-0.001,-0.047,-0.029,-0.057,-0.106,0.083,0.244,-1.071,1.345
2024-09-23 11:40:21.954,162754.797,0.115,0.876,-0.468,-0.022,0.023,0.006,-0.134,0.151,0.127,0.24,-1.068,1.342
2024-09-23 11:40:22.074,162754.916,0.122,0.882,-0.456,-0.017,-0.006,-0.02,-0.13,0.083,0.013,0.262,-1.079,1.353
2024-09-23 11:40:22.193,162755.036,0.14,0.905,-0.401,-0.07,-0.013,-0.118,-0.388,0.107,0.105,0.336,-1.132,1.414
2024-09-23 11:40:22.314,162755.156,0.127,0.894,-0.429,0.089,-0.162,0.036,0.603,-0.142,-0.052,0.287,-1.107,1.387
2024-09-23 11:40:22.433,162755.276,0.11,0.873,-0.474,-0.021,0.01,-0.009,-0.053,-0.105,-0.127,0.228,-1.062,1.34
2024-09-23 11:40:22.553,162755.396,0.108,0.873,-0.476,0.006,0.003,0.012,0.194,-0.072,-0.051,0.223,-1.061,1.337
2024-09-23 11:40:22.673,162755.515,0.109,0.857,-0.505,-0.019,-0.112,-0.034,-0.223,0.148,0.105,0.212,-1.028,1.319
2024-09-23 11:40:22.793,162755.635,0.112,0.875,-0.471,0.019,0.031,0.033,0.483,-0.19,-0.046,0.234,-1.065,1.342
2024-09-23 11:40:22.911,162755.755,0.116,0.875,-0.471,0.006,-0.069,-0.008,-0.395,0.089,-0.071,0.242,-1.065,1.343
2024-09-23 11:40:23.032,162755.875,0.118,0.877,-0.466,-0.013,-0.053,-0.039,-0.243,0.013,0.128,0.247,-1.069,1.352
2024-09-23 11:40:23.152,162755.995,0.115,0.875,-0.47,-0.019,-0.017,-0.012,0.082,0.008,0.012,0.241,-1.066,1.35
2024-09-23 11:40:23.272,162756.114,0.123,0.881,-0.458,0.017,0.035,0.03,-0.056,-0.024,-0.054,0.263,-1.077,1.366
2024-09-23 11:40:23.392,162756.234,0.132,0.899,-0.418,-0.021,-0.012,-0.048,-0.964,0.256,0.115,0.306,-1.117,1.399
2024-09-23 11:40:23.512,162756.354,0.132,0.904,-0.408,-0.173,-0.045,0.166,0.399,-0.221,-0.12,0.313,-1.128,1.411
2024-09-23 11:40:23.631,162756.474,0.127,0.888,-0.442,0.174,-0.031,-0.023,-0.049,0.071,-0.155,0.279,-1.093,1.373
2024-09-23 11:40:23.751,162756.594,0.117,0.889,-0.442,-0.027,0.033,0.001,0.087,0.003,0.143,0.259,-1.096,1.354
2024-09-23 11:40:23.873,162756.713,0.108,0.863,-0.493,-0.018,0.058,0.039,0.794,-0.03,0.178,0.216,-1.042,1.318
2024-09-23 11:40:23.991,162756.833,0.12,0.881,-0.458,0.008,0.073,0.01,-0.037,-0.021,0.027,0.256,-1.077,1.354
2024-09-23 11:40:24.111,162756.953,0.123,0.869,-0.48,-0.034,-0.165,-0.074,-0.505,0.256,0.052,0.252,-1.053,1.35
2024-09-23 11:40:24.229,162757.073,0.125,0.873,-0.471,-0.008,-0.028,-0.032,-0.107,-0.008,0.053,0.26,-1.062,1.352
2024-09-23 11:40:24.350,162757.193,0.127,0.868,-0.479,-0.014,-0.14,-0.056,-0.243,0.072,-0.005,0.259,-1.052,1.36
2024-09-23 11:40:24.470,162757.312,0.135,0.878,-0.459,0.016,-0.041,-0.015,-0.338,0.125,-0.062,0.286,-1.072,1.377
2024-09-23 11:40:24.590,162757.432,0.139,0.897,-0.42,-0.026,0.024,-0.073,-0.515,0.067,-0.113,0.32,-1.112,1.403
2024-09-23 11:40:24.709,162757.552,0.127,0.895,-0.427,0.073,-0.09,-0.022,0.026,-0.114,-0.021,0.289,-1.109,1.388
2024-09-23 11:40:24.829,162757.672,0.128,0.889,-0.44,0.026,0.024,-0.056,-0.064,0.048,-0.006,0.283,-1.094,1.377
2024-09-23 11:40:24.949,162757.792,0.127,0.866,-0.484,-0.0,0.085,0.037,1.127,-0.073,0.22,0.257,-1.047,1.351
2024-09-23 11:40:25.068,162757.911,0.13,0.876,-0.464,0.002,0.106,0.022,0.566,-0.161,0.061,0.273,-1.068,1.366
2024-09-23 11:40:25.189,162758.031,0.13,0.866,-0.483,-0.004,-0.008,0.055,-0.205,0.039,0.012,0.263,-1.046,1.355
2024-09-23 11:40:25.309,162758.151,0.135,0.871,-0.473,0.071,0.097,0.073,0.537,-0.091,0.03,0.277,-1.057,1.372
2024-09-23 11:40:25.428,162758.271,0.136,0.868,-0.477,-0.025,-0.027,-0.028,-0.244,0.12,-0.031,0.278,-1.051,1.37
2024-09-23 11:40:25.548,162758.391,0.139,0.881,-0.453,-0.021,-0.077,-0.055,-0.893,0.062,-0.019,0.297,-1.077,1.382
2024-09-23 11:40:25.667,162758.51,0.145,0.948,-0.283,0.119,0.184,-0.019,0.293,0.093,0.361,0.474,-1.247,1.539
2024-09-23 11:40:25.787,162758.63,0.242,0.918,-0.315,0.165,-0.124,0.099,0.727,-0.041,0.713,0.655,-1.162,1.7
2024-09-23 11:40:25.907,162758.75,0.23,0.892,-0.39,-0.102,-0.068,-0.036,0.498,-0.345,-0.447,0.532,-1.101,1.606
2024-09-23 11:40:26.027,162758.87,0.142,0.887,-0.439,-0.374,0.069,0.089,0.3,-0.504,-0.596,0.313,-1.092,1.406
2024-09-23 11:40:26.147,162758.99,0.104,0.891,-0.442,0.115,-0.181,0.121,-0.543,-0.018,-0.257,0.231,-1.1,1.34
2024-09-23 11:40:26.266,162759.109,0.097,0.879,-0.467,-0.006,-0.035,-0.056,0.027,0.107,-0.067,0.206,-1.073,1.315
2024-09-23 11:40:26.387,162759.229,0.113,0.873,-0.474,0.035,-0.042,-0.044,0.858,-0.391,0.128,0.235,-1.062,1.36
2024-09-23 11:40:26.506,162759.349,0.1,0.87,-0.483,-0.037,-0.022,-0.024,-0.258,0.079,0.134,0.204,-1.055,1.333
2024-09-23 11:40:26.626,162759.469,0.102,0.871,-0.48,-0.029,-0.044,-0.04,-0.336,0.126,0.012,0.209,-1.058,1.341
2024-09-23 11:40:26.746,162759.589,0.096,0.863,-0.496,-0.007,0.016,0.007,0.345,0.01,-0.064,0.191,-1.041,1.324
2024-09-23 11:40:26.866,162759.708,0.107,0.87,-0.48,-0.028,-0.022,-0.029,-0.246,0.125,0.102,0.219,-1.056,1.343
2024-09-23 11:40:26.985,162759.828,0.107,0.87,-0.481,-0.02,0.011,-0.011,-0.238,0.074,-0.018,0.219,-1.056,1.337
2024-09-23 11:40:27.106,162759.948,0.107,0.867,-0.486,-0.016,-0.047,-0.034,-0.241,-0.017,0.064,0.217,-1.05,1.341
2024-09-23 11:40:27.226,162760.068,0.108,0.88,-0.463,0.002,0.004,0.015,0.279,-0.044,0.013,0.229,-1.076,1.349
2024-09-23 11:40:27.345,162760.188,0.113,0.883,-0.456,0.023,0.023,0.027,-0.028,0.016,-0.036,0.242,-1.082,1.359
2024-09-23 11:40:27.465,162760.307,0.108,0.878,-0.466,-0.005,-0.001,0.017,0.003,-0.015,0.01,0.227,-1.072,1.343
2024-09-23 11:40:27.585,162760.427,0.109,0.877,-0.468,-0.02,0.024,-0.016,-0.012,-0.01,0.041,0.228,-1.069,1.344
2024-09-23 11:40:27.704,162760.547,0.11,0.883,-0.457,0.029,0.112,0.033,0.256,-0.101,-0.109,0.237,-1.082,1.353
2024-09-23 11:40:27.824,162760.667,0.103,0.867,-0.487,-0.041,-0.136,-0.067,-0.519,0.16,-0.001,0.208,-1.05,1.323
2024-09-23 11:40:27.944,162760.787,0.11,0.877,-0.467,-0.023,-0.001,-0.022,-0.09,0.062,0.151,0.231,-1.071,1.343
2024-09-23 11:40:28.064,162760.906,0.112,0.875,-0.471,0.007,-0.02,-0.003,0.098,-0.103,-0.117,0.233,-1.065,1.345
2024-09-23 11:40:28.184,162761.026,0.11,0.868,-0.485,-0.027,-0.068,-0.001,-0.056,0.011,0.136,0.223,-1.05,1.335
2024-09-23 11:40:28.303,162761.146,0.113,0.898,-0.426,-0.052,0.001,-0.09,-0.779,0.347,-0.072,0.258,-1.114,1.37
2024-09-23 11:40:28.424,162761.266,0.128,0.901,-0.415,-0.07,-0.141,0.084,-0.103,-0.255,-0.026,0.3,-1.121,1.41
2024-09-23 11:40:28.542,162761.386,0.1,0.866,-0.489,0.001,-0.101,-0.038,0.505,-0.211,-0.501,0.203,-1.048,1.33
2024-09-23 11:40:28.662,162761.505,0.099,0.877,-0.471,0.013,0.071,0.035,-0.001,0.013,0.13,0.207,-1.069,1.326
2024-09-23 11:40:28.782,162761.625,0.093,0.864,-0.495,-0.007,0.052,0.03,0.725,-0.068,0.012,0.186,-1.043,1.306
2024-09-23 11:40:28.902,162761.745,0.105,0.871,-0.48,-0.007,0.083,0.017,0.101,0.007,0.063,0.214,-1.057,1.331
2024-09-23 11:40:29.022,162761.865,0.107,0.876,-0.47,-0.021,0.048,0.027,-0.146,0.051,0.025,0.223,-1.067,1.332
2024-09-23 11:40:29.142,162761.985,0.107,0.868,-0.484,-0.016,-0.009,-0.019,-0.235,-0.055,0.06,0.218,-1.052,1.336
2024-09-23 11:40:29.262,162762.104,0.107,0.878,-0.467,-0.0,0.06,0.038,0.316,-0.064,-0.012,0.225,-1.071,1.339
2024-09-23 11:40:29.381,162762.224,0.114,0.881,-0.459,0.023,0.021,0.034,0.182,-0.027,-0.043,0.244,-1.078,1.355
2024-09-23 11:40:29.501,162762.344,0.109,0.876,-0.47,-0.014,-0.004,0.002,-0.058,-0.024,0.012,0.228,-1.067,1.336
2024-09-23 11:40:29.622,162762.464,0.11,0.882,-0.458,-0.015,-0.025,-0.008,-0.264,-0.046,0.059,0.237,-1.081,1.346
2024-09-23 11:40:29.741,162762.584,0.11,0.887,-0.449,0.02,0.113,0.034,0.306,-0.097,-0.152,0.241,-1.09,1.351
2024-09-23 11:40:29.860,162762.703,0.106,0.87,-0.481,-0.02,-0.22,-0.077,-0.598,0.173,-0.01,0.217,-1.056,1.325
2024-09-23 11:40:29.981,162762.823,0.111,0.879,-0.464,-0.031,-0.027,-0.037,-0.377,0.108,0.144,0.236,-1.073,1.341
2024-09-23 11:40:30.100,162762.943,0.118,0.881,-0.458,0.004,-0.04,-0.01,-0.042,-0.032,-0.084,0.251,-1.078,1.356
2024-09-23 11:40:30.220,162763.063,0.112,0.878,-0.465,0.021,0.069,0.043,0.272,-0.057,-0.073,0.237,-1.072,1.341
2024-09-23 11:40:30.340,162763.183,0.117,0.888,-0.445,0.001,-0.074,-0.006,-0.446,-0.006,-0.012,0.258,-1.092,1.366
2024-09-23 11:40:30.460,162763.302,0.125,0.913,-0.388,-0.059,0.21,0.037,1.16,-0.063,0.484,0.312,-1.151,1.407
2024-09-23 11:40:30.579,162763.422,0.139,0.896,-0.421,-0.015,-0.251,0.108,0.136,-0.177,-0.296,0.32,-1.112,1.417
2024-09-23 11:40:30.699,162763.542,0.108,0.879,-0.464,-0.005,0.079,-0.014,0.379,-0.256,-0.298,0.23,-1.074,1.34
2024-09-23 11:40:30.819,162763.662,0.096,0.87,-0.483,0.006,0.017,-0.001,-0.02,-0.068,-0.068,0.197,-1.056,1.318
2024-09-23 11:40:30.940,162763.782,0.081,0.862,-0.501,-0.021,-0.002,-0.017,-0.025,0.01,-0.022,0.161,-1.039,1.293
2024-09-23 11:40:31.059,162763.901,0.083,0.862,-0.5,-0.022,-0.092,-0.03,-0.545,0.046,-0.008,0.164,-1.039,1.293
2024-09-23 11:40:31.178,162764.021,0.083,0.856,-0.51,-0.007,-0.013,-0.027,-0.128,0.109,-0.045,0.162,-1.027,1.293
2024-09-23 11:40:31.298,162764.141,0.091,0.858,-0.505,-0.008,0.01,-0.013,-0.074,-0.004,0.075,0.177,-1.032,1.305
2024-09-23 11:40:31.418,162764.261,0.089,0.874,-0.478,-0.026,-0.004,-0.014,0.078,0.121,0.067,0.185,-1.063,1.311
2024-09-23 11:40:31.538,162764.381,0.095,0.878,-0.47,0.003,-0.02,0.022,-0.175,-0.017,-0.028,0.2,-1.071,1.323
2024-09-23 11:40:31.658,162764.5,0.092,0.867,-0.49,0.035,0.093,0.089,0.508,-0.138,-0.117,0.185,-1.049,1.306
2024-09-23 11:40:31.778,162764.62,0.092,0.87,-0.485,-0.014,-0.037,-0.018,-0.19,-0.061,0.086,0.187,-1.055,1.311
2024-09-23 11:40:31.897,162764.74,0.094,0.879,-0.468,0.032,0.154,0.065,0.358,-0.122,-0.148,0.198,-1.073,1.319
2024-09-23 11:40:32.017,162764.86,0.089,0.871,-0.482,-0.023,0.007,-0.024,-0.489,0.121,-0.018,0.182,-1.058,1.3
2024-09-23 11:40:32.137,162764.98,0.096,0.878,-0.47,-0.023,0.005,-0.02,-0.232,0.131,0.163,0.201,-1.071,1.318
2024-09-23 11:40:32.257,162765.099,0.096,0.88,-0.466,-0.008,-0.009,0.009,0.19,-0.02,-0.095,0.203,-1.075,1.317
2024-09-23 11:40:32.377,162765.219,0.098,0.875,-0.474,-0.023,-0.054,-0.031,-0.496,0.043,0.191,0.205,-1.066,1.318
2024-09-23 11:40:32.496,162765.339,0.095,0.918,-0.384,-0.033,-0.027,-0.021,-0.697,0.305,-0.235,0.243,-1.164,1.348
2024-09-23 11:40:32.617,162765.459,0.132,0.911,-0.39,0.009,-0.068,0.087,0.411,-0.232,-0.038,0.325,-1.147,1.421
2024-09-23 11:40:32.737,162765.579,0.11,0.883,-0.457,0.12,-0.513,-0.003,0.703,-0.364,-0.433,0.236,-1.082,1.348
2024-09-23 11:40:32.856,162765.698,0.097,0.871,-0.481,-0.016,-0.016,0.005,0.029,-0.022,0.079,0.2,-1.058,1.319
2024-09-23 11:40:32.976,162765.818,0.089,0.864,-0.496,-0.019,0.079,0.025,0.616,-0.071,0.053,0.178,-1.043,1.302
2024-09-23 11:40:33.095,162765.938,0.097,0.868,-0.486,-0.003,0.126,0.02,0.142,-0.022,0.051,0.197,-1.052,1.321
2024-09-23 11:40:33.215,162766.058,0.098,0.873,-0.478,-0.014,0.054,0.037,-0.011,0.025,0.069,0.202,-1.061,1.319
2024-09-23 11:40:33.335,162766.178,0.098,0.871,-0.481,0.007,-0.025,-0.008,-0.177,-0.106,-0.115,0.201,-1.058,1.326
2024-09-23 11:40:33.455,162766.297,0.097,0.87,-0.484,0.017,0.018,0.023,-0.01,0.018,-0.024,0.197,-1.055,1.32
2024-09-23 11:40:33.574,162766.417,0.101,0.877,-0.471,-0.016,0.012,-0.017,-0.107,0.084,-0.059,0.211,-1.069,1.331
2024-09-23 11:40:33.695,162766.537,0.099,0.874,-0.476,-0.013,0.022,-0.008,-0.025,0.016,-0.017,0.205,-1.063,1.323
2024-09-23 11:40:33.814,162766.657,0.101,0.876,-0.472,-0.037,-0.047,-0.036,-0.425,0.181,0.097,0.212,-1.067,1.334
2024-09-23 11:40:33.933,162766.777,0.093,0.866,-0.491,-0.019,0.02,0.01,0.665,-0.024,-0.028,0.188,-1.047,1.306
2024-09-23 11:40:34.054,162766.896,0.097,0.876,-0.472,0.001,0.03,0.027,-0.07,-0.046,-0.039,0.202,-1.068,1.312
2024-09-23 11:40:34.173,162767.016,0.11,0.88,-0.463,-0.009,-0.014,-0.005,-0.157,0.037,0.132,0.233,-1.075,1.34
2024-09-23 11:40:34.293,162767.136,0.106,0.881,-0.461,-0.017,-0.043,0.003,-0.056,-0.028,-0.005,0.225,-1.078,1.334
2024-09-23 11:40:34.412,162767.256,0.101,0.872,-0.478,-0.05,-0.106,-0.051,-0.331,0.039,0.123,0.209,-1.06,1.317
2024-09-23 11:40:34.532,162767.376,0.119,0.916,-0.384,-0.058,0.102,0.012,0.142,0.212,0.264,0.301,-1.157,1.399
2024-09-23 11:40:34.653,162767.495,0.11,0.899,-0.424,0.016,-0.334,0.053,0.609,0.053,-0.297,0.254,-1.118,1.364
2024-09-23 11:40:34.773,162767.615,0.099,0.88,-0.464,-0.032,0.037,-0.037,0.334,-0.144,-0.111,0.21,-1.077,1.323
2024-09-23 11:40:34.892,162767.735,0.102,0.881,-0.461,0.033,0.02,0.028,0.294,-0.057,-0.188,0.218,-1.079,1.33
2024-09-23 11:40:35.012,162767.855,0.105,0.88,-0.464,-0.024,-0.007,0.002,-0.247,0.155,0.214,0.223,-1.075,1.332
2024-09-23 11:40:35.132,162767.975,0.109,0.875,-0.473,-0.037,-0.246,-0.088,-0.7,0.211,-0.077,0.226,-1.065,1.335
2024-09-23 11:40:35.252,162768.094,0.114,0.876,-0.468,0.019,-0.018,-0.031,-0.189,-0.115,-0.036,0.239,-1.068,1.35
2024-09-23 11:40:35.371,162768.214,0.112,0.881,-0.459,0.015,0.148,0.089,0.675,-0.122,0.001,0.239,-1.079,1.35
2024-09-23 11:40:35.491,162768.334,0.12,0.886,-0.448,0.003,0.027,0.035,-0.008,0.006,-0.011,0.261,-1.088,1.369
2024-09-23 11:40:35.612,162768.454,0.116,0.886,-0.449,0.006,0.045,0.032,0.422,-0.097,-0.084,0.253,-1.089,1.356
2024-09-23 11:40:35.731,162768.574,0.118,0.878,-0.463,0.004,0.046,-0.011,-0.096,0.048,0.084,0.249,-1.072,1.356
2024-09-23 11:40:35.850,162768.693,0.117,0.885,-0.451,0.002,0.06,-0.012,-0.076,0.048,-0.077,0.255,-1.086,1.362
2024-09-23 11:40:35.971,162768.813,0.108,0.87,-0.481,-0.014,0.048,0.031,0.517,0.056,0.061,0.222,-1.056,1.329
2024-09-23 11:40:36.090,162768.933,0.114,0.879,-0.462,-0.002,0.048,0.051,0.052,-0.016,0.035,0.242,-1.075,1.342
2024-09-23 11:40:36.210,162769.053,0.123,0.883,-0.454,0.0,-0.022,0.001,-0.001,0.037,-0.019,0.265,-1.081,1.364
2024-09-23 11:40:36.330,162769.173,0.116,0.879,-0.462,0.001,0.094,0.049,0.453,-0.102,0.039,0.245,-1.074,1.345
2024-09-23 11:40:36.450,162769.292,0.122,0.895,-0.428,0.001,-0.02,-0.031,-1.045,0.139,-0.08,0.277,-1.11,1.383
2024-09-23 11:40:36.571,162769.412,0.129,0.9,-0.415,-0.202,0.002,0.079,-0.295,0.088,0.16,0.301,-1.121,1.4
2024-09-23 11:40:36.689,162769.532,0.117,0.88,-0.459,0.304,0.793,-0.116,0.91,-0.492,-0.131,0.249,-1.077,1.351
2024-09-23 11:40:36.810,162769.652,0.116,0.884,-0.454,-0.028,-0.001,-0.016,-0.042,0.002,-0.026,0.25,-1.084,1.351
2024-09-23 11:40:36.929,162769.772,0.113,0.87,-0.479,-0.045,-0.278,-0.052,-0.866,0.229,-0.031,0.232,-1.056,1.337
2024-09-23 11:40:37.049,162769.891,0.114,0.866,-0.488,0.018,-0.031,-0.088,-0.141,-0.019,-0.097,0.23,-1.046,1.337
2024-09-23 11:40:37.168,162770.011,0.118,0.871,-0.477,0.004,-0.017,-0.04,-0.157,0.022,0.051,0.242,-1.057,1.344
2024-09-23 11:40:37.288,162770.131,0.116,0.882,-0.457,0.001,0.036,-0.001,0.425,-0.078,0.026,0.249,-1.079,1.351
2024-09-23 11:40:37.409,162770.251,0.12,0.877,-0.465,-0.025,-0.046,0.015,-0.264,0.078,-0.043,0.251,-1.07,1.353
2024-09-23 11:40:37.528,162770.371,0.115,0.879,-0.463,0.016,0.068,0.03,0.493,-0.118,0.011,0.244,-1.074,1.343
2024-09-23 11:40:37.648,162770.49,0.116,0.869,-0.481,-0.005,0.032,-0.042,0.014,-0.053,0.037,0.237,-1.053,1.339
2024-09-23 11:40:37.767,162770.61,0.112,0.886,-0.451,0.013,-0.012,-0.114,-0.273,0.186,-0.075,0.243,-1.088,1.346
2024-09-23 11:40:37.888,162770.73,0.109,0.866,-0.487,-0.025,0.027,0.002,0.69,-0.052,0.043,0.22,-1.048,1.324
2024-09-23 11:40:38.006,162770.85,0.112,0.872,-0.477,-0.004,0.01,0.05,-0.125,0.049,-0.021,0.232,-1.059,1.329
2024-09-23 11:40:38.127,162770.97,0.114,0.879,-0.462,-0.008,0.03,0.015,-0.02,-0.021,0.067,0.242,-1.074,1.34
2024-09-23 11:40:38.247,162771.089,0.113,0.878,-0.466,-0.013,-0.009,0.003,0.041,-0.013,-0.09,0.239,-1.071,1.338
2024-09-23 11:40:38.367,162771.209,0.112,0.871,-0.478,-0.049,-0.132,-0.029,-0.467,-0.033,0.104,0.231,-1.057,1.335
2024-09-23 11:40:38.486,162771.329,0.118,0.938,-0.325,-0.006,0.125,0.02,-0.845,0.271,-0.005,0.348,-1.218,1.438
2024-09-23 11:40:38.606,162771.449,0.183,0.94,-0.287,0.132,0.122,-0.1,-0.108,0.657,0.818,0.568,-1.223,1.599
2024-09-23 11:40:38.726,162771.569,0.257,0.911,-0.322,0.018,-0.149,0.117,0.279,-0.241,0.252,0.674,-1.147,1.694
2024-09-23 11:40:38.845,162771.688,0.245,0.901,-0.358,-0.034,-0.099,0.095,-0.255,-0.298,-0.211,0.6,-1.122,1.648
2024-09-23 11:40:38.966,162771.808,0.194,0.902,-0.386,-0.124,-0.036,0.098,0.179,-0.348,-0.444,0.465,-1.124,1.552
2024-09-23 11:40:39.085,162771.928,0.116,0.901,-0.419,-0.026,-0.011,-0.023,0.302,0.176,-0.456,0.271,-1.121,1.384
2024-09-23 11:40:39.205,162772.048,0.095,0.865,-0.493,-0.061,0.132,-0.011,0.147,-0.105,-0.043,0.19,-1.045,1.314
2024-09-23 11:40:39.325,162772.168,0.083,0.855,-0.512,0.006,0.02,0.003,0.103,-0.126,-0.112,0.162,-1.025,1.297
2024-09-23 11:40:39.444,162772.287,0.077,0.861,-0.503,0.009,0.03,0.025,0.108,-0.029,-0.039,0.153,-1.037,1.288
2024-09-23 11:40:39.565,162772.407,0.075,0.85,-0.521,-0.023,-0.142,-0.016,0.065,0.006,0.035,0.143,-1.016,1.277
2024-09-23 11:40:39.685,162772.527,0.077,0.867,-0.492,0.004,0.076,0.015,-0.056,0.103,-0.129,0.156,-1.05,1.288
2024-09-23 11:40:39.804,162772.647,0.078,0.855,-0.513,-0.021,0.001,-0.026,-0.353,0.072,0.153,0.15,-1.026,1.279
2024-09-23 11:40:39.924,162772.767,0.078,0.861,-0.502,-0.011,-0.016,-0.016,0.31,0.036,-0.042,0.153,-1.038,1.279
2024-09-23 11:40:40.044,162772.886,0.08,0.866,-0.494,0.007,-0.049,0.018,-0.207,-0.013,0.033,0.16,-1.046,1.283
2024-09-23 11:40:40.164,162773.006,0.074,0.861,-0.504,-0.003,0.041,0.04,0.74,-0.127,-0.051,0.146,-1.036,1.264
2024-09-23 11:40:40.284,162773.126,0.085,0.869,-0.488,0.012,0.161,0.037,-0.061,0.042,-0.094,0.172,-1.053,1.29
2024-09-23 11:40:40.403,162773.246,0.086,0.854,-0.512,-0.018,-0.115,-0.032,-0.019,0.055,0.047,0.166,-1.024,1.279
2024-09-23 11:40:40.523,162773.366,0.09,0.871,-0.484,-0.044,0.022,-0.021,-0.122,0.11,0.158,0.184,-1.056,1.294
2024-09-23 11:40:40.643,162773.485,0.092,0.857,-0.506,-0.011,0.13,0.028,-0.011,-0.092,-0.082,0.18,-1.03,1.291
2024-09-23 11:40:40.763,162773.605,0.085,0.872,-0.482,0.04,0.144,0.083,0.567,-0.156,-0.165,0.175,-1.059,1.282
2024-09-23 11:40:40.882,162773.725,0.092,0.87,-0.484,0.032,-0.038,0.034,-0.01,-0.056,0.026,0.187,-1.056,1.299
2024-09-23 11:40:41.003,162773.845,0.086,0.863,-0.499,-0.04,0.007,-0.033,-0.112,0.142,0.116,0.17,-1.04,1.288
2024-09-23 11:40:41.122,162773.965,0.095,0.875,-0.475,-0.029,-0.14,-0.068,-1.166,0.333,0.028,0.198,-1.065,1.31
2024-09-23 11:40:41.242,162774.084,0.124,0.883,-0.453,-0.133,0.095,0.107,-0.096,0.061,0.351,0.268,-1.082,1.359
2024-09-23 11:40:41.364,162774.204,0.107,0.873,-0.475,0.082,-0.203,0.04,0.203,-0.184,-0.47,0.22,-1.062,1.334
2024-09-23 11:40:41.481,162774.324,0.088,0.857,-0.507,-0.102,0.471,-0.058,0.774,-0.413,0.096,0.172,-1.03,1.305
2024-09-23 11:40:41.601,162774.444,0.09,0.874,-0.478,0.025,0.1,0.061,0.199,-0.086,-0.06,0.185,-1.063,1.313
2024-09-23 11:40:41.721,162774.564,0.083,0.868,-0.49,0.001,0.005,0.003,0.143,-0.04,-0.103,0.168,-1.051,1.299
2024-09-23 11:40:41.841,162774.683,0.088,0.863,-0.498,-0.034,-0.112,-0.071,-0.776,0.121,0.077,0.175,-1.041,1.305
2024-09-23 11:40:41.960,162774.803,0.08,0.862,-0.501,-0.011,0.006,-0.001,0.333,-0.002,-0.018,0.158,-1.038,1.284
2024-09-23 11:40:42.081,162774.923,0.096,0.873,-0.478,0.023,-0.029,0.042,0.031,-0.096,-0.075,0.197,-1.061,1.316
2024-09-23 11:40:42.200,162775.043,0.092,0.865,-0.493,-0.0,0.023,0.011,0.0,0.011,0.055,0.185,-1.045,1.302
2024-09-23 11:40:42.320,162775.163,0.096,0.869,-0.485,0.008,-0.016,0.011,0.002,-0.039,-0.105,0.196,-1.054,1.312
2024-09-23 11:40:42.439,162775.282,0.085,0.862,-0.5,-0.032,-0.08,-0.01,0.039,0.046,0.124,0.168,-1.038,1.286
2024-09-23 11:40:42.559,162775.402,0.093,0.868,-0.487,-0.019,-0.02,-0.019,0.261,0.049,-0.05,0.189,-1.052,1.305
2024-09-23 11:40:42.679,162775.522,0.095,0.868,-0.486,0.015,-0.084,0.014,-0.238,-0.02,0.024,0.194,-1.052,1.302
2024-09-23 11:40:42.799,162775.642,0.101,0.87,-0.482,-0.037,-0.054,-0.068,-0.295,0.172,0.011,0.206,-1.055,1.313
2024-09-23 11:40:42.919,162775.762,0.097,0.878,-0.469,-0.011,0.004,-0.034,-0.054,0.006,-0.119,0.203,-1.071,1.308
2024-09-23 11:40:43.039,162775.881,0.101,0.877,-0.471,-0.025,0.036,-0.011,-0.307,0.089,0.19,0.211,-1.069,1.316
2024-09-23 11:40:43.158,162776.001,0.099,0.872,-0.48,-0.015,0.021,-0.004,0.131,-0.019,-0.013,0.203,-1.058,1.316
2024-09-23 11:40:43.278,162776.121,0.109,0.875,-0.472,-0.015,-0.109,-0.022,-0.274,0.027,-0.002,0.226,-1.066,1.333
2024-09-23 11:40:43.398,162776.241,0.12,0.912,-0.392,0.033,0.161,0.046,-0.175,0.213,-0.099,0.296,-1.149,1.385
2024-09-23 11:40:43.518,162776.361,0.16,0.902,-0.401,-0.013,-0.053,0.089,-0.094,0.074,0.209,0.38,-1.124,1.466
2024-09-23 11:40:43.638,162776.48,0.12,0.897,-0.425,0.006,-0.158,-0.077,-0.142,0.163,-0.399,0.275,-1.113,1.371
2024-09-23 11:40:43.757,162776.6,0.111,0.892,-0.437,0.008,-0.071,0.011,0.759,-0.132,-0.098,0.249,-1.103,1.335
2024-09-23 11:40:43.877,162776.72,0.097,0.887,-0.451,-0.012,0.015,-0.002,0.002,-0.082,-0.057,0.212,-1.092,1.301
2024-09-23 11:40:43.998,162776.84,0.092,0.881,-0.463,-0.006,-0.005,0.011,0.113,-0.073,-0.043,0.196,-1.079,1.296
2024-09-23 11:40:44.117,162776.96,0.081,0.876,-0.475,0.001,0.018,0.012,0.214,-0.085,-0.074,0.168,-1.068,1.276
2024-09-23 11:40:44.235,162777.079,0.081,0.872,-0.483,-0.016,-0.12,-0.063,-0.629,0.018,0.048,0.167,-1.059,1.277
2024-09-23 11:40:44.356,162777.199,0.072,0.87,-0.488,-0.005,0.083,0.005,0.346,-0.012,-0.111,0.147,-1.055,1.259
2024-09-23 11:40:44.477,162777.319,0.086,0.876,-0.474,-0.017,-0.05,-0.033,-0.26,0.043,0.173,0.179,-1.068,1.284
2024-09-23 11:40:44.596,162777.439,0.08,0.867,-0.491,-0.018,0.064,-0.001,0.324,0.046,0.029,0.161,-1.05,1.267
2024-09-23 11:40:44.716,162777.559,0.088,0.872,-0.482,-0.009,0.038,-0.037,-0.325,0.147,-0.002,0.18,-1.059,1.286
2024-09-23 11:40:44.836,162777.678,0.072,0.858,-0.509,-0.001,0.008,0.025,0.216,-0.045,-0.065,0.141,-1.031,1.245
2024-09-23 11:40:44.956,162777.798,0.085,0.868,-0.489,-0.001,0.002,-0.014,-0.167,0.046,-0.072,0.172,-1.051,1.276
2024-09-23 11:40:45.075,162777.918,0.08,0.859,-0.506,-0.039,-0.124,-0.019,-0.101,0.091,0.118,0.157,-1.032,1.257
2024-09-23 11:40:45.196,162778.038,0.086,0.872,-0.481,-0.03,-0.049,-0.04,-0.503,0.127,0.118,0.176,-1.06,1.274
2024-09-23 11:40:45.314,162778.158,0.091,0.865,-0.494,-0.029,-0.267,-0.085,-0.267,0.082,0.017,0.182,-1.045,1.279
2024-09-23 11:40:45.435,162778.278,0.086,0.877,-0.473,0.014,0.033,0.008,0.1,-0.037,-0.178,0.181,-1.069,1.275
2024-09-23 11:40:45.554,162778.397,0.09,0.876,-0.475,-0.022,0.02,-0.012,-0.422,0.048,0.146,0.187,-1.067,1.281
2024-09-23 11:40:45.674,162778.517,0.088,0.869,-0.487,-0.003,0.066,0.013,0.408,-0.055,-0.014,0.178,-1.054,1.281
2024-09-23 11:40:45.795,162778.637,0.098,0.875,-0.474,-0.058,-0.194,-0.078,-0.868,0.217,0.168,0.204,-1.066,1.298
2024-09-23 11:40:45.915,162778.757,0.116,0.892,-0.436,-0.333,-0.051,0.128,-0.831,-0.0,-0.04,0.26,-1.102,1.348
2024-09-23 11:40:46.034,162778.877,0.11,0.879,-0.465,-0.027,-0.037,-0.043,0.095,-0.064,-0.384,0.232,-1.073,1.329
2024-09-23 11:40:46.153,162778.996,0.092,0.884,-0.459,-0.013,0.01,0.003,-0.002,-0.049,0.034,0.198,-1.083,1.299
2024-09-23 11:40:46.274,162779.116,0.085,0.881,-0.466,-0.018,-0.007,-0.012,0.107,0.023,-0.005,0.18,-1.077,1.287
2024-09-23 11:40:46.393,162779.236,0.095,0.884,-0.458,0.007,-0.067,0.001,-0.179,0.0,-0.015,0.204,-1.084,1.307
2024-09-23 11:40:46.513,162779.356,0.082,0.874,-0.479,-0.02,0.038,0.016,0.216,0.039,0.021,0.169,-1.063,1.27
2024-09-23 11:40:46.633,162779.476,0.097,0.883,-0.459,0.023,-0.012,0.025,0.273,-0.081,-0.129,0.207,-1.082,1.305
2024-09-23 11:40:46.753,162779.595,0.091,0.878,-0.47,0.001,-0.202,-0.037,-0.132,-0.067,0.066,0.191,-1.072,1.289
2024-09-23 11:40:46.872,162779.715,0.086,0.881,-0.465,0.016,0.043,0.034,0.342,-0.089,-0.181,0.184,-1.078,1.283
2024-09-23 11:40:46.992,162779.835,0.089,0.882,-0.462,-0.002,-0.095,-0.025,-0.36,0.047,0.092,0.19,-1.081,1.289
2024-09-23 11:40:47.112,162779.955,0.091,0.878,-0.471,-0.038,-0.015,-0.046,-0.215,0.24,0.054,0.19,-1.071,1.281
2024-09-23 11:40:47.232,162780.075,0.094,0.89,-0.446,-0.018,0.057,-0.004,0.099,-0.034,0.049,0.208,-1.097,1.297
2024-09-23 11:40:47.352,162780.194,0.094,0.888,-0.45,0.029,-0.098,0.042,-0.11,-0.071,-0.041,0.207,-1.094,1.295
2024-09-23 11:40:47.472,162780.314,0.084,0.886,-0.455,-0.012,0.021,0.007,0.308,0.035,-0.009,0.182,-1.09,1.271
2024-09-23 11:40:47.591,162780.434,0.1,0.891,-0.442,0.002,-0.049,-0.0,-0.083,-0.038,0.002,0.221,-1.1,1.31
2024-09-23 11:40:47.711,162780.554,0.099,0.884,-0.458,-0.023,-0.157,-0.024,0.07,0.102,0.134,0.213,-1.084,1.303
2024-09-23 11:40:47.831,162780.674,0.113,0.906,-0.407,-0.068,0.049,-0.086,-0.86,0.495,0.22,0.272,-1.135,1.35
2024-09-23 11:40:47.950,162780.793,0.11,0.9,-0.422,0.015,-0.092,0.085,0.53,-0.024,-0.08,0.255,-1.119,1.343
2024-09-23 11:40:48.070,162780.913,0.093,0.884,-0.458,0.014,-0.099,-0.036,-0.01,-0.069,-0.275,0.201,-1.084,1.294
2024-09-23 11:40:48.190,162781.033,0.094,0.888,-0.45,0.01,0.015,0.018,0.15,-0.103,-0.023,0.205,-1.093,1.301
2024-09-23 11:40:48.310,162781.153,0.09,0.875,-0.476,-0.046,-0.053,-0.033,-0.157,0.081,0.178,0.187,-1.065,1.289
2024-09-23 11:40:48.430,162781.273,0.087,0.887,-0.453,-0.003,-0.053,-0.02,0.202,0.017,-0.119,0.189,-1.091,1.287
2024-09-23 11:40:48.550,162781.392,0.096,0.882,-0.462,-0.029,0.031,-0.031,-0.398,0.149,0.228,0.206,-1.08,1.298
2024-09-23 11:40:48.670,162781.512,0.096,0.883,-0.459,-0.006,-0.054,-0.013,0.344,-0.026,-0.022,0.205,-1.083,1.299
2024-09-23 11:40:48.789,162781.632,0.101,0.888,-0.448,-0.017,-0.035,0.019,-0.127,0.02,-0.036,0.221,-1.093,1.311
2024-09-23 11:40:48.909,162781.752,0.092,0.88,-0.466,-0.015,0.056,0.016,0.179,0.044,0.057,0.195,-1.075,1.28
2024-09-23 11:40:49.029,162781.872,0.097,0.886,-0.454,0.001,0.008,-0.021,0.153,0.046,-0.001,0.211,-1.088,1.296
2024-09-23 11:40:49.149,162781.991,0.104,0.889,-0.445,0.004,-0.063,0.031,-0.129,-0.105,-0.028,0.23,-1.096,1.308
2024-09-23 11:40:49.268,162782.111,0.111,0.883,-0.456,-0.0,-0.015,-0.051,-0.097,0.091,-0.0,0.238,-1.082,1.32
2024-09-23 11:40:49.388,162782.231,0.105,0.89,-0.443,-0.014,-0.006,-0.043,-0.071,0.044,-0.076,0.232,-1.098,1.314
2024-09-23 11:40:49.508,162782.351,0.107,0.887,-0.449,-0.029,0.017,-0.027,-0.298,0.098,0.186,0.233,-1.092,1.312
2024-09-23 11:40:49.629,162782.471,0.106,0.88,-0.463,0.004,0.063,0.016,0.322,-0.043,-0.018,0.226,-1.076,1.311
2024-09-23 11:40:49.748,162782.59,0.114,0.891,-0.44,-0.049,-0.153,-0.069,-0.912,0.207,0.101,0.253,-1.099,1.331
2024-09-23 11:40:49.867,162782.71,0.114,0.897,-0.427,-0.113,-0.11,0.043,0.008,-0.094,-0.099,0.26,-1.113,1.34
2024-09-23 11:40:49.988,162782.83,0.107,0.892,-0.439,0.126,0.053,0.049,0.269,-0.125,0.04,0.24,-1.102,1.323
2024-09-23 11:40:50.107,162782.95,0.105,0.888,-0.448,0.0,0.073,0.039,0.329,-0.11,-0.01,0.23,-1.092,1.319
2024-09-23 11:40:50.227,162783.07,0.106,0.882,-0.46,-0.027,-0.119,-0.066,-0.69,0.114,-0.005,0.226,-1.079,1.319
2024-09-23 11:40:50.346,162783.189,0.103,0.881,-0.461,-0.001,0.015,-0.001,0.362,-0.068,0.002,0.22,-1.079,1.308
2024-09-23 11:40:50.467,162783.309,0.109,0.892,-0.44,0.026,-0.058,0.075,-0.087,0.022,-0.009,0.242,-1.101,1.328
2024-09-23 11:40:50.587,162783.429,0.105,0.875,-0.472,-0.045,-0.142,-0.06,-0.421,0.047,0.052,0.22,-1.066,1.312
2024-09-23 11:40:50.706,162783.549,0.104,0.884,-0.456,0.034,0.114,0.029,0.685,-0.152,0.001,0.224,-1.084,1.313
2024-09-23 11:40:50.825,162783.669,0.107,0.885,-0.453,-0.018,-0.114,0.038,-0.436,0.158,0.001,0.231,-1.087,1.319
2024-09-23 11:40:50.946,162783.788,0.107,0.87,-0.481,-0.08,-0.115,-0.065,-0.103,0.101,0.035,0.218,-1.055,1.304
2024-09-23 11:40:51.065,162783.908,0.111,0.889,-0.445,-0.011,0.082,-0.012,0.259,-0.078,0.011,0.245,-1.095,1.322
2024-09-23 11:40:51.185,162784.028,0.109,0.873,-0.476,0.057,-0.007,0.036,-0.406,0.123,-0.062,0.224,-1.061,1.309
2024-09-23 11:40:51.305,162784.148,0.107,0.881,-0.461,0.046,0.161,0.046,0.818,-0.208,0.043,0.228,-1.078,1.306
2024-09-23 11:40:51.425,162784.268,0.112,0.886,-0.449,-0.031,-0.152,0.051,-0.331,0.073,-0.021,0.244,-1.089,1.323
2024-09-23 11:40:51.545,162784.387,0.111,0.87,-0.481,-0.06,-0.064,-0.094,0.207,0.033,0.088,0.227,-1.054,1.312
2024-09-23 11:40:51.665,162784.507,0.123,0.924,-0.361,-0.104,-0.126,-0.23,-1.688,0.538,-0.006,0.329,-1.179,1.386
2024-09-23 11:40:51.785,162784.627,0.135,0.944,-0.301,0.064,0.097,-0.162,0.061,0.385,0.337,0.42,-1.235,1.464
2024-09-23 11:40:51.904,162784.747,0.213,0.906,-0.366,0.146,-0.146,0.069,0.826,-0.243,0.528,0.526,-1.133,1.552
2024-09-23 11:40:52.024,162784.867,0.201,0.881,-0.428,-0.24,-0.043,0.162,0.168,-0.544,-0.377,0.438,-1.078,1.504
2024-09-23 11:40:52.143,162784.986,0.114,0.892,-0.438,-0.058,-0.015,-0.064,-0.042,-0.133,-0.731,0.256,-1.101,1.341
2024-09-23 11:40:52.264,162785.106,0.094,0.862,-0.498,-0.134,0.296,-0.097,0.348,-0.079,0.07,0.187,-1.039,1.273
2024-09-23 11:40:52.384,162785.226,0.092,0.873,-0.479,-0.0,0.014,-0.001,0.001,-0.104,-0.065,0.191,-1.061,1.275
2024-09-23 11:40:52.503,162785.346,0.082,0.86,-0.504,-0.017,-0.034,-0.004,0.314,-0.052,0.009,0.161,-1.035,1.257
2024-09-23 11:40:52.623,162785.466,0.093,0.85,-0.518,0.002,-0.072,-0.025,-0.33,0.071,-0.076,0.179,-1.017,1.266
2024-09-23 11:40:52.742,162785.585,0.088,0.87,-0.485,-0.006,-0.002,0.01,0.24,-0.089,-0.064,0.179,-1.055,1.261
2024-09-23 11:40:52.862,162785.705,0.096,0.872,-0.479,-0.026,-0.011,0.015,-0.006,-0.031,0.158,0.197,-1.06,1.28
2024-09-23 11:40:52.982,162785.825,0.084,0.864,-0.496,-0.007,0.066,0.017,0.313,-0.061,-0.038,0.168,-1.043,1.255
2024-09-23 11:40:53.102,162785.945,0.081,0.87,-0.486,0.01,0.026,0.046,-0.254,-0.072,-0.171,0.166,-1.056,1.264
2024-09-23 11:40:53.222,162786.065,0.092,0.871,-0.483,-0.032,-0.12,-0.028,-0.146,0.072,0.074,0.188,-1.057,1.27
2024-09-23 11:40:53.342,162786.184,0.093,0.879,-0.468,-0.019,-0.004,-0.027,0.233,-0.005,-0.021,0.196,-1.074,1.279
2024-09-23 11:40:53.461,162786.304,0.097,0.873,-0.478,-0.029,-0.164,0.033,-0.611,0.244,0.152,0.2,-1.062,1.282
2024-09-23 11:40:53.581,162786.424,0.125,0.892,-0.434,-0.135,-0.104,0.146,-0.351,-0.113,0.005,0.281,-1.102,1.347
2024-09-23 11:40:53.700,162786.544,0.099,0.882,-0.462,-0.079,-0.541,-0.068,-0.267,0.036,-0.444,0.21,-1.079,1.297
2024-09-23 11:40:53.821,162786.664,0.087,0.884,-0.46,-0.013,-0.059,-0.018,-0.066,0.012,-0.011,0.186,-1.084,1.274
2024-09-23 11:40:53.940,162786.783,0.085,0.863,-0.499,-0.027,0.055,0.025,0.41,0.084,0.104,0.168,-1.04,1.258
2024-09-23 11:40:54.060,162786.903,0.087,0.874,-0.477,0.005,0.063,0.014,-0.151,-0.026,-0.085,0.18,-1.064,1.265
2024-09-23 11:40:54.180,162787.023,0.086,0.87,-0.486,-0.028,-0.179,-0.04,-0.288,0.1,0.19,0.175,-1.055,1.257
2024-09-23 11:40:54.300,162787.143,0.09,0.876,-0.473,-0.0,0.041,-0.015,0.017,-0.029,-0.141,0.189,-1.068,1.272
2024-09-23 11:40:54.420,162787.263,0.085,0.864,-0.495,0.005,-0.049,-0.036,-0.362,-0.16,0.07,0.17,-1.044,1.261
2024-09-23 11:40:54.539,162787.382,0.091,0.88,-0.466,-0.021,0.047,0.033,0.307,0.117,0.157,0.194,-1.076,1.278
2024-09-23 11:40:54.659,162787.502,0.098,0.888,-0.448,-0.013,0.007,0.045,0.064,-0.08,0.013,0.216,-1.094,1.29
2024-09-23 11:40:54.779,162787.622,0.092,0.875,-0.475,-0.012,0.048,0.031,0.276,0.001,-0.04,0.191,-1.066,1.272
2024-09-23 11:40:54.899,162787.742,0.116,0.901,-0.418,-0.062,0.001,-0.122,-1.033,0.687,0.273,0.271,-1.122,1.335
2024-09-23 11:40:55.019,162787.862,0.13,0.888,-0.441,0.091,-0.116,0.125,-0.086,-0.389,-0.151,0.286,-1.093,1.363
2024-09-23 11:40:55.139,162787.981,0.096,0.876,-0.473,0.082,-0.162,-0.028,0.312,-0.106,-0.267,0.201,-1.067,1.293
2024-09-23 11:40:55.259,162788.101,0.09,0.877,-0.472,-0.0,0.044,0.013,0.06,-0.047,-0.029,0.189,-1.07,1.279
2024-09-23 11:40:55.378,162788.221,0.092,0.866,-0.492,-0.035,-0.09,-0.03,-0.147,0.238,0.093,0.185,-1.047,1.274
2024-09-23 11:40:55.498,162788.341,0.095,0.876,-0.472,-0.027,0.016,-0.039,-0.459,0.131,-0.02,0.199,-1.068,1.283
2024-09-23 11:40:55.618,162788.461,0.09,0.87,-0.484,-0.053,-0.174,-0.053,-0.318,0.087,0.13,0.183,-1.056,1.266
2024-09-23 11:40:55.738,162788.58,0.099,0.876,-0.471,-0.007,-0.008,-0.006,-0.018,-0.041,-0.094,0.206,-1.068,1.291
2024-09-23 11:40:55.857,162788.7,0.094,0.867,-0.489,-0.025,-0.114,-0.033,-0.095,-0.064,0.09,0.19,-1.049,1.277
2024-09-23 11:40:55.978,162788.82,0.092,0.878,-0.469,-0.031,0.015,-0.034,-0.177,0.21,0.059,0.193,-1.072,1.284
2024-09-23 11:40:56.097,162788.94,0.101,0.885,-0.454,0.02,-0.054,0.031,-0.103,-0.056,0.009,0.22,-1.087,1.301
2024-09-23 11:40:56.217,162789.06,0.1,0.88,-0.465,0.004,0.131,0.033,0.691,-0.185,-0.036,0.212,-1.075,1.298
2024-09-23 11:40:56.336,162789.179,0.114,0.896,-0.429,-0.072,0.064,-0.072,-1.097,0.545,0.292,0.26,-1.111,1.337
2024-09-23 11:40:56.457,162789.299,0.114,0.902,-0.416,0.05,0.102,0.082,0.007,-0.236,0.062,0.268,-1.125,1.346
2024-09-23 11:40:56.577,162789.419,0.095,0.887,-0.452,0.014,0.058,-0.034,0.343,-0.224,-0.208,0.208,-1.091,1.305
2024-09-23 11:40:56.696,162789.539,0.091,0.886,-0.454,-0.012,0.032,0.001,0.119,0.055,0.032,0.199,-1.09,1.293
2024-09-23 11:40:56.815,162789.659,0.089,0.869,-0.487,-0.021,0.074,0.038,0.837,0.081,0.101,0.18,-1.053,1.273
2024-09-23 11:40:56.936,162789.778,0.101,0.877,-0.469,0.003,-0.085,0.015,-0.279,-0.014,-0.08,0.212,-1.071,1.288
2024-09-23 11:40:57.056,162789.898,0.096,0.88,-0.466,0.009,0.102,0.05,0.633,-0.142,-0.057,0.203,-1.075,1.28
2024-09-23 11:40:57.175,162790.018,0.107,0.886,-0.452,-0.004,0.017,0.022,0.0,-0.036,0.036,0.233,-1.088,1.311
2024-09-23 11:40:57.295,162790.138,0.097,0.88,-0.464,0.0,0.049,0.025,0.611,-0.162,-0.036,0.206,-1.077,1.285
2024-09-23 11:40:57.415,162790.258,0.094,0.88,-0.465,0.012,0.007,0.018,-0.387,-0.072,-0.129,0.2,-1.076,1.291
2024-09-23 11:40:57.535,162790.377,0.099,0.881,-0.463,0.028,0.005,0.004,-0.093,0.136,-0.038,0.211,-1.078,1.294
2024-09-23 11:40:57.654,162790.497,0.11,0.894,-0.434,-0.002,-0.031,-0.004,-0.166,0.064,0.0,0.247,-1.106,1.324
2024-09-23 11:40:57.775,162790.617,0.104,0.879,-0.466,-0.032,-0.231,-0.073,-0.131,0.014,0.097,0.22,-1.073,1.3
2024-09-23 11:40:57.894,162790.737,0.122,0.888,-0.443,-0.174,0.241,0.024,0.505,-0.125,-0.114,0.269,-1.093,1.334
2024-09-23 11:40:58.014,162790.857,0.113,0.892,-0.437,0.115,0.019,-0.11,0.301,-0.115,0.031,0.253,-1.103,1.331
2024-09-23 11:40:58.134,162790.976,0.104,0.881,-0.462,-0.069,-0.017,-0.026,-0.059,0.025,0.126,0.221,-1.078,1.301
2024-09-23 11:40:58.253,162791.096,0.106,0.886,-0.452,-0.007,-0.016,-0.005,0.082,-0.028,-0.066,0.23,-1.088,1.309
2024-09-23 11:40:58.373,162791.216,0.114,0.86,-0.497,-0.029,-0.111,-0.059,0.187,0.059,0.021,0.225,-1.036,1.305
2024-09-23 11:40:58.493,162791.336,0.112,0.877,-0.467,-0.023,0.039,-0.04,-0.307,0.092,-0.03,0.235,-1.07,1.307
2024-09-23 11:40:58.612,162791.456,0.112,0.869,-0.482,-0.066,-0.102,-0.046,-0.329,0.084,0.159,0.228,-1.054,1.301
2024-09-23 11:40:58.731,162791.575,0.115,0.877,-0.466,0.03,0.071,-0.0,-0.022,-0.018,-0.097,0.242,-1.07,1.318
2024-09-23 11:40:58.852,162791.695,0.109,0.867,-0.485,-0.08,-0.172,-0.042,-0.187,0.029,0.168,0.222,-1.05,1.302
2024-09-23 11:40:58.973,162791.815,0.109,0.884,-0.455,-0.005,0.04,-0.062,-0.058,0.162,0.02,0.235,-1.083,1.315
2024-09-23 11:40:59.092,162791.935,0.116,0.879,-0.462,0.031,-0.037,0.011,-0.317,0.023,-0.057,0.246,-1.074,1.324
2024-09-23 11:40:59.212,162792.055,0.113,0.878,-0.464,0.03,0.132,0.045,0.812,-0.174,0.03,0.238,-1.072,1.317
2024-09-23 11:40:59.332,162792.174,0.119,0.882,-0.457,-0.098,-0.083,-0.049,-0.897,0.234,0.005,0.254,-1.079,1.329
2024-09-23 11:40:59.451,162792.294,0.118,0.901,-0.418,-0.022,-0.055,0.076,0.034,-0.084,-0.022,0.275,-1.121,1.346
2024-09-23 11:40:59.572,162792.414,0.115,0.89,-0.442,0.032,0.081,-0.051,0.35,-0.109,0.026,0.254,-1.097,1.334
2024-09-23 11:40:59.690,162792.534,0.115,0.889,-0.443,0.009,0.015,0.024,0.075,0.012,-0.034,0.254,-1.096,1.332
2024-09-23 11:40:59.811,162792.654,0.116,0.849,-0.515,-0.046,-0.064,-0.075,0.271,0.083,0.088,0.222,-1.015,1.301
2024-09-23 11:40:59.931,162792.773,0.118,0.873,-0.473,-0.022,0.067,-0.025,-0.133,0.037,-0.096,0.244,-1.062,1.309
2024-09-23 11:41:00.049,162792.893,0.115,0.864,-0.49,-0.056,-0.087,-0.056,-0.434,-0.03,0.074,0.23,-1.044,1.3
2024-09-23 11:41:00.171,162793.013,0.114,0.879,-0.464,0.011,0.053,-0.06,0.087,0.002,-0.058,0.24,-1.073,1.311
2024-09-23 11:41:00.289,162793.133,0.114,0.869,-0.481,0.005,-0.003,-0.046,-0.269,-0.064,0.09,0.233,-1.054,1.31
2024-09-23 11:41:00.410,162793.253,0.111,0.875,-0.471,-0.006,0.112,0.071,0.767,-0.168,0.07,0.232,-1.066,1.309
2024-09-23 11:41:00.529,162793.372,0.115,0.88,-0.461,-0.025,-0.094,0.07,-0.38,0.019,-0.028,0.245,-1.075,1.318
2024-09-23 11:41:00.649,162793.492,0.112,0.871,-0.478,0.011,0.096,0.006,0.937,-0.229,0.102,0.23,-1.058,1.308
2024-09-23 11:41:00.769,162793.612,0.117,0.906,-0.407,-0.072,-0.053,-0.123,-1.742,0.412,-0.107,0.279,-1.134,1.344
2024-09-23 11:41:00.889,162793.732,0.14,0.924,-0.357,0.162,0.25,-0.107,0.264,0.313,0.66,0.374,-1.178,1.429
2024-09-23 11:41:01.009,162793.852,0.222,0.895,-0.387,0.049,-0.193,0.039,0.312,-0.146,0.306,0.52,-1.109,1.569
2024-09-23 11:41:01.129,162793.971,0.197,0.892,-0.407,-0.107,-0.037,0.129,-0.175,-0.361,-0.325,0.452,-1.102,1.521
2024-09-23 11:41:01.248,162794.091,0.117,0.902,-0.415,-0.133,-0.104,0.061,-0.069,-0.497,-0.899,0.275,-1.126,1.387
2024-09-23 11:41:01.368,162794.211,0.093,0.874,-0.477,0.047,0.166,-0.196,0.201,0.115,0.182,0.193,-1.064,1.321
2024-09-23 11:41:01.488,162794.331,0.099,0.887,-0.451,0.003,-0.056,0.021,-0.214,-0.027,0.024,0.217,-1.091,1.34
2024-09-23 11:41:01.608,162794.451,0.094,0.877,-0.471,-0.072,-0.089,-0.07,-0.478,0.262,0.051,0.197,-1.07,1.33
2024-09-23 11:41:01.728,162794.57,0.086,0.872,-0.481,-0.018,-0.006,0.005,0.356,-0.083,-0.053,0.178,-1.06,1.31
2024-09-23 11:41:01.847,162794.69,0.092,0.872,-0.481,-0.02,-0.142,-0.044,-0.662,0.207,-0.023,0.189,-1.059,1.318
2024-09-23 11:41:01.968,162794.81,0.093,0.875,-0.476,-0.024,-0.11,-0.038,-0.073,-0.06,0.003,0.192,-1.065,1.321
2024-09-23 11:41:02.087,162794.93,0.091,0.863,-0.497,-0.019,-0.005,-0.013,-0.007,0.002,-0.03,0.181,-1.041,1.312
2024-09-23 11:41:02.206,162795.05,0.091,0.873,-0.479,-0.027,-0.029,-0.023,0.161,-0.004,0.047,0.187,-1.062,1.317
2024-09-23 11:41:02.325,162795.169,0.092,0.872,-0.481,0.005,-0.156,0.003,-0.282,-0.004,-0.028,0.19,-1.059,1.318
2024-09-23 11:41:02.446,162795.289,0.089,0.873,-0.48,-0.046,-0.084,-0.038,-0.227,0.052,0.114,0.184,-1.061,1.313
2024-09-23 11:41:02.566,162795.409,0.086,0.866,-0.492,0.008,0.053,0.028,0.344,-0.079,-0.079,0.174,-1.048,1.31
2024-09-23 11:41:02.686,162795.529,0.092,0.873,-0.479,0.012,-0.017,0.012,-0.162,-0.009,-0.045,0.19,-1.061,1.32
2024-09-23 11:41:02.806,162795.649,0.092,0.876,-0.474,-0.051,-0.15,-0.085,-0.532,0.164,0.094,0.191,-1.067,1.321
2024-09-23 11:41:02.925,162795.768,0.09,0.872,-0.481,-0.03,-0.101,-0.055,-0.068,0.005,-0.023,0.185,-1.06,1.317
2024-09-23 11:41:03.045,162795.888,0.092,0.87,-0.484,0.011,0.028,-0.009,0.019,0.015,0.014,0.188,-1.056,1.32
2024-09-23 11:41:03.165,162796.008,0.093,0.881,-0.465,-0.021,0.053,-0.025,-0.006,0.022,0.007,0.197,-1.077,1.325
2024-09-23 11:41:03.285,162796.128,0.094,0.879,-0.467,0.012,-0.005,0.042,0.174,-0.065,-0.04,0.198,-1.074,1.33
2024-09-23 11:41:03.405,162796.248,0.094,0.874,-0.476,-0.008,-0.008,0.02,-0.113,0.067,0.084,0.196,-1.064,1.327
2024-09-23 11:41:03.524,162796.367,0.093,0.874,-0.478,-0.005,-0.026,-0.032,-0.453,0.052,0.031,0.193,-1.063,1.326
2024-09-23 11:41:03.644,162796.487,0.123,0.898,-0.422,-0.149,0.26,0.094,-0.035,0.065,0.221,0.283,-1.116,1.391
2024-09-23 11:41:03.765,162796.607,0.104,0.891,-0.442,0.247,0.649,-0.369,0.452,-0.349,-0.028,0.231,-1.1,1.36
2024-09-23 11:41:03.884,162796.727,0.078,0.882,-0.465,-0.055,-0.048,-0.069,-0.288,0.081,-0.106,0.166,-1.08,1.307
2024-09-23 11:41:04.004,162796.847,0.073,0.882,-0.465,-0.005,-0.011,0.001,0.29,0.011,-0.093,0.156,-1.081,1.292
2024-09-23 11:41:04.124,162796.966,0.087,0.882,-0.464,-0.003,-0.128,-0.033,-0.474,0.144,-0.017,0.185,-1.08,1.311
2024-09-23 11:41:04.243,162797.086,0.084,0.879,-0.469,-0.034,-0.191,-0.062,-0.275,0.047,0.071,0.177,-1.075,1.302
2024-09-23 11:41:04.363,162797.206,0.09,0.872,-0.481,-0.051,-0.082,-0.048,0.188,0.062,0.049,0.184,-1.059,1.303
2024-09-23 11:41:04.483,162797.326,0.093,0.887,-0.453,-0.033,0.055,-0.043,-0.448,0.153,0.063,0.204,-1.09,1.321
2024-09-23 11:41:04.604,162797.446,0.092,0.873,-0.479,-0.009,0.019,0.015,-0.182,-0.01,-0.0,0.191,-1.061,1.309
2024-09-23 11:41:04.723,162797.565,0.091,0.875,-0.476,0.008,0.119,0.034,0.353,-0.06,-0.015,0.189,-1.065,1.307
2024-09-23 11:41:04.842,162797.685,0.095,0.877,-0.471,-0.006,0.082,0.012,0.403,-0.097,-0.051,0.199,-1.07,1.318
2024-09-23 11:41:04.962,162797.805,0.095,0.871,-0.481,0.018,-0.007,0.034,-0.15,0.035,0.024,0.194,-1.058,1.313
2024-09-23 11:41:05.082,162797.925,0.096,0.872,-0.481,-0.031,0.057,-0.007,0.006,0.037,0.06,0.197,-1.058,1.317
2024-09-23 11:41:05.202,162798.045,0.098,0.873,-0.478,-0.036,-0.113,-0.057,-0.005,0.017,0.062,0.203,-1.061,1.322
2024-09-23 11:41:05.322,162798.164,0.104,0.869,-0.484,-0.025,0.024,-0.026,-0.039,0.053,0.015,0.211,-1.053,1.33
2024-09-23 11:41:05.441,162798.284,0.103,0.878,-0.467,-0.014,0.033,-0.037,-0.141,0.051,-0.017,0.217,-1.072,1.334
2024-09-23 11:41:05.561,162798.404,0.1,0.876,-0.472,0.015,-0.023,0.052,-0.027,-0.01,0.015,0.209,-1.067,1.329
2024-09-23 11:41:05.681,162798.524,0.104,0.872,-0.478,-0.026,-0.068,-0.023,-0.046,0.004,0.024,0.214,-1.06,1.328
2024-09-23 11:41:05.801,162798.644,0.103,0.867,-0.488,-0.036,-0.02,-0.048,-0.29,0.046,0.023,0.208,-1.048,1.325
2024-09-23 11:41:05.920,162798.763,0.123,0.895,-0.429,-0.241,0.158,-0.022,-0.107,0.281,0.12,0.279,-1.108,1.381
2024-09-23 11:41:06.040,162798.883,0.108,0.894,-0.435,0.069,-0.233,0.021,0.415,0.181,-0.198,0.244,-1.106,1.353
2024-09-23 11:41:06.161,162799.003,0.092,0.879,-0.469,-0.022,-0.054,-0.024,0.175,-0.076,-0.077,0.193,-1.073,1.319
2024-09-23 11:41:06.279,162799.123,0.091,0.881,-0.464,-0.001,0.012,0.022,0.209,-0.053,-0.056,0.193,-1.078,1.315
2024-09-23 11:41:06.401,162799.243,0.09,0.863,-0.497,-0.042,-0.049,-0.055,-0.367,0.113,0.024,0.18,-1.041,1.299
2024-09-23 11:41:06.520,162799.362,0.097,0.872,-0.48,0.015,0.107,0.052,0.517,-0.139,-0.043,0.199,-1.059,1.312
2024-09-23 11:41:06.640,162799.482,0.091,0.87,-0.485,0.001,0.038,0.017,0.415,-0.032,-0.004,0.186,-1.054,1.307
2024-09-23 11:41:06.759,162799.602,0.103,0.876,-0.471,0.012,-0.066,0.013,-0.185,-0.067,-0.019,0.215,-1.068,1.327
2024-09-23 11:41:06.879,162799.722,0.098,0.877,-0.47,-0.0,0.124,0.043,0.592,-0.115,-0.047,0.206,-1.07,1.321
2024-09-23 11:41:06.999,162799.842,0.099,0.873,-0.477,-0.005,-0.035,-0.012,-0.087,-0.07,0.004,0.204,-1.062,1.32
2024-09-23 11:41:07.118,162799.961,0.105,0.878,-0.467,0.009,0.025,0.021,0.308,-0.064,-0.079,0.221,-1.072,1.336
2024-09-23 11:41:07.239,162800.081,0.106,0.874,-0.475,-0.006,-0.045,-0.019,-0.246,0.01,-0.04,0.22,-1.063,1.333
2024-09-23 11:41:07.358,162800.201,0.101,0.877,-0.47,-0.005,0.104,0.023,0.487,-0.082,-0.031,0.213,-1.069,1.325
2024-09-23 11:41:07.478,162800.321,0.106,0.877,-0.469,-0.017,0.061,0.017,0.247,-0.108,-0.019,0.223,-1.069,1.339
2024-09-23 11:41:07.598,162800.441,0.109,0.875,-0.472,0.006,-0.023,0.023,0.003,-0.016,-0.025,0.226,-1.065,1.338
2024-09-23 11:41:07.717,162800.56,0.108,0.879,-0.464,0.014,0.113,0.061,0.397,-0.051,0.023,0.229,-1.074,1.34
2024-09-23 11:41:07.838,162800.68,0.108,0.878,-0.467,-0.008,-0.01,0.02,0.161,-0.056,-0.027,0.228,-1.071,1.338
2024-09-23 11:41:07.957,162800.8,0.113,0.875,-0.471,-0.028,-0.083,-0.032,-0.242,0.13,0.124,0.235,-1.065,1.345
2024-09-23 11:41:08.077,162800.92,0.112,0.882,-0.459,-0.049,-0.082,-0.07,-0.524,0.122,0.083,0.24,-1.079,1.35
2024-09-23 11:41:08.197,162801.04,0.11,0.88,-0.461,-0.047,-0.252,-0.078,-0.463,0.093,0.066,0.235,-1.076,1.346
2024-09-23 11:41:08.317,162801.159,0.111,0.878,-0.466,-0.027,0.035,-0.027,-0.141,0.151,0.022,0.235,-1.071,1.344
2024-09-23 11:41:08.436,162801.279,0.113,0.872,-0.477,0.03,0.061,0.003,-0.001,-0.06,-0.142,0.233,-1.058,1.343
2024-09-23 11:41:08.556,162801.399,0.122,0.886,-0.448,-0.088,0.175,-0.05,0.304,-0.178,0.002,0.267,-1.088,1.374
2024-09-23 11:41:08.676,162801.519,0.113,0.891,-0.439,0.091,-0.355,0.143,0.513,0.057,-0.044,0.251,-1.1,1.356
2024-09-23 11:41:08.796,162801.639,0.093,0.875,-0.476,-0.041,0.01,-0.03,-0.055,-0.024,-0.056,0.193,-1.064,1.32
2024-09-23 11:41:08.915,162801.758,0.089,0.87,-0.485,-0.026,0.037,0.002,0.379,0.031,0.061,0.181,-1.055,1.303
2024-09-23 11:41:09.035,162801.878,0.097,0.873,-0.477,0.022,0.059,0.048,0.562,-0.173,-0.012,0.201,-1.062,1.318
2024-09-23 11:41:09.155,162801.998,0.091,0.862,-0.499,-0.025,0.044,-0.014,-0.089,0.1,0.029,0.18,-1.039,1.304
2024-09-23 11:41:09.275,162802.118,0.099,0.876,-0.472,-0.006,-0.022,-0.001,-0.305,0.034,0.042,0.206,-1.067,1.32
2024-09-23 11:41:09.394,162802.238,0.101,0.874,-0.476,-0.043,-0.168,-0.092,-0.445,0.102,0.056,0.209,-1.063,1.322
2024-09-23 11:41:09.514,162802.357,0.102,0.881,-0.462,-0.003,-0.024,-0.019,-0.273,0.057,0.014,0.217,-1.078,1.33
2024-09-23 11:41:09.634,162802.477,0.101,0.872,-0.479,-0.016,0.057,0.016,0.306,-0.006,0.007,0.208,-1.059,1.322
2024-09-23 11:41:09.754,162802.597,0.102,0.879,-0.465,-0.02,-0.017,-0.026,-0.282,0.081,0.027,0.215,-1.075,1.327
2024-09-23 11:41:09.874,162802.717,0.1,0.877,-0.47,-0.056,-0.121,-0.058,-0.281,0.079,0.174,0.211,-1.07,1.322
2024-09-23 11:41:09.994,162802.837,0.102,0.875,-0.473,-0.03,-0.019,-0.013,-0.079,0.053,0.027,0.213,-1.066,1.326
2024-09-23 11:41:10.114,162802.956,0.113,0.886,-0.45,0.007,0.053,0.013,0.093,-0.056,-0.038,0.247,-1.088,1.353
2024-09-23 11:41:10.233,162803.076,0.106,0.881,-0.46,-0.003,0.021,0.023,0.362,-0.036,-0.002,0.226,-1.079,1.337
2024-09-23 11:41:10.353,162803.196,0.111,0.88,-0.462,0.015,0.03,0.029,0.125,-0.027,-0.038,0.235,-1.075,1.344
2024-09-23 11:41:10.473,162803.316,0.109,0.875,-0.472,0.018,0.022,0.012,0.118,-0.069,-0.034,0.227,-1.065,1.339
2024-09-23 11:41:10.593,162803.436,0.111,0.877,-0.468,0.004,-0.027,0.023,0.014,-0.026,0.024,0.233,-1.069,1.343
2024-09-23 11:41:10.713,162803.555,0.113,0.879,-0.463,-0.002,0.164,0.033,0.28,-0.063,0.026,0.24,-1.074,1.348
2024-09-23 11:41:10.832,162803.675,0.108,0.879,-0.464,0.002,0.014,-0.001,0.182,0.004,-0.045,0.229,-1.074,1.342
2024-09-23 11:41:10.953,162803.795,0.116,0.877,-0.466,-0.001,-0.024,0.013,0.33,-0.101,0.031,0.243,-1.07,1.351
2024-09-23 11:41:11.072,162803.915,0.113,0.882,-0.457,-0.056,-0.096,-0.034,-0.326,0.177,0.163,0.242,-1.08,1.353
2024-09-23 11:41:11.191,162804.035,0.12,0.89,-0.439,0.056,0.009,0.151,-0.012,-0.282,-0.114,0.266,-1.098,1.368
2024-09-23 11:41:11.313,162804.154,0.096,0.875,-0.475,-0.03,-0.084,-0.109,0.216,-0.132,-0.164,0.198,-1.065,1.315
2024-09-23 11:41:11.432,162804.274,0.093,0.874,-0.477,0.02,-0.004,0.008,0.085,-0.085,-0.131,0.193,-1.064,1.308
2024-09-23 11:41:11.551,162804.394,0.096,0.867,-0.489,-0.014,-0.12,-0.039,-0.394,0.093,0.025,0.193,-1.049,1.308
2024-09-23 11:41:11.671,162804.514,0.097,0.862,-0.497,-0.016,-0.053,-0.033,-0.214,0.061,0.123,0.194,-1.04,1.309
2024-09-23 11:41:11.791,162804.634,0.106,0.864,-0.493,-0.033,-0.031,-0.003,-0.27,0.126,0.023,0.212,-1.042,1.324
2024-09-23 11:41:11.911,162804.753,0.111,0.875,-0.471,-0.002,0.052,-0.018,-0.076,0.044,0.143,0.232,-1.065,1.34
2024-09-23 11:41:12.031,162804.873,0.107,0.871,-0.479,0.018,-0.093,0.063,-0.026,-0.11,-0.044,0.22,-1.058,1.329
2024-09-23 11:41:12.150,162804.993,0.107,0.868,-0.486,0.003,0.038,0.028,-0.031,0.028,0.038,0.217,-1.05,1.328
2024-09-23 11:41:12.270,162805.113,0.107,0.864,-0.492,0.011,0.044,0.034,0.13,-0.061,-0.023,0.214,-1.044,1.33
2024-09-23 11:41:12.390,162805.233,0.107,0.868,-0.485,-0.031,-0.026,-0.007,-0.206,0.098,0.123,0.218,-1.051,1.33
2024-09-23 11:41:12.510,162805.352,0.114,0.873,-0.475,-0.041,-0.173,-0.066,-0.32,0.071,-0.034,0.235,-1.061,1.343
2024-09-23 11:41:12.629,162805.472,0.112,0.868,-0.484,-0.022,-0.093,-0.024,0.095,-0.044,0.089,0.227,-1.051,1.338
2024-09-23 11:41:12.750,162805.592,0.111,0.867,-0.486,0.003,0.095,0.015,-0.026,0.04,-0.184,0.225,-1.049,1.337
2024-09-23 11:41:12.869,162805.712,0.114,0.869,-0.482,0.015,0.055,-0.034,0.023,0.043,0.062,0.231,-1.053,1.341
2024-09-23 11:41:12.989,162805.832,0.111,0.872,-0.477,-0.013,-0.002,0.047,0.217,-0.11,-0.021,0.228,-1.059,1.34
2024-09-23 11:41:13.109,162805.951,0.115,0.868,-0.483,0.009,-0.039,0.043,0.091,-0.045,0.007,0.234,-1.052,1.34
2024-09-23 11:41:13.228,162806.071,0.114,0.863,-0.491,-0.009,-0.027,-0.006,-0.344,0.063,-0.02,0.228,-1.042,1.339
2024-09-23 11:41:13.348,162806.191,0.118,0.89,-0.441,-0.113,0.151,0.071,-0.335,0.12,-0.122,0.263,-1.097,1.351
2024-09-23 11:41:13.468,162806.311,0.105,0.892,-0.44,0.071,-0.214,-0.048,0.538,-0.056,-0.069,0.235,-1.101,1.333
2024-09-23 11:41:13.588,162806.431,0.107,0.877,-0.468,-0.034,0.042,-0.013,-0.039,0.008,-0.001,0.225,-1.07,1.321
2024-09-23 11:41:13.707,162806.55,0.104,0.876,-0.471,0.001,0.016,0.003,0.374,-0.034,-0.006,0.218,-1.067,1.314
2024-09-23 11:41:13.828,162806.67,0.106,0.871,-0.48,-0.037,-0.066,0.041,-0.259,0.115,-0.037,0.217,-1.057,1.313
2024-09-23 11:41:13.948,162806.79,0.107,0.867,-0.488,0.003,0.058,0.034,0.333,-0.101,0.044,0.215,-1.048,1.316
2024-09-23 11:41:14.067,162806.91,0.108,0.865,-0.49,0.032,-0.061,0.049,-0.152,0.017,0.027,0.218,-1.045,1.316
2024-09-23 11:41:14.187,162807.03,0.108,0.862,-0.495,-0.009,0.103,0.029,0.605,-0.195,0.04,0.216,-1.04,1.319
2024-09-23 11:41:14.307,162807.149,0.109,0.869,-0.483,-0.047,0.022,-0.015,-0.158,0.078,-0.034,0.221,-1.053,1.32
2024-09-23 11:41:14.426,162807.269,0.108,0.865,-0.491,-0.056,-0.147,-0.069,-0.467,0.018,0.011,0.216,-1.044,1.316
2024-09-23 11:41:14.547,162807.389,0.107,0.862,-0.495,-0.022,0.008,0.007,0.35,-0.102,0.012,0.213,-1.039,1.318
2024-09-23 11:41:14.666,162807.509,0.107,0.867,-0.487,-0.006,-0.057,0.061,-0.176,0.082,0.001,0.217,-1.048,1.319
2024-09-23 11:41:14.786,162807.629,0.106,0.865,-0.49,0.006,0.061,-0.007,0.138,-0.064,-0.017,0.214,-1.046,1.319
2024-09-23 11:41:14.906,162807.748,0.108,0.868,-0.485,0.012,0.0,0.014,0.067,-0.001,0.007,0.219,-1.05,1.32
2024-09-23 11:41:15.025,162807.868,0.108,0.862,-0.496,-0.016,-0.071,-0.042,-0.133,0.013,0.006,0.214,-1.039,1.321
2024-09-23 11:41:15.145,162807.988,0.109,0.875,-0.472,-0.049,0.003,-0.04,-0.439,0.124,-0.077,0.228,-1.065,1.328
2024-09-23 11:41:15.265,162808.108,0.107,0.872,-0.478,-0.02,-0.142,-0.04,-0.356,0.074,-0.001,0.22,-1.059,1.325
2024-09-23 11:41:15.385,162808.228,0.106,0.864,-0.492,-0.018,-0.008,-0.019,0.014,0.058,0.008,0.213,-1.043,1.317
2024-09-23 11:41:15.505,162808.347,0.107,0.86,-0.499,0.074,0.046,-0.016,0.347,-0.149,0.014,0.211,-1.035,1.319
2024-09-23 11:41:15.625,162808.467,0.113,0.889,-0.444,-0.064,-0.097,-0.073,-2.06,0.421,-0.059,0.25,-1.095,1.347
2024-09-23 11:41:15.745,162808.587,0.12,0.935,-0.334,0.045,0.027,0.008,-0.3,0.212,-0.023,0.346,-1.208,1.414
2024-09-23 11:41:15.864,162808.707,0.148,0.946,-0.29,0.071,0.06,-0.06,0.274,0.408,0.382,0.471,-1.24,1.498
2024-09-23 11:41:15.984,162808.827,0.226,0.914,-0.337,0.091,-0.067,0.132,0.408,-0.353,0.598,0.589,-1.153,1.606
2024-09-23 11:41:16.103,162808.946,0.196,0.895,-0.4,-0.149,-0.072,0.105,0.125,-0.728,-0.422,0.455,-1.109,1.545
2024-09-23 11:41:16.223,162809.066,0.117,0.9,-0.419,-0.176,-0.014,0.047,0.013,-0.452,-0.753,0.273,-1.12,1.413
2024-09-23 11:41:16.343,162809.186,0.094,0.878,-0.469,-0.055,0.046,0.036,1.149,-0.078,-0.075,0.198,-1.072,1.337
2024-09-23 11:41:16.463,162809.306,0.091,0.854,-0.512,-0.008,-0.004,-0.011,-0.038,-0.005,-0.061,0.176,-1.024,1.321
2024-09-23 11:41:16.583,162809.426,0.086,0.863,-0.498,0.016,0.041,0.021,0.081,-0.072,-0.081,0.171,-1.04,1.315
2024-09-23 11:41:16.702,162809.545,0.087,0.856,-0.51,-0.024,-0.028,-0.027,-0.416,0.184,0.167,0.169,-1.027,1.314
2024-09-23 11:41:16.822,162809.665,0.085,0.865,-0.494,-0.026,-0.047,-0.013,0.202,0.064,-0.181,0.17,-1.046,1.312
2024-09-23 11:41:16.943,162809.785,0.093,0.864,-0.495,-0.038,-0.065,-0.038,-0.545,0.106,0.207,0.186,-1.043,1.322
2024-09-23 11:41:17.062,162809.905,0.088,0.858,-0.506,-0.017,0.122,0.038,0.449,-0.077,0.008,0.173,-1.031,1.309
2024-09-23 11:41:17.182,162810.025,0.09,0.864,-0.496,0.007,0.003,-0.019,-0.05,0.003,-0.153,0.18,-1.042,1.318
2024-09-23 11:41:17.302,162810.144,0.086,0.864,-0.496,-0.031,-0.072,-0.059,-0.59,0.078,0.156,0.171,-1.043,1.307
2024-09-23 11:41:17.421,162810.264,0.089,0.86,-0.503,0.004,0.094,0.029,0.312,-0.007,0.017,0.174,-1.035,1.308
2024-09-23 11:41:17.541,162810.384,0.092,0.868,-0.488,-0.022,-0.039,-0.046,-0.45,0.142,0.104,0.186,-1.051,1.316
2024-09-23 11:41:17.661,162810.504,0.091,0.861,-0.499,-0.008,-0.128,-0.028,-0.068,-0.045,-0.072,0.181,-1.038,1.315
2024-09-23 11:41:17.781,162810.624,0.084,0.861,-0.502,0.033,0.067,0.047,0.336,-0.094,-0.135,0.166,-1.037,1.3
2024-09-23 11:41:17.901,162810.743,0.092,0.866,-0.492,0.039,-0.054,0.044,-0.056,-0.078,0.076,0.186,-1.047,1.321
2024-09-23 11:41:18.020,162810.863,0.092,0.85,-0.518,-0.001,0.067,-0.012,0.04,0.071,0.006,0.176,-1.016,1.317
2024-09-23 11:41:18.140,162810.983,0.108,0.871,-0.48,-0.036,-0.003,-0.084,-1.234,0.695,0.105,0.221,-1.057,1.349
2024-09-23 11:41:18.260,162811.103,0.124,0.882,-0.454,0.017,-0.132,0.147,-0.097,-0.369,-0.097,0.267,-1.08,1.39
2024-09-23 11:41:18.380,162811.223,0.099,0.872,-0.48,0.142,-0.479,0.049,0.377,-0.229,-0.212,0.204,-1.058,1.336
2024-09-23 11:41:18.500,162811.342,0.09,0.87,-0.486,0.004,0.059,0.02,0.071,-0.09,-0.077,0.183,-1.054,1.322
2024-09-23 11:41:18.619,162811.462,0.083,0.857,-0.508,-0.053,-0.021,-0.043,-0.283,0.124,0.149,0.163,-1.03,1.305
2024-09-23 11:41:18.739,162811.582,0.08,0.86,-0.504,-0.026,-0.086,-0.031,0.153,0.054,-0.147,0.158,-1.035,1.297
2024-09-23 11:41:18.858,162811.702,0.091,0.865,-0.494,-0.028,-0.081,-0.035,-0.476,0.013,0.061,0.181,-1.045,1.315
2024-09-23 11:41:18.979,162811.822,0.082,0.854,-0.513,-0.005,0.062,0.01,0.024,0.069,0.015,0.159,-1.025,1.295
2024-09-23 11:41:19.098,162811.941,0.087,0.866,-0.493,-0.002,-0.008,-0.045,-0.272,0.129,-0.119,0.176,-1.046,1.309
2024-09-23 11:41:19.218,162812.061,0.083,0.864,-0.497,-0.016,-0.03,-0.021,-0.308,-0.023,0.129,0.165,-1.043,1.295
2024-09-23 11:41:19.339,162812.181,0.088,0.861,-0.502,0.006,0.105,0.05,0.429,-0.025,0.003,0.173,-1.036,1.302
2024-09-23 11:41:19.459,162812.301,0.091,0.866,-0.491,-0.008,-0.022,-0.009,-0.469,0.03,0.048,0.182,-1.048,1.307
2024-09-23 11:41:19.578,162812.421,0.097,0.864,-0.495,-0.059,-0.072,-0.087,-0.228,0.112,0.052,0.193,-1.043,1.314
2024-09-23 11:41:19.697,162812.54,0.097,0.871,-0.482,-0.023,-0.016,-0.049,-0.18,0.058,-0.11,0.199,-1.056,1.318
2024-09-23 11:41:19.818,162812.66,0.095,0.867,-0.489,-0.041,0.03,-0.032,-0.539,0.153,0.211,0.191,-1.049,1.314
2024-09-23 11:41:19.938,162812.78,0.097,0.866,-0.49,-0.019,-0.019,-0.013,0.351,-0.031,-0.013,0.195,-1.048,1.325
2024-09-23 11:41:20.057,162812.9,0.101,0.86,-0.5,0.062,-0.108,0.061,0.033,-0.044,-0.08,0.199,-1.035,1.328
2024-09-23 11:41:20.176,162813.02,0.124,0.902,-0.414,0.019,0.232,0.115,0.937,-0.413,0.129,0.291,-1.124,1.396
2024-09-23 11:41:20.296,162813.139,0.112,0.891,-0.439,0.039,-0.371,0.082,0.929,0.469,0.629,0.25,-1.1,1.38
2024-09-23 11:41:20.417,162813.259,0.099,0.864,-0.493,-0.034,-0.055,-0.034,-0.04,-0.001,-0.021,0.199,-1.044,1.339
2024-09-23 11:41:20.537,162813.379,0.094,0.867,-0.489,-0.001,-0.018,-0.003,0.092,-0.056,-0.133,0.191,-1.05,1.333
2024-09-23 11:41:20.656,162813.499,0.101,0.862,-0.497,-0.042,-0.07,-0.071,-0.475,0.064,0.095,0.202,-1.039,1.343
2024-09-23 11:41:20.776,162813.619,0.087,0.861,-0.501,-0.003,0.04,0.016,0.324,-0.031,0.003,0.172,-1.038,1.31
2024-09-23 11:41:20.896,162813.738,0.098,0.868,-0.486,0.052,-0.044,0.063,0.317,-0.135,-0.022,0.198,-1.052,1.336
2024-09-23 11:41:21.015,162813.858,0.093,0.859,-0.504,-0.058,-0.104,-0.075,-0.541,0.02,0.024,0.183,-1.033,1.32
2024-09-23 11:41:21.135,162813.978,0.097,0.865,-0.492,0.012,0.047,0.02,0.274,-0.078,-0.135,0.194,-1.045,1.331
