Date,TimeStamp,GravityX,GravityY,GravityZ,UserAccelerationX,UserAccelerationY,UserAccelerationZ,RotationRateX,RotationRateY,RotationRateZ,AttitudeRoll,AttitudePitch,AttitudeYaw
2024-10-01 09:44:38.131,27769.895,0.137,-0.084,-0.987,0.012,-0.014,0.012,-0.026,0.003,-0.006,0.138,0.084,1.059
2024-10-01 09:44:38.171,27770.015,0.138,-0.084,-0.987,-0.006,-0.003,0.007,-0.013,-0.01,-0.002,0.139,0.084,1.059
2024-10-01 09:44:38.191,27770.135,0.137,-0.084,-0.987,-0.004,-0.001,0.008,-0.001,-0.004,-0.0,0.138,0.084,1.059
2024-10-01 09:44:38.210,27770.255,0.138,-0.083,-0.987,-0.008,0.002,0.005,0.003,0.016,-0.001,0.139,0.083,1.059
2024-10-01 09:44:38.235,27770.375,0.138,-0.083,-0.987,-0.009,0.004,0.009,0.013,0.008,-0.0,0.139,0.083,1.059
2024-10-01 09:44:38.331,27770.494,0.139,-0.083,-0.987,-0.006,-0.002,0.008,-0.015,-0.0,0.001,0.139,0.083,1.059
2024-10-01 09:44:38.452,27770.614,0.138,-0.083,-0.987,-0.006,0.0,0.007,0.001,-0.007,-0.0,0.139,0.083,1.059
2024-10-01 09:44:38.572,27770.734,0.138,-0.083,-0.987,-0.007,-0.0,0.01,0.013,0.002,0.002,0.139,0.083,1.059
2024-10-01 09:44:38.691,27770.854,0.14,-0.072,-0.988,-0.016,-0.058,0.007,-0.329,0.051,-0.059,0.141,0.072,1.06
2024-10-01 09:44:38.811,27770.974,0.154,-0.04,-0.987,-0.296,0.114,-0.162,0.952,0.792,0.177,0.155,0.04,1.042
2024-10-01 09:44:38.931,27771.093,0.232,-0.078,-0.97,-0.17,-0.179,-0.158,0.115,0.663,-0.547,0.235,0.078,1.022
2024-10-01 09:44:39.050,27771.213,0.269,-0.074,-0.96,-0.116,-0.103,0.186,0.758,-0.223,-0.775,0.273,0.074,0.95
2024-10-01 09:44:39.171,27771.333,0.186,-0.158,-0.97,0.072,0.095,0.216,-0.107,-1.343,-0.543,0.19,0.159,0.842
2024-10-01 09:44:39.291,27771.453,0.042,-0.085,-0.995,0.158,0.254,-0.108,-0.611,-0.599,0.124,0.042,0.086,0.834
2024-10-01 09:44:39.410,27771.573,0.002,-0.031,-1.0,0.146,0.137,0.043,0.214,-0.288,-0.06,0.002,0.031,0.836
2024-10-01 09:44:39.530,27771.692,-0.021,-0.06,-0.998,0.034,0.172,-0.146,1.807,-0.023,0.019,-0.021,0.06,0.848
2024-10-01 09:44:39.650,27771.812,0.014,-0.176,-0.984,0.035,-0.091,-0.047,-0.342,0.48,0.103,0.015,0.177,0.848
2024-10-01 09:44:39.770,27771.932,0.084,-0.172,-0.981,-0.017,0.058,0.034,-0.475,0.695,0.11,0.085,0.173,0.854
2024-10-01 09:44:39.889,27772.052,0.165,-0.139,-0.977,-0.011,0.021,0.069,-0.659,0.591,0.327,0.167,0.139,0.874
2024-10-01 09:44:40.009,27772.171,0.197,-0.111,-0.974,-0.057,0.022,-0.043,0.227,0.006,0.078,0.199,0.112,0.921
2024-10-01 09:44:40.129,27772.291,0.199,-0.143,-0.97,-0.049,-0.076,-0.013,-0.09,-0.061,0.017,0.203,0.143,0.954
2024-10-01 09:44:40.249,27772.411,0.192,-0.125,-0.974,-0.063,-0.049,0.02,-0.394,-0.029,-0.071,0.194,0.125,0.967
2024-10-01 09:44:40.369,27772.531,0.224,-0.046,-0.974,-0.013,0.099,0.048,-0.899,0.612,0.061,0.226,0.046,1.0
2024-10-01 09:44:40.488,27772.651,0.294,0.21,-0.932,-0.05,-0.161,0.091,-4.864,0.379,0.135,0.306,-0.212,1.065
2024-10-01 09:44:40.608,27772.77,0.299,0.651,-0.698,0.081,0.014,0.155,-2.07,-0.179,-0.125,0.404,-0.709,1.276
2024-10-01 09:44:40.728,27772.89,0.218,0.827,-0.517,0.025,-0.068,0.109,-2.153,-0.866,-0.408,0.399,-0.974,1.382
2024-10-01 09:44:40.848,27773.01,0.126,0.872,-0.472,0.027,-0.148,0.04,-0.357,-0.864,-0.281,0.26,-1.06,1.337
2024-10-01 09:44:40.967,27773.13,0.06,0.884,-0.463,0.037,0.112,-0.068,0.234,-0.486,-0.136,0.129,-1.085,1.28
2024-10-01 09:44:41.088,27773.25,0.04,0.86,-0.509,-0.021,0.18,-0.054,0.855,-0.254,0.545,0.079,-1.035,1.283
2024-10-01 09:44:41.207,27773.369,0.042,0.814,-0.579,-0.17,0.115,-0.039,1.244,-0.394,0.121,0.073,-0.951,1.324
2024-10-01 09:44:41.327,27773.489,0.037,0.779,-0.626,0.047,0.069,0.011,0.43,-0.123,0.084,0.059,-0.893,1.334
2024-10-01 09:44:41.447,27773.609,0.014,0.772,-0.635,-0.025,-0.054,-0.048,-0.418,0.098,-0.098,0.023,-0.883,1.305
2024-10-01 09:44:41.567,27773.729,0.022,0.803,-0.595,-0.021,0.142,0.026,0.065,0.18,0.134,0.036,-0.933,1.31
2024-10-01 09:44:41.686,27773.849,0.025,0.807,-0.59,0.0,-0.021,-0.003,-0.118,-0.035,-0.053,0.043,-0.939,1.318
2024-10-01 09:44:41.806,27773.968,0.02,0.802,-0.597,-0.007,-0.007,0.003,0.138,-0.001,-0.005,0.034,-0.93,1.312
2024-10-01 09:44:41.927,27774.088,0.019,0.8,-0.6,-0.002,0.016,0.012,0.096,-0.035,-0.003,0.032,-0.927,1.31
2024-10-01 09:44:42.046,27774.208,0.017,0.797,-0.603,-0.005,0.006,0.008,0.092,0.005,-0.013,0.029,-0.923,1.307
2024-10-01 09:44:42.166,27774.328,0.016,0.794,-0.608,-0.003,0.011,0.01,0.136,-0.001,-0.016,0.026,-0.917,1.303
2024-10-01 09:44:42.285,27774.448,0.015,0.793,-0.609,-0.003,0.006,0.006,0.028,-0.013,-0.013,0.024,-0.916,1.301
2024-10-01 09:44:42.405,27774.567,0.014,0.792,-0.61,-0.003,0.005,0.005,0.049,0.0,-0.003,0.024,-0.915,1.3
2024-10-01 09:44:42.525,27774.687,0.015,0.793,-0.609,-0.006,-0.003,0.004,-0.011,0.002,0.008,0.024,-0.916,1.301
2024-10-01 09:44:42.645,27774.807,0.014,0.794,-0.608,-0.002,-0.006,0.002,-0.003,-0.009,-0.011,0.023,-0.917,1.301
2024-10-01 09:44:42.764,27774.927,0.011,0.789,-0.614,-0.001,0.002,0.007,0.168,-0.034,-0.029,0.018,-0.909,1.297
2024-10-01 09:44:42.885,27775.047,0.008,0.782,-0.623,-0.004,0.031,0.001,0.072,-0.026,-0.012,0.012,-0.898,1.294
2024-10-01 09:44:43.005,27775.166,0.005,0.786,-0.618,-0.0,0.002,-0.006,-0.121,-0.086,0.038,0.008,-0.904,1.297
2024-10-01 09:44:43.124,27775.286,0.001,0.789,-0.615,-0.009,-0.052,-0.005,-0.145,0.02,0.005,0.002,-0.909,1.296
2024-10-01 09:44:43.244,27775.406,0.019,0.806,-0.592,-0.039,-0.074,-0.081,-1.193,0.315,0.165,0.031,-0.937,1.31
2024-10-01 09:44:43.364,27775.526,0.032,0.821,-0.569,0.013,0.038,0.032,0.595,-0.118,-0.108,0.057,-0.964,1.326
2024-10-01 09:44:43.483,27775.646,0.023,0.812,-0.583,-0.004,0.005,0.005,0.038,-0.013,-0.008,0.039,-0.948,1.313
2024-10-01 09:44:43.603,27775.765,0.021,0.809,-0.587,-0.003,0.0,0.004,0.018,0.001,-0.001,0.036,-0.943,1.311
2024-10-01 09:44:43.722,27775.885,0.021,0.806,-0.591,-0.003,-0.011,-0.0,0.007,-0.0,-0.004,0.035,-0.938,1.31
2024-10-01 09:44:43.842,27776.005,0.02,0.806,-0.591,-0.003,-0.01,-0.002,-0.03,0.005,-0.004,0.035,-0.938,1.31
2024-10-01 09:44:43.962,27776.125,0.018,0.802,-0.597,-0.004,0.001,0.009,0.135,-0.028,-0.031,0.03,-0.93,1.305
2024-10-01 09:44:44.082,27776.245,0.013,0.794,-0.608,0.001,-0.046,0.002,0.014,-0.026,-0.016,0.022,-0.917,1.3
2024-10-01 09:44:44.201,27776.364,0.016,0.795,-0.606,-0.005,-0.032,0.003,-0.119,0.04,0.051,0.026,-0.919,1.304
2024-10-01 09:44:44.321,27776.484,0.02,0.792,-0.61,-0.032,-0.051,-0.007,-0.215,0.157,0.163,0.033,-0.914,1.308
2024-10-01 09:44:44.441,27776.604,0.029,0.848,-0.53,-0.19,0.075,-0.041,-0.28,0.269,-0.106,0.055,-1.011,1.307
2024-10-01 09:44:44.562,27776.724,0.055,0.849,-0.525,0.02,-0.067,-0.009,-0.234,0.178,0.123,0.104,-1.015,1.333
2024-10-01 09:44:44.681,27776.844,0.063,0.846,-0.53,0.109,0.015,-0.023,0.555,-0.223,0.161,0.119,-1.008,1.361
2024-10-01 09:44:44.802,27776.963,0.046,0.837,-0.546,0.001,0.026,-0.062,0.054,-0.109,-0.031,0.085,-0.991,1.349
2024-10-01 09:44:44.922,27777.083,0.044,0.845,-0.533,0.003,0.049,-0.029,0.205,-0.074,0.011,0.082,-1.006,1.351
2024-10-01 09:44:45.041,27777.203,0.015,0.844,-0.537,-0.065,0.035,-0.004,-0.023,-0.001,-0.085,0.028,-1.004,1.299
2024-10-01 09:44:45.160,27777.323,0.009,0.832,-0.554,0.007,-0.006,0.01,0.292,-0.089,-0.077,0.016,-0.983,1.288
2024-10-01 09:44:45.281,27777.443,0.005,0.825,-0.565,0.001,0.002,0.002,0.078,-0.03,-0.001,0.009,-0.971,1.283
2024-10-01 09:44:45.400,27777.562,0.004,0.824,-0.566,-0.007,-0.013,-0.008,-0.059,0.025,0.009,0.007,-0.969,1.282
2024-10-01 09:44:45.520,27777.682,0.012,0.836,-0.549,0.008,-0.021,-0.016,-0.52,0.059,0.051,0.022,-0.989,1.293
2024-10-01 09:44:45.640,27777.802,0.018,0.841,-0.541,0.003,-0.101,-0.014,-0.007,-0.021,0.031,0.034,-0.999,1.307
2024-10-01 09:44:45.759,27777.922,0.026,0.845,-0.534,-0.001,-0.006,-0.003,-0.279,0.072,0.115,0.049,-1.006,1.321
2024-10-01 09:44:45.880,27778.042,0.045,0.883,-0.467,-0.007,0.014,-0.021,-0.859,0.146,0.031,0.096,-1.083,1.355
2024-10-01 09:44:45.999,27778.161,0.052,0.916,-0.397,-0.004,0.002,-0.035,-0.455,0.156,0.041,0.13,-1.159,1.379
2024-10-01 09:44:46.119,27778.281,0.061,0.928,-0.367,0.003,0.01,0.021,-0.08,-0.006,0.024,0.164,-1.189,1.407
2024-10-01 09:44:46.239,27778.401,0.059,0.931,-0.359,0.01,-0.005,-0.007,-0.105,0.07,-0.081,0.164,-1.198,1.408
2024-10-01 09:44:46.359,27778.521,0.065,0.935,-0.35,0.005,-0.018,0.021,0.001,0.001,0.083,0.183,-1.207,1.424
2024-10-01 09:44:46.479,27778.641,0.063,0.935,-0.348,-0.001,-0.02,0.017,-0.348,-0.056,-0.122,0.179,-1.209,1.424
2024-10-01 09:44:46.598,27778.76,0.06,0.941,-0.334,0.001,0.042,-0.001,-0.03,0.05,0.044,0.178,-1.225,1.415
2024-10-01 09:44:46.718,27778.88,0.056,0.941,-0.334,-0.014,-0.005,0.012,0.126,-0.124,-0.119,0.167,-1.225,1.413
2024-10-01 09:44:46.838,27779.0,0.044,0.937,-0.345,-0.014,0.037,-0.052,0.231,-0.083,-0.026,0.126,-1.215,1.384
2024-10-01 09:44:46.958,27779.12,0.038,0.925,-0.378,0.066,-0.048,0.062,1.076,-0.223,-0.034,0.1,-1.181,1.365
2024-10-01 09:44:47.077,27779.24,0.018,0.868,-0.497,-0.044,0.007,-0.008,0.721,-0.092,-0.037,0.037,-1.051,1.32
2024-10-01 09:44:47.197,27779.359,0.013,0.852,-0.523,-0.0,-0.012,-0.007,-0.012,-0.036,-0.094,0.026,-1.02,1.311
2024-10-01 09:44:47.317,27779.479,0.002,0.852,-0.524,-0.003,0.007,-0.002,0.031,-0.032,-0.079,0.003,-1.02,1.286
2024-10-01 09:44:47.437,27779.599,-0.004,0.846,-0.533,0.0,-0.006,0.003,0.162,-0.03,-0.054,-0.008,-1.009,1.275
2024-10-01 09:44:47.556,27779.719,-0.01,0.84,-0.543,-0.002,0.017,-0.002,0.089,0.005,-0.036,-0.018,-0.997,1.263
2024-10-01 09:44:47.676,27779.839,-0.013,0.832,-0.555,-0.002,-0.01,-0.007,0.052,-0.014,0.007,-0.024,-0.982,1.256
2024-10-01 09:44:47.796,27779.958,-0.014,0.831,-0.557,-0.001,-0.015,-0.003,-0.027,-0.006,-0.015,-0.025,-0.98,1.255
2024-10-01 09:44:47.916,27780.078,-0.017,0.832,-0.554,-0.002,-0.01,-0.006,-0.051,-0.027,-0.014,-0.031,-0.983,1.249
2024-10-01 09:44:48.036,27780.198,-0.015,0.837,-0.548,-0.007,0.047,0.014,0.054,-0.059,0.067,-0.028,-0.991,1.258
2024-10-01 09:44:48.156,27780.318,-0.014,0.829,-0.56,0.002,-0.076,-0.028,0.053,-0.07,0.027,-0.025,-0.977,1.271
2024-10-01 09:44:48.274,27780.438,-0.011,0.83,-0.558,-0.011,-0.074,-0.012,-0.367,0.163,0.032,-0.021,-0.978,1.274
2024-10-01 09:44:48.395,27780.557,-0.0,0.859,-0.512,0.016,0.077,0.045,0.464,-0.1,-0.098,-0.0,-1.033,1.28
2024-10-01 09:44:48.515,27780.677,-0.009,0.844,-0.537,-0.004,-0.012,-0.005,-0.014,-0.017,-0.024,-0.016,-1.004,1.269
2024-10-01 09:44:48.635,27780.797,-0.012,0.842,-0.54,-0.001,-0.005,-0.006,0.013,-0.018,-0.016,-0.021,-1.0,1.265
2024-10-01 09:44:48.754,27780.917,-0.016,0.837,-0.548,-0.002,0.007,0.0,0.16,-0.029,-0.021,-0.028,-0.991,1.26
2024-10-01 09:44:48.874,27781.037,-0.004,0.832,-0.554,-0.012,-0.028,-0.008,-0.125,0.123,0.181,-0.007,-0.983,1.276
2024-10-01 09:44:48.994,27781.156,-0.004,0.834,-0.552,-0.014,-0.069,-0.005,-0.317,0.031,0.044,-0.007,-0.986,1.277
2024-10-01 09:44:49.114,27781.276,0.044,0.874,-0.483,-0.103,0.044,-0.026,0.0,0.269,-0.049,0.09,-1.064,1.355
2024-10-01 09:44:49.234,27781.396,0.041,0.895,-0.445,-0.026,-0.095,0.073,-0.064,-0.355,-0.217,0.092,-1.108,1.364
2024-10-01 09:44:49.353,27781.516,0.003,0.878,-0.479,0.019,-0.085,0.034,0.262,-0.198,-0.502,0.005,-1.071,1.287
2024-10-01 09:44:49.473,27781.636,-0.012,0.844,-0.536,-0.004,-0.038,-0.016,0.149,-0.076,-0.021,-0.022,-1.005,1.27
2024-10-01 09:44:49.594,27781.755,-0.023,0.837,-0.546,-0.001,-0.008,0.007,0.135,-0.076,-0.044,-0.041,-0.992,1.259
2024-10-01 09:44:49.713,27781.875,-0.026,0.837,-0.546,-0.004,0.008,0.004,0.022,0.018,-0.011,-0.047,-0.992,1.254
2024-10-01 09:44:49.833,27781.995,-0.025,0.838,-0.546,-0.003,-0.012,0.002,-0.015,0.022,0.005,-0.046,-0.993,1.253
2024-10-01 09:44:49.953,27782.115,-0.027,0.838,-0.545,0.001,-0.005,-0.002,0.02,-0.017,-0.03,-0.05,-0.993,1.249
2024-10-01 09:44:50.072,27782.235,-0.033,0.834,-0.55,-0.002,0.005,-0.001,0.022,-0.017,-0.048,-0.06,-0.987,1.239
2024-10-01 09:44:50.192,27782.354,-0.034,0.837,-0.547,-0.014,-0.026,-0.009,-0.044,-0.107,0.149,-0.061,-0.991,1.243
2024-10-01 09:44:50.312,27782.474,-0.029,0.827,-0.562,-0.014,0.008,-0.016,0.008,-0.01,-0.014,-0.051,-0.974,1.264
2024-10-01 09:44:50.432,27782.594,-0.029,0.829,-0.558,-0.006,-0.06,-0.007,-0.312,0.055,0.062,-0.053,-0.977,1.261
2024-10-01 09:44:50.552,27782.714,-0.021,0.859,-0.511,0.013,0.11,0.028,0.244,-0.036,-0.084,-0.041,-1.034,1.26
2024-10-01 09:44:50.671,27782.834,-0.026,0.845,-0.534,-0.008,-0.025,-0.011,-0.043,0.02,0.015,-0.049,-1.007,1.254
2024-10-01 09:44:50.792,27782.953,-0.027,0.845,-0.535,-0.003,-0.013,-0.003,0.0,-0.002,0.004,-0.051,-1.006,1.252
2024-10-01 09:44:50.911,27783.073,-0.028,0.844,-0.535,-0.003,0.003,0.002,0.018,0.007,-0.0,-0.053,-1.005,1.251
2024-10-01 09:44:51.031,27783.193,-0.03,0.841,-0.54,-0.002,-0.005,0.001,0.072,-0.01,-0.015,-0.055,-1.0,1.249
2024-10-01 09:44:51.150,27783.313,-0.031,0.837,-0.546,0.0,0.008,0.002,0.125,-0.008,-0.009,-0.057,-0.992,1.248
2024-10-01 09:44:51.270,27783.433,-0.029,0.831,-0.555,-0.008,-0.031,-0.003,-0.037,0.054,0.03,-0.053,-0.982,1.25
2024-10-01 09:44:51.390,27783.552,-0.022,0.832,-0.555,0.002,0.002,-0.002,0.019,0.009,0.018,-0.04,-0.982,1.259
2024-10-01 09:44:51.510,27783.672,-0.024,0.828,-0.561,-0.004,-0.014,0.001,0.054,-0.012,0.013,-0.043,-0.975,1.258
2024-10-01 09:44:51.630,27783.792,-0.015,0.845,-0.535,-0.027,0.001,-0.053,-0.88,0.211,0.232,-0.029,-1.006,1.268
2024-10-01 09:44:51.749,27783.912,0.018,0.853,-0.521,0.024,0.021,0.037,0.525,-0.164,0.282,0.034,-1.022,1.33
2024-10-01 09:44:51.869,27784.032,0.021,0.837,-0.547,0.001,-0.03,-0.024,0.214,-0.123,-0.148,0.039,-0.992,1.358
2024-10-01 09:44:51.989,27784.151,0.005,0.827,-0.562,-0.007,0.071,0.012,0.474,-0.046,0.01,0.009,-0.974,1.334
2024-10-01 09:44:52.109,27784.271,-0.005,0.817,-0.576,-0.004,-0.001,-0.005,-0.066,-0.025,-0.059,-0.009,-0.957,1.321
2024-10-01 09:44:52.229,27784.391,-0.009,0.817,-0.577,-0.0,0.004,-0.004,0.017,-0.001,-0.039,-0.015,-0.956,1.315
2024-10-01 09:44:52.349,27784.511,-0.012,0.815,-0.579,0.0,0.002,-0.0,0.013,-0.019,-0.046,-0.02,-0.953,1.309
2024-10-01 09:44:52.468,27784.631,-0.016,0.81,-0.586,0.003,0.002,-0.008,-0.043,-0.033,-0.018,-0.027,-0.945,1.304
2024-10-01 09:44:52.588,27784.75,-0.015,0.81,-0.586,0.001,0.007,0.016,0.193,-0.097,0.11,-0.025,-0.945,1.316
2024-10-01 09:44:52.708,27784.87,-0.017,0.807,-0.59,-0.002,0.008,0.006,0.002,-0.032,-0.016,-0.028,-0.939,1.318
2024-10-01 09:44:52.828,27784.99,-0.006,0.835,-0.551,-0.023,0.025,-0.056,-0.85,0.226,-0.017,-0.011,-0.988,1.322
2024-10-01 09:44:52.947,27785.11,-0.016,0.828,-0.561,-0.006,-0.022,0.001,0.311,-0.011,0.001,-0.028,-0.975,1.305
2024-10-01 09:44:53.067,27785.23,-0.016,0.83,-0.558,-0.002,0.016,0.008,0.088,-0.017,-0.009,-0.028,-0.978,1.305
2024-10-01 09:44:53.187,27785.349,-0.017,0.829,-0.559,-0.001,0.011,0.002,0.069,-0.011,-0.022,-0.031,-0.977,1.303
2024-10-01 09:44:53.307,27785.469,-0.019,0.825,-0.565,-0.002,-0.001,0.001,0.074,-0.01,-0.029,-0.034,-0.97,1.3
2024-10-01 09:44:53.427,27785.589,-0.014,0.824,-0.567,-0.006,-0.013,-0.001,-0.058,0.084,0.083,-0.025,-0.968,1.306
2024-10-01 09:44:53.546,27785.709,-0.013,0.823,-0.568,-0.007,-0.004,-0.004,0.044,0.0,0.027,-0.024,-0.967,1.306
2024-10-01 09:44:53.666,27785.829,0.007,0.836,-0.549,-0.035,0.04,-0.068,-0.635,0.226,0.383,0.013,-0.989,1.337
2024-10-01 09:44:53.786,27785.948,0.037,0.827,-0.561,0.048,0.045,-0.03,0.506,-0.178,0.142,0.065,-0.974,1.401
2024-10-01 09:44:53.905,27786.068,0.04,0.825,-0.564,-0.02,-0.045,0.01,0.34,-0.11,0.014,0.072,-0.97,1.426
2024-10-01 09:44:54.025,27786.188,0.023,0.824,-0.567,-0.009,0.055,0.006,0.224,-0.021,-0.052,0.04,-0.968,1.399
2024-10-01 09:44:54.146,27786.308,0.012,0.813,-0.582,-0.006,-0.012,-0.003,0.011,-0.013,-0.045,0.02,-0.949,1.382
2024-10-01 09:44:54.266,27786.428,0.01,0.81,-0.586,-0.004,-0.016,0.006,0.038,0.014,-0.013,0.016,-0.945,1.377
2024-10-01 09:44:54.385,27786.547,0.007,0.81,-0.587,-0.001,0.002,-0.002,0.063,-0.024,-0.023,0.012,-0.944,1.372
2024-10-01 09:44:54.505,27786.667,0.004,0.808,-0.589,-0.002,0.004,-0.001,-0.015,-0.019,-0.008,0.007,-0.941,1.368
2024-10-01 09:44:54.625,27786.787,0.003,0.807,-0.591,0.004,0.052,0.033,0.248,-0.01,0.024,0.005,-0.939,1.377
2024-10-01 09:44:54.744,27786.907,0.001,0.808,-0.59,-0.007,0.035,0.003,0.062,0.024,0.002,0.002,-0.94,1.374
2024-10-01 09:44:54.864,27787.027,0.008,0.824,-0.567,-0.005,-0.005,-0.015,-0.366,0.076,-0.008,0.015,-0.968,1.378
2024-10-01 09:44:54.984,27787.146,0.004,0.823,-0.568,-0.003,-0.053,-0.009,-0.091,0.011,-0.006,0.007,-0.967,1.37
2024-10-01 09:44:55.104,27787.266,0.002,0.823,-0.568,-0.002,-0.009,0.004,0.04,-0.01,-0.013,0.004,-0.967,1.367
2024-10-01 09:44:55.224,27787.386,-0.0,0.82,-0.572,-0.001,-0.019,0.003,0.028,0.004,-0.003,-0.0,-0.962,1.364
2024-10-01 09:44:55.343,27787.506,0.002,0.816,-0.579,-0.015,-0.014,-0.013,-0.058,0.087,0.09,0.003,-0.954,1.365
2024-10-01 09:44:55.463,27787.626,0.008,0.816,-0.577,0.008,0.005,0.01,0.187,-0.04,-0.047,0.013,-0.955,1.372
2024-10-01 09:44:55.583,27787.745,0.019,0.82,-0.573,-0.038,0.042,-0.02,-0.36,0.301,0.467,0.033,-0.961,1.388
2024-10-01 09:44:55.703,27787.865,0.042,0.832,-0.553,0.189,0.1,-0.098,1.165,0.0,0.148,0.075,-0.983,1.444
2024-10-01 09:44:55.823,27787.985,0.027,0.827,-0.562,0.0,0.129,0.005,0.213,-0.142,-0.123,0.048,-0.973,1.427
2024-10-01 09:44:55.942,27788.105,0.016,0.808,-0.589,-0.009,-0.026,-0.007,0.001,0.004,-0.015,0.027,-0.94,1.412
2024-10-01 09:44:56.062,27788.225,0.014,0.808,-0.588,-0.0,-0.013,0.003,0.063,-0.011,-0.026,0.024,-0.941,1.408
2024-10-01 09:44:56.182,27788.344,0.01,0.807,-0.59,-0.006,0.0,0.003,0.055,-0.005,0.001,0.017,-0.939,1.401
2024-10-01 09:44:56.301,27788.464,0.008,0.808,-0.589,-0.006,0.012,-0.016,0.011,-0.099,0.025,0.014,-0.941,1.404
2024-10-01 09:44:56.421,27788.584,0.005,0.802,-0.597,-0.011,-0.038,-0.007,-0.13,0.021,-0.001,0.008,-0.931,1.407
2024-10-01 09:44:56.541,27788.704,0.011,0.821,-0.571,-0.018,-0.012,-0.043,-0.668,0.166,0.04,0.019,-0.962,1.41
2024-10-01 09:44:56.661,27788.824,0.009,0.825,-0.565,-0.006,-0.035,-0.004,0.03,-0.003,-0.012,0.016,-0.97,1.405
2024-10-01 09:44:56.781,27788.943,0.007,0.826,-0.564,-0.002,-0.004,0.001,0.037,-0.014,-0.018,0.012,-0.971,1.402
2024-10-01 09:44:56.901,27789.063,0.003,0.823,-0.568,-0.005,-0.005,0.003,0.056,-0.006,-0.003,0.006,-0.966,1.397
2024-10-01 09:44:57.021,27789.183,0.005,0.823,-0.569,-0.009,-0.025,-0.007,-0.236,0.084,0.083,0.009,-0.966,1.399
2024-10-01 09:44:57.140,27789.303,0.013,0.832,-0.555,0.004,0.02,0.007,0.158,-0.02,-0.026,0.024,-0.982,1.412
2024-10-01 09:44:57.260,27789.423,0.018,0.854,-0.52,-0.025,-0.029,-0.081,-1.506,0.378,-0.052,0.035,-1.024,1.41
2024-10-01 09:44:57.380,27789.542,0.032,0.934,-0.355,-0.014,0.046,-0.075,0.134,0.718,0.129,0.089,-1.207,1.393
2024-10-01 09:44:57.500,27789.662,0.052,0.925,-0.377,-0.01,-0.02,0.063,0.129,0.29,-0.206,0.138,-1.18,1.373
2024-10-01 09:44:57.620,27789.782,0.021,0.925,-0.38,-0.009,0.077,0.008,0.125,0.034,-0.077,0.054,-1.181,1.277
2024-10-01 09:44:57.739,27789.902,0.035,0.924,-0.381,-0.003,0.002,-0.005,-0.104,-0.009,0.014,0.092,-1.178,1.315
2024-10-01 09:44:57.859,27790.022,0.031,0.923,-0.384,0.005,-0.013,0.001,0.028,-0.072,-0.005,0.081,-1.175,1.311
2024-10-01 09:44:57.979,27790.141,0.025,0.924,-0.383,0.013,0.004,-0.018,0.024,0.032,-0.044,0.066,-1.177,1.301
2024-10-01 09:44:58.098,27790.261,0.018,0.907,-0.42,0.006,-0.013,0.01,0.513,-0.037,-0.024,0.043,-1.137,1.279
2024-10-01 09:44:58.219,27790.381,0.013,0.883,-0.468,0.006,0.003,-0.01,0.369,0.004,0.023,0.028,-1.083,1.268
2024-10-01 09:44:58.338,27790.501,0.012,0.864,-0.503,-0.013,0.05,0.017,0.55,0.039,0.085,0.023,-1.044,1.262
2024-10-01 09:44:58.458,27790.621,0.009,0.842,-0.54,0.006,-0.049,-0.01,0.063,-0.11,-0.23,0.017,-1.001,1.257
2024-10-01 09:44:58.578,27790.74,-0.003,0.843,-0.539,-0.004,-0.066,0.012,-0.09,-0.027,-0.019,-0.006,-1.002,1.231
2024-10-01 09:44:58.698,27790.86,-0.007,0.84,-0.543,0.007,0.009,-0.003,0.029,-0.059,-0.057,-0.013,-0.996,1.226
2024-10-01 09:44:58.818,27790.98,-0.014,0.831,-0.555,0.001,0.003,0.004,0.12,-0.017,-0.031,-0.024,-0.982,1.218
2024-10-01 09:44:58.938,27791.1,-0.02,0.825,-0.565,0.004,-0.004,-0.0,0.122,-0.045,-0.061,-0.036,-0.97,1.209
2024-10-01 09:44:59.057,27791.22,-0.026,0.817,-0.576,-0.003,-0.036,-0.004,0.021,-0.02,0.018,-0.045,-0.956,1.204
2024-10-01 09:44:59.176,27791.339,-0.019,0.819,-0.573,0.009,-0.025,0.015,0.001,0.017,-0.007,-0.034,-0.961,1.217
2024-10-01 09:44:59.297,27791.459,-0.018,0.827,-0.562,0.012,0.039,0.019,0.199,-0.034,-0.042,-0.032,-0.974,1.212
2024-10-01 09:44:59.417,27791.579,-0.024,0.816,-0.578,-0.002,-0.006,0.001,0.153,-0.028,-0.019,-0.042,-0.954,1.206
2024-10-01 09:44:59.537,27791.699,-0.025,0.805,-0.592,0.001,0.018,0.005,0.179,0.013,0.002,-0.042,-0.936,1.207
2024-10-01 09:44:59.656,27791.819,-0.021,0.804,-0.594,-0.002,0.005,0.002,0.043,-0.021,0.013,-0.036,-0.935,1.208
2024-10-01 09:44:59.776,27791.938,-0.02,0.81,-0.586,0.001,-0.036,0.002,-0.079,0.021,0.092,-0.035,-0.944,1.213
2024-10-01 09:44:59.897,27792.058,-0.016,0.813,-0.583,-0.012,-0.011,-0.015,-0.408,0.134,0.064,-0.028,-0.948,1.217
2024-10-01 09:45:00.015,27792.178,-0.014,0.821,-0.57,-0.003,-0.003,-0.005,0.053,-0.025,-0.014,-0.025,-0.964,1.218
2024-10-01 09:45:00.135,27792.298,-0.016,0.821,-0.571,-0.002,0.003,0.0,0.038,-0.011,-0.004,-0.028,-0.962,1.216
2024-10-01 09:45:00.255,27792.417,-0.019,0.815,-0.58,0.003,-0.0,0.008,0.184,-0.025,-0.03,-0.032,-0.952,1.214
2024-10-01 09:45:00.375,27792.537,-0.021,0.8,-0.599,-0.001,-0.012,-0.007,-0.087,0.014,0.003,-0.035,-0.928,1.212
2024-10-01 09:45:00.495,27792.657,-0.013,0.818,-0.575,-0.002,-0.025,-0.009,-0.295,0.042,0.029,-0.023,-0.958,1.22
2024-10-01 09:45:00.615,27792.777,-0.015,0.816,-0.578,-0.0,-0.004,-0.004,-0.021,-0.001,-0.006,-0.025,-0.954,1.219
2024-10-01 09:45:00.734,27792.897,-0.015,0.814,-0.581,-0.002,-0.012,-0.0,0.015,0.016,0.014,-0.025,-0.951,1.219
2024-10-01 09:45:00.854,27793.016,-0.014,0.813,-0.582,0.001,-0.006,0.002,0.016,-0.008,-0.003,-0.023,-0.95,1.22
2024-10-01 09:45:00.974,27793.136,-0.016,0.811,-0.585,-0.001,0.003,0.0,0.1,-0.052,-0.021,-0.027,-0.946,1.219
2024-10-01 09:45:01.094,27793.256,-0.019,0.799,-0.601,0.001,0.043,0.001,0.161,0.038,-0.012,-0.031,-0.925,1.216
2024-10-01 09:45:01.214,27793.376,-0.013,0.808,-0.589,-0.016,0.002,-0.044,-0.632,0.113,0.111,-0.023,-0.94,1.221
2024-10-01 09:45:01.332,27793.496,-0.012,0.812,-0.583,-0.007,-0.028,-0.008,0.126,-0.014,-0.01,-0.02,-0.948,1.226
2024-10-01 09:45:01.453,27793.615,-0.013,0.807,-0.59,0.001,-0.007,-0.002,0.091,-0.012,-0.028,-0.022,-0.939,1.224
2024-10-01 09:45:01.573,27793.735,-0.016,0.795,-0.606,-0.018,-0.088,-0.001,-0.031,0.003,0.049,-0.026,-0.919,1.22
2024-10-01 09:45:01.693,27793.855,-0.015,0.799,-0.601,-0.01,0.033,-0.019,-0.065,-0.018,-0.012,-0.025,-0.926,1.226
2024-10-01 09:45:01.813,27793.975,-0.015,0.799,-0.601,-0.002,-0.004,0.002,0.019,0.013,-0.003,-0.025,-0.925,1.225
2024-10-01 09:45:01.932,27794.095,-0.013,0.801,-0.599,-0.004,-0.013,-0.002,-0.062,0.042,0.012,-0.022,-0.929,1.225
2024-10-01 09:45:02.052,27794.214,-0.013,0.802,-0.597,0.003,-0.012,-0.004,-0.133,-0.046,0.015,-0.021,-0.931,1.226
2024-10-01 09:45:02.172,27794.334,-0.01,0.811,-0.585,0.005,-0.007,0.006,0.125,0.044,-0.021,-0.017,-0.946,1.231
2024-10-01 09:45:02.292,27794.454,-0.007,0.814,-0.58,0.001,0.017,0.002,0.166,-0.018,-0.025,-0.012,-0.952,1.227
2024-10-01 09:45:02.412,27794.574,-0.012,0.81,-0.587,0.002,0.024,0.008,0.242,-0.094,-0.059,-0.02,-0.944,1.222
2024-10-01 09:45:02.531,27794.694,-0.015,0.798,-0.603,-0.004,-0.061,0.0,-0.216,0.05,-0.015,-0.024,-0.924,1.216
2024-10-01 09:45:02.651,27794.813,0.039,0.85,-0.525,-0.032,0.081,0.013,-0.134,0.26,0.831,0.073,-1.017,1.298
2024-10-01 09:45:02.771,27794.933,0.041,0.809,-0.586,0.013,-0.005,-0.024,0.527,-0.209,0.197,0.07,-0.943,1.33
2024-10-01 09:45:02.891,27795.053,0.028,0.805,-0.592,-0.003,-0.066,0.01,-0.007,-0.039,-0.057,0.047,-0.936,1.317
2024-10-01 09:45:03.010,27795.173,0.02,0.805,-0.593,0.0,-0.01,-0.004,-0.019,-0.03,-0.063,0.034,-0.936,1.304
2024-10-01 09:45:03.130,27795.293,0.013,0.803,-0.596,0.004,-0.002,0.0,0.116,-0.051,-0.052,0.022,-0.932,1.294
2024-10-01 09:45:03.249,27795.412,0.002,0.79,-0.614,-0.01,-0.125,0.004,-0.088,-0.014,0.025,0.004,-0.91,1.28
2024-10-01 09:45:03.369,27795.532,0.006,0.801,-0.598,-0.004,-0.005,-0.013,-0.156,0.046,-0.027,0.01,-0.929,1.286
2024-10-01 09:45:03.490,27795.652,0.001,0.8,-0.6,-0.004,-0.024,0.004,0.207,-0.047,-0.037,0.002,-0.927,1.275
2024-10-01 09:45:03.610,27795.772,-0.001,0.79,-0.613,0.001,0.054,0.002,0.153,0.079,-0.027,-0.002,-0.911,1.271
2024-10-01 09:45:03.729,27795.892,0.001,0.793,-0.609,0.004,0.022,0.001,0.004,-0.014,-0.005,0.002,-0.916,1.268
2024-10-01 09:45:03.849,27796.011,0.004,0.8,-0.601,0.007,-0.019,-0.002,-0.077,-0.037,-0.0,0.007,-0.927,1.277
2024-10-01 09:45:03.969,27796.131,0.006,0.808,-0.588,-0.003,-0.04,-0.009,-0.255,0.043,0.007,0.01,-0.942,1.277
2024-10-01 09:45:04.089,27796.251,0.002,0.808,-0.589,-0.0,0.001,-0.001,0.04,-0.03,-0.032,0.003,-0.941,1.272
2024-10-01 09:45:04.208,27796.371,-0.005,0.795,-0.607,-0.027,0.01,-0.028,0.064,0.02,0.046,-0.008,-0.919,1.264
2024-10-01 09:45:04.328,27796.491,-0.001,0.798,-0.602,-0.006,0.001,0.008,-0.12,0.055,0.033,-0.002,-0.925,1.269
2024-10-01 09:45:04.448,27796.61,0.001,0.812,-0.584,0.002,0.023,0.006,0.154,-0.055,-0.03,0.002,-0.948,1.272
2024-10-01 09:45:04.568,27796.73,-0.004,0.803,-0.596,0.004,0.018,0.018,0.405,-0.075,-0.046,-0.006,-0.932,1.268
2024-10-01 09:45:04.688,27796.85,0.0,0.789,-0.614,-0.011,-0.059,0.002,-0.028,0.044,0.012,0.0,-0.909,1.272
2024-10-01 09:45:04.808,27796.97,0.007,0.806,-0.592,-0.001,-0.011,-0.009,-0.235,0.02,0.029,0.012,-0.938,1.279
2024-10-01 09:45:04.927,27797.09,0.002,0.803,-0.596,0.005,0.007,0.002,0.212,-0.085,-0.057,0.003,-0.932,1.273
2024-10-01 09:45:05.046,27797.209,0.001,0.8,-0.6,-0.005,-0.002,0.002,-0.08,-0.065,0.06,0.002,-0.927,1.276
2024-10-01 09:45:05.167,27797.329,0.002,0.798,-0.603,-0.008,0.052,0.004,0.106,0.038,0.007,0.004,-0.924,1.279
2024-10-01 09:45:05.287,27797.449,0.005,0.803,-0.596,0.003,0.055,-0.01,0.002,-0.05,-0.035,0.008,-0.932,1.278
2024-10-01 09:45:05.407,27797.569,0.006,0.81,-0.586,-0.009,0.011,-0.001,-0.022,0.09,-0.014,0.01,-0.945,1.284
2024-10-01 09:45:05.526,27797.689,0.01,0.814,-0.58,0.001,0.009,0.002,-0.064,0.075,-0.029,0.018,-0.952,1.283
2024-10-01 09:45:05.646,27797.808,0.008,0.809,-0.588,0.002,-0.001,-0.001,0.083,-0.05,-0.032,0.013,-0.943,1.277
2024-10-01 09:45:05.766,27797.928,-0.0,0.792,-0.611,0.001,0.022,0.011,0.295,-0.013,0.002,-0.0,-0.914,1.27
2024-10-01 09:45:05.886,27798.048,0.004,0.812,-0.583,-0.018,-0.088,-0.037,-1.275,0.239,0.196,0.007,-0.948,1.268
2024-10-01 09:45:06.006,27798.168,0.044,0.855,-0.516,-0.019,0.094,0.061,0.532,-0.219,-0.074,0.086,-1.026,1.336
2024-10-01 09:45:06.125,27798.288,0.026,0.813,-0.581,-0.027,-0.072,-0.032,0.106,-0.106,-0.12,0.044,-0.95,1.321
2024-10-01 09:45:06.245,27798.407,0.011,0.807,-0.591,0.003,-0.022,0.003,0.099,-0.078,-0.07,0.019,-0.939,1.302
2024-10-01 09:45:06.365,27798.527,0.004,0.806,-0.591,0.001,-0.007,0.0,0.064,-0.039,-0.039,0.008,-0.938,1.294
2024-10-01 09:45:06.485,27798.647,-0.001,0.794,-0.607,0.001,0.028,0.001,0.122,0.024,-0.019,-0.002,-0.918,1.286
2024-10-01 09:45:06.605,27798.767,0.001,0.805,-0.593,0.001,-0.01,0.009,-0.115,0.037,-0.034,0.002,-0.936,1.292
2024-10-01 09:45:06.724,27798.887,-0.001,0.807,-0.59,-0.0,-0.002,-0.006,0.016,-0.028,-0.034,-0.001,-0.939,1.285
2024-10-01 09:45:06.844,27799.006,-0.005,0.799,-0.602,-0.016,0.003,-0.023,0.034,0.019,0.021,-0.009,-0.925,1.281
2024-10-01 09:45:06.964,27799.126,-0.001,0.798,-0.603,-0.006,-0.032,-0.018,-0.161,0.022,-0.002,-0.002,-0.923,1.282
2024-10-01 09:45:07.083,27799.246,-0.003,0.801,-0.598,-0.003,0.001,-0.005,-0.037,-0.019,0.027,-0.005,-0.929,1.28
2024-10-01 09:45:07.204,27799.366,0.0,0.808,-0.589,-0.002,-0.027,0.017,-0.009,0.014,0.012,0.001,-0.941,1.287
2024-10-01 09:45:07.323,27799.486,0.0,0.811,-0.586,-0.002,-0.011,-0.006,0.021,-0.027,-0.026,0.0,-0.945,1.285
2024-10-01 09:45:07.443,27799.605,-0.001,0.81,-0.587,-0.002,0.002,-0.001,0.035,-0.007,-0.006,-0.002,-0.944,1.284
2024-10-01 09:45:07.563,27799.725,-0.001,0.809,-0.588,-0.004,-0.009,0.001,-0.003,0.009,0.004,-0.001,-0.942,1.284
2024-10-01 09:45:07.682,27799.845,-0.001,0.809,-0.588,-0.002,-0.007,-0.005,-0.009,-0.008,-0.003,-0.001,-0.942,1.284
2024-10-01 09:45:07.803,27799.965,-0.001,0.808,-0.59,-0.002,-0.008,-0.001,0.009,0.006,-0.003,-0.002,-0.94,1.283
2024-10-01 09:45:07.922,27800.085,-0.005,0.801,-0.598,0.003,0.006,0.008,0.273,-0.061,-0.038,-0.008,-0.93,1.28
2024-10-01 09:45:08.043,27800.204,-0.005,0.799,-0.602,-0.007,-0.046,0.002,-0.052,0.006,0.01,-0.008,-0.925,1.28
2024-10-01 09:45:08.162,27800.324,-0.002,0.801,-0.598,-0.007,-0.027,-0.018,-0.362,0.083,0.048,-0.003,-0.93,1.283
2024-10-01 09:45:08.282,27800.444,-0.002,0.807,-0.591,-0.007,-0.022,-0.008,0.006,-0.013,0.004,-0.003,-0.939,1.283
2024-10-01 09:45:08.401,27800.564,-0.004,0.802,-0.597,-0.001,-0.006,0.004,0.152,-0.033,-0.017,-0.007,-0.931,1.282
2024-10-01 09:45:08.521,27800.684,-0.003,0.794,-0.608,-0.003,0.008,0.009,0.122,0.089,0.012,-0.005,-0.917,1.282
2024-10-01 09:45:08.641,27800.803,-0.001,0.797,-0.604,-0.0,-0.021,0.007,0.003,-0.025,-0.01,-0.002,-0.922,1.283
2024-10-01 09:45:08.761,27800.923,0.004,0.808,-0.589,-0.011,-0.076,-0.022,-0.487,0.049,0.073,0.006,-0.941,1.289
2024-10-01 09:45:08.881,27801.043,-0.0,0.805,-0.594,-0.01,-0.038,-0.01,-0.002,0.0,-0.019,-0.001,-0.935,1.286
2024-10-01 09:45:09.000,27801.163,-0.003,0.792,-0.611,-0.032,-0.085,-0.028,-0.148,0.007,0.06,-0.004,-0.914,1.283
2024-10-01 09:45:09.121,27801.283,-0.003,0.796,-0.606,-0.008,0.032,-0.026,-0.051,-0.028,0.012,-0.005,-0.92,1.287
2024-10-01 09:45:09.241,27801.402,-0.002,0.796,-0.606,-0.004,-0.016,0.002,0.007,0.029,0.01,-0.003,-0.92,1.288
2024-10-01 09:45:09.360,27801.522,0.001,0.8,-0.6,0.002,0.035,-0.008,-0.023,-0.026,-0.023,0.001,-0.928,1.288
2024-10-01 09:45:09.480,27801.642,-0.001,0.802,-0.597,-0.0,-0.001,0.002,-0.03,-0.015,-0.006,-0.002,-0.931,1.286
2024-10-01 09:45:09.600,27801.762,-0.0,0.809,-0.588,-0.001,-0.023,0.0,0.104,0.01,0.002,-0.0,-0.943,1.292
2024-10-01 09:45:09.719,27801.882,0.007,0.811,-0.585,-0.013,-0.078,-0.028,-0.392,0.122,0.025,0.012,-0.946,1.296
2024-10-01 09:45:09.839,27802.001,0.005,0.803,-0.595,-0.008,-0.022,-0.014,0.061,-0.022,-0.038,0.008,-0.933,1.29
2024-10-01 09:45:09.959,27802.121,-0.0,0.799,-0.602,0.002,0.003,0.007,0.218,-0.069,-0.03,-0.0,-0.925,1.286
2024-10-01 09:45:10.078,27802.241,-0.001,0.787,-0.617,-0.007,0.011,0.004,0.033,0.098,-0.052,-0.002,-0.906,1.284
2024-10-01 09:45:10.199,27802.361,0.006,0.818,-0.575,-0.044,-0.046,-0.075,-1.235,0.25,0.192,0.011,-0.958,1.292
2024-10-01 09:45:10.318,27802.481,0.037,0.859,-0.511,-0.17,-0.097,0.048,-0.691,-0.544,0.33,0.072,-1.033,1.349
2024-10-01 09:45:10.437,27802.6,0.021,0.837,-0.546,-0.038,-0.186,-0.046,-0.195,-0.061,-0.186,0.039,-0.992,1.356
2024-10-01 09:45:10.558,27802.72,0.011,0.834,-0.551,-0.0,0.006,-0.013,0.08,-0.025,-0.03,0.019,-0.987,1.342
2024-10-01 09:45:10.677,27802.84,0.003,0.831,-0.556,0.003,0.015,0.003,0.161,-0.067,-0.107,0.006,-0.981,1.329
2024-10-01 09:45:10.797,27802.96,-0.004,0.821,-0.571,0.002,0.031,0.002,-0.022,-0.031,0.044,-0.006,-0.963,1.32
2024-10-01 09:45:10.917,27803.08,-0.001,0.828,-0.561,0.005,0.003,0.009,0.132,0.026,-0.033,-0.003,-0.975,1.326
2024-10-01 09:45:11.037,27803.199,0.003,0.83,-0.558,0.009,-0.028,0.005,0.021,-0.011,-0.041,0.005,-0.979,1.326
2024-10-01 09:45:11.157,27803.319,-0.004,0.815,-0.579,-0.0,0.034,0.012,0.233,-0.008,0.006,-0.006,-0.953,1.319
2024-10-01 09:45:11.277,27803.439,0.0,0.816,-0.578,-0.006,-0.07,-0.013,-0.271,0.062,-0.002,0.001,-0.955,1.322
2024-10-01 09:45:11.396,27803.559,0.0,0.822,-0.569,-0.001,-0.005,-0.0,0.021,-0.014,-0.014,0.0,-0.965,1.32
2024-10-01 09:45:11.516,27803.679,0.001,0.825,-0.565,-0.001,0.006,-0.008,-0.125,-0.045,0.009,0.002,-0.97,1.327
2024-10-01 09:45:11.636,27803.798,0.0,0.824,-0.567,-0.004,-0.021,0.003,-0.029,0.06,0.001,0.001,-0.968,1.324
2024-10-01 09:45:11.756,27803.918,0.003,0.834,-0.552,0.008,0.05,0.014,0.151,-0.028,-0.046,0.005,-0.986,1.324
2024-10-01 09:45:11.875,27804.038,-0.003,0.825,-0.566,0.002,0.022,0.011,0.34,-0.079,-0.052,-0.005,-0.969,1.317
2024-10-01 09:45:11.996,27804.158,-0.006,0.819,-0.574,-0.009,-0.034,0.001,-0.09,0.006,0.011,-0.01,-0.959,1.316
2024-10-01 09:45:12.115,27804.278,-0.001,0.82,-0.573,0.001,-0.055,-0.009,-0.351,0.081,0.034,-0.002,-0.961,1.32
2024-10-01 09:45:12.235,27804.397,-0.001,0.831,-0.557,-0.008,-0.004,-0.007,0.063,-0.033,-0.027,-0.003,-0.98,1.319
2024-10-01 09:45:12.355,27804.517,-0.005,0.827,-0.562,0.002,-0.013,0.001,0.074,-0.035,-0.022,-0.008,-0.974,1.315
2024-10-01 09:45:12.474,27804.637,-0.007,0.82,-0.573,0.0,-0.076,-0.003,0.047,-0.006,0.008,-0.012,-0.961,1.315
2024-10-01 09:45:12.594,27804.757,-0.003,0.82,-0.572,0.007,-0.041,0.003,-0.166,-0.021,-0.017,-0.006,-0.961,1.317
2024-10-01 09:45:12.714,27804.877,-0.002,0.819,-0.574,0.004,-0.022,0.01,-0.072,0.047,0.024,-0.003,-0.959,1.317
2024-10-01 09:45:12.834,27804.996,0.0,0.827,-0.562,0.001,0.028,0.01,0.223,-0.054,-0.041,0.001,-0.974,1.32
2024-10-01 09:45:12.954,27805.116,-0.004,0.816,-0.578,-0.019,0.021,-0.024,-0.095,0.041,0.028,-0.006,-0.955,1.317
2024-10-01 09:45:13.073,27805.236,-0.003,0.816,-0.578,-0.006,0.034,-0.014,0.057,-0.021,0.003,-0.006,-0.955,1.322
2024-10-01 09:45:13.194,27805.356,-0.004,0.815,-0.58,-0.003,-0.001,0.0,0.093,0.016,-0.006,-0.006,-0.952,1.321
2024-10-01 09:45:13.313,27805.476,-0.004,0.812,-0.583,0.001,-0.01,-0.002,-0.017,0.009,-0.009,-0.006,-0.948,1.32
2024-10-01 09:45:13.433,27805.595,0.0,0.815,-0.579,0.003,0.011,-0.005,0.014,0.0,0.004,0.0,-0.953,1.322
2024-10-01 09:45:13.553,27805.715,-0.002,0.816,-0.578,0.0,-0.017,-0.006,-0.078,-0.046,-0.012,-0.003,-0.954,1.321
2024-10-01 09:45:13.673,27805.835,-0.001,0.824,-0.567,-0.005,0.006,-0.014,-0.08,-0.0,-0.016,-0.002,-0.968,1.325
2024-10-01 09:45:13.793,27805.955,0.006,0.83,-0.558,0.006,0.033,0.007,0.014,0.036,-0.032,0.011,-0.978,1.328
2024-10-01 09:45:13.912,27806.075,0.003,0.82,-0.572,0.004,0.019,0.004,0.195,-0.064,-0.046,0.005,-0.962,1.323
2024-10-01 09:45:14.032,27806.194,-0.001,0.811,-0.585,0.001,0.033,-0.001,0.068,0.055,-0.042,-0.001,-0.946,1.318
2024-10-01 09:45:14.151,27806.314,-0.0,0.812,-0.584,-0.003,-0.01,0.005,-0.044,0.013,0.014,-0.001,-0.948,1.316
2024-10-01 09:45:14.272,27806.434,0.013,0.849,-0.528,0.003,0.064,-0.011,-0.553,0.102,0.046,0.025,-1.015,1.331
2024-10-01 09:45:14.391,27806.554,0.033,0.862,-0.506,0.017,-0.0,0.027,0.241,-0.077,0.112,0.065,-1.039,1.369
2024-10-01 09:45:14.511,27806.674,0.031,0.851,-0.524,0.014,-0.017,-0.003,0.327,-0.108,-0.108,0.059,-1.019,1.375
2024-10-01 09:45:14.631,27806.793,0.016,0.837,-0.547,-0.008,0.002,-0.012,0.018,-0.012,-0.057,0.03,-0.992,1.353
2024-10-01 09:45:14.751,27806.913,0.012,0.84,-0.543,-0.004,-0.004,0.0,0.042,-0.004,-0.02,0.023,-0.997,1.345
2024-10-01 09:45:14.871,27807.033,0.011,0.838,-0.546,-0.001,0.006,0.007,0.085,0.002,-0.015,0.019,-0.994,1.343
2024-10-01 09:45:14.990,27807.153,0.007,0.836,-0.548,0.004,-0.003,0.003,0.064,-0.06,-0.05,0.013,-0.991,1.339
2024-10-01 09:45:15.110,27807.273,-0.0,0.829,-0.56,0.002,-0.004,0.003,0.184,-0.064,-0.077,-0.001,-0.977,1.329
2024-10-01 09:45:15.230,27807.392,-0.006,0.823,-0.568,0.001,-0.021,-0.002,-0.131,-0.052,0.054,-0.01,-0.966,1.324
2024-10-01 09:45:15.350,27807.512,-0.006,0.828,-0.561,-0.01,-0.016,0.004,-0.031,0.059,0.001,-0.01,-0.975,1.324
2024-10-01 09:45:15.470,27807.632,-0.005,0.832,-0.555,0.004,0.016,0.012,0.198,-0.038,-0.023,-0.009,-0.982,1.322
2024-10-01 09:45:15.589,27807.752,-0.008,0.819,-0.574,-0.002,0.031,-0.0,0.142,0.038,0.006,-0.014,-0.96,1.32
2024-10-01 09:45:15.709,27807.872,-0.005,0.817,-0.577,-0.001,-0.054,-0.01,-0.182,0.065,-0.001,-0.009,-0.956,1.32
2024-10-01 09:45:15.829,27807.991,-0.006,0.82,-0.572,-0.006,-0.011,-0.002,0.006,-0.004,-0.003,-0.01,-0.961,1.318
2024-10-01 09:45:15.949,27808.111,-0.005,0.828,-0.561,-0.004,-0.021,0.005,-0.104,-0.006,0.031,-0.008,-0.976,1.325
2024-10-01 09:45:16.068,27808.231,-0.003,0.83,-0.558,-0.007,0.006,-0.032,-0.301,0.049,0.027,-0.005,-0.979,1.323
2024-10-01 09:45:16.189,27808.351,-0.006,0.829,-0.56,-0.001,-0.004,0.0,0.207,-0.054,-0.048,-0.011,-0.977,1.318
2024-10-01 09:45:16.308,27808.471,-0.01,0.824,-0.567,-0.004,-0.003,-0.003,-0.083,-0.033,0.021,-0.018,-0.968,1.315
2024-10-01 09:45:16.428,27808.59,-0.004,0.83,-0.557,-0.007,0.031,-0.028,-0.291,0.057,0.033,-0.007,-0.98,1.32
2024-10-01 09:45:16.547,27808.71,-0.005,0.834,-0.552,-0.004,-0.024,-0.004,0.014,-0.026,-0.004,-0.01,-0.985,1.319
2024-10-01 09:45:16.668,27808.83,-0.007,0.832,-0.555,-0.001,-0.005,0.0,0.076,-0.015,-0.006,-0.012,-0.982,1.318
2024-10-01 09:45:16.787,27808.95,-0.009,0.82,-0.572,-0.02,-0.044,-0.024,-0.019,-0.012,0.033,-0.015,-0.962,1.318
2024-10-01 09:45:16.907,27809.07,-0.006,0.821,-0.572,0.002,-0.021,0.007,0.022,0.016,-0.017,-0.011,-0.962,1.319
2024-10-01 09:45:17.027,27809.189,-0.001,0.832,-0.554,0.001,0.023,-0.004,-0.111,-0.016,0.015,-0.002,-0.984,1.326
2024-10-01 09:45:17.147,27809.309,-0.008,0.821,-0.571,0.001,0.017,0.007,0.335,-0.055,-0.023,-0.014,-0.963,1.317
2024-10-01 09:45:17.266,27809.429,-0.007,0.822,-0.569,-0.006,-0.031,0.004,-0.081,-0.028,0.032,-0.013,-0.966,1.321
2024-10-01 09:45:17.387,27809.549,-0.007,0.821,-0.571,-0.0,-0.038,0.001,-0.014,-0.013,0.01,-0.012,-0.963,1.325
2024-10-01 09:45:17.506,27809.669,-0.006,0.819,-0.573,-0.007,-0.011,0.0,0.011,0.097,0.003,-0.01,-0.96,1.324
2024-10-01 09:45:17.626,27809.788,-0.004,0.822,-0.569,-0.006,-0.017,-0.01,-0.071,-0.017,0.006,-0.008,-0.965,1.324
2024-10-01 09:45:17.746,27809.908,-0.005,0.832,-0.554,0.001,-0.054,0.006,-0.098,-0.018,0.031,-0.009,-0.983,1.33
2024-10-01 09:45:17.866,27810.028,-0.0,0.834,-0.552,-0.005,-0.006,-0.025,-0.309,0.118,0.001,-0.001,-0.986,1.33
2024-10-01 09:45:17.985,27810.148,-0.002,0.831,-0.556,-0.007,-0.019,-0.005,0.005,-0.006,-0.002,-0.004,-0.982,1.324
2024-10-01 09:45:18.105,27810.268,-0.006,0.822,-0.569,-0.015,0.03,-0.024,-0.051,0.033,0.022,-0.01,-0.965,1.321
2024-10-01 09:45:18.225,27810.387,-0.004,0.825,-0.565,0.002,-0.007,0.003,-0.012,-0.009,-0.002,-0.007,-0.97,1.321
2024-10-01 09:45:18.344,27810.507,0.002,0.838,-0.546,-0.027,-0.045,-0.049,-0.765,0.124,0.119,0.003,-0.994,1.327
2024-10-01 09:45:18.464,27810.627,0.02,0.866,-0.5,-0.015,0.018,0.001,-0.214,0.121,0.205,0.04,-1.046,1.355
2024-10-01 09:45:18.586,27810.747,0.041,0.872,-0.487,0.005,0.022,0.119,-0.421,-0.104,0.123,0.083,-1.06,1.403
2024-10-01 09:45:18.704,27810.867,0.041,0.872,-0.488,0.004,-0.093,-0.023,0.215,-0.209,-0.143,0.084,-1.059,1.428
2024-10-01 09:45:18.823,27810.986,0.013,0.852,-0.524,0.03,-0.215,0.015,0.234,0.057,-0.033,0.025,-1.019,1.377
2024-10-01 09:45:18.944,27811.106,0.012,0.86,-0.511,0.004,0.01,0.012,0.043,0.025,-0.111,0.024,-1.035,1.365
2024-10-01 09:45:19.064,27811.226,0.004,0.863,-0.505,0.003,0.002,-0.002,-0.092,-0.039,-0.09,0.009,-1.041,1.347
2024-10-01 09:45:19.183,27811.346,-0.0,0.866,-0.5,-0.003,-0.006,0.0,-0.001,-0.012,0.001,-0.0,-1.047,1.341
2024-10-01 09:45:19.303,27811.466,0.0,0.864,-0.503,-0.005,-0.008,-0.004,0.009,-0.028,0.027,0.0,-1.044,1.344
2024-10-01 09:45:19.423,27811.585,-0.004,0.855,-0.518,-0.001,-0.037,-0.016,0.023,-0.049,-0.06,-0.008,-1.026,1.341
2024-10-01 09:45:19.543,27811.705,-0.008,0.85,-0.527,0.002,-0.013,-0.007,-0.107,-0.03,0.06,-0.016,-1.016,1.338
2024-10-01 09:45:19.662,27811.825,-0.003,0.857,-0.515,-0.018,0.016,-0.014,-0.184,0.1,0.008,-0.007,-1.03,1.343
2024-10-01 09:45:19.782,27811.945,-0.004,0.856,-0.516,-0.002,-0.027,-0.006,0.006,-0.015,-0.013,-0.008,-1.028,1.34
2024-10-01 09:45:19.902,27812.065,-0.008,0.846,-0.534,-0.013,-0.066,-0.023,-0.05,-0.01,0.028,-0.015,-1.008,1.335
2024-10-01 09:45:20.021,27812.184,-0.007,0.847,-0.531,-0.005,-0.05,-0.002,-0.209,-0.0,-0.014,-0.013,-1.011,1.334
2024-10-01 09:45:20.142,27812.304,-0.007,0.849,-0.529,-0.006,-0.005,0.004,0.014,-0.002,0.031,-0.014,-1.013,1.335
2024-10-01 09:45:20.261,27812.424,-0.003,0.856,-0.517,-0.003,0.01,0.009,-0.002,0.023,-0.038,-0.006,-1.027,1.345
2024-10-01 09:45:20.381,27812.544,-0.001,0.858,-0.513,0.003,0.004,0.01,0.062,-0.017,-0.026,-0.002,-1.032,1.344
2024-10-01 09:45:20.501,27812.664,-0.007,0.849,-0.528,0.007,0.035,0.015,0.456,-0.1,-0.068,-0.014,-1.014,1.336
2024-10-01 09:45:20.621,27812.783,-0.006,0.846,-0.533,-0.018,-0.058,0.006,-0.003,0.067,0.046,-0.011,-1.009,1.34
2024-10-01 09:45:20.740,27812.903,0.001,0.86,-0.511,0.012,0.056,0.031,0.235,-0.055,-0.032,0.002,-1.035,1.347
2024-10-01 09:45:20.860,27813.023,-0.003,0.855,-0.518,-0.0,0.018,0.007,0.153,-0.035,-0.017,-0.005,-1.026,1.343
2024-10-01 09:45:20.980,27813.143,-0.006,0.85,-0.527,0.0,0.014,0.008,0.22,-0.041,-0.021,-0.011,-1.016,1.34
2024-10-01 09:45:21.100,27813.263,-0.008,0.84,-0.543,0.006,0.028,0.009,0.185,-0.013,-0.01,-0.014,-0.997,1.339
2024-10-01 09:45:21.220,27813.382,-0.004,0.85,-0.527,0.002,0.017,0.009,-0.149,0.074,0.039,-0.008,-1.016,1.341
2024-10-01 09:45:21.340,27813.502,0.001,0.857,-0.515,0.001,0.025,0.002,0.216,-0.055,-0.015,0.002,-1.029,1.348
2024-10-01 09:45:21.459,27813.622,-0.003,0.851,-0.524,-0.0,0.013,0.002,0.202,-0.047,-0.037,-0.006,-1.019,1.344
2024-10-01 09:45:21.579,27813.742,-0.005,0.846,-0.533,-0.005,0.019,-0.002,-0.001,-0.015,0.031,-0.009,-1.008,1.343
2024-10-01 09:45:21.699,27813.862,-0.005,0.845,-0.535,-0.008,-0.008,-0.016,-0.05,-0.021,0.015,-0.009,-1.006,1.348
2024-10-01 09:45:21.818,27813.981,-0.004,0.844,-0.537,-0.007,-0.017,-0.0,-0.049,0.044,0.009,-0.008,-1.004,1.348
2024-10-01 09:45:21.938,27814.101,-0.005,0.849,-0.529,-0.006,0.004,-0.003,-0.068,-0.026,0.005,-0.009,-1.013,1.345
2024-10-01 09:45:22.059,27814.221,-0.005,0.856,-0.517,-0.006,-0.012,-0.009,-0.25,-0.11,0.115,-0.009,-1.027,1.35
2024-10-01 09:45:22.179,27814.341,-0.001,0.854,-0.52,-0.003,-0.041,-0.01,-0.109,0.093,0.016,-0.002,-1.024,1.353
2024-10-01 09:45:22.298,27814.46,0.004,0.862,-0.506,0.008,0.045,0.017,0.282,-0.02,-0.07,0.009,-1.04,1.351
2024-10-01 09:45:22.418,27814.58,-0.005,0.844,-0.537,0.007,0.026,0.021,0.614,-0.126,-0.086,-0.009,-1.004,1.339
2024-10-01 09:45:22.538,27814.7,-0.002,0.843,-0.538,-0.013,-0.136,0.004,-0.541,0.172,0.043,-0.004,-1.003,1.337
2024-10-01 09:45:22.658,27814.82,0.02,0.954,-0.298,0.021,0.046,-0.016,-1.945,0.38,0.042,0.066,-1.268,1.354
2024-10-01 09:45:22.777,27814.94,0.047,0.956,-0.291,-0.028,0.004,0.016,0.733,0.214,0.094,0.159,-1.272,1.414
2024-10-01 09:45:22.897,27815.059,0.04,0.942,-0.332,0.016,0.003,0.045,0.339,-0.022,-0.064,0.119,-1.23,1.357
2024-10-01 09:45:23.017,27815.179,0.035,0.927,-0.373,-0.021,0.019,-0.0,0.315,0.005,-0.013,0.093,-1.187,1.334
2024-10-01 09:45:23.137,27815.299,0.034,0.914,-0.405,-0.01,0.002,-0.009,0.435,0.008,-0.005,0.083,-1.152,1.324
2024-10-01 09:45:23.256,27815.419,0.034,0.907,-0.42,-0.008,0.034,0.002,0.432,-0.023,-0.004,0.08,-1.136,1.323
2024-10-01 09:45:23.376,27815.539,0.039,0.873,-0.487,-0.004,0.007,0.001,0.603,0.102,0.035,0.08,-1.061,1.317
2024-10-01 09:45:23.496,27815.658,0.014,0.845,-0.534,-0.002,-0.001,-0.003,0.575,-0.173,-0.289,0.026,-1.007,1.27
2024-10-01 09:45:23.616,27815.778,-0.007,0.837,-0.547,0.003,0.014,0.026,0.394,-0.106,-0.072,-0.013,-0.992,1.234
2024-10-01 09:45:23.736,27815.898,-0.011,0.828,-0.561,-0.001,-0.022,-0.004,-0.024,-0.002,-0.009,-0.019,-0.975,1.231
2024-10-01 09:45:23.856,27816.018,-0.013,0.826,-0.563,0.004,0.004,0.001,0.027,-0.035,-0.056,-0.023,-0.973,1.228
2024-10-01 09:45:23.975,27816.138,-0.022,0.811,-0.584,-0.03,-0.029,-0.022,0.047,-0.001,0.027,-0.038,-0.946,1.217
2024-10-01 09:45:24.096,27816.257,-0.019,0.812,-0.584,-0.004,0.02,-0.013,-0.006,0.016,0.013,-0.032,-0.947,1.227
2024-10-01 09:45:24.215,27816.377,-0.019,0.809,-0.587,-0.002,-0.056,-0.004,-0.113,0.015,0.037,-0.032,-0.943,1.227
2024-10-01 09:45:24.335,27816.497,-0.014,0.817,-0.577,-0.002,0.016,0.012,0.145,-0.003,0.002,-0.023,-0.955,1.233
2024-10-01 09:45:24.454,27816.617,-0.014,0.816,-0.578,-0.001,-0.016,-0.001,0.014,-0.003,-0.01,-0.024,-0.955,1.232
2024-10-01 09:45:24.575,27816.737,-0.015,0.819,-0.574,-0.001,-0.008,-0.002,-0.053,0.021,0.005,-0.026,-0.959,1.231
2024-10-01 09:45:24.694,27816.856,-0.013,0.822,-0.57,0.0,-0.004,-0.0,-0.04,-0.002,-0.007,-0.022,-0.964,1.233
2024-10-01 09:45:24.814,27816.976,-0.013,0.821,-0.57,-0.001,-0.019,-0.002,-0.028,0.005,-0.003,-0.024,-0.964,1.232
2024-10-01 09:45:24.933,27817.096,-0.013,0.822,-0.57,-0.001,-0.005,-0.002,-0.0,0.005,0.001,-0.024,-0.964,1.232
2024-10-01 09:45:25.053,27817.216,-0.014,0.82,-0.572,-0.0,0.001,0.001,0.03,-0.017,-0.001,-0.025,-0.962,1.232
2024-10-01 09:45:25.173,27817.336,-0.019,0.81,-0.585,-0.006,0.021,0.003,0.144,0.011,-0.002,-0.032,-0.945,1.229
2024-10-01 09:45:25.293,27817.455,-0.015,0.796,-0.606,-0.009,-0.019,-0.01,0.006,0.122,0.063,-0.025,-0.92,1.233
2024-10-01 09:45:25.413,27817.575,-0.011,0.805,-0.594,0.012,0.072,0.019,0.097,0.008,0.001,-0.019,-0.935,1.232
2024-10-01 09:45:25.532,27817.695,-0.011,0.802,-0.597,-0.002,-0.022,0.004,0.101,-0.013,0.011,-0.019,-0.931,1.232
2024-10-01 09:45:25.652,27817.815,-0.011,0.803,-0.597,0.004,0.008,0.003,0.073,-0.025,-0.028,-0.019,-0.931,1.233
2024-10-01 09:45:25.772,27817.935,-0.012,0.8,-0.6,-0.002,0.013,-0.002,-0.039,-0.02,0.025,-0.019,-0.927,1.234
2024-10-01 09:45:25.892,27818.054,-0.013,0.793,-0.609,-0.001,0.041,-0.023,0.087,-0.033,0.001,-0.022,-0.916,1.241
2024-10-01 09:45:26.012,27818.174,-0.012,0.795,-0.606,-0.005,-0.018,-0.001,-0.129,0.05,0.013,-0.02,-0.919,1.241
2024-10-01 09:45:26.132,27818.294,-0.005,0.816,-0.578,0.011,0.049,0.016,0.056,-0.027,-0.024,-0.009,-0.954,1.246
2024-10-01 09:45:26.252,27818.414,-0.008,0.811,-0.585,0.001,0.003,0.004,0.05,-0.028,-0.021,-0.013,-0.946,1.244
2024-10-01 09:45:26.371,27818.534,-0.01,0.81,-0.586,-0.001,0.002,-0.003,-0.003,-0.014,-0.001,-0.017,-0.944,1.242
2024-10-01 09:45:26.491,27818.653,-0.012,0.806,-0.592,-0.0,-0.006,-0.001,0.037,-0.017,-0.008,-0.021,-0.937,1.241
2024-10-01 09:45:26.611,27818.773,-0.013,0.802,-0.597,-0.003,-0.002,-0.0,0.042,0.002,-0.004,-0.022,-0.931,1.24
2024-10-01 09:45:26.731,27818.893,-0.013,0.795,-0.606,-0.002,-0.024,-0.006,-0.028,0.004,-0.002,-0.021,-0.919,1.241
2024-10-01 09:45:26.850,27819.013,-0.012,0.794,-0.608,-0.002,0.002,-0.003,0.026,0.008,0.008,-0.02,-0.917,1.242
2024-10-01 09:45:26.970,27819.133,-0.01,0.791,-0.611,-0.009,-0.014,-0.005,-0.018,0.084,0.037,-0.016,-0.913,1.243
2024-10-01 09:45:27.090,27819.252,-0.005,0.798,-0.603,-0.009,-0.019,-0.01,-0.149,0.072,0.034,-0.008,-0.923,1.245
2024-10-01 09:45:27.210,27819.372,-0.003,0.799,-0.602,-0.003,-0.015,-0.004,-0.002,-0.007,-0.001,-0.005,-0.925,1.246
2024-10-01 09:45:27.330,27819.492,0.01,0.824,-0.566,-0.051,-0.071,-0.09,-1.394,0.326,0.25,0.018,-0.969,1.261
2024-10-01 09:45:27.449,27819.612,0.044,0.866,-0.498,-0.076,0.109,0.041,0.589,-0.084,0.006,0.087,-1.047,1.307
2024-10-01 09:45:27.569,27819.732,0.038,0.863,-0.503,0.018,0.015,-0.016,0.211,-0.293,0.168,0.075,-1.042,1.328
2024-10-01 09:45:27.689,27819.851,0.019,0.834,-0.552,-0.008,-0.002,-0.024,0.034,-0.04,-0.096,0.034,-0.986,1.309
2024-10-01 09:45:27.809,27819.971,0.01,0.823,-0.568,-0.008,-0.004,-0.01,0.08,0.005,0.013,0.017,-0.967,1.295
2024-10-01 09:45:27.929,27820.091,0.007,0.822,-0.57,-0.005,0.007,0.003,0.078,-0.006,-0.026,0.012,-0.964,1.29
2024-10-01 09:45:28.048,27820.211,0.0,0.813,-0.582,0.006,0.027,0.016,0.414,-0.076,-0.078,0.0,-0.95,1.279
2024-10-01 09:45:28.168,27820.331,-0.001,0.807,-0.591,-0.012,-0.046,-0.003,-0.104,0.039,0.064,-0.002,-0.939,1.281
2024-10-01 09:45:28.288,27820.45,0.0,0.809,-0.587,-0.002,-0.07,-0.011,-0.308,0.05,0.054,0.001,-0.943,1.283
2024-10-01 09:45:28.408,27820.57,0.002,0.817,-0.576,0.005,0.017,0.009,0.312,-0.092,-0.061,0.003,-0.957,1.286
2024-10-01 09:45:28.528,27820.69,-0.004,0.802,-0.597,0.001,0.023,0.014,0.266,0.026,0.007,-0.007,-0.931,1.28
2024-10-01 09:45:28.647,27820.81,0.002,0.794,-0.608,-0.009,-0.032,-0.011,-0.053,0.109,0.023,0.003,-0.918,1.285
2024-10-01 09:45:28.767,27820.93,0.003,0.799,-0.602,-0.001,0.011,-0.006,0.009,-0.01,-0.007,0.005,-0.925,1.283
2024-10-01 09:45:28.888,27821.049,0.003,0.799,-0.601,-0.002,0.002,-0.004,-0.024,-0.006,-0.004,0.005,-0.926,1.283
2024-10-01 09:45:29.007,27821.169,0.002,0.802,-0.598,-0.001,-0.007,-0.001,0.023,-0.031,0.002,0.004,-0.93,1.284
2024-10-01 09:45:29.127,27821.289,-0.0,0.796,-0.605,-0.0,-0.012,0.004,0.061,-0.033,0.011,-0.0,-0.921,1.289
2024-10-01 09:45:29.246,27821.409,-0.001,0.796,-0.606,-0.001,-0.012,-0.003,-0.097,0.022,-0.002,-0.002,-0.92,1.288
2024-10-01 09:45:29.366,27821.529,0.001,0.803,-0.596,0.001,-0.05,-0.006,-0.331,0.04,-0.005,0.001,-0.932,1.289
2024-10-01 09:45:29.486,27821.648,0.0,0.809,-0.588,-0.005,-0.002,0.005,0.129,-0.013,-0.002,0.0,-0.942,1.288
2024-10-01 09:45:29.606,27821.768,0.0,0.807,-0.59,-0.003,-0.011,-0.007,-0.004,-0.009,-0.01,0.0,-0.94,1.289
2024-10-01 09:45:29.726,27821.888,-0.0,0.806,-0.591,-0.002,-0.016,-0.0,0.023,0.001,-0.008,-0.001,-0.938,1.288
2024-10-01 09:45:29.845,27822.008,-0.002,0.801,-0.599,-0.0,0.012,-0.0,0.124,0.011,-0.004,-0.003,-0.929,1.286
2024-10-01 09:45:29.965,27822.128,0.008,0.798,-0.603,-0.015,-0.037,-0.007,-0.23,0.127,0.097,0.012,-0.923,1.294
2024-10-01 09:45:30.085,27822.247,0.011,0.799,-0.601,-0.007,-0.008,-0.007,0.063,0.005,0.013,0.019,-0.925,1.298
2024-10-01 09:45:30.205,27822.367,0.014,0.807,-0.59,0.002,-0.013,-0.012,-0.567,0.117,0.076,0.024,-0.939,1.301
2024-10-01 09:45:30.324,27822.487,0.045,0.847,-0.53,-0.009,0.05,0.02,0.03,0.122,0.225,0.084,-1.01,1.347
2024-10-01 09:45:30.444,27822.607,0.05,0.834,-0.549,-0.008,-0.017,-0.007,0.089,-0.034,-0.008,0.091,-0.987,1.36
2024-10-01 09:45:30.564,27822.727,0.046,0.819,-0.572,0.003,-0.009,0.002,0.307,-0.113,-0.11,0.08,-0.96,1.357
2024-10-01 09:45:30.684,27822.846,0.022,0.801,-0.598,0.005,0.008,0.015,0.339,-0.132,-0.125,0.037,-0.93,1.326
2024-10-01 09:45:30.804,27822.966,0.012,0.794,-0.608,-0.0,-0.012,0.003,0.024,-0.045,-0.05,0.02,-0.917,1.313
2024-10-01 09:45:30.924,27823.086,0.005,0.79,-0.613,0.006,0.007,0.003,0.207,-0.08,-0.072,0.008,-0.911,1.305
2024-10-01 09:45:31.044,27823.206,0.001,0.779,-0.627,-0.002,-0.049,0.008,-0.078,-0.024,0.002,0.001,-0.893,1.3
2024-10-01 09:45:31.163,27823.326,0.006,0.798,-0.603,-0.006,-0.052,-0.009,-0.34,0.028,0.026,0.01,-0.924,1.305
2024-10-01 09:45:31.283,27823.445,-0.003,0.79,-0.613,-0.004,-0.017,-0.005,0.15,-0.065,-0.044,-0.004,-0.911,1.298
2024-10-01 09:45:31.403,27823.565,-0.004,0.78,-0.626,0.0,0.017,0.007,0.234,0.006,0.005,-0.006,-0.895,1.297
2024-10-01 09:45:31.523,27823.685,0.002,0.78,-0.625,-0.001,-0.03,-0.004,-0.259,0.11,-0.009,0.003,-0.895,1.299
2024-10-01 09:45:31.643,27823.805,0.001,0.783,-0.623,0.004,0.009,0.002,0.031,-0.017,-0.015,0.002,-0.899,1.298
2024-10-01 09:45:31.762,27823.925,0.001,0.783,-0.622,-0.004,-0.009,-0.001,-0.009,0.005,0.002,0.001,-0.899,1.297
2024-10-01 09:45:31.882,27824.044,0.0,0.784,-0.621,-0.003,-0.006,-0.003,-0.012,0.001,-0.0,0.0,-0.901,1.297
2024-10-01 09:45:32.002,27824.164,-0.0,0.784,-0.621,0.0,-0.004,0.001,0.002,-0.005,-0.006,-0.0,-0.901,1.296
2024-10-01 09:45:32.122,27824.284,-0.0,0.786,-0.619,-0.0,-0.018,-0.002,-0.046,-0.025,-0.005,-0.001,-0.904,1.297
2024-10-01 09:45:32.241,27824.404,-0.003,0.784,-0.62,0.008,-0.07,0.03,-0.018,-0.048,0.023,-0.004,-0.901,1.3
2024-10-01 09:45:32.361,27824.524,-0.004,0.784,-0.62,0.012,-0.034,0.019,-0.002,0.008,0.002,-0.006,-0.902,1.301
2024-10-01 09:45:32.481,27824.643,-0.005,0.784,-0.621,-0.005,-0.012,-0.002,0.013,0.01,0.008,-0.008,-0.901,1.299
2024-10-01 09:45:32.601,27824.763,-0.003,0.788,-0.616,-0.004,0.01,-0.001,-0.04,0.018,-0.0,-0.006,-0.907,1.299
2024-10-01 09:45:32.720,27824.883,-0.003,0.787,-0.617,0.003,0.009,0.004,0.101,-0.028,-0.015,-0.005,-0.906,1.299
2024-10-01 09:45:32.840,27825.003,-0.005,0.784,-0.621,-0.003,-0.028,-0.0,0.003,0.004,0.006,-0.007,-0.901,1.298
2024-10-01 09:45:32.960,27825.123,-0.005,0.783,-0.622,-0.001,-0.004,0.0,-0.003,0.002,-0.004,-0.008,-0.899,1.297
2024-10-01 09:45:33.080,27825.242,-0.005,0.781,-0.624,-0.002,-0.014,0.001,0.006,-0.0,-0.0,-0.008,-0.897,1.297
2024-10-01 09:45:33.200,27825.362,-0.005,0.781,-0.624,-0.0,-0.013,-0.001,-0.017,-0.003,-0.004,-0.008,-0.897,1.297
2024-10-01 09:45:33.319,27825.482,-0.0,0.784,-0.62,-0.014,-0.017,-0.012,-0.167,0.091,0.047,-0.0,-0.902,1.3
2024-10-01 09:45:33.440,27825.602,0.003,0.79,-0.613,-0.004,-0.016,0.011,0.039,-0.001,-0.009,0.005,-0.911,1.303
2024-10-01 09:45:33.560,27825.722,0.011,0.793,-0.609,-0.012,-0.003,-0.013,-0.408,0.188,0.186,0.018,-0.916,1.313
2024-10-01 09:45:33.679,27825.841,0.044,0.826,-0.562,-0.289,-0.127,0.254,-1.023,0.0,0.185,0.079,-0.972,1.373
2024-10-01 09:45:33.799,27825.961,0.014,0.81,-0.587,-0.054,-0.178,-0.083,-0.509,-0.044,-0.19,0.025,-0.943,1.356
2024-10-01 09:45:33.919,27826.081,0.008,0.809,-0.588,-0.002,-0.091,0.014,0.202,-0.004,-0.013,0.014,-0.943,1.343
2024-10-01 09:45:34.039,27826.201,0.006,0.807,-0.59,0.004,-0.022,0.002,0.081,-0.022,-0.026,0.01,-0.939,1.338
2024-10-01 09:45:34.158,27826.321,0.004,0.803,-0.596,-0.002,0.006,0.002,0.064,-0.002,-0.013,0.007,-0.933,1.336
2024-10-01 09:45:34.278,27826.44,-0.001,0.791,-0.611,-0.018,0.038,-0.024,0.098,-0.008,-0.007,-0.002,-0.913,1.33
2024-10-01 09:45:34.398,27826.56,0.002,0.798,-0.603,0.0,-0.032,-0.004,-0.344,0.089,0.049,0.003,-0.923,1.335
2024-10-01 09:45:34.518,27826.68,0.006,0.804,-0.594,0.012,-0.009,0.016,0.353,-0.128,-0.061,0.01,-0.934,1.341
2024-10-01 09:45:34.637,27826.8,0.001,0.796,-0.606,0.001,0.011,0.013,0.221,-0.034,-0.003,0.001,-0.92,1.337
2024-10-01 09:45:34.757,27826.92,-0.003,0.787,-0.617,0.002,0.017,0.011,0.196,-0.036,-0.0,-0.004,-0.906,1.334
2024-10-01 09:45:34.877,27827.039,-0.0,0.78,-0.626,-0.007,0.004,0.002,0.066,0.081,0.011,-0.0,-0.894,1.335
2024-10-01 09:45:34.996,27827.159,0.006,0.791,-0.612,0.008,-0.024,0.01,0.035,-0.034,-0.026,0.01,-0.913,1.339
2024-10-01 09:45:35.116,27827.279,0.005,0.792,-0.611,-0.002,-0.029,-0.004,-0.143,0.01,0.018,0.008,-0.913,1.338
2024-10-01 09:45:35.236,27827.399,0.007,0.796,-0.605,-0.005,-0.002,-0.004,0.011,-0.009,-0.009,0.011,-0.921,1.341
2024-10-01 09:45:35.357,27827.519,0.006,0.798,-0.603,-0.002,0.005,-0.0,0.025,-0.008,-0.011,0.01,-0.924,1.339
2024-10-01 09:45:35.476,27827.638,0.004,0.795,-0.607,0.002,0.002,0.002,0.097,-0.04,-0.018,0.006,-0.919,1.337
2024-10-01 09:45:35.596,27827.758,0.002,0.795,-0.606,-0.003,-0.028,0.001,-0.029,-0.038,0.015,0.004,-0.92,1.338
2024-10-01 09:45:35.715,27827.878,-0.002,0.787,-0.617,-0.0,-0.047,-0.011,-0.012,-0.063,0.021,-0.004,-0.905,1.341
2024-10-01 09:45:35.835,27827.998,-0.003,0.786,-0.619,-0.001,0.018,0.006,0.03,0.016,0.004,-0.005,-0.904,1.342
2024-10-01 09:45:35.955,27828.118,0.002,0.8,-0.6,-0.009,-0.016,-0.02,-0.327,0.043,0.019,0.003,-0.927,1.346
2024-10-01 09:45:36.075,27828.237,-0.001,0.796,-0.605,-0.004,-0.023,-0.012,-0.074,-0.006,-0.019,-0.002,-0.921,1.343
2024-10-01 09:45:36.195,27828.357,-0.003,0.795,-0.606,-0.002,-0.01,-0.005,-0.019,-0.003,-0.007,-0.004,-0.92,1.34
2024-10-01 09:45:36.314,27828.477,-0.003,0.795,-0.607,-0.001,-0.017,-0.001,-0.028,0.0,0.001,-0.005,-0.918,1.34
2024-10-01 09:45:36.434,27828.597,-0.003,0.795,-0.606,-0.001,0.0,0.004,0.014,0.004,-0.002,-0.004,-0.92,1.34
2024-10-01 09:45:36.554,27828.717,-0.003,0.795,-0.607,0.0,0.003,-0.002,0.026,-0.013,-0.011,-0.004,-0.919,1.34
2024-10-01 09:45:36.674,27828.836,-0.004,0.791,-0.612,-0.009,0.037,-0.005,0.051,-0.008,0.003,-0.006,-0.912,1.339
2024-10-01 09:45:36.793,27828.956,0.003,0.797,-0.604,-0.005,-0.017,-0.003,-0.224,0.063,0.046,0.005,-0.923,1.345
2024-10-01 09:45:36.913,27829.076,0.007,0.8,-0.6,0.004,-0.017,0.011,0.047,-0.013,-0.016,0.012,-0.928,1.35
2024-10-01 09:45:37.033,27829.196,0.017,0.835,-0.55,-0.027,-0.117,-0.07,-1.581,0.297,0.031,0.031,-0.988,1.355
2024-10-01 09:45:37.153,27829.316,0.037,0.908,-0.417,-0.013,0.0,-0.025,-0.537,0.395,0.303,0.087,-1.139,1.372
2024-10-01 09:45:37.273,27829.435,0.067,0.898,-0.436,-0.037,-0.036,-0.017,0.199,0.57,-0.021,0.153,-1.114,1.39
2024-10-01 09:45:37.392,27829.555,0.091,0.883,-0.46,-0.013,0.01,0.067,0.107,0.453,-0.066,0.195,-1.083,1.366
2024-10-01 09:45:37.512,27829.675,0.105,0.878,-0.468,-0.009,0.012,0.098,-0.11,0.052,0.066,0.222,-1.071,1.361
2024-10-01 09:45:37.632,27829.795,0.1,0.876,-0.472,0.056,-0.104,0.008,0.047,-0.352,-0.141,0.21,-1.067,1.366
2024-10-01 09:45:37.752,27829.915,0.055,0.872,-0.487,0.02,-0.009,-0.036,0.199,-0.365,-0.276,0.112,-1.059,1.308
2024-10-01 09:45:37.872,27830.034,0.009,0.857,-0.515,0.054,0.013,-0.006,0.212,-0.031,-0.016,0.017,-1.03,1.231
2024-10-01 09:45:37.992,27830.154,-0.003,0.832,-0.554,-0.003,0.011,0.006,0.438,-0.047,-0.024,-0.005,-0.983,1.213
2024-10-01 09:45:38.111,27830.274,-0.005,0.81,-0.586,-0.007,-0.001,-0.013,0.087,-0.075,0.084,-0.009,-0.944,1.218
2024-10-01 09:45:38.231,27830.394,-0.013,0.788,-0.615,-0.003,-0.027,0.005,0.229,-0.08,0.025,-0.02,-0.908,1.221
2024-10-01 09:45:38.351,27830.514,-0.011,0.789,-0.614,0.001,0.017,-0.001,-0.064,-0.002,-0.015,-0.018,-0.909,1.226
2024-10-01 09:45:38.471,27830.633,-0.013,0.789,-0.615,0.001,-0.021,-0.006,-0.058,-0.011,-0.015,-0.021,-0.909,1.223
2024-10-01 09:45:38.590,27830.753,-0.014,0.785,-0.619,0.005,-0.02,-0.001,0.002,-0.021,-0.01,-0.022,-0.903,1.224
2024-10-01 09:45:38.710,27830.873,-0.014,0.788,-0.616,-0.0,-0.012,-0.003,-0.041,-0.009,-0.001,-0.024,-0.907,1.224
2024-10-01 09:45:38.830,27830.993,-0.017,0.789,-0.614,-0.001,-0.0,-0.002,-0.009,-0.02,-0.013,-0.027,-0.91,1.221
2024-10-01 09:45:38.950,27831.113,-0.019,0.786,-0.618,0.002,-0.022,0.008,0.02,-0.013,0.016,-0.032,-0.905,1.218
2024-10-01 09:45:39.070,27831.232,-0.017,0.786,-0.618,-0.0,-0.021,-0.005,-0.018,0.028,0.0,-0.027,-0.904,1.225
2024-10-01 09:45:39.190,27831.352,-0.014,0.786,-0.618,-0.004,0.033,-0.022,-0.128,0.011,0.005,-0.023,-0.905,1.227
2024-10-01 09:45:39.309,27831.472,-0.016,0.783,-0.622,0.0,-0.02,-0.005,0.043,-0.03,-0.007,-0.026,-0.9,1.228
2024-10-01 09:45:39.429,27831.592,-0.017,0.777,-0.629,-0.004,-0.0,-0.002,0.097,0.006,0.013,-0.028,-0.89,1.228
2024-10-01 09:45:39.549,27831.712,-0.016,0.77,-0.638,-0.0,0.004,0.001,0.104,0.01,0.02,-0.025,-0.879,1.231
2024-10-01 09:45:39.668,27831.831,-0.014,0.768,-0.64,-0.012,-0.018,-0.008,-0.103,0.069,0.014,-0.022,-0.876,1.233
2024-10-01 09:45:39.789,27831.951,-0.014,0.774,-0.634,-0.003,0.028,-0.004,-0.007,-0.006,-0.006,-0.022,-0.885,1.23
2024-10-01 09:45:39.908,27832.071,-0.013,0.775,-0.631,-0.001,-0.007,-0.003,-0.054,0.038,0.041,-0.02,-0.887,1.231
2024-10-01 09:45:40.028,27832.191,-0.01,0.782,-0.624,0.002,0.014,0.01,0.103,-0.022,-0.012,-0.015,-0.897,1.233
2024-10-01 09:45:40.148,27832.311,-0.011,0.781,-0.625,0.001,0.003,-0.001,-0.01,-0.017,-0.011,-0.018,-0.896,1.232
2024-10-01 09:45:40.268,27832.43,-0.011,0.778,-0.628,-0.001,-0.0,0.001,0.062,0.0,0.005,-0.018,-0.891,1.232
2024-10-01 09:45:40.387,27832.55,-0.01,0.774,-0.634,-0.002,-0.008,-0.003,-0.002,0.009,0.007,-0.016,-0.885,1.234
2024-10-01 09:45:40.507,27832.67,-0.01,0.773,-0.634,-0.003,-0.006,-0.001,0.009,0.015,-0.001,-0.015,-0.884,1.235
2024-10-01 09:45:40.627,27832.79,-0.01,0.774,-0.633,-0.001,0.004,0.001,0.035,0.005,-0.003,-0.016,-0.885,1.235
2024-10-01 09:45:40.747,27832.91,-0.01,0.773,-0.635,-0.002,-0.005,0.001,0.055,0.004,-0.01,-0.016,-0.883,1.235
2024-10-01 09:45:40.867,27833.029,-0.012,0.763,-0.646,-0.001,0.002,0.004,0.135,-0.013,0.01,-0.019,-0.869,1.233
2024-10-01 09:45:40.987,27833.149,-0.012,0.76,-0.65,0.003,-0.004,0.006,0.066,-0.042,0.017,-0.019,-0.863,1.236
2024-10-01 09:45:41.106,27833.269,-0.012,0.755,-0.656,0.003,-0.019,0.0,0.097,-0.057,0.071,-0.018,-0.855,1.245
2024-10-01 09:45:41.226,27833.389,-0.01,0.749,-0.663,-0.0,-0.045,-0.005,-0.075,0.025,0.019,-0.015,-0.846,1.254
2024-10-01 09:45:41.346,27833.509,-0.005,0.76,-0.65,0.002,-0.01,-0.005,-0.213,0.001,0.009,-0.008,-0.863,1.258
2024-10-01 09:45:41.466,27833.628,-0.008,0.76,-0.649,-0.002,-0.024,-0.002,-0.02,-0.007,-0.015,-0.012,-0.864,1.255
2024-10-01 09:45:41.585,27833.748,-0.009,0.76,-0.65,0.001,0.001,0.0,0.038,-0.013,-0.011,-0.013,-0.864,1.254
2024-10-01 09:45:41.706,27833.868,-0.009,0.756,-0.654,-0.002,-0.004,-0.001,0.075,0.005,0.011,-0.014,-0.858,1.253
2024-10-01 09:45:41.825,27833.988,-0.007,0.755,-0.656,-0.0,-0.022,0.008,-0.019,0.073,0.017,-0.011,-0.855,1.255
2024-10-01 09:45:41.945,27834.108,-0.002,0.762,-0.648,0.003,0.013,0.01,0.044,0.008,-0.01,-0.002,-0.866,1.257
2024-10-01 09:45:42.065,27834.227,-0.001,0.76,-0.65,-0.003,-0.013,0.011,0.042,0.034,0.004,-0.001,-0.863,1.258
2024-10-01 09:45:42.185,27834.347,0.008,0.778,-0.629,0.009,0.011,0.013,-0.01,-0.065,0.021,0.013,-0.891,1.272
2024-10-01 09:45:42.304,27834.467,0.002,0.765,-0.644,-0.001,-0.05,-0.001,-0.042,-0.024,0.01,0.003,-0.871,1.27
2024-10-01 09:45:42.424,27834.587,0.0,0.766,-0.643,-0.001,0.0,0.002,0.05,-0.015,-0.005,0.0,-0.872,1.269
2024-10-01 09:45:42.544,27834.707,-0.0,0.767,-0.641,-0.001,0.002,0.002,-0.007,-0.005,0.003,-0.001,-0.875,1.269
2024-10-01 09:45:42.664,27834.826,-0.001,0.768,-0.64,-0.003,0.001,0.001,-0.007,0.007,0.0,-0.001,-0.876,1.268
2024-10-01 09:45:42.784,27834.946,-0.0,0.769,-0.639,-0.001,-0.009,0.002,-0.005,0.0,-0.001,-0.001,-0.878,1.269
2024-10-01 09:45:42.904,27835.066,0.0,0.769,-0.639,-0.001,-0.01,0.003,0.013,0.012,0.01,0.001,-0.877,1.27
2024-10-01 09:45:43.023,27835.186,0.0,0.768,-0.64,-0.001,-0.009,0.002,0.013,-0.008,-0.009,0.0,-0.876,1.27
2024-10-01 09:45:43.143,27835.306,-0.004,0.764,-0.645,0.006,0.005,0.004,0.164,-0.06,-0.027,-0.006,-0.869,1.266
2024-10-01 09:45:43.263,27835.425,-0.003,0.761,-0.649,-0.006,-0.013,0.0,-0.041,-0.008,-0.001,-0.004,-0.864,1.269
2024-10-01 09:45:43.382,27835.545,-0.001,0.76,-0.649,-0.001,-0.021,-0.003,-0.078,0.016,0.024,-0.001,-0.864,1.27
2024-10-01 09:45:43.502,27835.665,-0.001,0.76,-0.65,0.003,-0.004,0.003,0.062,-0.044,-0.024,-0.001,-0.864,1.271
2024-10-01 09:45:43.622,27835.785,-0.003,0.76,-0.65,-0.004,0.008,-0.001,0.04,-0.008,-0.001,-0.005,-0.863,1.269
2024-10-01 09:45:43.742,27835.905,-0.003,0.757,-0.653,-0.002,0.007,-0.0,0.033,-0.004,0.001,-0.005,-0.859,1.27
2024-10-01 09:45:43.862,27836.024,0.001,0.754,-0.657,-0.004,-0.021,-0.0,-0.087,0.056,0.031,0.001,-0.855,1.273
2024-10-01 09:45:43.982,27836.144,0.004,0.758,-0.652,0.0,-0.004,0.005,0.061,-0.004,-0.001,0.006,-0.861,1.275
2024-10-01 09:45:44.101,27836.264,0.004,0.758,-0.652,0.0,-0.02,-0.001,-0.094,0.009,-0.017,0.006,-0.861,1.274
2024-10-01 09:45:44.221,27836.384,0.005,0.764,-0.645,0.011,0.002,0.011,0.11,-0.051,-0.043,0.009,-0.87,1.276
2024-10-01 09:45:44.341,27836.503,0.003,0.761,-0.648,-0.002,0.005,-0.005,0.034,-0.01,0.01,0.004,-0.866,1.274
2024-10-01 09:45:44.461,27836.623,0.002,0.76,-0.65,0.001,0.005,0.007,0.062,-0.053,0.025,0.003,-0.863,1.276
2024-10-01 09:45:44.581,27836.743,0.001,0.755,-0.656,-0.001,0.007,0.0,0.071,-0.055,0.036,0.001,-0.855,1.282
2024-10-01 09:45:44.701,27836.863,0.002,0.753,-0.658,-0.0,-0.024,0.002,-0.072,0.031,0.007,0.004,-0.852,1.287
2024-10-01 09:45:44.820,27836.983,0.006,0.761,-0.648,0.002,0.004,0.006,-0.003,0.007,0.013,0.009,-0.865,1.291
2024-10-01 09:45:44.940,27837.102,0.003,0.757,-0.653,-0.002,-0.001,0.002,0.07,-0.019,-0.018,0.005,-0.859,1.288
2024-10-01 09:45:45.060,27837.222,0.004,0.754,-0.657,-0.007,-0.008,-0.007,-0.069,0.046,0.019,0.005,-0.854,1.289
2024-10-01 09:45:45.180,27837.342,0.009,0.768,-0.64,-0.001,0.017,0.006,-0.076,0.046,-0.002,0.014,-0.876,1.292
2024-10-01 09:45:45.299,27837.462,0.014,0.783,-0.622,-0.008,-0.04,-0.036,-0.841,0.18,0.039,0.023,-0.9,1.293
2024-10-01 09:45:45.419,27837.582,0.019,0.869,-0.495,0.023,0.008,-0.043,-0.782,0.347,-0.114,0.038,-1.052,1.27
2024-10-01 09:45:45.539,27837.701,0.036,0.864,-0.501,0.035,0.053,0.012,0.494,0.397,-0.209,0.072,-1.044,1.257
2024-10-01 09:45:45.659,27837.821,0.037,0.862,-0.506,0.02,-0.002,0.044,-0.055,0.261,-0.147,0.073,-1.039,1.215
2024-10-01 09:45:45.779,27837.941,0.033,0.858,-0.513,-0.028,-0.018,0.051,0.031,0.009,-0.1,0.064,-1.031,1.185
2024-10-01 09:45:45.898,27838.061,0.027,0.846,-0.532,0.02,0.044,0.008,0.544,-0.026,0.082,0.052,-1.009,1.172
2024-10-01 09:45:46.018,27838.181,0.028,0.821,-0.57,-0.032,-0.059,0.051,-0.101,-0.137,-0.026,0.049,-0.963,1.176
2024-10-01 09:45:46.138,27838.3,0.013,0.823,-0.569,-0.008,-0.001,0.007,0.084,0.045,0.063,0.022,-0.966,1.153
2024-10-01 09:45:46.257,27838.42,0.016,0.816,-0.578,-0.004,-0.008,-0.01,-0.054,0.038,0.004,0.028,-0.954,1.158
2024-10-01 09:45:46.377,27838.54,0.014,0.817,-0.576,-0.001,-0.001,0.001,0.047,-0.003,-0.022,0.024,-0.956,1.152
2024-10-01 09:45:46.498,27838.66,0.012,0.813,-0.582,-0.002,-0.009,-0.004,0.013,-0.002,0.001,0.021,-0.949,1.149
2024-10-01 09:45:46.618,27838.78,0.012,0.81,-0.586,0.001,-0.003,-0.001,0.071,-0.011,-0.005,0.02,-0.944,1.148
2024-10-01 09:45:46.737,27838.899,0.008,0.799,-0.601,-0.013,0.007,-0.018,0.079,0.028,0.018,0.014,-0.926,1.144
2024-10-01 09:45:46.857,27839.019,0.009,0.803,-0.595,-0.005,-0.012,-0.003,-0.109,0.001,0.046,0.015,-0.933,1.148
2024-10-01 09:45:46.976,27839.139,0.01,0.803,-0.596,0.003,-0.012,0.0,0.047,0.007,-0.0,0.017,-0.932,1.149
2024-10-01 09:45:47.096,27839.259,0.014,0.799,-0.601,0.006,-0.064,0.009,-0.152,0.024,-0.018,0.024,-0.926,1.151
2024-10-01 09:45:47.216,27839.379,0.018,0.81,-0.586,0.006,0.041,0.021,0.274,-0.006,-0.021,0.031,-0.944,1.154
2024-10-01 09:45:47.336,27839.498,0.014,0.802,-0.597,0.001,0.005,0.004,0.109,-0.024,-0.016,0.024,-0.931,1.148
2024-10-01 09:45:47.456,27839.618,0.013,0.801,-0.598,0.003,0.007,-0.002,-0.041,-0.024,0.009,0.022,-0.93,1.148
2024-10-01 09:45:47.575,27839.738,0.016,0.802,-0.597,0.007,-0.006,0.011,0.074,0.013,-0.006,0.026,-0.93,1.152
2024-10-01 09:45:47.695,27839.858,0.017,0.805,-0.594,0.002,0.017,0.007,0.12,-0.024,-0.016,0.028,-0.935,1.153
2024-10-01 09:45:47.815,27839.978,0.015,0.802,-0.597,-0.003,-0.0,0.006,0.057,-0.003,-0.004,0.025,-0.931,1.15
2024-10-01 09:45:47.935,27840.097,0.013,0.8,-0.6,-0.001,-0.005,0.004,0.08,-0.004,-0.008,0.022,-0.927,1.148
2024-10-01 09:45:48.055,27840.217,0.013,0.801,-0.599,0.002,-0.005,0.003,-0.088,-0.008,0.012,0.022,-0.929,1.148
2024-10-01 09:45:48.175,27840.337,0.015,0.808,-0.589,-0.001,0.005,0.001,0.046,0.032,-0.0,0.025,-0.941,1.155
2024-10-01 09:45:48.294,27840.457,0.016,0.805,-0.593,-0.003,-0.008,-0.002,-0.02,0.028,0.011,0.028,-0.936,1.155
2024-10-01 09:45:48.414,27840.577,0.02,0.81,-0.586,0.006,0.016,0.007,0.119,-0.02,-0.005,0.034,-0.944,1.16
2024-10-01 09:45:48.534,27840.696,0.019,0.808,-0.589,0.0,0.002,0.001,0.029,-0.015,0.005,0.033,-0.941,1.16
2024-10-01 09:45:48.654,27840.816,0.017,0.804,-0.595,0.002,0.002,0.002,0.083,-0.031,-0.016,0.029,-0.934,1.158
2024-10-01 09:45:48.774,27840.936,0.018,0.797,-0.604,-0.001,0.015,0.006,0.138,0.053,0.027,0.029,-0.922,1.158
2024-10-01 09:45:48.894,27841.056,0.02,0.796,-0.605,0.002,0.015,0.003,0.015,-0.005,0.006,0.034,-0.921,1.16
2024-10-01 09:45:49.013,27841.176,0.036,0.804,-0.594,-0.016,-0.007,-0.019,-0.266,0.206,0.256,0.06,-0.934,1.178
2024-10-01 09:45:49.133,27841.295,0.06,0.81,-0.584,-0.207,-0.112,0.122,-0.024,0.096,0.118,0.103,-0.943,1.221
2024-10-01 09:45:49.253,27841.415,0.051,0.79,-0.611,-0.028,-0.01,-0.03,0.08,-0.072,-0.019,0.083,-0.911,1.226
2024-10-01 09:45:49.373,27841.535,0.031,0.806,-0.591,0.012,0.045,0.007,0.039,-0.152,-0.144,0.053,-0.937,1.202
2024-10-01 09:45:49.492,27841.655,0.024,0.8,-0.599,0.001,0.011,-0.008,-0.111,0.006,-0.038,0.04,-0.928,1.191
2024-10-01 09:45:49.612,27841.775,0.02,0.801,-0.598,-0.001,-0.005,0.006,0.014,-0.01,-0.016,0.034,-0.929,1.186
2024-10-01 09:45:49.732,27841.894,0.016,0.802,-0.597,0.003,0.005,0.005,0.078,-0.033,-0.051,0.027,-0.931,1.18
2024-10-01 09:45:49.852,27842.014,0.012,0.798,-0.603,0.001,-0.024,-0.01,-0.093,-0.031,0.002,0.02,-0.923,1.177
2024-10-01 09:45:49.971,27842.134,0.012,0.8,-0.599,0.006,-0.037,-0.005,-0.023,-0.006,-0.014,0.02,-0.928,1.179
2024-10-01 09:45:50.092,27842.254,0.015,0.801,-0.599,0.002,-0.038,0.008,-0.041,0.018,0.005,0.025,-0.929,1.178
2024-10-01 09:45:50.211,27842.374,0.017,0.801,-0.599,0.001,-0.014,-0.001,-0.047,0.033,-0.004,0.028,-0.929,1.179
2024-10-01 09:45:50.331,27842.493,0.015,0.798,-0.603,-0.0,-0.01,-0.001,0.023,-0.018,-0.017,0.025,-0.923,1.176
2024-10-01 09:45:50.451,27842.613,0.014,0.796,-0.605,-0.0,-0.011,0.002,-0.005,-0.004,-0.002,0.023,-0.921,1.174
2024-10-01 09:45:50.571,27842.733,0.014,0.797,-0.604,0.001,-0.013,-0.001,-0.016,-0.01,-0.007,0.023,-0.922,1.174
2024-10-01 09:45:50.690,27842.853,0.014,0.797,-0.603,0.001,-0.007,-0.003,-0.005,-0.011,0.005,0.022,-0.923,1.174
2024-10-01 09:45:50.810,27842.973,0.014,0.797,-0.603,0.0,-0.002,0.001,-0.015,-0.008,0.004,0.023,-0.923,1.175
2024-10-01 09:45:50.930,27843.092,0.014,0.798,-0.602,-0.004,0.001,0.005,-0.015,0.005,0.011,0.023,-0.924,1.177
2024-10-01 09:45:51.049,27843.212,0.018,0.797,-0.604,-0.007,-0.014,-0.021,-0.159,0.043,0.031,0.029,-0.922,1.179
2024-10-01 09:45:51.169,27843.332,0.017,0.793,-0.608,-0.0,-0.018,-0.005,-0.021,0.002,-0.011,0.027,-0.917,1.178
2024-10-01 09:45:51.289,27843.452,0.016,0.792,-0.61,-0.002,-0.003,0.002,0.033,0.011,-0.008,0.027,-0.915,1.177
2024-10-01 09:45:51.409,27843.572,0.016,0.791,-0.611,0.002,0.0,-0.001,0.036,-0.024,-0.014,0.026,-0.913,1.176
2024-10-01 09:45:51.529,27843.691,0.013,0.79,-0.613,-0.002,-0.005,-0.002,0.001,-0.022,0.003,0.021,-0.911,1.174
2024-10-01 09:45:51.649,27843.811,0.016,0.794,-0.608,-0.006,0.051,0.003,0.09,0.024,0.021,0.026,-0.917,1.181
2024-10-01 09:45:51.768,27843.931,0.016,0.792,-0.61,0.002,-0.003,-0.002,0.0,0.012,-0.008,0.026,-0.914,1.18
2024-10-01 09:45:51.888,27844.051,0.017,0.788,-0.616,0.0,-0.031,-0.004,-0.086,0.004,0.001,0.028,-0.907,1.179
2024-10-01 09:45:52.008,27844.171,0.018,0.788,-0.615,0.0,-0.015,0.003,0.055,-0.021,-0.004,0.029,-0.908,1.181
2024-10-01 09:45:52.128,27844.29,0.016,0.785,-0.619,-0.005,0.005,-0.006,0.062,-0.008,0.002,0.026,-0.903,1.18
2024-10-01 09:45:52.249,27844.41,0.018,0.778,-0.628,-0.002,0.003,-0.001,0.085,0.081,0.003,0.028,-0.891,1.181
2024-10-01 09:45:52.367,27844.53,0.02,0.783,-0.622,0.005,0.051,0.015,0.108,-0.006,-0.009,0.033,-0.899,1.181
2024-10-01 09:45:52.487,27844.65,0.021,0.782,-0.623,-0.005,-0.022,0.005,0.006,0.027,0.011,0.034,-0.898,1.182
2024-10-01 09:45:52.607,27844.77,0.044,0.798,-0.601,-0.018,0.06,-0.01,-0.115,0.186,0.272,0.073,-0.924,1.212
2024-10-01 09:45:52.727,27844.889,0.051,0.804,-0.592,0.092,0.029,0.011,-0.269,-0.319,-0.075,0.086,-0.934,1.235
2024-10-01 09:45:52.847,27845.009,0.045,0.8,-0.598,0.056,-0.033,-0.062,0.188,-0.082,0.015,0.075,-0.927,1.246
2024-10-01 09:45:52.966,27845.129,0.036,0.811,-0.584,-0.002,0.02,0.005,-0.029,0.019,-0.016,0.062,-0.946,1.231
2024-10-01 09:45:53.086,27845.249,0.034,0.818,-0.574,-0.001,-0.009,-0.006,-0.165,0.025,-0.023,0.059,-0.959,1.225
2024-10-01 09:45:53.206,27845.369,0.031,0.822,-0.569,-0.005,0.003,-0.001,-0.008,-0.0,-0.007,0.055,-0.965,1.219
2024-10-01 09:45:53.326,27845.488,0.028,0.823,-0.568,-0.001,-0.003,0.001,-0.017,-0.034,-0.015,0.049,-0.966,1.216
2024-10-01 09:45:53.446,27845.608,0.023,0.822,-0.569,0.002,-0.014,0.006,0.056,-0.032,-0.025,0.041,-0.965,1.212
2024-10-01 09:45:53.565,27845.728,0.02,0.82,-0.573,0.003,0.008,0.005,0.112,-0.035,-0.041,0.036,-0.961,1.209
2024-10-01 09:45:53.685,27845.848,0.018,0.815,-0.58,-0.001,0.015,-0.002,0.015,-0.024,0.02,0.031,-0.952,1.206
2024-10-01 09:45:53.805,27845.968,0.019,0.813,-0.582,-0.001,-0.026,-0.009,0.007,-0.005,0.009,0.032,-0.949,1.211
2024-10-01 09:45:53.925,27846.087,0.021,0.813,-0.582,-0.003,-0.031,-0.001,-0.078,0.023,-0.006,0.037,-0.95,1.212
2024-10-01 09:45:54.045,27846.207,0.022,0.813,-0.582,-0.001,-0.028,-0.007,0.015,0.033,-0.007,0.037,-0.949,1.209
2024-10-01 09:45:54.165,27846.327,0.018,0.811,-0.585,0.001,-0.007,0.003,0.09,-0.036,-0.017,0.03,-0.945,1.203
2024-10-01 09:45:54.284,27846.447,0.018,0.815,-0.579,-0.003,-0.022,-0.001,-0.077,-0.023,0.044,0.032,-0.953,1.208
2024-10-01 09:45:54.404,27846.567,0.021,0.812,-0.583,-0.005,-0.007,-0.023,-0.105,0.051,0.016,0.037,-0.948,1.209
2024-10-01 09:45:54.524,27846.686,0.021,0.811,-0.585,-0.001,-0.019,-0.002,-0.015,-0.012,-0.012,0.035,-0.946,1.206
2024-10-01 09:45:54.644,27846.806,0.019,0.81,-0.586,-0.002,-0.005,0.001,0.023,0.006,-0.001,0.033,-0.945,1.204
2024-10-01 09:45:54.763,27846.926,0.018,0.809,-0.588,-0.001,-0.005,0.001,0.036,-0.006,-0.009,0.031,-0.942,1.203
2024-10-01 09:45:54.883,27847.046,0.018,0.809,-0.588,0.001,-0.003,-0.001,-0.04,-0.023,-0.003,0.03,-0.942,1.202
2024-10-01 09:45:55.003,27847.166,0.018,0.816,-0.578,-0.003,-0.001,-0.0,-0.047,-0.022,0.049,0.03,-0.954,1.207
2024-10-01 09:45:55.123,27847.285,0.019,0.817,-0.576,0.001,-0.014,0.004,0.069,0.032,0.006,0.033,-0.956,1.211
2024-10-01 09:45:55.243,27847.405,0.021,0.816,-0.577,0.005,-0.033,0.005,0.012,-0.022,0.002,0.037,-0.955,1.212
2024-10-01 09:45:55.362,27847.525,0.019,0.812,-0.583,-0.002,-0.006,-0.002,-0.003,-0.006,0.005,0.032,-0.948,1.21
2024-10-01 09:45:55.482,27847.645,0.019,0.811,-0.585,-0.001,0.0,0.001,0.042,-0.004,-0.002,0.032,-0.945,1.209
2024-10-01 09:45:55.602,27847.765,0.018,0.809,-0.587,-0.001,-0.003,0.001,0.034,0.016,-0.002,0.031,-0.943,1.209
2024-10-01 09:45:55.721,27847.884,0.021,0.811,-0.584,0.001,-0.057,-0.002,-0.169,0.021,0.005,0.036,-0.946,1.21
2024-10-01 09:45:55.841,27848.004,0.024,0.81,-0.586,-0.002,-0.008,-0.003,-0.043,0.093,0.032,0.04,-0.944,1.212
2024-10-01 09:45:55.962,27848.124,0.048,0.829,-0.557,-0.016,0.022,0.006,-0.033,0.116,0.251,0.086,-0.977,1.247
2024-10-01 09:45:56.081,27848.244,0.05,0.818,-0.573,-0.013,-0.02,-0.007,0.12,-0.074,-0.01,0.087,-0.958,1.257
2024-10-01 09:45:56.201,27848.364,0.048,0.812,-0.582,0.011,-0.018,0.013,0.175,-0.139,-0.07,0.082,-0.947,1.259
2024-10-01 09:45:56.321,27848.483,0.031,0.809,-0.586,-0.001,-0.007,0.003,0.015,-0.045,-0.055,0.054,-0.943,1.242
2024-10-01 09:45:56.440,27848.603,0.027,0.808,-0.588,-0.001,-0.001,-0.002,-0.026,-0.01,-0.032,0.045,-0.941,1.234
2024-10-01 09:45:56.560,27848.723,0.021,0.805,-0.593,0.002,0.01,0.005,0.169,-0.046,-0.042,0.036,-0.935,1.226
2024-10-01 09:45:56.680,27848.843,0.019,0.797,-0.603,0.003,0.005,-0.0,0.052,-0.02,-0.0,0.032,-0.923,1.224
2024-10-01 09:45:56.800,27848.963,0.019,0.802,-0.598,-0.0,0.019,-0.003,0.032,0.001,-0.005,0.032,-0.93,1.228
2024-10-01 09:45:56.920,27849.082,0.021,0.801,-0.599,-0.005,-0.034,0.0,-0.111,0.055,0.002,0.035,-0.929,1.227
2024-10-01 09:45:57.039,27849.202,0.021,0.803,-0.595,-0.003,-0.003,0.0,-0.031,0.025,-0.001,0.036,-0.933,1.226
2024-10-01 09:45:57.159,27849.322,0.023,0.805,-0.593,0.001,-0.005,0.002,0.03,-0.013,-0.008,0.038,-0.935,1.226
2024-10-01 09:45:57.279,27849.442,0.021,0.804,-0.594,0.001,-0.002,0.002,0.01,-0.006,-0.009,0.036,-0.935,1.224
2024-10-01 09:45:57.399,27849.562,0.021,0.805,-0.593,-0.002,-0.005,0.004,0.014,0.004,0.004,0.036,-0.935,1.224
2024-10-01 09:45:57.519,27849.681,0.021,0.803,-0.596,-0.001,-0.004,0.001,0.033,-0.008,-0.017,0.035,-0.932,1.222
2024-10-01 09:45:57.639,27849.801,0.019,0.8,-0.6,-0.001,-0.019,0.003,0.013,-0.014,0.009,0.031,-0.927,1.22
2024-10-01 09:45:57.759,27849.921,0.02,0.804,-0.594,-0.002,0.048,0.009,0.086,0.038,-0.021,0.034,-0.935,1.225
2024-10-01 09:45:57.878,27850.041,0.023,0.807,-0.591,0.005,0.01,0.006,0.014,0.005,-0.008,0.039,-0.938,1.226
2024-10-01 09:45:57.998,27850.161,0.021,0.804,-0.595,-0.001,0.003,-0.0,0.015,-0.009,-0.006,0.036,-0.934,1.223
2024-10-01 09:45:58.118,27850.28,0.02,0.803,-0.596,-0.002,-0.006,0.0,0.008,-0.005,-0.006,0.034,-0.932,1.221
2024-10-01 09:45:58.238,27850.4,0.02,0.802,-0.597,-0.002,-0.004,0.0,0.019,0.007,-0.0,0.033,-0.93,1.22
2024-10-01 09:45:58.357,27850.52,0.017,0.796,-0.605,0.001,0.001,0.005,0.137,-0.03,-0.015,0.029,-0.921,1.218
2024-10-01 09:45:58.477,27850.64,0.016,0.797,-0.603,-0.001,-0.009,0.003,-0.065,-0.045,0.019,0.027,-0.923,1.218
2024-10-01 09:45:58.597,27850.76,0.017,0.808,-0.589,-0.001,0.016,0.009,0.044,0.032,-0.017,0.029,-0.941,1.227
2024-10-01 09:45:58.717,27850.879,0.019,0.804,-0.594,0.001,-0.01,-0.004,-0.009,0.02,0.003,0.032,-0.935,1.227
2024-10-01 09:45:58.837,27850.999,0.019,0.803,-0.595,-0.001,-0.012,0.002,0.037,-0.003,0.002,0.032,-0.933,1.227
2024-10-01 09:45:58.956,27851.119,0.018,0.802,-0.597,-0.003,0.001,0.001,0.013,0.0,0.003,0.031,-0.931,1.227
2024-10-01 09:45:59.076,27851.239,0.018,0.801,-0.598,-0.003,-0.0,0.001,0.025,0.001,-0.002,0.031,-0.929,1.226
2024-10-01 09:45:59.196,27851.359,0.02,0.8,-0.6,-0.007,-0.005,-0.002,-0.006,0.052,0.008,0.033,-0.927,1.226
2024-10-01 09:45:59.315,27851.478,0.02,0.803,-0.596,-0.003,-0.006,0.008,0.059,0.018,0.01,0.034,-0.932,1.226
2024-10-01 09:45:59.435,27851.598,0.025,0.803,-0.596,-0.006,0.016,-0.014,-0.122,0.071,0.084,0.042,-0.932,1.231
2024-10-01 09:45:59.555,27851.718,0.051,0.814,-0.579,-0.019,-0.002,0.004,-0.07,0.028,0.239,0.087,-0.95,1.27
2024-10-01 09:45:59.675,27851.838,0.045,0.818,-0.574,0.028,0.05,0.012,0.079,-0.169,0.114,0.078,-0.957,1.277
2024-10-01 09:45:59.795,27851.958,0.025,0.808,-0.589,-0.03,-0.062,-0.052,-0.326,-0.022,-0.067,0.042,-0.94,1.259
2024-10-01 09:45:59.915,27852.077,0.02,0.81,-0.586,-0.001,-0.018,0.003,0.075,-0.034,-0.02,0.035,-0.944,1.252
2024-10-01 09:46:00.034,27852.197,0.016,0.814,-0.581,-0.003,0.015,0.004,0.028,-0.011,-0.018,0.028,-0.95,1.247
2024-10-01 09:46:00.154,27852.317,0.016,0.814,-0.581,-0.001,0.006,0.005,0.04,-0.001,-0.007,0.027,-0.951,1.246
2024-10-01 09:46:00.274,27852.437,0.012,0.808,-0.59,0.002,-0.052,0.008,-0.011,-0.009,0.007,0.021,-0.94,1.242
2024-10-01 09:46:00.394,27852.557,0.012,0.811,-0.585,-0.005,0.034,0.002,0.056,-0.014,0.024,0.021,-0.945,1.247
2024-10-01 09:46:00.514,27852.676,0.014,0.809,-0.588,-0.004,-0.012,-0.001,0.009,0.059,0.021,0.025,-0.942,1.248
2024-10-01 09:46:00.633,27852.796,0.016,0.811,-0.585,-0.007,0.015,-0.002,0.01,0.001,0.004,0.027,-0.946,1.249
2024-10-01 09:46:00.753,27852.916,0.016,0.81,-0.586,-0.001,-0.021,0.003,0.033,0.051,-0.037,0.028,-0.944,1.247
2024-10-01 09:46:00.873,27853.036,0.016,0.809,-0.587,-0.001,0.013,0.008,0.099,0.021,-0.02,0.027,-0.943,1.241
2024-10-01 09:46:00.993,27853.156,0.014,0.809,-0.588,-0.001,0.005,0.0,0.036,-0.022,-0.03,0.024,-0.942,1.237
2024-10-01 09:46:01.113,27853.275,0.012,0.808,-0.589,-0.001,0.005,0.001,-0.011,-0.022,0.042,0.021,-0.941,1.237
2024-10-01 09:46:01.232,27853.395,0.014,0.81,-0.587,-0.0,-0.007,0.0,0.023,0.012,-0.005,0.025,-0.944,1.242
2024-10-01 09:46:01.352,27853.515,0.016,0.808,-0.588,-0.007,0.019,-0.011,-0.015,0.043,0.021,0.028,-0.941,1.243
2024-10-01 09:46:01.472,27853.635,0.016,0.806,-0.591,-0.002,-0.013,-0.006,-0.037,0.002,-0.003,0.028,-0.938,1.242
2024-10-01 09:46:01.593,27853.755,0.017,0.807,-0.59,-0.002,-0.011,0.001,-0.01,0.011,0.003,0.029,-0.94,1.242
2024-10-01 09:46:01.712,27853.874,0.018,0.809,-0.587,-0.001,0.001,0.006,0.043,0.018,0.002,0.031,-0.943,1.243
2024-10-01 09:46:01.832,27853.994,0.02,0.806,-0.591,0.001,-0.013,0.003,0.02,0.004,0.011,0.034,-0.938,1.244
2024-10-01 09:46:01.952,27854.114,0.024,0.805,-0.593,-0.004,0.001,0.002,0.053,0.032,0.059,0.04,-0.935,1.25
2024-10-01 09:46:02.072,27854.234,0.033,0.8,-0.599,0.003,-0.018,0.007,0.054,-0.008,0.029,0.055,-0.927,1.264
2024-10-01 09:46:02.191,27854.354,0.029,0.796,-0.604,-0.004,-0.007,-0.001,0.052,0.003,-0.009,0.048,-0.921,1.259
2024-10-01 09:46:02.311,27854.473,0.025,0.797,-0.604,-0.002,0.004,-0.001,0.01,-0.011,-0.017,0.042,-0.921,1.252
2024-10-01 09:46:02.430,27854.593,0.024,0.797,-0.604,0.0,-0.009,-0.003,-0.059,0.006,-0.01,0.04,-0.922,1.249
2024-10-01 09:46:02.551,27854.713,0.024,0.804,-0.594,-0.001,-0.012,-0.003,-0.168,0.011,-0.019,0.04,-0.934,1.248
2024-10-01 09:46:02.670,27854.833,0.02,0.814,-0.581,0.001,0.003,0.003,-0.022,-0.018,-0.018,0.034,-0.95,1.243
2024-10-01 09:46:02.790,27854.953,0.019,0.813,-0.581,0.001,-0.003,0.003,0.043,-0.022,0.001,0.033,-0.95,1.242
2024-10-01 09:46:02.910,27855.072,0.017,0.81,-0.586,-0.001,-0.012,-0.001,0.001,-0.011,-0.001,0.03,-0.944,1.241
2024-10-01 09:46:03.029,27855.192,0.015,0.803,-0.596,-0.001,0.005,0.007,0.209,-0.028,-0.018,0.026,-0.932,1.238
2024-10-01 09:46:03.149,27855.312,0.014,0.799,-0.601,0.0,0.022,-0.001,0.012,-0.016,-0.003,0.023,-0.925,1.237
2024-10-01 09:46:03.269,27855.432,0.015,0.803,-0.595,-0.011,0.049,0.003,0.041,0.036,-0.02,0.026,-0.933,1.246
2024-10-01 09:46:03.389,27855.552,0.017,0.803,-0.596,0.0,-0.026,-0.001,-0.041,0.022,0.019,0.028,-0.933,1.246
2024-10-01 09:46:03.509,27855.671,0.015,0.803,-0.595,0.0,-0.014,0.004,0.047,-0.027,-0.01,0.026,-0.933,1.245
2024-10-01 09:46:03.628,27855.791,0.014,0.8,-0.599,-0.0,0.003,-0.004,-0.001,-0.013,-0.0,0.023,-0.928,1.244
2024-10-01 09:46:03.748,27855.911,0.016,0.801,-0.598,-0.0,-0.01,-0.009,-0.13,0.001,0.007,0.026,-0.929,1.244
2024-10-01 09:46:03.868,27856.031,0.02,0.806,-0.591,-0.004,0.014,-0.006,-0.216,0.087,0.099,0.034,-0.938,1.25
2024-10-01 09:46:03.988,27856.151,0.037,0.821,-0.57,0.018,-0.002,0.019,0.176,-0.137,0.048,0.064,-0.963,1.281
2024-10-01 09:46:04.108,27856.27,0.026,0.814,-0.58,-0.009,-0.015,-0.013,-0.156,-0.012,0.018,0.045,-0.951,1.271
2024-10-01 09:46:04.227,27856.39,0.024,0.813,-0.582,-0.006,-0.012,-0.004,-0.028,0.001,-0.018,0.041,-0.949,1.269
2024-10-01 09:46:04.347,27856.51,0.018,0.808,-0.589,-0.0,0.017,0.004,0.115,-0.025,-0.009,0.031,-0.941,1.262
2024-10-01 09:46:04.467,27856.63,0.018,0.813,-0.583,0.0,-0.043,-0.004,-0.214,-0.069,0.047,0.031,-0.949,1.266
2024-10-01 09:46:04.587,27856.75,0.019,0.814,-0.58,-0.001,-0.012,0.0,0.039,0.007,-0.008,0.033,-0.951,1.272
2024-10-01 09:46:04.707,27856.869,0.02,0.812,-0.584,-0.006,0.003,-0.006,-0.118,0.034,0.001,0.035,-0.947,1.27
2024-10-01 09:46:04.827,27856.989,0.021,0.813,-0.582,-0.004,-0.024,-0.004,-0.034,0.002,0.014,0.035,-0.949,1.27
2024-10-01 09:46:04.946,27857.109,0.022,0.812,-0.583,0.003,0.01,-0.005,-0.01,0.028,-0.005,0.038,-0.948,1.27
2024-10-01 09:46:05.066,27857.229,0.023,0.812,-0.584,0.001,0.001,0.006,0.075,0.004,-0.023,0.039,-0.947,1.267
2024-10-01 09:46:05.186,27857.349,0.019,0.809,-0.588,-0.01,0.007,-0.009,0.013,-0.012,0.017,0.032,-0.942,1.262
2024-10-01 09:46:05.306,27857.468,0.019,0.815,-0.58,-0.008,-0.004,-0.001,-0.025,-0.02,0.03,0.032,-0.952,1.268
2024-10-01 09:46:05.425,27857.588,0.021,0.812,-0.583,0.003,-0.018,-0.005,-0.021,0.039,-0.003,0.036,-0.947,1.267
2024-10-01 09:46:05.544,27857.708,0.022,0.811,-0.584,-0.0,0.003,0.005,0.081,-0.01,-0.02,0.038,-0.947,1.266
2024-10-01 09:46:05.665,27857.828,0.021,0.81,-0.586,-0.002,-0.003,0.001,0.014,-0.003,-0.007,0.035,-0.944,1.264
2024-10-01 09:46:05.785,27857.948,0.019,0.809,-0.588,-0.005,0.006,-0.003,0.005,0.003,0.004,0.033,-0.942,1.262
2024-10-01 09:46:05.905,27858.067,0.018,0.81,-0.586,0.001,-0.005,-0.003,-0.067,-0.04,-0.001,0.031,-0.945,1.262
2024-10-01 09:46:06.024,27858.187,0.016,0.818,-0.575,0.001,-0.009,-0.003,-0.111,-0.052,0.042,0.028,-0.958,1.267
2024-10-01 09:46:06.144,27858.307,0.016,0.821,-0.571,-0.004,-0.008,0.003,0.002,0.001,-0.003,0.028,-0.962,1.27
2024-10-01 09:46:06.264,27858.427,0.016,0.82,-0.572,-0.001,-0.013,0.001,-0.035,-0.007,0.004,0.028,-0.962,1.27
2024-10-01 09:46:06.384,27858.547,0.016,0.82,-0.572,-0.001,-0.025,0.001,0.012,0.015,-0.007,0.029,-0.962,1.271
2024-10-01 09:46:06.504,27858.666,0.02,0.82,-0.572,0.003,0.001,-0.001,-0.072,0.04,0.02,0.036,-0.961,1.273
2024-10-01 09:46:06.624,27858.786,0.022,0.82,-0.573,0.0,-0.003,0.001,0.032,-0.008,0.001,0.038,-0.961,1.274
2024-10-01 09:46:06.744,27858.906,0.023,0.819,-0.573,0.001,-0.005,0.001,0.011,0.005,0.001,0.039,-0.96,1.275
2024-10-01 09:46:06.863,27859.026,0.023,0.819,-0.574,-0.002,-0.006,0.002,0.004,0.003,0.002,0.04,-0.959,1.275
2024-10-01 09:46:06.983,27859.146,0.022,0.818,-0.575,-0.001,0.001,0.0,0.033,-0.014,-0.013,0.039,-0.958,1.274
2024-10-01 09:46:07.103,27859.265,0.019,0.813,-0.582,-0.004,0.01,0.0,0.083,0.004,-0.0,0.033,-0.95,1.27
2024-10-01 09:46:07.223,27859.385,0.02,0.812,-0.583,-0.009,-0.019,0.001,-0.079,0.055,0.009,0.034,-0.948,1.27
2024-10-01 09:46:07.342,27859.505,0.021,0.817,-0.576,0.0,-0.021,0.004,-0.035,0.033,0.003,0.036,-0.956,1.271
2024-10-01 09:46:07.462,27859.625,0.032,0.843,-0.537,-0.008,-0.069,-0.015,-0.695,0.265,-0.058,0.06,-1.003,1.276
2024-10-01 09:46:07.582,27859.745,0.042,0.86,-0.508,0.0,0.011,0.01,0.007,0.175,-0.008,0.082,-1.036,1.268
2024-10-01 09:46:07.702,27859.864,0.051,0.859,-0.509,0.007,-0.001,-0.012,0.279,-0.002,0.019,0.1,-1.034,1.275
2024-10-01 09:46:07.821,27859.984,0.056,0.848,-0.528,0.004,0.003,0.005,0.119,0.025,-0.0,0.106,-1.011,1.275
2024-10-01 09:46:07.941,27860.104,0.048,0.836,-0.547,0.001,-0.003,0.005,0.055,-0.072,-0.093,0.087,-0.99,1.258
2024-10-01 09:46:08.061,27860.224,0.035,0.822,-0.569,-0.015,-0.024,0.002,0.099,-0.116,-0.134,0.061,-0.965,1.236
2024-10-01 09:46:08.181,27860.344,0.025,0.811,-0.585,0.009,-0.005,0.018,0.333,-0.046,-0.064,0.042,-0.945,1.219
2024-10-01 09:46:08.301,27860.463,0.013,0.792,-0.61,-0.002,0.022,-0.009,0.163,-0.104,-0.082,0.021,-0.915,1.205
2024-10-01 09:46:08.421,27860.583,0.008,0.786,-0.618,-0.005,-0.013,-0.002,-0.031,0.009,-0.004,0.012,-0.905,1.2
2024-10-01 09:46:08.540,27860.703,0.005,0.788,-0.616,-0.003,-0.003,-0.001,0.033,-0.005,-0.01,0.008,-0.907,1.196
2024-10-01 09:46:08.659,27860.823,0.004,0.786,-0.618,-0.0,-0.001,-0.0,0.028,-0.002,-0.013,0.006,-0.904,1.193
2024-10-01 09:46:08.780,27860.943,0.003,0.78,-0.625,-0.003,-0.024,-0.006,-0.013,0.016,0.01,0.005,-0.895,1.193
2024-10-01 09:46:08.900,27861.062,0.003,0.781,-0.625,-0.001,-0.01,-0.0,0.004,-0.005,-0.005,0.005,-0.896,1.193
2024-10-01 09:46:09.020,27861.182,-0.0,0.779,-0.627,0.005,-0.028,0.005,0.089,-0.029,-0.029,-0.0,-0.893,1.188
2024-10-01 09:46:09.139,27861.302,-0.0,0.777,-0.63,-0.004,-0.003,0.001,-0.01,0.007,0.014,-0.0,-0.889,1.19
2024-10-01 09:46:09.259,27861.422,0.002,0.777,-0.629,-0.003,-0.007,0.007,0.067,0.056,0.008,0.004,-0.89,1.193
2024-10-01 09:46:09.379,27861.542,0.009,0.782,-0.623,0.003,0.027,0.008,-0.013,0.002,0.006,0.014,-0.898,1.199
2024-10-01 09:46:09.499,27861.661,0.011,0.782,-0.623,-0.001,-0.013,-0.002,-0.044,0.017,0.004,0.018,-0.898,1.202
2024-10-01 09:46:09.618,27861.781,0.01,0.783,-0.622,-0.002,-0.001,-0.002,-0.002,-0.015,-0.009,0.016,-0.899,1.201
2024-10-01 09:46:09.738,27861.901,0.006,0.782,-0.624,-0.001,-0.006,0.002,0.017,-0.036,-0.009,0.01,-0.897,1.198
2024-10-01 09:46:09.858,27862.021,0.004,0.78,-0.626,-0.001,-0.001,0.0,0.02,-0.036,-0.006,0.006,-0.895,1.197
2024-10-01 09:46:09.978,27862.14,0.0,0.778,-0.628,-0.002,0.008,-0.001,0.033,-0.007,0.001,0.0,-0.891,1.194
2024-10-01 09:46:10.098,27862.26,0.0,0.774,-0.633,0.003,-0.006,0.007,0.075,0.028,0.01,0.0,-0.885,1.194
2024-10-01 09:46:10.217,27862.38,0.005,0.781,-0.624,0.002,0.029,0.004,0.013,-0.005,0.01,0.008,-0.897,1.196
2024-10-01 09:46:10.337,27862.5,0.006,0.78,-0.626,0.0,-0.003,-0.004,-0.063,0.006,0.026,0.009,-0.894,1.197
2024-10-01 09:46:10.457,27862.62,0.005,0.779,-0.627,-0.004,-0.009,-0.003,-0.006,-0.004,-0.008,0.007,-0.893,1.196
2024-10-01 09:46:10.577,27862.739,0.004,0.781,-0.624,-0.0,-0.007,-0.003,-0.034,-0.021,0.01,0.006,-0.897,1.196
2024-10-01 09:46:10.697,27862.859,0.004,0.781,-0.624,-0.001,-0.021,-0.004,-0.047,-0.015,-0.001,0.007,-0.897,1.199
2024-10-01 09:46:10.816,27862.979,0.003,0.779,-0.627,-0.002,-0.002,-0.004,0.031,-0.031,0.03,0.004,-0.893,1.203
2024-10-01 09:46:10.937,27863.099,0.004,0.78,-0.625,-0.004,-0.011,0.009,0.001,0.02,0.004,0.006,-0.895,1.204
2024-10-01 09:46:11.056,27863.219,0.013,0.795,-0.607,0.008,0.001,0.002,-0.159,0.001,-0.028,0.021,-0.919,1.212
2024-10-01 09:46:11.176,27863.338,0.009,0.791,-0.612,0.001,-0.022,-0.005,-0.059,-0.003,-0.021,0.015,-0.912,1.206
2024-10-01 09:46:11.296,27863.458,0.008,0.789,-0.615,-0.002,-0.017,0.001,-0.008,0.004,-0.002,0.013,-0.909,1.204
2024-10-01 09:46:11.416,27863.578,0.009,0.789,-0.615,-0.0,-0.011,0.0,-0.007,-0.002,-0.0,0.015,-0.909,1.205
2024-10-01 09:46:11.535,27863.698,0.009,0.789,-0.614,0.001,-0.007,-0.001,0.001,0.004,-0.003,0.015,-0.909,1.205
2024-10-01 09:46:11.655,27863.818,0.009,0.789,-0.614,-0.0,-0.009,0.002,-0.009,-0.005,-0.002,0.014,-0.91,1.205
2024-10-01 09:46:11.775,27863.937,0.008,0.789,-0.614,0.001,-0.011,0.003,0.001,-0.001,-0.004,0.013,-0.91,1.204
2024-10-01 09:46:11.895,27864.057,0.007,0.788,-0.616,-0.0,0.003,0.001,0.024,-0.02,-0.026,0.011,-0.908,1.202
2024-10-01 09:46:12.014,27864.177,0.006,0.787,-0.616,-0.003,-0.0,-0.002,-0.051,-0.016,0.028,0.009,-0.907,1.202
2024-10-01 09:46:12.134,27864.297,0.008,0.79,-0.613,-0.001,0.015,0.006,0.038,0.019,-0.005,0.013,-0.911,1.209
2024-10-01 09:46:12.254,27864.417,0.009,0.789,-0.615,-0.002,-0.017,-0.004,-0.013,0.051,0.012,0.015,-0.909,1.208
2024-10-01 09:46:12.373,27864.536,0.01,0.788,-0.615,0.002,0.022,0.01,0.131,-0.011,-0.024,0.016,-0.908,1.206
2024-10-01 09:46:12.494,27864.656,0.01,0.787,-0.616,-0.0,0.005,0.005,0.039,0.006,0.001,0.015,-0.907,1.205
2024-10-01 09:46:12.613,27864.776,0.009,0.787,-0.617,-0.002,-0.003,0.001,0.0,-0.004,-0.002,0.015,-0.906,1.205
2024-10-01 09:46:12.734,27864.896,0.007,0.786,-0.618,0.001,-0.004,-0.001,0.033,-0.034,-0.028,0.011,-0.905,1.202
2024-10-01 09:46:12.853,27865.016,0.007,0.788,-0.616,-0.011,-0.003,-0.001,-0.035,0.035,0.041,0.012,-0.907,1.202
2024-10-01 09:46:12.973,27865.135,0.017,0.792,-0.611,-0.006,-0.007,0.006,-0.133,0.151,0.054,0.027,-0.913,1.21
2024-10-01 09:46:13.093,27865.255,0.018,0.791,-0.611,0.007,0.019,0.009,0.126,-0.078,-0.067,0.03,-0.913,1.209
2024-10-01 09:46:13.212,27865.375,0.013,0.792,-0.611,0.001,0.005,-0.001,-0.01,-0.023,-0.012,0.021,-0.914,1.204
2024-10-01 09:46:13.332,27865.495,0.012,0.793,-0.609,0.001,-0.014,-0.001,-0.059,-0.004,-0.001,0.02,-0.916,1.203
2024-10-01 09:46:13.452,27865.615,0.011,0.794,-0.608,0.001,-0.005,-0.001,0.002,-0.007,-0.012,0.018,-0.917,1.203
2024-10-01 09:46:13.572,27865.734,0.009,0.794,-0.608,0.002,-0.007,-0.0,-0.005,-0.023,-0.015,0.015,-0.917,1.201
2024-10-01 09:46:13.692,27865.854,0.007,0.793,-0.609,0.001,-0.008,-0.003,0.028,-0.011,-0.002,0.011,-0.916,1.199
2024-10-01 09:46:13.811,27865.974,0.012,0.794,-0.608,0.001,-0.024,-0.008,-0.176,0.039,-0.001,0.019,-0.918,1.201
2024-10-01 09:46:13.931,27866.094,0.011,0.798,-0.602,0.001,-0.018,-0.002,-0.08,-0.026,-0.014,0.017,-0.924,1.2
2024-10-01 09:46:14.051,27866.214,0.013,0.801,-0.598,-0.003,0.009,0.003,-0.006,-0.018,0.025,0.022,-0.929,1.207
2024-10-01 09:46:14.171,27866.333,0.014,0.799,-0.601,-0.005,-0.009,0.018,0.181,0.043,0.002,0.023,-0.926,1.207
2024-10-01 09:46:14.291,27866.453,0.017,0.803,-0.596,0.005,0.04,0.013,0.151,-0.014,-0.011,0.028,-0.932,1.209
2024-10-01 09:46:14.410,27866.573,0.015,0.799,-0.601,-0.002,-0.001,0.002,0.041,-0.003,-0.001,0.025,-0.926,1.206
2024-10-01 09:46:14.530,27866.693,0.014,0.798,-0.603,-0.002,-0.002,-0.0,0.002,0.005,0.0,0.024,-0.924,1.205
2024-10-01 09:46:14.650,27866.813,0.013,0.797,-0.604,-0.001,-0.005,0.0,0.016,-0.002,-0.014,0.022,-0.922,1.203
2024-10-01 09:46:14.770,27866.932,0.012,0.795,-0.607,-0.0,-0.017,0.006,-0.015,-0.009,0.004,0.019,-0.919,1.201
2024-10-01 09:46:14.890,27867.052,0.012,0.798,-0.603,0.004,-0.008,-0.0,-0.024,-0.056,0.038,0.019,-0.923,1.206
2024-10-01 09:46:15.009,27867.172,0.011,0.794,-0.607,-0.0,-0.057,-0.008,-0.107,-0.011,0.009,0.018,-0.918,1.209
2024-10-01 09:46:15.129,27867.292,0.018,0.799,-0.601,-0.023,-0.007,-0.026,-0.367,0.154,0.14,0.031,-0.926,1.217
2024-10-01 09:46:15.249,27867.412,0.056,0.807,-0.589,-0.027,0.013,0.005,0.244,-0.279,0.021,0.095,-0.938,1.277
2024-10-01 09:46:15.369,27867.531,0.046,0.803,-0.594,0.043,0.007,-0.009,0.065,-0.096,0.016,0.078,-0.933,1.272
2024-10-01 09:46:15.489,27867.651,0.033,0.803,-0.595,-0.001,-0.021,-0.001,-0.063,-0.049,-0.195,0.055,-0.932,1.252
2024-10-01 09:46:15.608,27867.771,0.017,0.794,-0.607,0.003,-0.012,0.007,0.176,-0.089,-0.084,0.028,-0.918,1.226
2024-10-01 09:46:15.728,27867.891,0.003,0.786,-0.618,-0.012,0.003,-0.007,0.05,-0.006,-0.026,0.006,-0.905,1.209
2024-10-01 09:46:15.848,27868.011,0.001,0.784,-0.621,-0.001,-0.002,0.004,0.048,-0.018,-0.015,0.002,-0.9,1.207
2024-10-01 09:46:15.968,27868.13,-0.0,0.783,-0.622,-0.0,-0.006,0.001,0.002,-0.015,-0.01,-0.0,-0.9,1.205
2024-10-01 09:46:16.088,27868.25,-0.002,0.783,-0.622,0.0,-0.004,-0.001,-0.016,-0.001,-0.017,-0.003,-0.899,1.203
2024-10-01 09:46:16.208,27868.37,-0.006,0.779,-0.627,-0.002,0.003,0.002,0.103,-0.045,-0.047,-0.01,-0.893,1.199
2024-10-01 09:46:16.327,27868.49,-0.007,0.775,-0.632,0.0,-0.013,0.005,0.019,-0.003,0.012,-0.011,-0.886,1.199
2024-10-01 09:46:16.448,27868.61,-0.004,0.776,-0.631,-0.001,-0.033,0.003,-0.099,0.041,0.057,-0.007,-0.888,1.202
2024-10-01 09:46:16.567,27868.729,-0.006,0.775,-0.632,-0.002,-0.01,0.001,0.033,-0.044,-0.023,-0.01,-0.887,1.202
2024-10-01 09:46:16.687,27868.849,-0.009,0.776,-0.631,-0.004,-0.01,-0.001,-0.013,0.001,-0.003,-0.014,-0.888,1.2
2024-10-01 09:46:16.806,27868.969,-0.007,0.775,-0.631,-0.006,-0.023,-0.003,-0.065,0.064,0.003,-0.011,-0.887,1.2
2024-10-01 09:46:16.926,27869.089,-0.005,0.782,-0.624,-0.002,0.016,0.005,0.057,0.011,-0.006,-0.009,-0.897,1.199
2024-10-01 09:46:17.046,27869.209,-0.006,0.783,-0.622,-0.001,-0.0,0.001,-0.008,-0.009,-0.005,-0.01,-0.899,1.199
2024-10-01 09:46:17.166,27869.328,-0.007,0.785,-0.62,-0.003,0.002,0.003,0.005,-0.0,0.001,-0.012,-0.902,1.198
2024-10-01 09:46:17.286,27869.448,-0.007,0.785,-0.619,-0.002,-0.008,-0.001,-0.027,-0.005,0.006,-0.012,-0.903,1.198
2024-10-01 09:46:17.405,27869.568,-0.007,0.786,-0.619,-0.002,-0.001,0.002,0.017,-0.073,0.05,-0.011,-0.904,1.205
2024-10-01 09:46:17.525,27869.688,-0.006,0.783,-0.622,-0.001,0.005,0.008,0.016,0.027,0.003,-0.01,-0.899,1.208
2024-10-01 09:46:17.645,27869.808,-0.001,0.792,-0.611,0.009,0.021,0.006,0.025,-0.013,-0.032,-0.002,-0.913,1.21
2024-10-01 09:46:17.765,27869.927,-0.005,0.79,-0.613,-0.0,-0.0,-0.002,-0.02,-0.008,-0.023,-0.008,-0.91,1.204
2024-10-01 09:46:17.885,27870.047,-0.007,0.788,-0.616,-0.004,-0.007,-0.003,0.004,0.001,0.001,-0.011,-0.907,1.202
2024-10-01 09:46:18.004,27870.167,-0.007,0.789,-0.615,-0.004,-0.003,0.001,-0.032,-0.01,-0.002,-0.011,-0.909,1.202
2024-10-01 09:46:18.123,27870.287,-0.007,0.789,-0.614,-0.003,-0.007,0.002,0.001,0.0,-0.003,-0.012,-0.909,1.202
2024-10-01 09:46:18.244,27870.407,-0.008,0.789,-0.614,-0.002,-0.003,0.003,0.004,-0.004,-0.006,-0.012,-0.909,1.201
2024-10-01 09:46:18.364,27870.526,-0.008,0.791,-0.612,-0.004,-0.002,-0.0,-0.059,-0.006,0.035,-0.012,-0.912,1.202
2024-10-01 09:46:18.484,27870.646,-0.003,0.793,-0.61,0.001,-0.014,0.004,0.045,0.013,-0.008,-0.006,-0.915,1.211
2024-10-01 09:46:18.603,27870.766,-0.004,0.791,-0.611,-0.005,-0.005,0.006,0.024,0.033,-0.015,-0.007,-0.913,1.208
2024-10-01 09:46:18.723,27870.886,-0.003,0.792,-0.61,0.002,0.038,0.009,0.144,-0.017,-0.027,-0.005,-0.914,1.206
2024-10-01 09:46:18.843,27871.006,-0.003,0.791,-0.612,0.002,-0.003,0.007,0.022,-0.01,-0.01,-0.005,-0.912,1.205
2024-10-01 09:46:18.963,27871.125,-0.004,0.79,-0.613,0.002,-0.0,0.001,0.002,-0.016,-0.022,-0.006,-0.911,1.204
2024-10-01 09:46:19.083,27871.245,-0.007,0.789,-0.615,-0.005,-0.002,0.001,0.022,-0.01,-0.002,-0.011,-0.909,1.199
2024-10-01 09:46:19.202,27871.365,-0.005,0.789,-0.614,-0.003,-0.013,0.0,-0.058,0.039,0.023,-0.008,-0.91,1.202
2024-10-01 09:46:19.322,27871.485,-0.004,0.79,-0.613,-0.007,-0.031,0.004,-0.005,0.031,0.012,-0.006,-0.911,1.203
2024-10-01 09:46:19.442,27871.605,-0.002,0.792,-0.611,-0.0,0.031,0.009,0.104,-0.011,-0.024,-0.003,-0.913,1.203
2024-10-01 09:46:19.562,27871.724,-0.003,0.791,-0.612,-0.001,0.002,0.004,0.02,-0.003,-0.004,-0.006,-0.912,1.201
2024-10-01 09:46:19.681,27871.844,-0.005,0.79,-0.613,-0.001,-0.001,-0.0,0.02,-0.006,-0.007,-0.008,-0.911,1.199
2024-10-01 09:46:19.801,27871.964,-0.006,0.788,-0.616,0.002,-0.026,0.005,-0.028,-0.022,0.019,-0.01,-0.907,1.198
2024-10-01 09:46:19.921,27872.084,-0.004,0.789,-0.614,-0.002,-0.021,-0.0,-0.042,0.075,0.023,-0.006,-0.909,1.201
2024-10-01 09:46:20.041,27872.204,-0.001,0.791,-0.611,0.004,-0.007,0.005,-0.001,-0.051,-0.043,-0.001,-0.913,1.199
2024-10-01 09:46:20.161,27872.323,-0.006,0.789,-0.615,0.004,-0.001,0.007,0.101,-0.056,-0.03,-0.01,-0.909,1.194
2024-10-01 09:46:20.281,27872.443,-0.005,0.787,-0.617,-0.009,-0.019,0.006,0.003,0.095,0.012,-0.009,-0.906,1.194
2024-10-01 09:46:20.400,27872.563,-0.004,0.794,-0.608,0.003,0.029,0.013,0.044,-0.007,-0.014,-0.006,-0.917,1.191
2024-10-01 09:46:20.520,27872.683,-0.004,0.798,-0.603,-0.005,-0.014,-0.005,-0.094,-0.028,0.058,-0.007,-0.924,1.192
2024-10-01 09:46:20.640,27872.803,-0.003,0.801,-0.598,-0.002,-0.04,-0.001,0.006,0.023,0.008,-0.006,-0.93,1.197
2024-10-01 09:46:20.760,27872.922,-0.002,0.801,-0.598,0.0,-0.028,0.001,-0.072,0.039,-0.0,-0.004,-0.93,1.197
2024-10-01 09:46:20.880,27873.042,-0.004,0.799,-0.601,0.0,-0.008,-0.001,0.017,-0.019,-0.017,-0.006,-0.926,1.193
2024-10-01 09:46:20.999,27873.162,-0.006,0.798,-0.602,-0.001,-0.006,0.002,0.016,-0.004,-0.015,-0.009,-0.925,1.191
2024-10-01 09:46:21.119,27873.282,-0.007,0.798,-0.603,0.001,-0.014,0.003,-0.031,-0.008,-0.001,-0.012,-0.924,1.188
2024-10-01 09:46:21.239,27873.402,-0.007,0.804,-0.594,0.001,-0.013,-0.0,-0.029,-0.082,0.073,-0.012,-0.935,1.194
2024-10-01 09:46:21.359,27873.521,-0.007,0.8,-0.599,0.001,0.014,0.003,0.057,0.006,-0.009,-0.011,-0.928,1.199
2024-10-01 09:46:21.478,27873.641,-0.006,0.797,-0.603,-0.003,-0.008,0.002,0.015,0.01,0.007,-0.01,-0.923,1.199
2024-10-01 09:46:21.598,27873.761,-0.004,0.799,-0.601,-0.002,-0.027,0.0,-0.132,0.041,0.036,-0.006,-0.926,1.201
2024-10-01 09:46:21.718,27873.881,0.013,0.816,-0.578,-0.001,0.019,0.004,-0.081,0.111,0.092,0.022,-0.955,1.221
2024-10-01 09:46:21.838,27874.001,0.026,0.81,-0.586,0.005,-0.005,0.002,0.094,0.015,0.033,0.045,-0.944,1.239
2024-10-01 09:46:21.958,27874.12,0.029,0.804,-0.594,0.001,-0.01,0.008,0.122,-0.015,0.033,0.048,-0.933,1.243
2024-10-01 09:46:22.078,27874.24,0.031,0.793,-0.609,0.001,-0.004,0.01,0.182,-0.055,0.029,0.05,-0.915,1.25
2024-10-01 09:46:22.197,27874.36,0.02,0.78,-0.625,0.002,-0.015,-0.004,0.039,-0.097,-0.099,0.033,-0.895,1.241
2024-10-01 09:46:22.317,27874.48,0.01,0.782,-0.624,-0.003,0.003,0.004,0.05,-0.015,-0.017,0.017,-0.897,1.229
2024-10-01 09:46:22.437,27874.6,0.008,0.781,-0.625,0.001,-0.0,-0.0,0.014,-0.028,-0.008,0.014,-0.896,1.227
2024-10-01 09:46:22.557,27874.719,0.005,0.779,-0.627,-0.001,0.006,-0.004,-0.013,-0.023,-0.034,0.008,-0.894,1.223
2024-10-01 09:46:22.676,27874.839,0.001,0.774,-0.633,-0.012,0.007,-0.006,-0.018,0.0,0.004,0.001,-0.885,1.217
2024-10-01 09:46:22.796,27874.959,0.002,0.777,-0.63,-0.001,-0.014,0.008,-0.034,0.028,0.007,0.003,-0.89,1.218
2024-10-01 09:46:22.916,27875.079,0.004,0.779,-0.627,0.004,0.017,0.001,0.072,-0.043,-0.008,0.006,-0.893,1.221
2024-10-01 09:46:23.036,27875.199,0.0,0.776,-0.631,-0.003,-0.004,-0.001,0.027,-0.006,-0.007,0.0,-0.888,1.219
2024-10-01 09:46:23.156,27875.318,-0.001,0.772,-0.635,-0.004,-0.003,-0.004,0.028,0.001,-0.001,-0.001,-0.883,1.218
2024-10-01 09:46:23.276,27875.438,0.003,0.777,-0.63,0.003,-0.048,0.003,-0.186,0.03,-0.008,0.005,-0.889,1.218
2024-10-01 09:46:23.395,27875.558,0.002,0.779,-0.627,0.003,0.0,-0.001,-0.021,-0.002,-0.006,0.003,-0.893,1.217
2024-10-01 09:46:23.515,27875.678,0.001,0.779,-0.627,-0.0,-0.005,-0.001,-0.036,-0.011,-0.01,0.001,-0.893,1.216
2024-10-01 09:46:23.635,27875.798,-0.0,0.781,-0.624,-0.004,-0.006,0.004,-0.014,-0.043,0.036,-0.001,-0.897,1.218
2024-10-01 09:46:23.754,27875.917,0.001,0.779,-0.627,-0.005,-0.052,0.001,0.036,0.046,0.003,0.001,-0.893,1.223
2024-10-01 09:46:23.874,27876.037,0.004,0.786,-0.619,0.001,-0.003,0.002,-0.072,0.032,0.002,0.006,-0.904,1.224
2024-10-01 09:46:23.995,27876.157,0.004,0.786,-0.619,0.001,-0.02,-0.003,-0.068,0.025,-0.009,0.007,-0.904,1.223
2024-10-01 09:46:24.114,27876.277,0.003,0.79,-0.612,-0.001,0.012,0.003,0.019,-0.021,-0.02,0.006,-0.912,1.221
2024-10-01 09:46:24.234,27876.397,0.002,0.791,-0.612,0.001,0.002,0.003,0.031,-0.007,-0.004,0.003,-0.913,1.219
2024-10-01 09:46:24.354,27876.516,0.0,0.79,-0.614,-0.001,-0.002,0.001,0.032,-0.009,-0.005,0.0,-0.91,1.218
2024-10-01 09:46:24.474,27876.636,-0.0,0.789,-0.615,-0.0,0.007,0.003,0.013,-0.009,-0.009,-0.0,-0.909,1.217
2024-10-01 09:46:24.593,27876.756,-0.002,0.786,-0.618,0.0,0.003,0.003,0.009,-0.009,-0.01,-0.003,-0.905,1.215
2024-10-01 09:46:24.713,27876.876,-0.001,0.793,-0.609,0.003,-0.022,-0.006,-0.21,-0.058,0.061,-0.002,-0.916,1.22
2024-10-01 09:46:24.833,27876.996,-0.0,0.791,-0.611,-0.002,0.012,0.016,0.126,0.034,-0.016,-0.0,-0.913,1.221
2024-10-01 09:46:24.953,27877.115,0.002,0.791,-0.612,0.003,0.026,0.011,0.095,0.01,-0.014,0.003,-0.913,1.22
2024-10-01 09:46:25.072,27877.235,0.001,0.789,-0.614,-0.001,-0.002,0.001,0.005,-0.002,-0.004,0.001,-0.909,1.218
2024-10-01 09:46:25.192,27877.355,-0.001,0.787,-0.617,0.001,-0.003,-0.002,0.025,-0.018,-0.015,-0.002,-0.906,1.216
2024-10-01 09:46:25.312,27877.475,-0.002,0.786,-0.618,0.001,-0.001,-0.001,0.001,0.002,0.004,-0.004,-0.905,1.215
2024-10-01 09:46:25.432,27877.595,0.001,0.79,-0.614,-0.004,-0.013,0.001,-0.108,0.022,0.024,0.002,-0.91,1.218
2024-10-01 09:46:25.552,27877.714,0.001,0.789,-0.614,-0.0,-0.01,-0.001,0.001,0.003,-0.005,0.002,-0.909,1.218
2024-10-01 09:46:25.671,27877.834,0.002,0.786,-0.618,-0.003,-0.022,0.012,0.032,0.024,-0.013,0.004,-0.905,1.218
2024-10-01 09:46:25.792,27877.954,0.005,0.79,-0.614,0.004,0.018,0.01,0.113,-0.017,-0.021,0.007,-0.91,1.22
2024-10-01 09:46:25.912,27878.074,0.003,0.79,-0.613,-0.001,0.01,0.005,0.049,-0.002,-0.008,0.006,-0.911,1.218
2024-10-01 09:46:26.031,27878.194,0.002,0.79,-0.613,-0.003,-0.002,0.001,0.008,0.007,0.004,0.004,-0.911,1.216
2024-10-01 09:46:26.151,27878.313,0.002,0.789,-0.614,-0.001,-0.006,-0.0,-0.006,-0.002,-0.001,0.004,-0.91,1.216
2024-10-01 09:46:26.270,27878.433,0.003,0.789,-0.614,-0.001,-0.007,-0.002,-0.005,0.01,0.007,0.005,-0.91,1.217
2024-10-01 09:46:26.390,27878.553,0.004,0.79,-0.613,-0.002,0.003,0.001,-0.01,0.007,0.002,0.006,-0.911,1.217
2024-10-01 09:46:26.510,27878.673,0.004,0.791,-0.612,-0.001,0.001,0.003,0.006,0.016,0.007,0.007,-0.912,1.217
2024-10-01 09:46:26.630,27878.793,0.005,0.791,-0.611,-0.001,-0.004,0.003,-0.013,-0.007,-0.008,0.007,-0.913,1.217
2024-10-01 09:46:26.750,27878.912,0.003,0.791,-0.612,-0.001,-0.001,0.001,0.032,-0.018,-0.006,0.005,-0.912,1.215
2024-10-01 09:46:26.869,27879.032,0.001,0.79,-0.614,-0.001,-0.005,-0.001,-0.02,-0.005,-0.008,0.002,-0.91,1.214
2024-10-01 09:46:26.989,27879.152,0.002,0.793,-0.609,-0.001,-0.016,-0.003,-0.087,0.022,-0.005,0.004,-0.916,1.214
2024-10-01 09:46:27.109,27879.272,0.002,0.795,-0.607,-0.002,-0.011,-0.002,-0.062,0.007,-0.012,0.003,-0.919,1.213
2024-10-01 09:46:27.228,27879.392,0.0,0.796,-0.606,-0.002,-0.015,0.001,-0.022,-0.014,-0.004,0.0,-0.92,1.211
2024-10-01 09:46:27.348,27879.511,-0.0,0.796,-0.605,-0.003,-0.008,0.002,-0.018,-0.001,0.001,-0.001,-0.921,1.211
2024-10-01 09:46:27.468,27879.631,-0.001,0.797,-0.604,0.0,-0.008,-0.002,-0.019,-0.012,-0.003,-0.002,-0.922,1.21
2024-10-01 09:46:27.588,27879.751,-0.003,0.797,-0.604,0.001,0.003,-0.002,0.019,-0.03,-0.01,-0.005,-0.922,1.209
2024-10-01 09:46:27.708,27879.871,-0.005,0.793,-0.609,-0.0,0.009,0.01,0.11,-0.001,0.003,-0.007,-0.916,1.208
2024-10-01 09:46:27.828,27879.991,-0.002,0.794,-0.608,-0.009,0.028,0.015,0.124,0.079,0.018,-0.003,-0.917,1.211
2024-10-01 09:46:27.948,27880.11,0.003,0.797,-0.604,0.009,0.028,0.018,0.193,-0.063,-0.032,0.004,-0.923,1.212
2024-10-01 09:46:28.068,27880.23,-0.002,0.789,-0.614,-0.021,0.027,-0.017,0.032,0.026,0.022,-0.004,-0.91,1.208
2024-10-01 09:46:28.187,27880.35,-0.0,0.797,-0.604,0.004,0.017,0.003,0.008,-0.024,-0.007,-0.0,-0.922,1.206
2024-10-01 09:46:28.307,27880.47,0.001,0.801,-0.598,-0.009,0.026,0.005,-0.001,0.011,0.042,0.002,-0.929,1.211
2024-10-01 09:46:28.427,27880.59,0.001,0.8,-0.6,0.005,0.0,0.004,0.001,0.019,0.015,0.002,-0.927,1.21
2024-10-01 09:46:28.547,27880.709,0.002,0.8,-0.6,-0.0,-0.013,0.0,0.005,0.002,-0.003,0.004,-0.928,1.21
2024-10-01 09:46:28.667,27880.829,0.001,0.8,-0.6,-0.001,-0.008,0.001,0.016,-0.006,-0.007,0.001,-0.927,1.208
2024-10-01 09:46:28.786,27880.949,-0.0,0.798,-0.602,-0.003,-0.001,0.001,0.037,-0.001,-0.01,-0.001,-0.925,1.206
2024-10-01 09:46:28.906,27881.069,-0.001,0.798,-0.602,0.002,-0.005,0.0,-0.024,-0.036,0.017,-0.002,-0.925,1.206
2024-10-01 09:46:29.026,27881.189,0.001,0.795,-0.606,-0.004,0.016,0.016,0.168,0.043,0.008,0.001,-0.919,1.215
2024-10-01 09:46:29.146,27881.308,0.013,0.8,-0.6,-0.01,0.011,-0.005,-0.142,0.15,0.206,0.022,-0.928,1.23
2024-10-01 09:46:29.266,27881.428,0.045,0.8,-0.598,-0.084,-0.037,0.071,-0.035,0.187,0.071,0.075,-0.928,1.279
2024-10-01 09:46:29.385,27881.548,0.039,0.804,-0.594,0.011,-0.048,0.018,0.433,-0.276,0.026,0.066,-0.934,1.296
2024-10-01 09:46:29.505,27881.668,0.023,0.799,-0.601,-0.007,0.003,-0.003,-0.198,0.026,-0.098,0.038,-0.926,1.272
2024-10-01 09:46:29.625,27881.788,0.016,0.794,-0.607,-0.007,-0.041,-0.003,-0.099,-0.006,-0.028,0.027,-0.918,1.262
2024-10-01 09:46:29.745,27881.907,0.013,0.792,-0.61,-0.001,-0.002,-0.002,0.048,-0.016,-0.007,0.022,-0.915,1.257
2024-10-01 09:46:29.864,27882.027,0.012,0.791,-0.612,0.002,-0.017,0.002,0.014,-0.017,-0.02,0.02,-0.912,1.256
2024-10-01 09:46:29.984,27882.147,0.006,0.788,-0.616,-0.002,0.009,0.003,0.027,0.0,-0.004,0.009,-0.907,1.249
2024-10-01 09:46:30.104,27882.267,0.009,0.792,-0.61,-0.0,-0.037,0.017,-0.031,0.009,0.036,0.015,-0.914,1.253
2024-10-01 09:46:30.224,27882.387,0.006,0.791,-0.612,-0.005,0.011,0.005,0.073,-0.037,-0.024,0.011,-0.912,1.252
2024-10-01 09:46:30.343,27882.506,0.004,0.789,-0.615,-0.003,-0.012,-0.002,0.011,0.014,0.001,0.007,-0.909,1.25
2024-10-01 09:46:30.463,27882.626,0.008,0.797,-0.604,0.004,-0.002,-0.001,-0.089,-0.007,0.002,0.014,-0.923,1.251
2024-10-01 09:46:30.583,27882.746,0.006,0.8,-0.6,0.001,0.0,0.003,-0.093,-0.066,0.011,0.009,-0.928,1.249
2024-10-01 09:46:30.702,27882.866,0.004,0.797,-0.605,-0.003,-0.027,-0.006,-0.071,-0.014,0.016,0.006,-0.922,1.255
2024-10-01 09:46:30.822,27882.986,0.006,0.797,-0.604,-0.004,-0.034,-0.009,-0.105,0.019,0.004,0.01,-0.922,1.256
2024-10-01 09:46:30.942,27883.105,0.009,0.802,-0.597,0.001,0.004,0.006,0.085,-0.007,-0.02,0.015,-0.931,1.257
2024-10-01 09:46:31.063,27883.225,0.007,0.8,-0.6,-0.0,-0.003,0.005,0.057,-0.012,-0.025,0.011,-0.927,1.252
2024-10-01 09:46:31.183,27883.345,0.003,0.801,-0.599,0.001,0.0,-0.007,-0.141,-0.048,0.019,0.006,-0.928,1.25
2024-10-01 09:46:31.302,27883.465,0.005,0.806,-0.591,-0.005,0.001,0.002,0.012,0.037,-0.013,0.008,-0.938,1.257
2024-10-01 09:46:31.422,27883.585,0.008,0.806,-0.592,-0.011,0.014,-0.013,-0.135,0.088,-0.003,0.013,-0.937,1.255
2024-10-01 09:46:31.541,27883.704,0.006,0.804,-0.594,-0.003,-0.012,-0.002,-0.01,-0.008,-0.017,0.011,-0.934,1.25
2024-10-01 09:46:31.661,27883.824,0.006,0.804,-0.594,-0.0,-0.004,-0.002,-0.013,-0.002,-0.004,0.009,-0.935,1.249
2024-10-01 09:46:31.781,27883.944,0.005,0.804,-0.594,-0.0,-0.003,-0.002,0.013,-0.003,-0.004,0.009,-0.934,1.249
2024-10-01 09:46:31.901,27884.064,0.003,0.803,-0.596,0.0,0.001,0.004,0.05,-0.028,-0.023,0.005,-0.932,1.246
2024-10-01 09:46:32.021,27884.184,0.003,0.803,-0.595,-0.004,-0.005,0.001,-0.046,0.04,0.019,0.005,-0.933,1.246
2024-10-01 09:46:32.140,27884.303,0.005,0.806,-0.592,-0.002,0.011,0.004,0.059,0.019,-0.013,0.008,-0.937,1.247
2024-10-01 09:46:32.260,27884.423,0.005,0.805,-0.593,0.004,0.008,0.006,0.11,-0.027,-0.032,0.009,-0.936,1.245
2024-10-01 09:46:32.380,27884.543,0.002,0.802,-0.598,-0.011,0.02,-0.012,0.037,-0.004,0.016,0.004,-0.93,1.242
2024-10-01 09:46:32.500,27884.663,0.006,0.8,-0.599,-0.007,0.016,-0.006,0.002,0.1,0.049,0.01,-0.928,1.247
2024-10-01 09:46:32.620,27884.783,0.012,0.805,-0.593,0.005,0.002,0.007,0.097,-0.051,-0.032,0.021,-0.936,1.251
2024-10-01 09:46:32.739,27884.902,0.006,0.8,-0.599,0.001,0.001,0.008,0.15,-0.039,-0.026,0.01,-0.928,1.244
2024-10-01 09:46:32.859,27885.022,0.007,0.795,-0.606,-0.003,-0.007,0.003,-0.039,0.095,-0.007,0.011,-0.919,1.243
2024-10-01 09:46:32.979,27885.142,0.008,0.802,-0.597,-0.002,0.004,0.002,-0.036,-0.014,-0.019,0.014,-0.931,1.242
2024-10-01 09:46:33.099,27885.262,0.008,0.806,-0.592,-0.003,-0.031,-0.001,-0.07,-0.029,0.056,0.013,-0.938,1.246
2024-10-01 09:46:33.219,27885.382,0.008,0.807,-0.59,-0.006,0.001,0.011,0.095,0.018,-0.001,0.014,-0.94,1.247
2024-10-01 09:46:33.339,27885.501,0.011,0.806,-0.591,0.006,0.007,-0.004,-0.037,-0.017,-0.038,0.019,-0.938,1.247
2024-10-01 09:46:33.459,27885.621,0.006,0.803,-0.595,-0.001,-0.018,0.001,-0.001,-0.024,-0.028,0.01,-0.933,1.24
2024-10-01 09:46:33.578,27885.741,0.005,0.803,-0.596,0.001,0.001,0.003,-0.025,-0.06,0.02,0.009,-0.932,1.241
2024-10-01 09:46:33.698,27885.861,0.006,0.802,-0.598,0.001,0.035,0.009,0.127,-0.001,0.005,0.009,-0.93,1.249
2024-10-01 09:46:33.818,27885.981,0.009,0.8,-0.6,-0.004,-0.039,-0.003,-0.114,0.087,0.079,0.015,-0.927,1.251
2024-10-01 09:46:33.938,27886.1,0.05,0.81,-0.584,-0.022,0.041,0.013,0.157,-0.158,0.103,0.085,-0.945,1.311
2024-10-01 09:46:34.057,27886.22,0.041,0.812,-0.583,0.036,-0.025,0.01,0.75,-0.32,0.089,0.071,-0.947,1.327
2024-10-01 09:46:34.177,27886.34,0.024,0.805,-0.593,-0.006,-0.035,0.005,-0.295,0.019,-0.088,0.04,-0.935,1.301
2024-10-01 09:46:34.297,27886.46,0.014,0.795,-0.607,-0.002,-0.043,-0.002,0.013,-0.029,-0.033,0.023,-0.919,1.287
2024-10-01 09:46:34.417,27886.58,0.01,0.794,-0.607,0.001,-0.002,0.004,0.06,-0.023,-0.022,0.017,-0.918,1.283
2024-10-01 09:46:34.537,27886.699,0.01,0.796,-0.606,-0.0,0.001,0.0,-0.003,-0.011,-0.017,0.016,-0.92,1.282
2024-10-01 09:46:34.656,27886.819,0.008,0.796,-0.606,-0.0,-0.005,-0.0,-0.014,-0.004,-0.011,0.013,-0.92,1.279
2024-10-01 09:46:34.776,27886.939,0.006,0.797,-0.604,-0.001,-0.003,0.0,-0.008,-0.005,-0.009,0.011,-0.922,1.277
2024-10-01 09:46:34.896,27887.059,0.005,0.797,-0.604,0.001,-0.006,0.002,0.013,-0.007,-0.01,0.009,-0.923,1.276
2024-10-01 09:46:35.015,27887.179,0.005,0.798,-0.602,0.002,-0.006,0.001,-0.022,-0.005,-0.011,0.008,-0.924,1.275
2024-10-01 09:46:35.136,27887.298,0.005,0.799,-0.601,-0.003,-0.003,0.003,0.007,-0.004,0.0,0.009,-0.925,1.276
2024-10-01 09:46:35.256,27887.418,0.005,0.799,-0.602,-0.001,-0.003,0.001,0.01,-0.003,-0.005,0.008,-0.925,1.275
2024-10-01 09:46:35.376,27887.538,0.004,0.799,-0.602,-0.0,-0.0,0.001,0.017,-0.004,0.002,0.007,-0.925,1.274
2024-10-01 09:46:35.495,27887.658,0.004,0.798,-0.603,-0.001,-0.001,0.003,0.049,-0.008,-0.004,0.006,-0.923,1.273
2024-10-01 09:46:35.615,27887.777,0.001,0.796,-0.605,0.004,-0.013,0.006,-0.01,-0.019,-0.01,0.001,-0.921,1.27
2024-10-01 09:46:35.734,27887.897,-0.0,0.794,-0.607,-0.0,-0.012,0.001,-0.0,-0.005,-0.006,-0.0,-0.918,1.269
2024-10-01 09:46:35.854,27888.017,0.002,0.797,-0.604,0.001,-0.022,0.0,-0.045,0.012,0.004,0.004,-0.922,1.272
2024-10-01 09:46:35.974,27888.137,0.003,0.797,-0.604,0.003,-0.013,-0.005,-0.075,0.032,0.041,0.005,-0.923,1.272
2024-10-01 09:46:36.094,27888.257,0.003,0.797,-0.604,-0.002,-0.011,0.001,-0.003,-0.023,0.004,0.005,-0.922,1.274
2024-10-01 09:46:36.214,27888.376,0.003,0.797,-0.604,-0.002,-0.0,0.001,0.031,-0.006,-0.003,0.005,-0.923,1.275
2024-10-01 09:46:36.333,27888.496,0.002,0.796,-0.605,0.002,-0.001,0.0,-0.003,-0.015,-0.014,0.004,-0.921,1.273
2024-10-01 09:46:36.454,27888.616,0.001,0.796,-0.606,0.003,0.0,0.004,0.04,-0.007,-0.01,0.002,-0.92,1.272
2024-10-01 09:46:36.572,27888.736,0.0,0.793,-0.609,-0.0,0.003,0.003,0.052,-0.012,-0.0,0.0,-0.916,1.271
2024-10-01 09:46:36.693,27888.856,0.0,0.789,-0.615,-0.0,-0.005,-0.001,0.026,0.009,-0.007,0.0,-0.909,1.271
2024-10-01 09:46:36.813,27888.975,0.003,0.791,-0.611,-0.004,-0.008,-0.009,-0.153,0.06,0.013,0.006,-0.913,1.272
2024-10-01 09:46:36.933,27889.095,0.003,0.793,-0.609,0.0,-0.012,-0.002,-0.037,0.014,-0.016,0.006,-0.915,1.27
2024-10-01 09:46:37.052,27889.215,0.002,0.794,-0.608,0.0,-0.001,0.001,0.0,-0.017,-0.011,0.003,-0.917,1.268
2024-10-01 09:46:37.172,27889.335,0.001,0.795,-0.607,-0.0,-0.001,-0.001,-0.03,-0.003,-0.004,0.001,-0.918,1.267
2024-10-01 09:46:37.292,27889.455,-0.0,0.795,-0.606,0.0,-0.019,-0.004,-0.069,-0.022,0.006,-0.0,-0.92,1.268
2024-10-01 09:46:37.412,27889.574,-0.001,0.795,-0.606,0.006,0.013,0.002,0.098,-0.096,0.035,-0.002,-0.92,1.275
2024-10-01 09:46:37.532,27889.694,0.0,0.796,-0.606,0.002,0.017,0.004,-0.147,0.043,0.011,0.0,-0.92,1.277
2024-10-01 09:46:37.651,27889.814,0.005,0.801,-0.598,0.003,0.021,0.006,0.078,-0.005,-0.04,0.008,-0.93,1.277
2024-10-01 09:46:37.771,27889.934,0.002,0.797,-0.604,-0.003,-0.012,0.001,0.031,-0.006,0.001,0.003,-0.922,1.273
2024-10-01 09:46:37.891,27890.054,0.002,0.797,-0.604,-0.001,0.003,-0.0,-0.026,0.003,-0.007,0.004,-0.922,1.273
2024-10-01 09:46:38.010,27890.173,-0.001,0.794,-0.608,-0.008,0.009,-0.015,0.014,-0.002,-0.001,-0.002,-0.918,1.269
2024-10-01 09:46:38.131,27890.293,-0.001,0.8,-0.601,-0.0,-0.016,0.002,0.007,-0.021,0.027,-0.002,-0.926,1.274
2024-10-01 09:46:38.251,27890.413,0.001,0.799,-0.601,-0.003,-0.016,-0.003,-0.04,0.076,0.013,0.001,-0.926,1.273
2024-10-01 09:46:38.370,27890.533,0.001,0.8,-0.6,-0.002,0.012,0.007,0.102,-0.01,-0.008,0.002,-0.927,1.27
2024-10-01 09:46:38.490,27890.653,-0.001,0.798,-0.603,0.001,-0.001,0.001,0.035,-0.019,-0.018,-0.001,-0.924,1.267
2024-10-01 09:46:38.609,27890.772,-0.002,0.797,-0.604,0.002,0.003,-0.002,-0.005,-0.008,-0.004,-0.004,-0.922,1.266
2024-10-01 09:46:38.729,27890.892,0.003,0.8,-0.6,-0.003,-0.052,0.0,-0.123,0.007,0.036,0.005,-0.927,1.272
2024-10-01 09:46:38.850,27891.012,0.002,0.799,-0.601,0.003,-0.007,0.006,0.023,0.021,-0.026,0.004,-0.926,1.27
2024-10-01 09:46:38.969,27891.132,0.004,0.803,-0.596,0.009,0.007,0.012,0.097,-0.046,-0.036,0.007,-0.933,1.268
2024-10-01 09:46:39.089,27891.252,0.0,0.801,-0.599,0.001,0.006,0.002,0.03,-0.043,-0.025,0.0,-0.929,1.264
2024-10-01 09:46:39.209,27891.371,-0.001,0.797,-0.603,0.001,0.006,-0.001,0.019,0.005,-0.006,-0.002,-0.923,1.263
2024-10-01 09:46:39.328,27891.491,0.004,0.798,-0.602,-0.0,-0.033,-0.004,-0.191,0.049,0.002,0.006,-0.925,1.264
2024-10-01 09:46:39.448,27891.611,0.002,0.801,-0.599,0.003,0.009,-0.002,-0.025,-0.012,-0.02,0.003,-0.928,1.261
2024-10-01 09:46:39.568,27891.731,0.001,0.802,-0.597,-0.004,0.006,0.001,0.013,-0.002,0.001,0.001,-0.931,1.26
2024-10-01 09:46:39.688,27891.851,0.0,0.802,-0.597,-0.001,-0.005,0.003,-0.001,-0.009,0.002,0.0,-0.931,1.259
2024-10-01 09:46:39.808,27891.97,-0.0,0.805,-0.593,-0.001,-0.009,0.007,-0.043,-0.044,0.067,-0.001,-0.936,1.263
2024-10-01 09:46:39.928,27892.09,-0.0,0.806,-0.592,0.002,-0.014,0.005,0.056,0.008,-0.01,-0.001,-0.938,1.265
2024-10-01 09:46:40.048,27892.21,0.002,0.805,-0.593,0.003,-0.0,-0.005,-0.055,0.024,0.015,0.003,-0.936,1.265
2024-10-01 09:46:40.166,27892.33,0.004,0.805,-0.593,0.0,-0.017,0.003,0.026,0.005,-0.014,0.007,-0.936,1.265
2024-10-01 09:46:40.287,27892.45,-0.0,0.801,-0.598,0.001,0.001,0.002,0.079,-0.028,-0.035,-0.0,-0.93,1.259
2024-10-01 09:46:40.407,27892.569,-0.001,0.806,-0.592,-0.0,-0.028,-0.002,-0.169,-0.095,0.058,-0.003,-0.937,1.262
2024-10-01 09:46:40.526,27892.689,0.003,0.802,-0.597,-0.009,-0.096,-0.011,-0.197,0.119,0.065,0.004,-0.931,1.271
2024-10-01 09:46:40.647,27892.809,0.047,0.806,-0.59,0.002,0.047,0.036,0.154,-0.327,-0.121,0.079,-0.938,1.34
2024-10-01 09:46:40.767,27892.929,0.033,0.782,-0.622,0.021,-0.013,-0.049,0.397,-0.124,-0.142,0.053,-0.899,1.346
2024-10-01 09:46:40.886,27893.049,0.024,0.798,-0.602,0.005,0.061,0.019,0.169,-0.019,-0.02,0.04,-0.924,1.33
2024-10-01 09:46:41.005,27893.168,0.021,0.797,-0.604,0.003,0.006,0.003,-0.001,-0.008,-0.023,0.034,-0.922,1.324
2024-10-01 09:46:41.125,27893.288,0.017,0.796,-0.606,-0.003,-0.003,0.001,-0.002,0.001,-0.019,0.029,-0.92,1.319
2024-10-01 09:46:41.246,27893.408,0.013,0.794,-0.608,-0.006,0.021,-0.005,0.012,0.005,-0.009,0.021,-0.917,1.312
2024-10-01 09:46:41.365,27893.528,0.014,0.797,-0.603,0.002,-0.028,0.004,-0.042,0.03,0.009,0.023,-0.923,1.315
2024-10-01 09:46:41.485,27893.648,0.016,0.8,-0.6,0.01,0.014,0.008,0.023,-0.044,-0.035,0.027,-0.927,1.317
2024-10-01 09:46:41.605,27893.767,0.012,0.797,-0.604,0.001,-0.01,-0.002,0.015,-0.024,-0.019,0.019,-0.922,1.313
2024-10-01 09:46:41.724,27893.887,0.009,0.794,-0.608,-0.004,-0.027,-0.0,-0.02,0.006,0.003,0.016,-0.917,1.311
2024-10-01 09:46:41.844,27894.007,0.011,0.79,-0.613,-0.009,-0.011,-0.01,-0.045,0.085,0.004,0.018,-0.911,1.311
2024-10-01 09:46:41.964,27894.127,0.013,0.796,-0.606,0.007,0.027,0.011,0.08,-0.021,-0.038,0.022,-0.92,1.311
2024-10-01 09:46:42.084,27894.247,0.01,0.797,-0.604,-0.002,-0.009,0.003,-0.005,-0.002,-0.025,0.017,-0.922,1.306
2024-10-01 09:46:42.204,27894.366,0.012,0.802,-0.598,0.007,0.021,0.005,0.046,-0.011,-0.022,0.02,-0.93,1.307
2024-10-01 09:46:42.324,27894.486,0.01,0.801,-0.599,0.002,0.004,0.002,0.023,-0.011,-0.016,0.017,-0.929,1.304
2024-10-01 09:46:42.443,27894.606,0.008,0.799,-0.601,-0.0,0.006,0.004,0.025,-0.021,-0.019,0.013,-0.926,1.301
2024-10-01 09:46:42.563,27894.726,0.006,0.798,-0.602,0.001,0.001,0.003,-0.021,-0.049,0.006,0.01,-0.924,1.302
2024-10-01 09:46:42.683,27894.846,0.003,0.797,-0.604,0.001,0.023,0.013,0.217,-0.082,0.035,0.005,-0.923,1.308
2024-10-01 09:46:42.803,27894.965,0.005,0.8,-0.6,-0.003,-0.007,0.007,0.023,0.071,0.015,0.009,-0.927,1.31
2024-10-01 09:46:42.922,27895.085,0.004,0.805,-0.594,0.002,0.025,0.019,0.134,-0.017,-0.01,0.007,-0.935,1.305
2024-10-01 09:46:43.043,27895.205,0.003,0.806,-0.591,-0.0,-0.001,-0.002,-0.087,-0.069,0.026,0.006,-0.938,1.307
2024-10-01 09:46:43.162,27895.325,0.005,0.808,-0.59,0.0,-0.054,0.0,0.04,0.041,-0.012,0.008,-0.94,1.311
2024-10-01 09:46:43.282,27895.445,0.008,0.81,-0.587,0.002,-0.008,0.001,-0.057,-0.004,-0.015,0.014,-0.943,1.31
2024-10-01 09:46:43.401,27895.564,0.004,0.804,-0.594,0.001,-0.004,-0.0,0.016,-0.019,-0.005,0.007,-0.934,1.304
2024-10-01 09:46:43.521,27895.684,0.006,0.808,-0.589,-0.002,-0.028,0.001,-0.077,0.004,0.029,0.009,-0.94,1.306
2024-10-01 09:46:43.641,27895.804,0.005,0.809,-0.588,-0.0,0.005,0.004,0.014,0.011,-0.006,0.009,-0.942,1.306
2024-10-01 09:46:43.761,27895.924,0.008,0.815,-0.58,0.001,-0.014,0.004,-0.061,0.015,-0.018,0.014,-0.952,1.306
2024-10-01 09:46:43.881,27896.044,0.006,0.812,-0.584,-0.002,0.004,-0.0,-0.028,0.002,-0.004,0.011,-0.947,1.301
2024-10-01 09:46:44.001,27896.163,0.004,0.807,-0.59,-0.003,0.006,-0.003,0.037,0.006,0.007,0.007,-0.94,1.298
2024-10-01 09:46:44.120,27896.283,0.008,0.807,-0.591,-0.006,-0.049,-0.01,-0.248,0.087,0.017,0.013,-0.939,1.299
2024-10-01 09:46:44.240,27896.403,0.007,0.812,-0.583,-0.002,-0.06,-0.003,-0.142,-0.03,-0.005,0.012,-0.948,1.297
2024-10-01 09:46:44.360,27896.523,0.007,0.816,-0.578,-0.0,0.021,-0.003,0.011,-0.038,0.009,0.012,-0.955,1.303
2024-10-01 09:46:44.480,27896.643,0.008,0.815,-0.579,-0.0,-0.026,0.003,0.085,0.051,-0.013,0.014,-0.953,1.302
2024-10-01 09:46:44.600,27896.762,0.009,0.814,-0.58,0.002,0.007,0.007,0.073,0.0,-0.024,0.015,-0.952,1.299
2024-10-01 09:46:44.719,27896.882,0.008,0.813,-0.582,0.001,0.001,0.005,0.035,-0.001,-0.013,0.013,-0.95,1.297
2024-10-01 09:46:44.839,27897.002,0.007,0.812,-0.583,-0.001,-0.009,-0.0,-0.002,0.001,0.003,0.012,-0.948,1.296
2024-10-01 09:46:44.959,27897.122,0.005,0.812,-0.584,-0.005,0.006,-0.009,-0.025,-0.03,0.009,0.008,-0.947,1.294
2024-10-01 09:46:45.079,27897.242,0.004,0.815,-0.579,0.001,-0.021,-0.004,-0.084,-0.093,0.088,0.007,-0.953,1.302
2024-10-01 09:46:45.198,27897.361,0.006,0.814,-0.581,-0.001,0.051,0.006,0.062,0.042,-0.011,0.01,-0.951,1.306
2024-10-01 09:46:45.318,27897.481,0.012,0.84,-0.543,-0.012,-0.062,-0.025,-0.851,0.237,-0.113,0.023,-0.997,1.305
2024-10-01 09:46:45.439,27897.601,0.025,0.86,-0.51,-0.006,0.022,0.024,0.164,0.29,-0.122,0.05,-1.035,1.295
2024-10-01 09:46:45.558,27897.721,0.031,0.854,-0.52,-0.02,-0.01,-0.0,0.02,0.345,-0.202,0.059,-1.023,1.258
2024-10-01 09:46:45.678,27897.841,0.026,0.853,-0.521,0.015,-0.003,0.014,0.064,0.214,-0.206,0.05,-1.022,1.211
2024-10-01 09:46:45.798,27897.96,0.017,0.85,-0.527,-0.003,0.01,0.034,0.178,0.054,-0.102,0.032,-1.016,1.169
2024-10-01 09:46:45.917,27898.08,0.014,0.834,-0.552,-0.002,-0.013,0.02,0.194,-0.083,-0.084,0.026,-0.986,1.158
2024-10-01 09:46:46.037,27898.2,-0.001,0.813,-0.583,0.002,-0.018,0.002,0.234,-0.074,-0.083,-0.002,-0.949,1.139
2024-10-01 09:46:46.157,27898.32,-0.007,0.807,-0.59,-0.003,0.004,-0.003,-0.065,0.01,-0.05,-0.012,-0.94,1.129
2024-10-01 09:46:46.277,27898.44,-0.009,0.805,-0.593,-0.0,-0.012,-0.007,-0.058,0.003,-0.014,-0.015,-0.936,1.124
2024-10-01 09:46:46.396,27898.559,-0.011,0.804,-0.594,0.004,0.008,0.002,0.051,-0.019,-0.04,-0.019,-0.935,1.119
2024-10-01 09:46:46.517,27898.679,-0.016,0.798,-0.603,0.009,-0.064,0.005,-0.037,-0.017,-0.008,-0.027,-0.923,1.114
2024-10-01 09:46:46.636,27898.799,-0.016,0.798,-0.602,-0.008,0.031,0.01,0.064,0.03,0.001,-0.026,-0.924,1.119
2024-10-01 09:46:46.756,27898.919,-0.012,0.806,-0.592,0.009,0.029,0.008,0.042,-0.033,-0.037,-0.02,-0.937,1.119
2024-10-01 09:46:46.876,27899.039,-0.015,0.804,-0.595,0.003,0.021,0.006,0.051,-0.029,0.004,-0.025,-0.934,1.117
2024-10-01 09:46:46.996,27899.158,-0.014,0.802,-0.597,-0.005,0.03,0.007,0.044,0.017,0.011,-0.023,-0.93,1.125
2024-10-01 09:46:47.115,27899.278,-0.01,0.808,-0.588,0.003,-0.011,0.004,-0.111,0.015,-0.028,-0.017,-0.942,1.126
2024-10-01 09:46:47.235,27899.398,-0.012,0.809,-0.588,0.002,-0.005,-0.005,-0.044,-0.008,-0.028,-0.021,-0.942,1.122
2024-10-01 09:46:47.355,27899.518,-0.016,0.808,-0.59,-0.005,-0.001,-0.007,-0.029,-0.009,-0.004,-0.026,-0.94,1.117
2024-10-01 09:46:47.474,27899.638,-0.014,0.81,-0.587,-0.003,-0.009,0.005,-0.046,-0.026,0.074,-0.023,-0.944,1.123
2024-10-01 09:46:47.594,27899.757,-0.012,0.807,-0.591,-0.004,0.005,0.018,0.182,0.062,0.014,-0.021,-0.938,1.125
2024-10-01 09:46:47.714,27899.877,-0.006,0.813,-0.582,0.011,0.021,0.01,0.101,-0.043,-0.031,-0.01,-0.949,1.132
2024-10-01 09:46:47.834,27899.997,-0.008,0.811,-0.585,-0.001,0.014,0.008,0.082,-0.028,-0.005,-0.015,-0.946,1.129
