Date,TimeStamp,GravityX,GravityY,GravityZ,UserAccelerationX,UserAccelerationY,UserAccelerationZ,RotationRateX,RotationRateY,RotationRateZ,AttitudeRoll,AttitudePitch,AttitudeYaw
2024-10-15 13:57:07.979,74579.418,0.002,-0.445,-0.895,-0.034,0.067,0.003,0.0,0.044,-0.038,0.002,0.462,1.53
2024-10-15 13:57:08.084,74579.538,0.001,-0.444,-0.896,0.002,-0.014,0.005,-0.042,0.005,-0.029,0.001,0.461,1.529
2024-10-15 13:57:08.204,74579.658,-0.0,-0.443,-0.896,0.002,0.015,0.008,-0.016,-0.023,0.01,-0.0,0.459,1.527
2024-10-15 13:57:08.324,74579.778,0.003,-0.438,-0.899,-0.013,-0.017,0.011,-0.078,0.051,-0.048,0.004,0.454,1.524
2024-10-15 13:57:08.443,74579.897,0.013,-0.431,-0.902,-0.037,-0.003,0.014,-0.056,0.076,-0.155,0.014,0.446,1.512
2024-10-15 13:57:08.563,74580.017,0.029,-0.417,-0.908,-0.066,-0.035,0.02,-0.168,0.117,-0.33,0.032,0.43,1.481
2024-10-15 13:57:08.684,74580.137,0.039,-0.401,-0.915,-0.01,-0.023,0.029,-0.205,-0.065,-0.298,0.042,0.412,1.441
2024-10-15 13:57:08.803,74580.257,0.046,-0.374,-0.926,-0.047,-0.025,0.015,-0.275,0.03,-0.362,0.05,0.383,1.402
2024-10-15 13:57:08.923,74580.377,0.059,-0.322,-0.945,-0.098,-0.11,0.088,-0.894,-0.027,-0.601,0.062,0.328,1.347
2024-10-15 13:57:09.043,74580.496,0.075,-0.149,-0.986,-0.196,-0.271,0.197,-3.301,0.203,-1.274,0.076,0.15,1.247
2024-10-15 13:57:09.163,74580.616,0.108,0.159,-0.981,0.108,0.212,-0.015,-1.797,0.333,-0.719,0.109,-0.16,1.139
2024-10-15 13:57:09.283,74580.736,0.134,0.353,-0.926,0.17,0.101,-0.149,-1.474,0.227,0.274,0.144,-0.36,1.151
2024-10-15 13:57:09.402,74580.856,0.155,0.493,-0.856,-0.045,-0.016,-0.01,-0.992,-0.302,0.282,0.179,-0.515,1.225
2024-10-15 13:57:09.522,74580.976,0.13,0.546,-0.827,-0.016,0.009,0.005,0.158,-0.235,-0.237,0.156,-0.578,1.24
2024-10-15 13:57:09.642,74581.095,0.12,0.634,-0.764,-0.012,-0.014,-0.053,-1.5,0.029,-0.041,0.155,-0.687,1.244
2024-10-15 13:57:09.761,74581.215,0.143,0.731,-0.667,0.02,0.099,0.129,-0.887,0.134,0.277,0.211,-0.82,1.292
2024-10-15 13:57:09.881,74581.335,0.155,0.73,-0.666,0.02,-0.04,-0.034,1.051,-0.19,0.089,0.229,-0.818,1.331
2024-10-15 13:57:10.001,74581.455,0.134,0.63,-0.765,0.058,-0.057,-0.098,0.832,-0.267,0.039,0.173,-0.682,1.291
2024-10-15 13:57:10.121,74581.575,0.131,0.6,-0.789,0.014,0.065,0.007,0.963,0.015,-0.044,0.165,-0.643,1.283
2024-10-15 13:57:10.241,74581.694,0.118,0.526,-0.842,0.028,-0.091,0.014,-0.229,-0.181,-0.058,0.139,-0.554,1.249
2024-10-15 13:57:10.361,74581.814,0.093,0.459,-0.884,-0.174,0.063,-0.122,0.612,0.15,-0.071,0.105,-0.477,1.223
2024-10-15 13:57:10.481,74581.934,0.082,0.432,-0.898,-0.037,-0.053,-0.085,-0.108,-0.13,0.01,0.091,-0.446,1.219
2024-10-15 13:57:10.601,74582.054,0.06,0.43,-0.901,-0.108,0.039,-0.054,-0.213,-0.398,0.219,0.067,-0.445,1.228
2024-10-15 13:57:10.720,74582.173,0.072,0.447,-0.892,0.433,-0.137,0.036,0.082,-0.303,-0.061,0.081,-0.463,1.256
2024-10-15 13:57:10.840,74582.293,0.021,0.445,-0.895,-0.337,0.222,-0.013,0.413,-0.391,0.027,0.024,-0.461,1.238
2024-10-15 13:57:10.960,74582.413,0.037,0.411,-0.911,0.173,0.018,0.038,0.816,0.409,0.031,0.04,-0.423,1.247
2024-10-15 13:57:11.080,74582.533,0.008,0.38,-0.925,-0.127,0.074,0.039,-0.086,-0.664,0.042,0.008,-0.39,1.232
2024-10-15 13:57:11.199,74582.653,0.019,0.35,-0.937,0.197,-0.065,-0.102,0.439,0.183,0.039,0.02,-0.357,1.248
2024-10-15 13:57:11.319,74582.772,-0.014,0.338,-0.941,-0.008,-0.006,0.035,-0.525,-0.782,-0.124,-0.015,-0.345,1.225
2024-10-15 13:57:11.439,74582.892,-0.004,0.351,-0.936,0.005,0.412,-0.03,0.524,0.36,0.258,-0.004,-0.359,1.244
2024-10-15 13:57:11.559,74583.012,-0.014,0.332,-0.943,0.023,0.078,0.129,0.012,-0.769,-0.161,-0.015,-0.338,1.241
2024-10-15 13:57:11.679,74583.132,-0.019,0.344,-0.939,0.218,0.086,-0.134,0.02,0.027,0.23,-0.02,-0.351,1.248
2024-10-15 13:57:11.798,74583.252,-0.012,0.32,-0.947,-0.016,0.498,0.036,1.103,0.092,-0.119,-0.012,-0.325,1.24
2024-10-15 13:57:11.918,74583.371,-0.008,0.332,-0.943,0.044,0.02,-0.108,-0.51,0.463,0.39,-0.009,-0.338,1.242
2024-10-15 13:57:12.038,74583.491,-0.018,0.322,-0.947,-0.043,0.285,0.097,0.551,-0.254,-0.182,-0.019,-0.327,1.235
2024-10-15 13:57:12.158,74583.611,-0.013,0.332,-0.943,0.043,0.026,-0.1,-0.187,0.278,0.129,-0.014,-0.338,1.231
2024-10-15 13:57:12.278,74583.731,0.0,0.376,-0.927,-0.093,0.23,-0.083,-0.922,0.509,0.011,0.0,-0.385,1.221
2024-10-15 13:57:12.397,74583.851,0.081,0.481,-0.873,-0.031,0.036,0.03,-0.413,0.609,-0.25,0.092,-0.502,1.206
2024-10-15 13:57:12.518,74583.97,0.135,0.509,-0.85,0.105,0.056,0.008,-0.191,0.428,-0.051,0.158,-0.534,1.193
2024-10-15 13:57:12.637,74584.09,0.148,0.51,-0.847,0.003,-0.131,-0.053,0.04,0.222,0.142,0.173,-0.536,1.192
2024-10-15 13:57:12.756,74584.21,0.138,0.445,-0.885,-0.048,0.041,-0.041,0.252,-0.572,0.276,0.154,-0.461,1.203
2024-10-15 13:57:12.877,74584.33,0.1,0.464,-0.88,0.083,-0.19,-0.028,0.013,-0.195,0.274,0.113,-0.483,1.264
2024-10-15 13:57:12.996,74584.45,0.072,0.469,-0.88,0.245,-0.248,0.019,-0.873,-0.774,-0.512,0.081,-0.488,1.233
2024-10-15 13:57:13.117,74584.569,0.058,0.488,-0.871,-0.097,0.192,-0.043,0.445,0.187,0.58,0.066,-0.51,1.254
2024-10-15 13:57:13.236,74584.689,0.048,0.438,-0.898,0.065,0.388,0.156,1.753,0.245,-0.41,0.054,-0.454,1.246
2024-10-15 13:57:13.356,74584.809,0.048,0.444,-0.894,-0.117,-0.089,-0.174,-0.769,0.058,0.587,0.054,-0.461,1.245
2024-10-15 13:57:13.476,74584.929,0.043,0.424,-0.905,0.057,0.21,-0.061,0.606,0.268,-0.357,0.048,-0.437,1.255
2024-10-15 13:57:13.595,74585.049,0.036,0.421,-0.906,-0.177,-0.121,-0.059,-0.131,-0.048,0.189,0.04,-0.434,1.243
2024-10-15 13:57:13.715,74585.168,0.035,0.416,-0.909,0.09,-0.139,-0.039,-0.35,0.107,-0.3,0.038,-0.429,1.253
2024-10-15 13:57:13.835,74585.288,0.026,0.415,-0.91,-0.324,0.057,-0.071,-0.018,0.023,0.191,0.028,-0.428,1.237
2024-10-15 13:57:13.955,74585.408,0.034,0.411,-0.911,0.381,-0.332,-0.07,-0.202,-0.007,-0.366,0.037,-0.424,1.252
2024-10-15 13:57:14.074,74585.528,0.022,0.4,-0.916,-0.365,0.241,0.05,-0.145,0.155,0.154,0.024,-0.411,1.222
2024-10-15 13:57:14.194,74585.648,0.04,0.405,-0.913,0.437,-0.588,-0.078,-0.109,-0.251,-0.275,0.043,-0.417,1.246
2024-10-15 13:57:14.314,74585.767,0.018,0.399,-0.917,-0.505,0.339,0.096,0.059,0.071,0.17,0.02,-0.41,1.216
2024-10-15 13:57:14.434,74585.887,0.039,0.394,-0.918,0.481,-0.652,-0.037,0.047,-0.193,-0.28,0.042,-0.405,1.244
2024-10-15 13:57:14.554,74586.007,0.016,0.386,-0.923,-0.518,0.477,0.086,-0.05,0.225,-0.014,0.017,-0.396,1.21
2024-10-15 13:57:14.673,74586.127,0.049,0.402,-0.914,0.13,0.06,-0.067,0.068,0.26,0.121,0.054,-0.414,1.223
2024-10-15 13:57:14.793,74586.247,0.077,0.443,-0.893,-0.142,0.012,0.184,-1.169,1.13,-0.123,0.086,-0.458,1.206
2024-10-15 13:57:14.913,74586.366,0.182,0.515,-0.838,0.042,-0.094,0.093,-0.162,0.331,-0.24,0.214,-0.541,1.204
2024-10-15 13:57:15.032,74586.486,0.178,0.516,-0.838,0.011,0.06,0.006,-0.045,0.087,-0.014,0.209,-0.543,1.175
2024-10-15 13:57:15.153,74586.606,0.186,0.505,-0.843,0.04,-0.021,-0.02,0.141,0.014,0.047,0.217,-0.53,1.177
2024-10-15 13:57:15.272,74586.726,0.173,0.459,-0.871,0.015,0.079,0.03,0.875,-0.284,0.038,0.196,-0.477,1.178
2024-10-15 13:57:15.392,74586.846,0.134,0.401,-0.906,-0.243,-0.008,-0.167,0.171,-0.08,0.283,0.146,-0.413,1.189
2024-10-15 13:57:15.512,74586.965,0.131,0.374,-0.918,0.265,-0.122,-0.055,0.195,-0.476,-0.243,0.142,-0.384,1.188
2024-10-15 13:57:15.632,74587.085,0.084,0.348,-0.934,-0.577,0.138,-0.013,0.015,0.064,0.087,0.089,-0.355,1.167
2024-10-15 13:57:15.752,74587.205,0.111,0.337,-0.935,0.626,-0.558,0.14,0.28,-0.325,-0.138,0.118,-0.344,1.197
2024-10-15 13:57:15.871,74587.325,0.071,0.314,-0.947,-0.341,0.288,0.02,-0.491,-0.458,-0.022,0.075,-0.319,1.167
2024-10-15 13:57:15.991,74587.445,0.088,0.35,-0.933,0.051,0.556,-0.094,0.304,0.096,0.665,0.094,-0.358,1.202
2024-10-15 13:57:16.111,74587.564,0.085,0.306,-0.948,0.059,0.394,0.284,0.432,-0.308,0.023,0.089,-0.311,1.196
2024-10-15 13:57:16.231,74587.684,0.069,0.334,-0.94,-0.135,-0.016,-0.14,-0.875,0.373,0.375,0.073,-0.341,1.201
2024-10-15 13:57:16.350,74587.804,0.072,0.314,-0.947,0.078,0.254,-0.017,0.151,-0.066,-0.056,0.076,-0.319,1.205
2024-10-15 13:57:16.470,74587.924,0.05,0.316,-0.947,-0.552,0.154,-0.088,-0.118,0.218,0.131,0.053,-0.322,1.193
2024-10-15 13:57:16.590,74588.044,0.074,0.312,-0.947,0.562,-0.642,0.041,-0.156,-0.342,-0.338,0.078,-0.317,1.219
2024-10-15 13:57:16.710,74588.163,0.035,0.305,-0.952,-0.633,0.209,0.046,-0.1,0.084,0.071,0.036,-0.31,1.194
2024-10-15 13:57:16.829,74588.283,0.076,0.308,-0.948,0.395,-0.626,0.067,0.324,0.088,-0.209,0.08,-0.313,1.215
2024-10-15 13:57:16.950,74588.403,0.045,0.307,-0.951,-0.345,0.365,0.066,-0.374,-0.37,0.09,0.047,-0.312,1.181
2024-10-15 13:57:17.069,74588.523,0.073,0.316,-0.946,0.068,0.082,0.074,0.645,0.29,0.171,0.077,-0.322,1.211
2024-10-15 13:57:17.189,74588.643,0.051,0.298,-0.953,0.136,-0.193,0.154,-0.425,-0.56,-0.172,0.053,-0.302,1.187
2024-10-15 13:57:17.309,74588.762,0.072,0.317,-0.946,0.138,0.253,0.01,0.676,0.229,0.142,0.076,-0.322,1.206
2024-10-15 13:57:17.429,74588.882,0.055,0.318,-0.946,0.09,0.031,0.053,-0.261,-0.123,-0.242,0.058,-0.324,1.169
2024-10-15 13:57:17.549,74589.002,0.124,0.465,-0.877,-0.134,0.238,-0.224,-0.391,1.284,-0.393,0.14,-0.484,1.159
2024-10-15 13:57:17.668,74589.122,0.186,0.463,-0.867,0.103,0.009,0.125,0.668,-0.325,0.039,0.211,-0.481,1.144
2024-10-15 13:57:17.788,74589.242,0.152,0.416,-0.897,0.084,0.011,0.039,0.403,-0.303,0.179,0.167,-0.429,1.142
2024-10-15 13:57:17.908,74589.361,0.142,0.339,-0.93,0.2,-0.163,0.101,1.034,-0.475,0.05,0.151,-0.345,1.171
2024-10-15 13:57:18.028,74589.481,0.073,0.298,-0.952,-0.508,0.195,0.038,-0.236,-0.133,0.203,0.077,-0.303,1.14
2024-10-15 13:57:18.150,74589.601,0.106,0.311,-0.944,0.443,0.034,0.139,0.964,-0.175,0.307,0.112,-0.316,1.184
2024-10-15 13:57:18.267,74589.721,0.063,0.262,-0.963,-0.111,-0.009,0.037,-0.121,-0.648,-0.398,0.065,-0.265,1.157
2024-10-15 13:57:18.387,74589.841,0.081,0.322,-0.943,0.059,0.382,-0.115,0.243,0.366,0.507,0.086,-0.328,1.18
2024-10-15 13:57:18.507,74589.96,0.082,0.274,-0.958,0.169,0.056,0.14,0.248,-0.303,-0.259,0.085,-0.278,1.172
2024-10-15 13:57:18.627,74590.08,0.075,0.305,-0.949,-0.076,-0.315,-0.137,-1.252,0.121,0.415,0.078,-0.31,1.175
2024-10-15 13:57:18.747,74590.2,0.076,0.31,-0.948,0.049,0.223,-0.155,0.162,0.134,-0.2,0.08,-0.315,1.176
2024-10-15 13:57:18.866,74590.32,0.066,0.317,-0.946,-0.457,-0.106,-0.1,-0.228,0.579,0.232,0.07,-0.322,1.172
2024-10-15 13:57:18.986,74590.44,0.078,0.314,-0.946,0.31,-0.368,-0.019,-0.298,-0.157,-0.366,0.082,-0.32,1.189
2024-10-15 13:57:19.106,74590.559,0.054,0.3,-0.952,-0.743,-0.035,-0.033,-0.06,0.586,0.126,0.057,-0.305,1.179
2024-10-15 13:57:19.226,74590.679,0.08,0.296,-0.952,0.515,-0.744,0.058,-0.374,-0.23,-0.457,0.084,-0.301,1.204
2024-10-15 13:57:19.348,74590.799,0.046,0.287,-0.957,-0.669,0.26,0.042,0.194,0.225,0.148,0.048,-0.291,1.189
2024-10-15 13:57:19.465,74590.919,0.08,0.284,-0.956,0.471,-0.683,0.066,-0.113,-0.18,-0.362,0.084,-0.288,1.214
2024-10-15 13:57:19.585,74591.039,0.051,0.299,-0.953,-0.499,0.295,0.087,-0.162,0.043,-0.018,0.053,-0.303,1.176
2024-10-15 13:57:19.705,74591.158,0.082,0.314,-0.946,0.162,-0.257,0.109,0.412,0.181,0.17,0.087,-0.319,1.196
2024-10-15 13:57:19.825,74591.278,0.057,0.29,-0.955,0.151,-0.39,0.228,-0.452,-0.55,-0.262,0.059,-0.294,1.17
2024-10-15 13:57:19.945,74591.398,0.068,0.299,-0.952,0.037,0.318,-0.09,0.455,0.158,0.213,0.071,-0.304,1.182
2024-10-15 13:57:20.064,74591.518,0.067,0.313,-0.947,-0.138,0.279,0.005,0.022,0.323,-0.273,0.071,-0.319,1.162
2024-10-15 13:57:20.184,74591.638,0.146,0.507,-0.849,-0.17,0.3,-0.141,-1.069,1.231,0.057,0.17,-0.532,1.171
2024-10-15 13:57:20.304,74591.757,0.18,0.491,-0.853,0.031,-0.009,0.056,0.408,-0.25,-0.115,0.208,-0.513,1.152
2024-10-15 13:57:20.424,74591.877,0.164,0.496,-0.853,0.058,0.059,-0.003,-0.047,-0.087,0.15,0.19,-0.519,1.163
2024-10-15 13:57:20.543,74591.997,0.167,0.465,-0.87,0.073,-0.025,0.018,0.792,-0.038,-0.048,0.19,-0.483,1.164
2024-10-15 13:57:20.663,74592.117,0.155,0.387,-0.909,0.042,0.23,0.076,1.33,-0.394,0.099,0.168,-0.397,1.159
2024-10-15 13:57:20.783,74592.237,0.12,0.332,-0.936,-0.211,-0.039,-0.155,-0.376,-0.307,0.426,0.128,-0.339,1.176
2024-10-15 13:57:20.904,74592.356,0.125,0.313,-0.941,0.393,-0.292,0.082,-0.275,-0.474,-0.372,0.132,-0.319,1.185
2024-10-15 13:57:21.023,74592.476,0.08,0.297,-0.951,-0.609,0.183,0.016,0.112,-0.021,0.053,0.084,-0.302,1.162
2024-10-15 13:57:21.143,74592.596,0.118,0.302,-0.946,0.523,-0.389,0.201,-0.01,-0.013,0.097,0.124,-0.307,1.183
2024-10-15 13:57:21.262,74592.716,0.081,0.282,-0.956,-0.195,0.225,-0.025,-0.203,-0.782,-0.128,0.085,-0.286,1.16
2024-10-15 13:57:21.382,74592.836,0.097,0.289,-0.952,-0.019,0.474,-0.087,0.479,0.339,0.64,0.101,-0.293,1.188
2024-10-15 13:57:21.502,74592.955,0.097,0.274,-0.957,0.244,0.225,0.231,-0.063,-0.621,-0.124,0.101,-0.277,1.187
2024-10-15 13:57:21.622,74593.075,0.086,0.288,-0.954,-0.051,-0.218,-0.12,-1.14,0.274,0.284,0.09,-0.292,1.184
2024-10-15 13:57:21.742,74593.195,0.088,0.291,-0.953,0.033,0.141,-0.087,0.18,0.081,-0.256,0.092,-0.295,1.187
2024-10-15 13:57:21.862,74593.315,0.076,0.29,-0.954,-0.52,-0.132,-0.087,-0.17,0.563,0.092,0.08,-0.294,1.177
2024-10-15 13:57:21.981,74593.435,0.092,0.294,-0.951,0.46,-0.667,-0.029,-0.323,-0.226,-0.514,0.097,-0.299,1.195
2024-10-15 13:57:22.101,74593.554,0.063,0.298,-0.952,-0.693,0.232,0.014,-0.083,0.372,0.109,0.066,-0.303,1.181
2024-10-15 13:57:22.221,74593.674,0.096,0.294,-0.951,0.545,-0.787,0.04,-0.256,-0.248,-0.312,0.1,-0.298,1.21
2024-10-15 13:57:22.341,74593.794,0.062,0.303,-0.951,-0.511,0.237,0.044,-0.434,-0.125,0.032,0.065,-0.307,1.189
2024-10-15 13:57:22.460,74593.914,0.098,0.309,-0.946,0.214,-0.193,0.095,0.623,0.185,0.067,0.103,-0.314,1.213
2024-10-15 13:57:22.580,74594.034,0.073,0.299,-0.952,-0.118,0.166,0.021,0.12,-0.172,-0.085,0.077,-0.303,1.182
2024-10-15 13:57:22.700,74594.153,0.112,0.322,-0.94,0.125,0.16,0.008,0.321,0.313,0.262,0.119,-0.328,1.199
2024-10-15 13:57:22.820,74594.273,0.102,0.31,-0.945,0.114,0.117,-0.007,-0.014,-0.355,-0.225,0.107,-0.315,1.171
2024-10-15 13:57:22.939,74594.393,0.137,0.416,-0.899,-0.154,-0.073,0.059,-0.243,0.825,-0.641,0.151,-0.429,1.157
2024-10-15 13:57:23.059,74594.513,0.216,0.492,-0.843,0.039,0.043,0.068,-0.038,0.193,0.094,0.251,-0.515,1.144
2024-10-15 13:57:23.179,74594.633,0.213,0.481,-0.851,0.095,-0.001,-0.02,0.346,-0.112,0.135,0.245,-0.502,1.155
2024-10-15 13:57:23.299,74594.752,0.185,0.421,-0.888,0.01,0.112,0.085,1.113,-0.658,0.016,0.206,-0.435,1.153
2024-10-15 13:57:23.419,74594.872,0.168,0.392,-0.904,-0.156,-0.056,-0.143,0.123,0.191,0.409,0.184,-0.403,1.193
2024-10-15 13:57:23.539,74594.992,0.156,0.343,-0.926,-0.091,0.238,0.249,1.189,-0.092,-0.141,0.167,-0.35,1.175
2024-10-15 13:57:23.658,74595.112,0.136,0.348,-0.927,-0.038,-0.116,-0.199,-0.82,0.157,0.409,0.145,-0.356,1.185
2024-10-15 13:57:23.778,74595.232,0.13,0.336,-0.933,0.038,0.154,-0.075,-0.126,-0.166,-0.007,0.139,-0.342,1.199
2024-10-15 13:57:23.898,74595.351,0.114,0.33,-0.937,-0.475,-0.033,-0.084,-0.074,0.437,0.056,0.121,-0.336,1.189
2024-10-15 13:57:24.018,74595.471,0.136,0.324,-0.936,0.361,-0.635,0.093,-0.547,-0.156,-0.248,0.144,-0.33,1.208
2024-10-15 13:57:24.137,74595.591,0.11,0.32,-0.941,-0.643,0.167,0.03,0.109,0.414,0.097,0.116,-0.325,1.187
2024-10-15 13:57:24.257,74595.711,0.139,0.323,-0.936,0.306,-0.479,0.136,0.144,0.015,-0.126,0.147,-0.329,1.207
2024-10-15 13:57:24.377,74595.83,0.122,0.32,-0.939,-0.138,0.054,0.008,-0.149,-0.235,-0.078,0.129,-0.326,1.183
2024-10-15 13:57:24.497,74595.95,0.137,0.343,-0.929,0.094,0.325,-0.072,0.43,0.107,0.531,0.146,-0.35,1.208
2024-10-15 13:57:24.617,74596.07,0.131,0.322,-0.937,0.003,0.396,0.252,0.264,-0.344,0.119,0.139,-0.328,1.208
2024-10-15 13:57:24.736,74596.19,0.127,0.346,-0.929,0.111,-0.047,-0.108,-0.301,-0.008,0.375,0.136,-0.354,1.224
2024-10-15 13:57:24.856,74596.31,0.121,0.327,-0.937,-0.004,0.213,-0.02,0.942,0.183,-0.203,0.128,-0.334,1.215
2024-10-15 13:57:24.976,74596.429,0.112,0.322,-0.94,-0.212,-0.2,-0.095,-0.229,0.306,0.072,0.119,-0.328,1.203
2024-10-15 13:57:25.096,74596.549,0.115,0.336,-0.935,0.309,-0.334,-0.017,-0.381,-0.136,-0.366,0.122,-0.343,1.203
2024-10-15 13:57:25.216,74596.669,0.098,0.311,-0.945,-0.516,0.493,-0.005,0.26,0.146,0.16,0.103,-0.316,1.172
2024-10-15 13:57:25.336,74596.789,0.126,0.31,-0.942,0.433,-0.344,0.082,0.126,-0.163,-0.036,0.133,-0.315,1.199
2024-10-15 13:57:25.455,74596.909,0.097,0.317,-0.943,-0.393,0.537,0.057,0.127,-0.33,0.028,0.103,-0.323,1.167
2024-10-15 13:57:25.575,74597.028,0.128,0.309,-0.942,0.105,0.041,-0.04,0.172,0.229,0.245,0.135,-0.314,1.183
2024-10-15 13:57:25.695,74597.148,0.123,0.336,-0.934,0.046,-0.116,0.192,-1.193,-0.647,-0.123,0.131,-0.343,1.152
2024-10-15 13:57:25.815,74597.268,0.148,0.336,-0.93,-0.086,0.135,-0.16,-0.177,0.368,0.114,0.158,-0.342,1.159
2024-10-15 13:57:25.935,74597.388,0.176,0.409,-0.895,0.019,-0.297,0.109,-1.527,0.518,-0.239,0.194,-0.421,1.171
2024-10-15 13:57:26.054,74597.508,0.259,0.462,-0.849,0.065,-0.041,0.023,-0.353,0.84,-0.102,0.296,-0.48,1.155
2024-10-15 13:57:26.174,74597.627,0.277,0.496,-0.823,0.022,-0.01,0.042,-0.112,-0.22,-0.129,0.325,-0.519,1.153
2024-10-15 13:57:26.294,74597.747,0.247,0.496,-0.832,-0.048,0.011,-0.037,0.002,-0.307,0.078,0.289,-0.519,1.156
2024-10-15 13:57:26.413,74597.867,0.213,0.478,-0.852,-0.004,-0.03,0.089,0.173,-0.483,0.044,0.245,-0.499,1.155
2024-10-15 13:57:26.534,74597.987,0.174,0.468,-0.867,-0.043,0.017,0.01,-0.13,-0.294,0.236,0.198,-0.487,1.172
2024-10-15 13:57:26.653,74598.107,0.166,0.456,-0.875,-0.006,0.005,0.018,0.29,-0.142,-0.039,0.187,-0.473,1.177
2024-10-15 13:57:26.773,74598.226,0.137,0.415,-0.899,-0.072,-0.056,-0.091,0.215,-0.47,0.067,0.152,-0.428,1.18
2024-10-15 13:57:26.893,74598.346,0.118,0.424,-0.898,0.298,-0.098,0.042,0.627,-0.233,0.01,0.131,-0.438,1.194
2024-10-15 13:57:27.013,74598.466,0.077,0.374,-0.924,0.115,-0.075,0.154,0.444,-0.706,-0.261,0.083,-0.383,1.172
2024-10-15 13:57:27.132,74598.586,0.072,0.364,-0.929,-0.019,0.151,-0.073,0.184,0.292,0.533,0.077,-0.372,1.185
2024-10-15 13:57:27.252,74598.706,0.056,0.322,-0.945,-0.085,0.309,0.192,0.529,0.099,-0.201,0.059,-0.328,1.163
2024-10-15 13:57:27.372,74598.825,0.049,0.33,-0.943,-0.21,-0.099,-0.088,-0.097,0.377,0.28,0.052,-0.337,1.157
2024-10-15 13:57:27.493,74598.945,0.057,0.318,-0.946,0.207,0.015,-0.119,-0.11,-0.203,-0.304,0.06,-0.323,1.166
2024-10-15 13:57:27.611,74599.065,0.03,0.303,-0.953,-0.571,0.349,0.082,0.335,0.255,0.154,0.031,-0.308,1.148
2024-10-15 13:57:27.731,74599.185,0.068,0.289,-0.955,0.497,-0.545,0.125,0.18,-0.162,-0.158,0.071,-0.293,1.185
2024-10-15 13:57:27.851,74599.305,0.031,0.294,-0.955,-0.228,0.066,-0.004,-0.191,-0.142,-0.205,0.032,-0.298,1.15
2024-10-15 13:57:27.971,74599.424,0.05,0.315,-0.948,-0.07,0.096,-0.123,-0.015,0.238,0.277,0.053,-0.321,1.155
2024-10-15 13:57:28.091,74599.544,0.05,0.301,-0.952,0.091,0.22,-0.087,0.869,0.014,-0.38,0.053,-0.306,1.145
2024-10-15 13:57:28.211,74599.664,0.045,0.295,-0.955,-0.146,-0.216,-0.094,-0.38,0.392,0.224,0.047,-0.299,1.139
2024-10-15 13:57:28.331,74599.784,0.059,0.288,-0.956,0.408,-0.393,0.018,-0.14,-0.302,-0.383,0.061,-0.292,1.156
2024-10-15 13:57:28.450,74599.904,0.034,0.287,-0.957,-0.531,0.214,0.028,-0.092,0.232,0.102,0.035,-0.291,1.127
2024-10-15 13:57:28.571,74600.023,0.065,0.287,-0.956,0.651,-0.634,0.128,0.235,-0.531,-0.295,0.067,-0.291,1.154
2024-10-15 13:57:28.690,74600.143,0.032,0.301,-0.953,-0.411,0.216,0.086,-0.294,0.092,-0.058,0.034,-0.305,1.122
2024-10-15 13:57:28.810,74600.263,0.077,0.302,-0.95,0.099,-0.154,0.053,0.327,0.248,0.096,0.081,-0.307,1.147
2024-10-15 13:57:28.929,74600.383,0.044,0.302,-0.952,0.198,-0.178,0.078,0.006,-0.172,-0.304,0.046,-0.307,1.112
2024-10-15 13:57:29.049,74600.503,0.071,0.334,-0.94,-0.03,-0.199,-0.03,-0.689,0.317,-0.035,0.075,-0.34,1.106
2024-10-15 13:57:29.169,74600.622,0.134,0.407,-0.903,0.002,0.145,-0.063,-0.258,0.63,0.074,0.147,-0.419,1.103
2024-10-15 13:57:29.289,74600.742,0.137,0.407,-0.903,0.07,-0.111,-0.006,0.119,-0.167,-0.104,0.151,-0.419,1.112
2024-10-15 13:57:29.409,74600.862,0.139,0.395,-0.908,0.003,0.034,0.055,0.069,-0.064,0.12,0.152,-0.407,1.113
2024-10-15 13:57:29.528,74600.982,0.128,0.368,-0.921,-0.088,0.114,-0.024,0.097,-0.106,0.145,0.138,-0.377,1.109
2024-10-15 13:57:29.648,74601.102,0.107,0.394,-0.913,-0.206,0.108,-0.033,-0.114,0.016,0.337,0.117,-0.405,1.134
2024-10-15 13:57:29.768,74601.221,0.097,0.375,-0.922,0.215,-0.12,-0.153,-0.664,-0.418,-0.353,0.105,-0.384,1.133
2024-10-15 13:57:29.888,74601.341,0.056,0.347,-0.936,-0.574,0.291,0.03,0.319,0.167,0.041,0.059,-0.354,1.102
2024-10-15 13:57:30.008,74601.461,0.092,0.332,-0.939,0.391,-0.356,0.157,0.378,-0.136,0.056,0.098,-0.339,1.142
2024-10-15 13:57:30.127,74601.581,0.057,0.344,-0.937,-0.059,0.145,-0.004,-0.098,-0.315,-0.208,0.061,-0.351,1.116
2024-10-15 13:57:30.246,74601.701,0.072,0.359,-0.93,-0.103,0.44,-0.074,0.53,0.314,0.644,0.078,-0.368,1.149
2024-10-15 13:57:30.367,74601.82,0.074,0.347,-0.935,0.047,0.28,0.281,0.184,-0.184,-0.027,0.079,-0.354,1.145
2024-10-15 13:57:30.487,74601.94,0.052,0.353,-0.934,-0.224,-0.2,-0.068,-0.185,0.188,0.211,0.056,-0.361,1.14
2024-10-15 13:57:30.607,74602.06,0.069,0.348,-0.935,0.49,-0.758,-0.003,-0.536,-0.254,-0.403,0.074,-0.356,1.174
2024-10-15 13:57:30.726,74602.18,0.034,0.346,-0.937,-0.556,0.246,0.055,0.15,-0.113,0.046,0.037,-0.354,1.153
2024-10-15 13:57:30.846,74602.3,0.078,0.344,-0.936,0.304,-0.372,0.07,0.424,0.156,0.171,0.083,-0.351,1.191
2024-10-15 13:57:30.966,74602.419,0.046,0.339,-0.94,-0.013,0.05,-0.008,-0.155,-0.37,-0.226,0.049,-0.346,1.161
2024-10-15 13:57:31.085,74602.539,0.058,0.369,-0.928,0.073,0.198,-0.1,-0.021,0.038,0.498,0.062,-0.378,1.177
2024-10-15 13:57:31.206,74602.659,0.055,0.341,-0.939,-0.034,0.371,-0.005,1.185,0.181,-0.284,0.058,-0.348,1.172
2024-10-15 13:57:31.325,74602.779,0.046,0.349,-0.936,-0.342,-0.109,-0.101,-0.149,0.41,0.198,0.049,-0.357,1.167
2024-10-15 13:57:31.445,74602.899,0.064,0.341,-0.938,0.494,-0.457,-0.043,-0.036,-0.355,-0.464,0.068,-0.348,1.186
2024-10-15 13:57:31.565,74603.018,0.033,0.341,-0.939,-0.571,0.339,0.111,0.174,0.086,0.071,0.035,-0.348,1.16
2024-10-15 13:57:31.685,74603.138,0.074,0.327,-0.942,0.531,-0.639,0.094,0.32,-0.074,-0.028,0.079,-0.333,1.191
2024-10-15 13:57:31.804,74603.258,0.034,0.315,-0.948,-0.23,0.259,0.05,-0.051,-0.224,-0.249,0.036,-0.321,1.147
2024-10-15 13:57:31.924,74603.378,0.068,0.35,-0.934,0.208,-0.074,-0.139,-1.1,0.282,0.046,0.073,-0.358,1.153
2024-10-15 13:57:32.044,74603.498,0.152,0.576,-0.803,-0.127,0.056,-0.249,-2.689,1.856,-0.191,0.187,-0.614,1.171
2024-10-15 13:57:32.164,74603.617,0.265,0.754,-0.601,0.05,-0.151,0.122,-1.82,0.471,0.029,0.415,-0.855,1.273
2024-10-15 13:57:32.284,74603.737,0.265,0.876,-0.402,-0.01,0.05,-0.021,-2.768,0.322,-0.059,0.583,-1.068,1.455
2024-10-15 13:57:32.403,74603.857,0.279,0.96,-0.029,0.041,0.022,-0.07,-2.34,0.296,0.05,1.468,-1.287,2.345
2024-10-15 13:57:32.523,74603.977,0.277,0.959,0.055,-0.014,0.023,0.043,1.166,0.1,-0.05,1.768,-1.284,2.623
2024-10-15 13:57:32.643,74604.097,0.264,0.941,-0.21,-0.019,0.194,0.045,4.198,-0.559,0.047,0.9,-1.227,1.738
2024-10-15 13:57:32.763,74604.216,0.237,0.798,-0.554,0.013,0.011,0.081,1.94,-0.58,0.024,0.404,-0.925,1.27
2024-10-15 13:57:32.883,74604.336,0.214,0.637,-0.74,0.086,-0.096,0.099,1.311,-0.646,0.185,0.281,-0.691,1.165
2024-10-15 13:57:33.003,74604.456,0.17,0.498,-0.85,-0.055,-0.191,-0.193,0.453,-0.214,0.394,0.197,-0.521,1.136
2024-10-15 13:57:33.122,74604.576,0.123,0.418,-0.9,-0.269,-0.061,-0.116,-0.614,-0.261,0.27,0.135,-0.432,1.14
2024-10-15 13:57:33.242,74604.696,0.113,0.452,-0.885,0.358,-0.242,-0.04,0.048,-0.423,-0.369,0.127,-0.469,1.153
2024-10-15 13:57:33.362,74604.815,0.047,0.414,-0.909,-0.523,0.164,-0.022,-0.039,-0.366,0.012,0.052,-0.427,1.106
2024-10-15 13:57:33.482,74604.935,0.1,0.43,-0.897,0.168,-0.213,0.128,0.7,0.3,0.16,0.111,-0.445,1.152
2024-10-15 13:57:33.601,74605.055,0.066,0.403,-0.913,0.421,-0.397,0.065,0.065,-0.351,-0.578,0.072,-0.414,1.113
2024-10-15 13:57:33.721,74605.175,0.062,0.429,-0.901,-0.053,-0.041,-0.098,-0.803,-0.027,0.721,0.069,-0.444,1.14
2024-10-15 13:57:33.841,74605.295,0.058,0.419,-0.906,0.018,0.209,0.13,1.168,0.297,-0.439,0.063,-0.433,1.145
2024-10-15 13:57:33.961,74605.414,0.05,0.411,-0.91,-0.437,-0.374,-0.081,-0.261,0.518,0.318,0.055,-0.424,1.133
2024-10-15 13:57:34.080,74605.534,0.063,0.409,-0.91,0.189,-0.279,-0.102,-0.53,-0.133,-0.328,0.069,-0.422,1.161
2024-10-15 13:57:34.200,74605.654,0.045,0.408,-0.912,-0.637,0.438,0.134,0.249,0.448,0.197,0.049,-0.421,1.142
2024-10-15 13:57:34.320,74605.774,0.066,0.383,-0.921,0.589,-0.879,-0.147,-0.143,-0.26,-0.438,0.072,-0.393,1.18
2024-10-15 13:57:34.440,74605.894,0.039,0.397,-0.917,-0.511,0.568,0.19,-0.093,-0.162,0.251,0.043,-0.408,1.135
2024-10-15 13:57:34.560,74606.013,0.081,0.387,-0.918,0.428,-0.678,0.017,0.862,-0.069,0.114,0.088,-0.398,1.183
2024-10-15 13:57:34.680,74606.133,0.045,0.39,-0.92,-0.314,0.449,0.012,-0.525,-0.289,-0.112,0.048,-0.401,1.135
2024-10-15 13:57:34.799,74606.253,0.075,0.41,-0.909,-0.069,0.629,0.02,0.844,0.316,0.324,0.082,-0.423,1.183
2024-10-15 13:57:34.920,74606.373,0.052,0.393,-0.918,0.389,-0.352,0.08,-0.324,-0.358,-0.311,0.057,-0.404,1.147
2024-10-15 13:57:35.039,74606.493,0.069,0.434,-0.898,0.121,0.145,-0.028,0.366,-0.008,0.637,0.077,-0.449,1.174
2024-10-15 13:57:35.159,74606.612,0.059,0.382,-0.922,-0.03,0.196,0.163,1.036,0.161,-0.425,0.064,-0.392,1.16
2024-10-15 13:57:35.279,74606.732,0.062,0.41,-0.91,-0.015,-0.204,-0.096,-0.759,0.056,0.387,0.068,-0.422,1.164
2024-10-15 13:57:35.399,74606.852,0.063,0.397,-0.916,0.051,0.021,-0.136,-0.113,-0.13,-0.232,0.069,-0.408,1.172
2024-10-15 13:57:35.518,74606.972,0.052,0.406,-0.912,-0.318,0.482,0.123,0.22,0.007,0.199,0.057,-0.418,1.151
2024-10-15 13:57:35.638,74607.092,0.079,0.4,-0.913,0.234,-0.126,0.048,0.819,0.043,0.01,0.087,-0.412,1.192
2024-10-15 13:57:35.758,74607.211,0.065,0.4,-0.914,0.31,-0.255,0.063,-0.081,-0.254,-0.195,0.071,-0.411,1.156
2024-10-15 13:57:35.878,74607.331,0.075,0.41,-0.909,0.092,-0.104,-0.043,-0.157,0.053,0.384,0.082,-0.422,1.178
2024-10-15 13:57:35.997,74607.451,0.084,0.424,-0.902,-0.097,0.246,-0.035,-0.039,0.188,-0.095,0.093,-0.438,1.171
2024-10-15 13:57:36.117,74607.571,0.15,0.487,-0.861,-0.25,-0.061,-0.235,-1.442,1.63,-0.472,0.173,-0.508,1.152
2024-10-15 13:57:36.238,74607.691,0.244,0.628,-0.739,-0.001,0.08,0.034,-0.537,0.479,-0.119,0.319,-0.679,1.16
2024-10-15 13:57:36.357,74607.81,0.256,0.642,-0.723,0.077,0.051,0.022,0.089,-0.02,0.117,0.34,-0.697,1.163
2024-10-15 13:57:36.476,74607.93,0.262,0.631,-0.73,0.064,-0.018,0.109,0.376,-0.276,0.025,0.345,-0.683,1.175
2024-10-15 13:57:36.596,74608.05,0.22,0.543,-0.81,0.033,0.042,-0.018,0.57,-0.484,0.187,0.265,-0.574,1.136
2024-10-15 13:57:36.717,74608.17,0.157,0.441,-0.883,-0.093,0.203,0.112,0.875,-0.817,0.027,0.176,-0.457,1.128
2024-10-15 13:57:36.838,74608.29,0.145,0.362,-0.921,0.146,-0.064,-0.025,1.474,0.004,0.482,0.156,-0.371,1.164
2024-10-15 13:57:36.956,74608.409,0.093,0.249,-0.964,0.244,-0.119,0.116,0.984,-0.829,-0.444,0.096,-0.252,1.142
2024-10-15 13:57:37.076,74608.529,0.078,0.227,-0.971,-0.061,-0.014,-0.086,0.319,0.205,0.472,0.08,-0.229,1.162
2024-10-15 13:57:37.196,74608.649,0.072,0.205,-0.976,-0.046,0.211,0.05,0.992,0.155,-0.165,0.074,-0.206,1.165
2024-10-15 13:57:37.315,74608.769,0.059,0.212,-0.975,-0.343,-0.233,-0.088,-0.428,0.22,0.132,0.061,-0.213,1.149
2024-10-15 13:57:37.435,74608.889,0.074,0.23,-0.97,0.48,-0.692,0.028,-0.207,-0.364,-0.461,0.076,-0.232,1.183
2024-10-15 13:57:37.555,74609.008,0.035,0.226,-0.974,-0.596,0.396,0.053,0.066,-0.081,0.161,0.036,-0.228,1.155
2024-10-15 13:57:37.675,74609.128,0.07,0.237,-0.969,0.377,-0.257,0.077,0.444,0.018,0.297,0.072,-0.239,1.196
2024-10-15 13:57:37.794,74609.248,0.039,0.217,-0.975,0.325,-0.327,0.13,-0.408,-0.477,-0.456,0.04,-0.219,1.174
2024-10-15 13:57:37.914,74609.368,0.049,0.257,-0.965,0.005,-0.095,-0.132,-0.762,0.005,0.307,0.05,-0.26,1.182
2024-10-15 13:57:38.034,74609.488,0.051,0.262,-0.964,0.008,0.186,-0.09,0.195,-0.032,-0.227,0.053,-0.265,1.187
2024-10-15 13:57:38.154,74609.607,0.045,0.272,-0.961,-0.478,-0.084,0.008,-0.576,0.211,0.084,0.047,-0.276,1.17
2024-10-15 13:57:38.275,74609.727,0.067,0.287,-0.956,0.554,-0.678,0.069,-0.331,-0.297,-0.309,0.07,-0.291,1.202
2024-10-15 13:57:38.394,74609.847,0.036,0.284,-0.958,-0.431,0.159,0.063,-0.193,-0.182,0.05,0.037,-0.288,1.177
2024-10-15 13:57:38.513,74609.967,0.057,0.312,-0.948,0.061,0.499,-0.028,0.604,0.203,0.53,0.06,-0.318,1.203
2024-10-15 13:57:38.633,74610.087,0.045,0.299,-0.953,0.101,0.159,0.084,0.01,-0.385,-0.212,0.047,-0.303,1.189
2024-10-15 13:57:38.753,74610.206,0.051,0.323,-0.945,-0.131,-0.041,-0.113,-0.911,0.347,0.294,0.054,-0.329,1.188
2024-10-15 13:57:38.873,74610.326,0.051,0.324,-0.945,0.021,0.228,-0.085,0.165,-0.084,-0.067,0.054,-0.33,1.194
2024-10-15 13:57:38.992,74610.446,0.046,0.325,-0.945,-0.321,0.16,-0.042,-0.191,0.084,0.115,0.048,-0.331,1.182
2024-10-15 13:57:39.112,74610.566,0.067,0.315,-0.947,0.372,-0.481,0.085,0.483,-0.163,-0.071,0.07,-0.32,1.216
2024-10-15 13:57:39.232,74610.685,0.031,0.3,-0.953,-0.291,0.345,0.031,-0.255,-0.107,0.037,0.033,-0.305,1.18
2024-10-15 13:57:39.352,74610.805,0.056,0.32,-0.946,0.085,0.328,0.046,0.591,0.174,0.508,0.059,-0.326,1.211
2024-10-15 13:57:39.472,74610.925,0.049,0.304,-0.951,-0.043,0.223,0.096,-0.078,0.037,-0.148,0.052,-0.309,1.19
2024-10-15 13:57:39.591,74611.045,0.054,0.325,-0.944,-0.256,-0.194,-0.075,-0.245,0.227,0.133,0.058,-0.331,1.185
2024-10-15 13:57:39.711,74611.165,0.065,0.318,-0.946,0.436,-0.562,-0.009,-0.283,-0.281,-0.303,0.069,-0.324,1.203
2024-10-15 13:57:39.831,74611.284,0.044,0.316,-0.948,-0.391,0.292,0.056,0.022,0.02,0.022,0.046,-0.322,1.181
2024-10-15 13:57:39.951,74611.404,0.07,0.311,-0.948,0.027,0.159,0.084,0.562,0.221,0.213,0.074,-0.316,1.205
2024-10-15 13:57:40.071,74611.524,0.045,0.308,-0.95,0.103,-0.128,0.026,-0.119,-0.373,-0.336,0.047,-0.313,1.179
2024-10-15 13:57:40.190,74611.644,0.054,0.327,-0.943,-0.045,-0.148,-0.108,-0.663,0.045,0.166,0.058,-0.333,1.18
2024-10-15 13:57:40.310,74611.764,0.063,0.31,-0.949,0.296,-0.134,0.006,0.095,-0.179,-0.058,0.066,-0.316,1.197
2024-10-15 13:57:40.430,74611.883,0.034,0.247,-0.968,-0.503,0.031,-0.128,0.614,-0.119,-0.07,0.035,-0.25,1.194
2024-10-15 13:57:40.550,74612.003,0.018,0.194,-0.981,0.048,-0.118,0.146,-0.143,-0.022,-0.011,0.019,-0.195,1.188
2024-10-15 13:57:40.670,74612.123,0.028,0.215,-0.976,0.018,-0.009,0.063,0.051,-0.008,0.136,0.029,-0.216,1.208
2024-10-15 13:57:40.789,74612.243,0.006,0.17,-0.985,-0.197,-0.055,-0.001,0.188,-0.147,-0.078,0.006,-0.171,1.202
2024-10-15 13:57:40.909,74612.363,0.009,0.173,-0.985,0.399,0.096,0.014,-0.039,-0.011,0.038,0.009,-0.174,1.208
2024-10-15 13:57:41.029,74612.482,0.007,0.173,-0.985,-0.608,-0.027,-0.136,0.094,-0.039,-0.166,0.007,-0.174,1.204
2024-10-15 13:57:41.149,74612.602,-0.001,0.172,-0.985,-0.066,0.095,0.107,0.02,0.215,0.096,-0.001,-0.173,1.191
2024-10-15 13:57:41.269,74612.722,0.018,0.181,-0.983,-0.016,-0.155,0.122,-0.045,0.383,0.316,0.019,-0.182,1.199
2024-10-15 13:57:41.388,74612.842,0.001,0.18,-0.984,-0.444,0.056,-0.001,0.229,0.045,0.09,0.001,-0.18,1.172
2024-10-15 13:57:41.508,74612.962,0.025,0.172,-0.985,0.65,-0.228,0.226,-0.169,-0.247,-0.277,0.025,-0.173,1.18
2024-10-15 13:57:41.628,74613.081,0.025,0.204,-0.979,-0.184,0.099,-0.109,-0.402,0.369,-0.349,0.025,-0.206,1.137
2024-10-15 13:57:41.748,74613.201,0.089,0.22,-0.971,0.003,-0.039,-0.023,-0.1,0.584,-0.125,0.092,-0.222,1.121
2024-10-15 13:57:41.867,74613.321,0.142,0.23,-0.963,-0.032,-0.123,0.067,-0.296,0.419,-0.219,0.147,-0.232,1.108
2024-10-15 13:57:41.987,74613.441,0.187,0.258,-0.948,-0.057,0.007,-0.114,-0.157,0.607,-0.201,0.195,-0.261,1.084
2024-10-15 13:57:42.107,74613.561,0.253,0.334,-0.908,-0.077,-0.074,0.067,-1.218,0.68,-0.374,0.272,-0.34,1.06
2024-10-15 13:57:42.227,74613.68,0.29,0.476,-0.831,0.007,-0.029,0.017,-0.759,0.251,-0.334,0.336,-0.496,1.064
2024-10-15 13:57:42.347,74613.8,0.277,0.528,-0.803,0.051,0.026,-0.012,-0.116,-0.26,0.026,0.333,-0.556,1.06
2024-10-15 13:57:42.467,74613.92,0.267,0.521,-0.811,0.086,-0.05,-0.072,0.077,-0.047,0.113,0.318,-0.548,1.073
2024-10-15 13:57:42.586,74614.04,0.256,0.474,-0.842,-0.042,-0.049,0.009,0.251,-0.205,0.189,0.295,-0.494,1.073
2024-10-15 13:57:42.706,74614.16,0.233,0.403,-0.885,-0.136,0.103,-0.141,0.684,-0.317,0.283,0.257,-0.414,1.054
2024-10-15 13:57:42.826,74614.279,0.213,0.397,-0.893,0.118,0.014,0.035,0.891,-0.528,0.103,0.234,-0.408,1.127
2024-10-15 13:57:42.946,74614.399,0.153,0.391,-0.907,0.17,-0.132,0.134,-0.75,-0.574,-0.098,0.167,-0.402,1.086
2024-10-15 13:57:43.066,74614.519,0.15,0.385,-0.91,-0.094,0.133,-0.076,0.344,-0.042,0.568,0.163,-0.396,1.148
2024-10-15 13:57:43.185,74614.639,0.126,0.387,-0.913,-0.039,0.194,0.172,0.571,0.37,-0.488,0.137,-0.397,1.132
2024-10-15 13:57:43.305,74614.759,0.141,0.409,-0.901,0.193,-0.359,-0.177,0.473,-0.488,0.642,0.155,-0.422,1.144
2024-10-15 13:57:43.425,74614.878,0.118,0.403,-0.908,0.103,0.296,0.067,-0.262,-0.176,-0.074,0.129,-0.414,1.164
2024-10-15 13:57:43.545,74614.998,0.121,0.417,-0.901,-0.457,0.218,-0.208,0.223,0.5,0.322,0.134,-0.43,1.153
2024-10-15 13:57:43.665,74615.118,0.132,0.442,-0.887,0.486,-0.453,0.087,-0.557,-0.253,-0.462,0.148,-0.458,1.187
2024-10-15 13:57:43.784,74615.238,0.12,0.429,-0.895,-0.659,0.829,0.037,0.828,0.342,0.389,0.133,-0.444,1.149
2024-10-15 13:57:43.904,74615.358,0.14,0.389,-0.911,0.424,-0.598,0.037,0.006,-0.254,-0.119,0.152,-0.399,1.209
2024-10-15 13:57:44.024,74615.477,0.106,0.411,-0.906,-0.353,0.23,0.219,-0.574,-0.143,-0.153,0.116,-0.423,1.143
2024-10-15 13:57:44.144,74615.597,0.135,0.395,-0.909,-0.082,0.102,-0.048,0.366,0.143,0.576,0.147,-0.407,1.195
2024-10-15 13:57:44.264,74615.717,0.115,0.409,-0.905,0.071,-0.078,0.101,0.348,0.275,-0.827,0.126,-0.421,1.156
2024-10-15 13:57:44.383,74615.837,0.122,0.419,-0.9,0.005,-0.157,-0.156,-0.2,-0.091,0.335,0.135,-0.433,1.155
2024-10-15 13:57:44.503,74615.957,0.116,0.426,-0.897,0.025,0.268,-0.019,0.142,-0.054,-0.148,0.129,-0.44,1.165
2024-10-15 13:57:44.623,74616.076,0.104,0.401,-0.91,-0.385,0.066,-0.085,0.296,0.1,0.243,0.113,-0.412,1.141
2024-10-15 13:57:44.742,74616.196,0.111,0.391,-0.913,0.472,-0.38,0.096,-0.303,-0.227,0.02,0.121,-0.402,1.17
2024-10-15 13:57:44.863,74616.316,0.082,0.39,-0.917,-0.281,0.201,0.059,0.012,-0.143,-0.344,0.089,-0.4,1.14
2024-10-15 13:57:44.982,74616.436,0.084,0.381,-0.921,0.03,0.016,-0.123,0.117,0.239,0.25,0.091,-0.39,1.144
2024-10-15 13:57:45.102,74616.556,0.08,0.391,-0.917,-0.071,0.236,-0.025,0.719,0.237,-0.098,0.088,-0.402,1.146
2024-10-15 13:57:45.222,74616.675,0.079,0.375,-0.923,-0.154,-0.138,-0.086,-0.155,0.225,0.008,0.086,-0.385,1.129
2024-10-15 13:57:45.341,74616.795,0.109,0.389,-0.915,0.301,-0.17,0.011,-0.348,0.12,-0.064,0.118,-0.399,1.139
2024-10-15 13:57:45.475,74616.915,0.14,0.46,-0.877,-0.028,-0.089,0.086,-1.233,0.394,0.119,0.158,-0.478,1.155
2024-10-15 13:57:45.581,74617.035,0.166,0.509,-0.844,0.03,-0.046,-0.022,0.23,-0.347,-0.009,0.194,-0.535,1.179
2024-10-15 13:57:45.701,74617.155,0.175,0.503,-0.847,-0.013,-0.068,0.089,-0.21,0.089,0.033,0.204,-0.527,1.173
2024-10-15 13:57:45.821,74617.274,0.184,0.511,-0.84,-0.025,-0.091,0.015,-0.097,0.183,0.047,0.216,-0.536,1.185
2024-10-15 13:57:45.941,74617.394,0.192,0.482,-0.855,-0.086,-0.048,-0.022,-0.063,0.013,0.09,0.221,-0.503,1.185
2024-10-15 13:57:46.060,74617.514,0.208,0.486,-0.849,0.059,0.007,-0.074,-0.124,0.157,0.302,0.24,-0.507,1.216
2024-10-15 13:57:46.181,74617.634,0.193,0.484,-0.854,-0.017,0.065,-0.051,0.317,-0.273,-0.254,0.222,-0.505,1.211
2024-10-15 13:57:46.300,74617.754,0.162,0.45,-0.878,-0.341,0.067,-0.04,0.206,0.002,-0.016,0.183,-0.466,1.155
2024-10-15 13:57:46.420,74617.873,0.179,0.474,-0.862,0.149,0.011,-0.098,-0.015,0.162,0.201,0.205,-0.493,1.175
2024-10-15 13:57:46.539,74617.993,0.189,0.487,-0.853,-0.04,-0.097,0.034,-0.688,0.144,-0.089,0.218,-0.508,1.184
2024-10-15 13:57:46.660,74618.113,0.213,0.543,-0.812,-0.033,0.227,-0.009,0.194,0.465,0.054,0.257,-0.574,1.175
2024-10-15 13:57:46.779,74618.233,0.254,0.535,-0.806,0.077,0.101,-0.003,0.165,-0.075,0.048,0.305,-0.565,1.186
2024-10-15 13:57:46.899,74618.353,0.247,0.554,-0.795,0.069,0.011,-0.084,-0.112,-0.017,0.079,0.301,-0.587,1.196
2024-10-15 13:57:47.019,74618.472,0.242,0.503,-0.829,-0.088,0.087,0.099,0.281,-0.115,0.022,0.284,-0.527,1.156
2024-10-15 13:57:47.139,74618.592,0.231,0.478,-0.847,-0.144,0.019,-0.057,-0.151,-0.048,0.545,0.266,-0.499,1.186
2024-10-15 13:57:47.259,74618.712,0.217,0.435,-0.874,0.084,0.101,-0.128,0.212,-0.184,-0.373,0.244,-0.449,1.173
2024-10-15 13:57:47.378,74618.832,0.19,0.417,-0.889,-0.265,0.391,0.065,0.216,-0.09,0.164,0.211,-0.431,1.116
2024-10-15 13:57:47.497,74618.952,0.214,0.415,-0.884,0.157,0.144,0.075,0.78,-0.221,0.544,0.238,-0.428,1.163
2024-10-15 13:57:47.617,74619.071,0.187,0.401,-0.897,0.316,-0.256,0.014,-0.522,-0.254,-0.803,0.205,-0.413,1.126
2024-10-15 13:57:47.738,74619.191,0.193,0.417,-0.889,-0.219,-0.151,-0.093,0.133,0.138,0.19,0.213,-0.43,1.107
2024-10-15 13:57:47.857,74619.311,0.206,0.371,-0.905,0.233,-0.629,-0.015,0.458,-0.186,-0.032,0.224,-0.38,1.169
2024-10-15 13:57:47.978,74619.431,0.175,0.391,-0.904,-0.113,-0.175,0.114,0.054,0.261,-0.681,0.191,-0.401,1.108
2024-10-15 13:57:48.097,74619.551,0.184,0.381,-0.906,-0.09,-0.242,-0.12,-0.61,-0.274,0.488,0.2,-0.391,1.127
2024-10-15 13:57:48.217,74619.67,0.178,0.349,-0.92,0.254,-0.509,0.045,-0.693,-0.192,-0.499,0.192,-0.356,1.157
2024-10-15 13:57:48.336,74619.79,0.165,0.362,-0.918,-0.25,0.466,0.094,0.113,-0.011,0.167,0.177,-0.37,1.102
2024-10-15 13:57:48.457,74619.91,0.193,0.344,-0.919,0.114,0.064,-0.002,0.144,-0.221,0.815,0.207,-0.351,1.163
2024-10-15 13:57:48.576,74620.03,0.179,0.321,-0.93,0.084,0.18,0.021,-0.016,-0.343,-0.519,0.19,-0.326,1.143
2024-10-15 13:57:48.696,74620.15,0.178,0.322,-0.93,-0.147,-0.317,-0.129,-0.305,0.016,0.318,0.189,-0.327,1.133
2024-10-15 13:57:48.816,74620.269,0.187,0.322,-0.928,0.207,-0.583,0.017,-0.434,-0.118,-0.326,0.198,-0.328,1.178
2024-10-15 13:57:48.935,74620.389,0.168,0.354,-0.92,-0.272,0.488,0.125,-0.458,0.016,-0.133,0.18,-0.362,1.108
2024-10-15 13:57:49.055,74620.509,0.196,0.387,-0.901,-0.075,0.172,-0.071,-0.557,0.299,0.325,0.214,-0.397,1.131
2024-10-15 13:57:49.175,74620.629,0.222,0.515,-0.828,-0.043,-0.224,0.058,-2.027,0.531,-0.454,0.262,-0.541,1.155
2024-10-15 13:57:49.295,74620.749,0.281,0.627,-0.726,0.026,-0.007,0.015,-1.144,0.891,-0.234,0.369,-0.678,1.14
2024-10-15 13:57:49.415,74620.868,0.302,0.657,-0.691,0.06,0.017,0.052,0.092,-0.059,0.024,0.412,-0.716,1.147
2024-10-15 13:57:49.535,74620.988,0.299,0.593,-0.747,0.085,0.08,-0.013,1.043,-0.335,0.254,0.381,-0.635,1.122
2024-10-15 13:57:49.654,74621.108,0.258,0.453,-0.853,-0.1,-0.049,0.122,1.51,-0.905,0.013,0.294,-0.47,1.086
2024-10-15 13:57:49.775,74621.228,0.23,0.421,-0.878,-0.023,0.026,-0.017,-0.009,-0.23,0.493,0.256,-0.434,1.117
2024-10-15 13:57:49.894,74621.348,0.188,0.391,-0.901,0.053,0.067,-0.037,0.469,-0.554,-0.194,0.205,-0.402,1.122
2024-10-15 13:57:50.013,74621.467,0.128,0.355,-0.926,-0.571,0.174,-0.059,0.196,0.095,0.087,0.137,-0.363,1.084
2024-10-15 13:57:50.134,74621.587,0.16,0.365,-0.917,0.079,0.171,0.014,0.237,0.24,0.506,0.173,-0.373,1.122
2024-10-15 13:57:50.254,74621.707,0.161,0.377,-0.912,-0.009,0.168,-0.052,-0.154,0.039,0.101,0.174,-0.387,1.13
2024-10-15 13:57:50.373,74621.827,0.174,0.447,-0.877,-0.109,0.006,-0.075,-1.876,0.787,-0.213,0.196,-0.463,1.1
2024-10-15 13:57:50.493,74621.947,0.251,0.577,-0.777,0.025,0.019,0.061,-0.032,0.133,0.013,0.313,-0.615,1.159
2024-10-15 13:57:50.613,74622.066,0.232,0.552,-0.801,-0.045,-0.012,0.023,0.088,-0.264,0.015,0.282,-0.585,1.146
2024-10-15 13:57:50.733,74622.186,0.225,0.528,-0.819,-0.014,-0.001,-0.05,0.177,-0.064,0.142,0.268,-0.556,1.148
2024-10-15 13:57:50.853,74622.306,0.216,0.507,-0.835,0.038,-0.004,0.042,0.702,-0.259,-0.079,0.253,-0.532,1.158
2024-10-15 13:57:50.972,74622.426,0.168,0.482,-0.86,-0.04,0.062,0.101,-0.05,-0.396,-0.337,0.193,-0.503,1.117
2024-10-15 13:57:51.092,74622.546,0.128,0.469,-0.874,-0.134,-0.036,-0.101,-0.246,-0.207,0.131,0.145,-0.488,1.112
2024-10-15 13:57:51.212,74622.665,0.132,0.502,-0.855,0.381,-0.284,0.093,-0.162,-0.387,-0.301,0.154,-0.526,1.145
2024-10-15 13:57:51.331,74622.785,0.08,0.498,-0.863,-0.233,0.162,-0.024,0.091,0.039,-0.169,0.093,-0.522,1.095
2024-10-15 13:57:51.451,74622.905,0.1,0.5,-0.86,-0.021,0.176,-0.083,0.325,0.324,0.573,0.116,-0.524,1.113
2024-10-15 13:57:51.572,74623.025,0.083,0.484,-0.871,-0.063,0.306,0.039,0.789,0.023,-0.138,0.094,-0.505,1.096
2024-10-15 13:57:51.691,74623.145,0.063,0.492,-0.868,-0.367,0.103,-0.059,-0.183,0.112,0.189,0.072,-0.515,1.062
2024-10-15 13:57:51.811,74623.264,0.1,0.49,-0.866,0.348,-0.338,0.001,0.669,-0.051,0.13,0.115,-0.512,1.12
2024-10-15 13:57:51.931,74623.384,0.062,0.485,-0.872,0.215,-0.292,0.144,-0.224,-0.285,-0.588,0.071,-0.506,1.078
2024-10-15 13:57:52.050,74623.504,0.064,0.497,-0.865,-0.045,-0.132,-0.122,-0.303,0.086,0.295,0.074,-0.521,1.081
2024-10-15 13:57:52.170,74623.624,0.05,0.466,-0.883,-0.002,-0.052,-0.076,-0.139,-0.165,-0.266,0.057,-0.485,1.094
2024-10-15 13:57:52.290,74623.744,0.032,0.457,-0.889,-0.357,0.202,-0.008,0.205,0.181,0.218,0.036,-0.475,1.069
2024-10-15 13:57:52.410,74623.863,0.061,0.446,-0.893,0.241,-0.13,0.005,0.63,0.017,0.163,0.068,-0.463,1.115
2024-10-15 13:57:52.529,74623.983,0.023,0.438,-0.899,0.198,-0.094,0.065,-0.011,-0.283,-0.512,0.026,-0.453,1.078
2024-10-15 13:57:52.649,74624.103,0.034,0.461,-0.887,-0.13,-0.128,-0.093,-0.534,0.251,0.353,0.038,-0.479,1.089
2024-10-15 13:57:52.769,74624.223,0.04,0.454,-0.89,0.274,-0.18,0.01,-0.121,-0.293,-0.473,0.045,-0.471,1.113
2024-10-15 13:57:52.889,74624.343,0.022,0.458,-0.889,-0.34,0.226,0.029,-0.05,0.086,0.135,0.025,-0.476,1.084
2024-10-15 13:57:53.009,74624.462,0.053,0.447,-0.893,0.199,-0.084,-0.002,0.495,0.106,0.162,0.06,-0.463,1.125
2024-10-15 13:57:53.128,74624.582,0.054,0.462,-0.885,-0.066,0.0,0.05,-0.462,0.525,-0.073,0.061,-0.48,1.099
2024-10-15 13:57:53.248,74624.702,0.162,0.576,-0.801,-0.164,0.242,-0.161,-0.855,1.124,0.409,0.199,-0.614,1.115
2024-10-15 13:57:53.368,74624.822,0.187,0.583,-0.791,0.09,-0.092,0.048,0.412,-0.338,-0.259,0.232,-0.622,1.13
2024-10-15 13:57:53.488,74624.942,0.166,0.554,-0.816,0.019,-0.0,0.139,0.28,-0.311,-0.076,0.2,-0.588,1.113
2024-10-15 13:57:53.608,74625.061,0.139,0.542,-0.829,-0.23,0.1,-0.038,0.233,-0.273,0.403,0.166,-0.573,1.135
2024-10-15 13:57:53.728,74625.181,0.125,0.49,-0.863,0.209,-0.13,0.014,-0.034,-0.428,-0.285,0.144,-0.512,1.139
2024-10-15 13:57:53.848,74625.301,0.083,0.461,-0.883,-0.385,0.273,0.099,0.699,-0.231,0.259,0.093,-0.479,1.103
2024-10-15 13:57:53.967,74625.421,0.108,0.432,-0.895,0.061,0.072,0.077,0.847,0.048,0.528,0.12,-0.447,1.155
2024-10-15 13:57:54.087,74625.54,0.078,0.416,-0.906,-0.021,0.03,0.123,0.312,0.115,-0.321,0.086,-0.429,1.136
2024-10-15 13:57:54.207,74625.66,0.074,0.419,-0.905,-0.329,-0.204,-0.079,-0.001,0.182,0.222,0.081,-0.433,1.119
2024-10-15 13:57:54.327,74625.78,0.083,0.41,-0.908,0.545,-0.543,0.083,-0.437,-0.427,-0.548,0.092,-0.423,1.143
2024-10-15 13:57:54.446,74625.9,0.055,0.422,-0.905,-0.285,0.202,0.092,-0.727,-0.13,-0.194,0.061,-0.435,1.072
2024-10-15 13:57:54.566,74626.02,0.078,0.413,-0.907,-0.216,0.34,-0.108,0.356,0.139,0.719,0.086,-0.426,1.114
2024-10-15 13:57:54.686,74626.139,0.061,0.396,-0.916,-0.044,0.29,-0.031,0.876,0.139,-0.288,0.066,-0.407,1.11
2024-10-15 13:57:54.806,74626.259,0.051,0.378,-0.924,-0.559,0.112,0.005,0.161,0.313,0.309,0.055,-0.388,1.073
2024-10-15 13:57:54.926,74626.379,0.08,0.357,-0.931,0.41,-0.406,0.122,0.203,-0.094,-0.019,0.086,-0.365,1.117
2024-10-15 13:57:55.046,74626.499,0.043,0.371,-0.928,0.181,-0.433,0.108,-0.225,-0.048,-0.701,0.047,-0.38,1.066
2024-10-15 13:57:55.165,74626.619,0.061,0.372,-0.926,-0.068,-0.043,-0.111,-0.118,0.22,0.2,0.066,-0.381,1.073
2024-10-15 13:57:55.285,74626.738,0.074,0.357,-0.931,0.327,-0.337,0.076,-0.554,-0.348,-0.392,0.079,-0.365,1.094
2024-10-15 13:57:55.405,74626.858,0.046,0.381,-0.923,-0.438,0.307,0.068,0.224,-0.014,0.181,0.05,-0.391,1.061
2024-10-15 13:57:55.526,74626.978,0.081,0.385,-0.919,0.301,-0.006,-0.068,0.616,0.012,0.478,0.088,-0.395,1.113
2024-10-15 13:57:55.644,74627.098,0.059,0.373,-0.926,0.206,0.15,0.213,0.05,-0.508,0.056,0.063,-0.383,1.113
2024-10-15 13:57:55.764,74627.218,0.053,0.351,-0.935,-0.177,-0.187,-0.047,0.34,-0.2,0.099,0.057,-0.359,1.127
2024-10-15 13:57:55.884,74627.337,0.042,0.323,-0.946,0.184,-0.238,0.196,-0.494,0.018,0.01,0.044,-0.329,1.139
2024-10-15 13:57:56.004,74627.457,0.035,0.343,-0.939,0.175,-0.153,0.091,-0.285,-0.008,-0.302,0.038,-0.35,1.124
2024-10-15 13:57:56.124,74627.577,0.038,0.344,-0.938,-0.044,-0.178,-0.059,-0.331,-0.133,0.226,0.041,-0.352,1.128
2024-10-15 13:57:56.243,74627.697,0.033,0.335,-0.942,0.355,-0.104,0.07,-0.425,-0.136,-0.412,0.035,-0.342,1.137
2024-10-15 13:57:56.363,74627.817,0.03,0.329,-0.944,-0.308,0.261,0.09,0.253,0.034,0.105,0.032,-0.335,1.106
2024-10-15 13:57:56.483,74627.936,0.045,0.308,-0.95,-0.036,0.385,-0.185,0.559,0.117,0.51,0.048,-0.313,1.137
2024-10-15 13:57:56.603,74628.056,0.038,0.315,-0.948,-0.086,0.283,0.04,0.152,0.335,-0.149,0.04,-0.32,1.12
2024-10-15 13:57:56.722,74628.176,0.042,0.331,-0.943,-0.311,0.016,0.009,0.322,0.2,0.271,0.044,-0.337,1.099
2024-10-15 13:57:56.842,74628.296,0.06,0.258,-0.964,0.169,-0.095,0.042,1.033,-0.049,0.211,0.062,-0.261,1.144
2024-10-15 13:57:56.962,74628.416,0.029,0.285,-0.958,0.151,0.05,-0.021,-0.434,-0.217,-0.509,0.03,-0.289,1.097
2024-10-15 13:57:57.082,74628.535,0.057,0.318,-0.946,-0.054,-0.08,-0.006,-0.455,0.468,-0.025,0.06,-0.324,1.088
2024-10-15 13:57:57.202,74628.655,0.098,0.344,-0.934,-0.002,-0.04,-0.006,-0.139,0.276,-0.002,0.104,-0.351,1.088
2024-10-15 13:57:57.322,74628.775,0.124,0.391,-0.912,-0.054,-0.144,0.017,-0.952,0.298,-0.018,0.135,-0.402,1.093
2024-10-15 13:57:57.441,74628.895,0.188,0.53,-0.827,-0.051,0.129,-0.098,-0.923,0.892,0.121,0.224,-0.558,1.118
2024-10-15 13:57:57.561,74629.015,0.241,0.561,-0.792,0.06,-0.021,0.106,0.115,-0.003,-0.046,0.296,-0.596,1.139
2024-10-15 13:57:57.681,74629.134,0.212,0.534,-0.819,0.094,0.047,-0.01,0.328,-0.3,0.029,0.254,-0.563,1.119
2024-10-15 13:57:57.801,74629.254,0.177,0.458,-0.871,0.01,-0.036,0.057,0.557,-0.54,-0.084,0.201,-0.476,1.098
2024-10-15 13:57:57.921,74629.374,0.144,0.423,-0.895,-0.088,-0.047,0.09,-0.009,-0.459,0.236,0.16,-0.437,1.109
2024-10-15 13:57:58.040,74629.494,0.141,0.415,-0.899,0.357,-0.481,0.168,0.159,-0.32,-0.282,0.156,-0.428,1.159
2024-10-15 13:57:58.160,74629.614,0.094,0.403,-0.91,-0.069,0.054,0.055,0.003,-0.239,-0.215,0.103,-0.415,1.113
2024-10-15 13:57:58.280,74629.733,0.103,0.427,-0.898,-0.1,0.12,-0.052,-0.014,0.172,0.595,0.115,-0.441,1.144
2024-10-15 13:57:58.400,74629.853,0.096,0.404,-0.91,0.052,0.231,-0.079,-0.018,-0.169,-0.114,0.105,-0.416,1.147
2024-10-15 13:57:58.519,74629.973,0.062,0.403,-0.913,-0.49,0.352,-0.043,0.38,0.056,0.103,0.067,-0.415,1.103
2024-10-15 13:57:58.639,74630.093,0.084,0.379,-0.922,-0.091,0.187,0.05,0.619,0.244,0.585,0.091,-0.388,1.139
2024-10-15 13:57:58.759,74630.213,0.062,0.37,-0.927,0.059,0.015,0.011,0.92,0.121,-0.497,0.066,-0.379,1.12
2024-10-15 13:57:58.879,74630.332,0.048,0.348,-0.936,-0.241,-0.262,0.011,-0.012,0.162,0.161,0.051,-0.355,1.095
2024-10-15 13:57:58.998,74630.452,0.09,0.334,-0.938,0.469,-0.398,0.13,0.039,0.027,0.043,0.096,-0.341,1.134
2024-10-15 13:57:59.118,74630.572,0.043,0.341,-0.939,0.208,-0.332,0.075,-0.29,-0.336,-0.801,0.046,-0.348,1.085
2024-10-15 13:57:59.239,74630.692,0.06,0.35,-0.935,0.019,-0.14,-0.059,-0.305,0.194,0.125,0.064,-0.358,1.09
2024-10-15 13:57:59.358,74630.812,0.092,0.329,-0.94,0.559,-0.297,0.076,-0.257,-0.283,-0.316,0.097,-0.335,1.123
2024-10-15 13:57:59.478,74630.931,0.052,0.332,-0.942,-0.434,0.162,0.001,-0.136,-0.049,-0.185,0.055,-0.338,1.074
2024-10-15 13:57:59.598,74631.051,0.075,0.337,-0.939,-0.161,0.245,-0.114,0.116,0.464,0.457,0.08,-0.343,1.093
2024-10-15 13:57:59.717,74631.171,0.084,0.363,-0.928,-0.098,0.327,-0.004,0.368,0.134,-0.13,0.09,-0.371,1.089
2024-10-15 13:57:59.837,74631.291,0.107,0.383,-0.918,-0.062,0.088,-0.046,-0.207,0.452,-0.062,0.116,-0.393,1.066
2024-10-15 13:57:59.957,74631.411,0.13,0.402,-0.906,0.004,0.023,0.001,0.043,0.076,0.047,0.143,-0.413,1.063
2024-10-15 13:58:00.076,74631.53,0.129,0.4,-0.907,-0.158,0.041,0.049,-0.325,-0.407,0.57,0.142,-0.412,1.087
2024-10-15 13:58:00.197,74631.65,0.146,0.368,-0.918,0.451,-0.212,0.082,-0.119,-0.195,-0.031,0.158,-0.377,1.132
2024-10-15 13:58:00.316,74631.77,0.1,0.374,-0.922,-0.253,0.137,-0.124,0.094,-0.12,-0.553,0.108,-0.383,1.086
2024-10-15 13:58:00.437,74631.89,0.099,0.361,-0.927,-0.042,-0.071,-0.082,-0.05,0.15,0.347,0.106,-0.37,1.103
2024-10-15 13:58:00.556,74632.01,0.104,0.35,-0.931,0.199,-0.187,0.044,-0.54,-0.359,-0.405,0.112,-0.358,1.122
2024-10-15 13:58:00.676,74632.129,0.078,0.347,-0.935,-0.546,0.247,0.022,0.599,0.113,0.225,0.084,-0.354,1.092
2024-10-15 13:58:00.796,74632.249,0.116,0.33,-0.937,0.346,-0.153,0.104,0.54,0.107,0.45,0.124,-0.337,1.148
2024-10-15 13:58:00.915,74632.369,0.085,0.349,-0.933,0.488,-0.171,0.03,-0.124,-0.52,-0.656,0.091,-0.357,1.116
2024-10-15 13:58:01.035,74632.489,0.081,0.356,-0.931,-0.017,-0.135,-0.075,-0.756,-0.096,0.455,0.086,-0.364,1.121
2024-10-15 13:58:01.156,74632.609,0.091,0.343,-0.935,0.359,-0.381,0.023,-0.565,-0.243,-0.486,0.097,-0.35,1.153
2024-10-15 13:58:01.275,74632.728,0.067,0.363,-0.93,-0.357,0.198,0.114,-0.147,-0.065,0.042,0.072,-0.371,1.112
2024-10-15 13:58:01.395,74632.848,0.105,0.359,-0.927,0.071,0.174,-0.015,0.521,0.287,0.506,0.113,-0.367,1.157
2024-10-15 13:58:01.514,74632.968,0.081,0.365,-0.928,0.209,-0.1,0.119,-0.194,-0.485,-0.48,0.087,-0.373,1.128
2024-10-15 13:58:01.634,74633.088,0.089,0.383,-0.919,-0.02,-0.067,-0.131,-0.592,0.195,0.36,0.096,-0.393,1.131
2024-10-15 13:58:01.754,74633.208,0.092,0.371,-0.924,0.149,-0.209,-0.029,-0.279,-0.322,-0.458,0.099,-0.381,1.146
2024-10-15 13:58:01.874,74633.327,0.067,0.372,-0.926,-0.471,0.25,0.063,0.15,0.14,0.191,0.073,-0.381,1.123
2024-10-15 13:58:01.994,74633.447,0.106,0.353,-0.93,0.301,-0.284,0.082,0.579,0.113,0.162,0.114,-0.361,1.171
2024-10-15 13:58:02.113,74633.567,0.076,0.365,-0.928,0.251,-0.197,0.093,-0.011,-0.174,-0.432,0.081,-0.374,1.13
2024-10-15 13:58:02.233,74633.687,0.088,0.388,-0.917,-0.078,-0.033,-0.049,-0.399,0.197,0.275,0.096,-0.399,1.132
2024-10-15 13:58:02.353,74633.807,0.111,0.38,-0.918,0.54,-0.413,0.022,-0.271,-0.163,-0.198,0.121,-0.39,1.18
2024-10-15 13:58:02.473,74633.926,0.082,0.403,-0.912,-0.302,0.165,-0.038,-0.283,-0.02,-0.205,0.09,-0.415,1.14
2024-10-15 13:58:02.593,74634.046,0.1,0.397,-0.912,-0.2,0.416,-0.115,0.488,0.294,0.556,0.109,-0.409,1.167
2024-10-15 13:58:02.712,74634.166,0.094,0.405,-0.909,-0.092,0.283,-0.128,0.441,0.138,-0.221,0.103,-0.417,1.159
2024-10-15 13:58:02.833,74634.286,0.089,0.39,-0.916,-0.584,0.102,0.003,0.25,0.256,0.33,0.097,-0.401,1.125
2024-10-15 13:58:02.952,74634.406,0.115,0.366,-0.923,0.559,-0.468,0.107,-0.111,-0.153,-0.127,0.123,-0.375,1.165
2024-10-15 13:58:03.072,74634.525,0.08,0.374,-0.924,-0.259,0.21,0.033,-0.104,-0.1,-0.317,0.086,-0.384,1.117
2024-10-15 13:58:03.192,74634.645,0.101,0.364,-0.926,-0.259,0.4,-0.141,0.604,0.26,0.578,0.108,-0.372,1.143
2024-10-15 13:58:03.311,74634.765,0.094,0.344,-0.934,0.019,0.455,-0.056,0.488,0.095,-0.164,0.1,-0.351,1.129
2024-10-15 13:58:03.431,74634.885,0.088,0.346,-0.934,-0.186,-0.291,-0.065,-0.155,0.142,0.207,0.094,-0.353,1.119
2024-10-15 13:58:03.551,74635.005,0.093,0.334,-0.938,0.523,-0.334,0.012,-0.424,-0.364,-0.612,0.099,-0.34,1.137
2024-10-15 13:58:03.671,74635.124,0.066,0.339,-0.938,-0.553,0.295,0.074,0.126,0.132,0.106,0.07,-0.346,1.097
2024-10-15 13:58:03.790,74635.244,0.101,0.322,-0.941,0.188,-0.081,0.026,0.554,0.131,0.366,0.107,-0.327,1.133
2024-10-15 13:58:03.911,74635.364,0.07,0.317,-0.946,0.235,-0.345,0.112,-0.188,-0.311,-0.548,0.074,-0.322,1.097
2024-10-15 13:58:04.030,74635.484,0.087,0.336,-0.938,-0.041,0.028,-0.108,-0.139,0.364,0.256,0.093,-0.342,1.106
2024-10-15 13:58:04.150,74635.604,0.095,0.35,-0.932,-0.055,0.284,-0.089,0.339,0.102,-0.153,0.102,-0.357,1.101
2024-10-15 13:58:04.270,74635.723,0.107,0.38,-0.919,-0.214,0.114,0.041,-1.028,0.603,-0.012,0.116,-0.39,1.071
2024-10-15 13:58:04.389,74635.843,0.189,0.534,-0.824,0.039,0.087,-0.045,-0.304,0.465,0.085,0.225,-0.564,1.116
2024-10-15 13:58:04.509,74635.963,0.22,0.539,-0.813,0.053,-0.055,0.025,0.034,-0.05,0.136,0.264,-0.57,1.147
2024-10-15 13:58:04.629,74636.083,0.188,0.503,-0.844,-0.017,0.023,-0.153,0.427,-0.046,0.122,0.219,-0.527,1.133
2024-10-15 13:58:04.748,74636.203,0.156,0.421,-0.893,-0.138,-0.055,-0.034,0.168,-0.547,0.162,0.173,-0.435,1.118
2024-10-15 13:58:04.870,74636.322,0.155,0.416,-0.896,0.421,-0.176,0.22,0.112,-0.423,0.049,0.171,-0.429,1.155
2024-10-15 13:58:04.989,74636.442,0.095,0.412,-0.906,-0.414,0.23,-0.133,0.022,-0.2,-0.244,0.105,-0.425,1.117
2024-10-15 13:58:05.108,74636.562,0.108,0.393,-0.913,-0.259,0.423,-0.15,0.805,0.31,0.598,0.118,-0.404,1.15
2024-10-15 13:58:05.228,74636.682,0.107,0.324,-0.94,-0.06,0.115,0.11,0.952,0.128,0.166,0.113,-0.33,1.155
2024-10-15 13:58:05.347,74636.802,0.085,0.284,-0.955,-0.453,-0.102,-0.057,0.2,0.145,0.338,0.089,-0.288,1.137
2024-10-15 13:58:05.468,74636.921,0.115,0.3,-0.947,0.606,-0.447,0.046,-0.171,-0.047,-0.05,0.121,-0.305,1.189
2024-10-15 13:58:05.588,74637.041,0.076,0.282,-0.956,-0.134,0.087,0.033,0.254,-0.303,-0.545,0.079,-0.286,1.151
2024-10-15 13:58:05.708,74637.161,0.068,0.242,-0.968,-0.152,-0.008,-0.046,0.567,0.179,0.485,0.071,-0.244,1.157
2024-10-15 13:58:05.828,74637.281,0.075,0.239,-0.968,0.157,0.107,-0.134,-0.126,-0.252,-0.279,0.077,-0.241,1.182
2024-10-15 13:58:05.946,74637.401,0.048,0.242,-0.969,-0.709,0.371,-0.062,0.697,0.251,0.165,0.05,-0.244,1.14
2024-10-15 13:58:06.067,74637.52,0.086,0.174,-0.981,0.223,-0.018,0.117,0.768,0.233,0.755,0.088,-0.174,1.191
2024-10-15 13:58:06.186,74637.64,0.054,0.153,-0.987,0.506,-0.38,0.211,-0.01,-0.269,-0.636,0.055,-0.153,1.157
2024-10-15 13:58:06.307,74637.76,0.056,0.182,-0.982,-0.037,-0.174,-0.131,-0.501,-0.256,0.274,0.057,-0.183,1.166
2024-10-15 13:58:06.426,74637.88,0.06,0.184,-0.981,0.361,0.013,-0.027,-0.297,-0.389,-0.441,0.061,-0.185,1.195
2024-10-15 13:58:06.546,74638.0,0.039,0.174,-0.984,-0.672,0.629,-0.011,0.498,0.176,0.316,0.039,-0.175,1.15
2024-10-15 13:58:06.666,74638.119,0.07,0.154,-0.986,0.349,-0.217,0.077,0.237,0.012,0.318,0.071,-0.155,1.212
