Date,TimeStamp,GravityX,GravityY,GravityZ,UserAccelerationX,UserAccelerationY,UserAccelerationZ,RotationRateX,RotationRateY,RotationRateZ,AttitudeRoll,AttitudePitch,AttitudeYaw
2024-09-23 11:47:26.958,163179.801,0.195,0.834,-0.517,-0.173,0.013,0.064,-0.13,-0.148,-0.445,0.36,-0.986,1.589
2024-09-23 11:47:27.079,163179.921,0.179,0.834,-0.523,0.102,-0.104,-0.019,0.533,-0.014,0.216,0.33,-0.986,1.559
2024-09-23 11:47:27.197,163180.04,0.176,0.792,-0.585,-0.005,0.041,0.007,0.627,0.051,0.019,0.292,-0.914,1.512
2024-09-23 11:47:27.317,163180.16,0.177,0.781,-0.599,0.007,0.016,-0.007,0.078,-0.029,-0.023,0.287,-0.896,1.501
2024-09-23 11:47:27.437,163180.28,0.178,0.773,-0.61,0.001,0.003,-0.001,0.118,0.018,0.017,0.284,-0.883,1.497
2024-09-23 11:47:27.557,163180.4,0.178,0.771,-0.612,0.001,-0.003,-0.001,0.045,0.012,-0.031,0.283,-0.88,1.492
2024-09-23 11:47:27.677,163180.52,0.172,0.755,-0.632,0.002,0.012,0.007,0.391,-0.046,-0.066,0.266,-0.856,1.472
2024-09-23 11:47:27.797,163180.639,0.175,0.758,-0.628,-0.004,-0.062,-0.012,-0.54,0.093,0.071,0.271,-0.861,1.472
2024-09-23 11:47:27.916,163180.759,0.184,0.778,-0.6,0.002,0.051,0.007,0.023,0.024,-0.009,0.297,-0.892,1.498
2024-09-23 11:47:28.036,163180.879,0.182,0.774,-0.606,-0.002,-0.004,-0.001,0.165,-0.014,-0.011,0.292,-0.885,1.492
2024-09-23 11:47:28.156,163180.999,0.176,0.757,-0.629,-0.009,-0.1,0.005,0.053,0.004,-0.007,0.273,-0.859,1.472
2024-09-23 11:47:28.275,163181.119,0.202,0.771,-0.604,-0.023,-0.003,-0.03,-0.657,0.388,0.28,0.323,-0.881,1.51
2024-09-23 11:47:28.395,163181.238,0.21,0.799,-0.563,-0.094,-0.011,0.097,-0.606,-0.292,-0.724,0.357,-0.926,1.546
2024-09-23 11:47:28.515,163181.358,0.194,0.811,-0.552,0.078,-0.047,-0.041,0.175,0.118,-0.013,0.338,-0.945,1.516
2024-09-23 11:47:28.635,163181.478,0.194,0.81,-0.554,0.003,-0.008,-0.016,-0.119,0.065,0.017,0.336,-0.944,1.504
2024-09-23 11:47:28.755,163181.598,0.197,0.813,-0.548,-0.003,-0.005,-0.004,-0.018,0.023,0.006,0.345,-0.949,1.508
2024-09-23 11:47:28.875,163181.717,0.194,0.812,-0.551,0.003,-0.01,-0.004,-0.008,-0.035,-0.039,0.339,-0.947,1.504
2024-09-23 11:47:28.994,163181.837,0.192,0.814,-0.548,0.003,-0.011,0.001,0.041,0.024,-0.037,0.338,-0.951,1.5
2024-09-23 11:47:29.114,163181.957,0.19,0.809,-0.556,0.006,0.003,-0.0,0.109,-0.051,-0.042,0.329,-0.943,1.49
2024-09-23 11:47:29.234,163182.077,0.188,0.805,-0.563,-0.023,-0.065,-0.018,-0.051,0.019,0.065,0.322,-0.935,1.488
2024-09-23 11:47:29.353,163182.197,0.202,0.817,-0.541,-0.007,0.01,0.008,-0.096,0.082,0.035,0.358,-0.956,1.525
2024-09-23 11:47:29.473,163182.316,0.201,0.816,-0.542,-0.014,-0.007,-0.0,0.007,0.025,-0.035,0.355,-0.954,1.513
2024-09-23 11:47:29.593,163182.436,0.191,0.806,-0.56,0.008,-0.051,-0.028,-0.041,0.009,0.037,0.329,-0.937,1.49
2024-09-23 11:47:29.713,163182.556,0.205,0.805,-0.557,-0.034,-0.011,-0.009,0.141,0.138,0.03,0.352,-0.936,1.509
2024-09-23 11:47:29.833,163182.676,0.212,0.819,-0.533,-0.085,0.106,0.08,-0.161,0.02,-0.015,0.378,-0.96,1.538
2024-09-23 11:47:29.953,163182.796,0.209,0.827,-0.522,0.064,-0.047,-0.025,-0.014,0.059,-0.013,0.382,-0.974,1.537
2024-09-23 11:47:30.072,163182.915,0.208,0.826,-0.524,-0.016,0.017,-0.009,0.083,-0.058,-0.012,0.378,-0.972,1.53
2024-09-23 11:47:30.192,163183.035,0.205,0.822,-0.532,0.009,0.003,0.007,0.073,-0.011,-0.016,0.368,-0.964,1.523
2024-09-23 11:47:30.312,163183.155,0.206,0.816,-0.54,0.009,0.009,0.002,0.17,-0.008,-0.017,0.365,-0.955,1.516
2024-09-23 11:47:30.432,163183.275,0.203,0.805,-0.558,-0.006,-0.013,-0.004,0.14,-0.02,0.001,0.35,-0.935,1.502
2024-09-23 11:47:30.551,163183.395,0.204,0.803,-0.56,0.01,-0.007,-0.017,-0.1,0.016,0.055,0.349,-0.932,1.502
2024-09-23 11:47:30.671,163183.514,0.211,0.811,-0.545,0.009,0.024,-0.001,0.019,-0.026,-0.037,0.37,-0.946,1.522
2024-09-23 11:47:30.793,163183.634,0.21,0.816,-0.538,0.01,0.055,0.003,0.12,-0.039,-0.014,0.373,-0.955,1.523
2024-09-23 11:47:30.911,163183.754,0.205,0.803,-0.56,-0.044,-0.133,-0.039,-0.05,0.037,0.07,0.351,-0.932,1.504
2024-09-23 11:47:31.031,163183.874,0.207,0.803,-0.559,0.016,0.011,-0.011,0.123,0.037,0.018,0.355,-0.932,1.504
2024-09-23 11:47:31.151,163183.994,0.209,0.795,-0.57,-0.03,-0.009,-0.016,-0.175,0.006,0.083,0.351,-0.918,1.495
2024-09-23 11:47:31.270,163184.113,0.217,0.817,-0.534,-0.017,0.147,0.052,0.091,-0.074,-0.002,0.386,-0.957,1.526
2024-09-23 11:47:31.390,163184.233,0.214,0.809,-0.547,0.057,-0.037,-0.0,0.033,0.031,-0.091,0.372,-0.943,1.508
2024-09-23 11:47:31.510,163184.353,0.211,0.806,-0.553,-0.008,-0.023,-0.01,-0.022,-0.005,0.003,0.365,-0.938,1.502
2024-09-23 11:47:31.630,163184.473,0.209,0.805,-0.555,-0.0,-0.017,-0.008,0.011,-0.013,0.008,0.36,-0.936,1.499
2024-09-23 11:47:31.750,163184.593,0.206,0.799,-0.565,0.005,-0.004,0.004,0.155,-0.052,-0.016,0.35,-0.926,1.492
2024-09-23 11:47:31.869,163184.712,0.203,0.794,-0.573,-0.008,-0.033,-0.001,-0.045,0.007,0.008,0.34,-0.917,1.485
2024-09-23 11:47:31.989,163184.832,0.206,0.796,-0.569,0.005,0.033,0.015,0.036,-0.027,-0.035,0.347,-0.921,1.497
2024-09-23 11:47:32.109,163184.952,0.204,0.801,-0.563,-0.011,-0.055,-0.028,-0.126,0.09,-0.043,0.348,-0.928,1.497
2024-09-23 11:47:32.229,163185.072,0.2,0.79,-0.58,-0.002,0.002,-0.004,0.048,-0.025,-0.056,0.332,-0.91,1.481
2024-09-23 11:47:32.349,163185.192,0.204,0.791,-0.576,0.01,0.002,-0.01,0.06,0.041,0.047,0.34,-0.913,1.487
2024-09-23 11:47:32.468,163185.311,0.21,0.803,-0.558,-0.055,-0.099,-0.089,-0.827,0.161,0.183,0.361,-0.932,1.505
2024-09-23 11:47:32.589,163185.431,0.211,0.821,-0.53,0.061,-0.025,0.004,0.07,-0.003,-0.087,0.38,-0.963,1.519
2024-09-23 11:47:32.708,163185.551,0.208,0.814,-0.542,0.023,-0.014,-0.0,0.133,-0.002,-0.051,0.366,-0.951,1.498
2024-09-23 11:47:32.827,163185.671,0.207,0.809,-0.55,0.008,-0.015,-0.004,0.005,-0.006,0.001,0.361,-0.943,1.493
2024-09-23 11:47:32.947,163185.79,0.206,0.8,-0.563,-0.001,-0.002,-0.003,0.178,-0.032,-0.003,0.351,-0.928,1.484
2024-09-23 11:47:33.067,163185.91,0.203,0.79,-0.578,-0.001,-0.009,0.004,-0.011,-0.016,-0.037,0.338,-0.911,1.474
2024-09-23 11:47:33.187,163186.03,0.203,0.79,-0.579,-0.001,-0.025,0.003,-0.026,0.014,0.008,0.337,-0.911,1.474
2024-09-23 11:47:33.307,163186.15,0.207,0.795,-0.571,0.002,-0.007,-0.012,-0.013,0.012,0.032,0.348,-0.918,1.485
2024-09-23 11:47:33.427,163186.27,0.207,0.793,-0.573,0.0,-0.037,-0.013,-0.048,0.024,0.004,0.347,-0.916,1.484
2024-09-23 11:47:33.546,163186.389,0.21,0.806,-0.554,-0.005,-0.067,-0.037,-0.628,0.178,-0.041,0.363,-0.937,1.499
2024-09-23 11:47:33.666,163186.509,0.209,0.803,-0.557,-0.002,-0.029,-0.005,0.119,0.022,-0.014,0.359,-0.933,1.493
2024-09-23 11:47:33.786,163186.629,0.208,0.796,-0.568,0.006,0.005,0.003,0.21,-0.047,-0.007,0.351,-0.921,1.485
2024-09-23 11:47:33.906,163186.749,0.205,0.786,-0.583,0.012,0.009,0.002,0.144,-0.046,0.003,0.339,-0.905,1.475
2024-09-23 11:47:34.025,163186.869,0.209,0.788,-0.579,0.013,-0.007,-0.003,-0.037,0.059,0.022,0.346,-0.907,1.48
2024-09-23 11:47:34.145,163186.988,0.21,0.804,-0.556,0.005,-0.066,-0.013,-1.25,0.186,-0.085,0.362,-0.935,1.492
2024-09-23 11:47:34.265,163187.108,0.223,0.865,-0.449,0.014,0.085,-0.067,-0.758,0.25,-0.014,0.461,-1.045,1.584
2024-09-23 11:47:34.386,163187.228,0.259,0.875,-0.408,0.04,0.032,-0.06,-0.114,0.352,0.421,0.566,-1.066,1.671
2024-09-23 11:47:34.505,163187.348,0.304,0.849,-0.433,0.042,0.013,0.1,0.236,0.126,0.057,0.612,-1.014,1.69
2024-09-23 11:47:34.624,163187.468,0.33,0.799,-0.502,0.008,-0.102,0.071,-0.213,-0.029,0.323,0.582,-0.926,1.654
2024-09-23 11:47:34.744,163187.587,0.333,0.788,-0.517,0.018,-0.005,-0.012,0.115,-0.355,0.026,0.572,-0.908,1.681
2024-09-23 11:47:34.864,163187.707,0.303,0.805,-0.51,-0.029,-0.083,-0.015,-0.823,-0.392,-0.126,0.537,-0.936,1.694
2024-09-23 11:47:34.984,163187.827,0.257,0.851,-0.458,0.049,-0.051,0.039,-0.621,-0.577,-0.269,0.512,-1.018,1.733
2024-09-23 11:47:35.104,163187.947,0.19,0.854,-0.484,-0.013,0.089,-0.03,0.557,-0.698,-0.18,0.374,-1.024,1.669
2024-09-23 11:47:35.224,163188.067,0.137,0.82,-0.556,0.001,-0.035,0.024,0.315,-0.503,-0.178,0.241,-0.961,1.597
2024-09-23 11:47:35.343,163188.186,0.115,0.802,-0.586,-0.054,-0.037,0.087,0.149,-0.09,0.003,0.194,-0.931,1.581
2024-09-23 11:47:35.463,163188.306,0.113,0.789,-0.605,-0.029,0.156,-0.06,0.508,0.013,-0.074,0.184,-0.908,1.571
2024-09-23 11:47:35.583,163188.426,0.085,0.777,-0.624,0.001,-0.111,-0.032,-0.31,-0.074,-0.305,0.135,-0.89,1.513
2024-09-23 11:47:35.702,163188.546,0.072,0.782,-0.619,-0.0,-0.017,0.016,0.215,-0.028,0.01,0.115,-0.898,1.493
2024-09-23 11:47:35.823,163188.666,0.065,0.775,-0.628,0.003,-0.019,-0.007,0.152,-0.069,-0.094,0.103,-0.887,1.482
2024-09-23 11:47:35.942,163188.785,0.056,0.768,-0.638,0.001,-0.026,-0.012,0.108,-0.057,-0.073,0.087,-0.876,1.467
2024-09-23 11:47:36.062,163188.905,0.048,0.75,-0.66,-0.004,-0.011,-0.01,0.099,-0.049,-0.023,0.072,-0.848,1.457
2024-09-23 11:47:36.182,163189.025,0.041,0.739,-0.672,0.0,0.023,0.001,0.391,-0.052,-0.033,0.061,-0.832,1.449
2024-09-23 11:47:36.302,163189.145,0.041,0.728,-0.684,-0.011,-0.096,-0.013,-0.256,0.063,0.046,0.06,-0.815,1.449
2024-09-23 11:47:36.422,163189.265,0.047,0.751,-0.659,-0.015,-0.075,-0.018,-0.284,0.039,0.024,0.071,-0.849,1.456
2024-09-23 11:47:36.541,163189.384,0.043,0.743,-0.668,-0.003,-0.02,-0.006,0.064,-0.04,-0.012,0.064,-0.837,1.453
2024-09-23 11:47:36.661,163189.504,0.036,0.726,-0.687,0.003,0.026,0.012,0.41,-0.072,-0.027,0.052,-0.812,1.445
2024-09-23 11:47:36.781,163189.624,0.038,0.705,-0.708,-0.015,-0.043,-0.007,-0.192,0.141,0.045,0.053,-0.783,1.444
2024-09-23 11:47:36.901,163189.744,0.043,0.717,-0.696,-0.013,-0.065,-0.013,-0.173,0.019,0.021,0.061,-0.8,1.449
2024-09-23 11:47:37.021,163189.864,0.044,0.718,-0.695,-0.0,0.098,-0.014,0.209,-0.02,0.02,0.063,-0.801,1.452
2024-09-23 11:47:37.140,163189.983,0.041,0.715,-0.698,-0.001,-0.005,-0.003,0.111,-0.014,-0.024,0.059,-0.796,1.451
2024-09-23 11:47:37.260,163190.103,0.039,0.707,-0.706,-0.003,-0.002,0.002,0.098,-0.018,-0.015,0.055,-0.785,1.447
2024-09-23 11:47:37.380,163190.223,0.041,0.705,-0.708,-0.007,-0.028,-0.02,-0.386,0.135,0.063,0.057,-0.782,1.448
2024-09-23 11:47:37.500,163190.343,0.045,0.711,-0.701,-0.024,-0.05,-0.015,-0.094,0.11,0.054,0.065,-0.792,1.451
2024-09-23 11:47:37.619,163190.462,0.1,0.773,-0.626,-0.102,0.141,-0.073,-0.513,0.792,0.696,0.158,-0.884,1.522
2024-09-23 11:47:37.739,163190.582,0.099,0.767,-0.634,0.373,-0.086,-0.0,1.051,-0.302,0.262,0.155,-0.875,1.524
2024-09-23 11:47:37.859,163190.702,0.074,0.766,-0.639,-0.04,0.011,0.003,0.23,-0.08,-0.247,0.116,-0.872,1.475
2024-09-23 11:47:37.978,163190.822,0.055,0.759,-0.649,-0.017,0.05,-0.028,-0.054,-0.009,0.011,0.085,-0.861,1.448
2024-09-23 11:47:38.099,163190.942,0.054,0.761,-0.647,0.002,-0.002,0.0,0.058,-0.05,-0.042,0.083,-0.864,1.448
2024-09-23 11:47:38.219,163191.061,0.048,0.756,-0.653,-0.003,-0.02,-0.003,0.081,-0.02,-0.016,0.074,-0.857,1.442
2024-09-23 11:47:38.339,163191.181,0.045,0.748,-0.663,-0.009,-0.062,-0.007,0.125,-0.015,0.001,0.068,-0.845,1.438
2024-09-23 11:47:38.458,163191.301,0.043,0.745,-0.666,-0.018,-0.056,-0.0,-0.158,0.039,0.045,0.065,-0.841,1.436
2024-09-23 11:47:38.578,163191.421,0.045,0.74,-0.671,-0.014,-0.072,0.003,-0.301,0.093,0.039,0.066,-0.833,1.435
2024-09-23 11:47:38.697,163191.541,0.056,0.757,-0.651,0.013,0.059,0.013,0.458,-0.057,-0.035,0.086,-0.858,1.449
2024-09-23 11:47:38.817,163191.66,0.048,0.732,-0.68,-0.003,-0.007,-0.003,0.261,-0.046,-0.026,0.07,-0.821,1.437
2024-09-23 11:47:38.937,163191.78,0.042,0.707,-0.706,0.006,0.061,-0.004,0.144,-0.015,-0.014,0.06,-0.786,1.431
2024-09-23 11:47:39.057,163191.9,0.052,0.726,-0.686,0.016,0.069,0.023,0.271,-0.052,-0.023,0.076,-0.812,1.44
2024-09-23 11:47:39.177,163192.02,0.052,0.72,-0.692,-0.0,-0.01,-0.001,-0.058,-0.01,0.041,0.075,-0.803,1.439
2024-09-23 11:47:39.296,163192.14,0.049,0.701,-0.711,-0.01,-0.069,-0.03,-0.055,-0.014,-0.025,0.069,-0.777,1.437
2024-09-23 11:47:39.416,163192.259,0.052,0.712,-0.7,-0.012,0.001,-0.018,-0.258,0.123,0.068,0.074,-0.793,1.439
2024-09-23 11:47:39.536,163192.379,0.052,0.719,-0.694,-0.002,-0.018,-0.009,0.054,-0.042,-0.029,0.075,-0.802,1.44
2024-09-23 11:47:39.656,163192.499,0.048,0.706,-0.707,-0.011,-0.008,-0.023,0.029,0.01,0.01,0.068,-0.783,1.436
2024-09-23 11:47:39.776,163192.619,0.047,0.693,-0.72,-0.01,-0.046,-0.004,-0.185,0.085,0.041,0.065,-0.765,1.433
2024-09-23 11:47:39.896,163192.739,0.064,0.723,-0.688,0.035,0.079,0.036,0.487,-0.12,-0.088,0.092,-0.808,1.451
2024-09-23 11:47:40.015,163192.858,0.068,0.719,-0.692,-0.011,-0.062,-0.014,-0.393,0.143,0.066,0.098,-0.802,1.451
2024-09-23 11:47:40.136,163192.978,0.131,0.761,-0.636,-0.071,0.215,0.051,0.206,-0.021,0.569,0.203,-0.864,1.538
2024-09-23 11:47:40.255,163193.098,0.137,0.749,-0.648,0.034,-0.101,-0.008,0.122,-0.029,-0.051,0.208,-0.847,1.55
2024-09-23 11:47:40.375,163193.218,0.114,0.725,-0.679,0.003,0.0,-0.012,0.32,-0.151,-0.176,0.167,-0.811,1.513
2024-09-23 11:47:40.494,163193.338,0.091,0.717,-0.691,-0.002,0.023,-0.004,0.178,-0.095,-0.073,0.131,-0.799,1.487
2024-09-23 11:47:40.614,163193.457,0.082,0.69,-0.719,0.006,0.055,-0.0,0.325,0.005,-0.002,0.114,-0.761,1.475
2024-09-23 11:47:40.734,163193.577,0.087,0.688,-0.72,-0.006,0.005,-0.009,0.075,0.025,0.008,0.121,-0.759,1.477
2024-09-23 11:47:40.854,163193.697,0.094,0.704,-0.704,-0.0,0.062,-0.044,-0.404,0.123,0.057,0.132,-0.782,1.483
2024-09-23 11:47:40.974,163193.817,0.094,0.702,-0.706,-0.005,-0.026,-0.002,0.14,-0.02,-0.008,0.132,-0.778,1.482
2024-09-23 11:47:41.094,163193.937,0.093,0.7,-0.709,0.003,-0.012,-0.006,0.066,-0.045,-0.032,0.13,-0.775,1.481
2024-09-23 11:47:41.213,163194.056,0.086,0.684,-0.724,0.0,0.001,-0.008,0.239,-0.079,-0.008,0.118,-0.754,1.474
2024-09-23 11:47:41.333,163194.176,0.085,0.665,-0.742,-0.002,0.01,0.004,0.249,0.048,0.004,0.113,-0.728,1.471
2024-09-23 11:47:41.453,163194.296,0.095,0.69,-0.718,0.021,0.139,0.018,0.228,-0.084,-0.017,0.132,-0.761,1.481
2024-09-23 11:47:41.573,163194.416,0.094,0.69,-0.718,-0.007,-0.033,-0.013,-0.029,0.009,0.03,0.13,-0.762,1.481
2024-09-23 11:47:41.693,163194.535,0.094,0.677,-0.729,-0.001,-0.108,-0.017,-0.101,-0.035,0.021,0.128,-0.744,1.482
2024-09-23 11:47:41.812,163194.655,0.093,0.679,-0.728,-0.005,-0.008,0.01,0.017,0.033,-0.004,0.127,-0.747,1.481
2024-09-23 11:47:41.933,163194.775,0.097,0.69,-0.717,0.008,-0.039,-0.001,0.027,-0.051,-0.018,0.134,-0.762,1.484
2024-09-23 11:47:42.052,163194.895,0.092,0.673,-0.733,0.001,0.019,0.008,0.336,-0.01,0.018,0.125,-0.739,1.479
2024-09-23 11:47:42.172,163195.015,0.1,0.694,-0.713,0.005,0.028,-0.031,-0.3,0.027,0.065,0.14,-0.768,1.489
2024-09-23 11:47:42.291,163195.134,0.106,0.704,-0.702,-0.014,-0.044,-0.041,-0.605,0.136,0.137,0.15,-0.781,1.496
2024-09-23 11:47:42.411,163195.254,0.15,0.752,-0.642,-0.133,0.06,0.019,0.052,0.073,-0.359,0.229,-0.85,1.537
2024-09-23 11:47:42.531,163195.374,0.141,0.776,-0.615,-0.101,-0.1,-0.029,-0.337,0.516,-0.053,0.225,-0.888,1.486
2024-09-23 11:47:42.651,163195.494,0.169,0.796,-0.581,0.02,-0.036,0.04,-0.191,0.091,0.068,0.282,-0.921,1.519
2024-09-23 11:47:42.771,163195.614,0.173,0.797,-0.579,-0.001,-0.075,-0.068,-0.191,-0.016,0.015,0.291,-0.922,1.539
2024-09-23 11:47:42.891,163195.733,0.183,0.844,-0.503,0.019,-0.056,-0.023,-1.457,0.319,0.056,0.349,-1.006,1.586
2024-09-23 11:47:43.010,163195.853,0.197,0.866,-0.46,0.055,0.046,-0.008,-0.109,0.124,-0.022,0.405,-1.047,1.616
2024-09-23 11:47:43.130,163195.973,0.192,0.867,-0.46,0.054,-0.054,-0.012,-0.072,0.017,0.051,0.396,-1.049,1.599
2024-09-23 11:47:43.250,163196.093,0.202,0.869,-0.451,0.026,0.001,-0.032,0.072,0.084,0.045,0.42,-1.054,1.614
2024-09-23 11:47:43.370,163196.213,0.224,0.835,-0.503,0.041,-0.071,0.012,0.564,0.255,0.306,0.419,-0.987,1.598
2024-09-23 11:47:43.489,163196.332,0.239,0.773,-0.588,-0.036,-0.093,0.094,0.615,-0.196,0.026,0.386,-0.883,1.552
2024-09-23 11:47:43.609,163196.452,0.22,0.761,-0.61,-0.022,0.074,-0.076,-0.062,0.006,-0.063,0.346,-0.866,1.522
2024-09-23 11:47:43.733,163196.572,0.217,0.772,-0.598,0.008,0.034,-0.031,0.009,0.042,-0.044,0.349,-0.881,1.515
2024-09-23 11:47:43.849,163196.692,0.212,0.779,-0.59,0.004,0.063,-0.046,0.012,-0.026,-0.018,0.345,-0.893,1.513
2024-09-23 11:47:43.968,163196.812,0.214,0.801,-0.559,0.032,-0.035,-0.009,-0.509,0.0,-0.008,0.366,-0.929,1.537
2024-09-23 11:47:44.089,163196.931,0.214,0.824,-0.525,0.036,-0.081,0.049,-0.687,-0.086,0.149,0.387,-0.968,1.569
2024-09-23 11:47:44.207,163197.051,0.219,0.829,-0.515,-0.022,-0.02,-0.078,0.123,0.073,0.012,0.403,-0.977,1.592
2024-09-23 11:47:44.328,163197.171,0.218,0.814,-0.538,-0.023,-0.011,-0.013,0.298,-0.026,-0.076,0.385,-0.952,1.566
2024-09-23 11:47:44.448,163197.291,0.213,0.813,-0.542,0.002,-0.021,-0.007,-0.089,0.078,-0.072,0.374,-0.949,1.546
2024-09-23 11:47:44.567,163197.411,0.209,0.811,-0.546,-0.0,-0.023,-0.009,0.072,0.013,-0.028,0.365,-0.946,1.534
2024-09-23 11:47:44.687,163197.53,0.207,0.795,-0.57,-0.013,-0.0,-0.001,0.151,-0.06,-0.017,0.349,-0.92,1.519
2024-09-23 11:47:44.807,163197.65,0.211,0.807,-0.552,0.029,-0.024,-0.025,-0.115,0.046,-0.024,0.365,-0.939,1.533
2024-09-23 11:47:44.927,163197.77,0.206,0.788,-0.579,-0.008,0.017,0.016,0.356,-0.083,-0.05,0.342,-0.908,1.515
2024-09-23 11:47:45.046,163197.89,0.204,0.781,-0.59,-0.049,-0.066,-0.066,-0.237,0.167,-0.075,0.333,-0.897,1.503
2024-09-23 11:47:45.167,163198.01,0.209,0.781,-0.588,-0.032,-0.063,-0.028,-0.126,-0.032,0.049,0.341,-0.897,1.507
2024-09-23 11:47:45.286,163198.129,0.207,0.774,-0.599,-0.015,-0.049,-0.034,0.08,-0.001,0.021,0.333,-0.885,1.512
2024-09-23 11:47:45.406,163198.249,0.205,0.771,-0.603,-0.03,-0.026,-0.021,0.028,0.001,0.006,0.329,-0.881,1.508
2024-09-23 11:47:45.526,163198.369,0.203,0.767,-0.608,-0.002,-0.007,0.001,0.093,-0.037,-0.017,0.323,-0.874,1.503
2024-09-23 11:47:45.646,163198.489,0.206,0.77,-0.604,0.01,-0.02,-0.015,-0.019,0.043,0.052,0.329,-0.879,1.5
2024-09-23 11:47:45.767,163198.608,0.207,0.779,-0.592,-0.008,-0.068,-0.034,-0.789,-0.003,0.079,0.337,-0.893,1.506
2024-09-23 11:47:45.885,163198.728,0.224,0.841,-0.492,0.021,0.049,0.032,-0.208,0.13,-0.045,0.427,-0.999,1.586
2024-09-23 11:47:46.005,163198.848,0.227,0.833,-0.505,-0.021,0.078,-0.07,-0.028,0.122,0.017,0.423,-0.985,1.57
2024-09-23 11:47:46.125,163198.968,0.247,0.844,-0.477,0.007,-0.036,0.01,-0.225,0.155,0.081,0.479,-1.004,1.611
2024-09-23 11:47:46.245,163199.088,0.237,0.864,-0.445,-0.005,-0.107,0.099,-0.708,-0.068,-0.218,0.49,-1.043,1.621
2024-09-23 11:47:46.364,163199.207,0.234,0.876,-0.422,0.009,-0.023,0.006,-0.035,0.069,0.072,0.507,-1.067,1.637
2024-09-23 11:47:46.484,163199.327,0.232,0.841,-0.489,0.041,0.004,-0.017,0.164,0.07,0.047,0.444,-0.999,1.57
2024-09-23 11:47:46.604,163199.447,0.245,0.841,-0.482,0.025,0.043,0.043,-0.042,-0.103,0.111,0.471,-0.999,1.602
2024-09-23 11:47:46.724,163199.567,0.235,0.829,-0.507,-0.044,-0.042,-0.089,0.013,0.019,-0.004,0.434,-0.978,1.579
2024-09-23 11:47:46.844,163199.687,0.228,0.834,-0.503,0.014,0.025,-0.05,0.036,-0.141,0.009,0.426,-0.986,1.575
2024-09-23 11:47:46.963,163199.806,0.223,0.829,-0.513,0.018,0.048,0.001,0.364,-0.092,-0.03,0.411,-0.977,1.561
2024-09-23 11:47:47.083,163199.926,0.222,0.823,-0.523,-0.055,0.024,-0.032,-0.086,0.09,0.011,0.402,-0.966,1.554
2024-09-23 11:47:47.203,163200.046,0.227,0.828,-0.513,-0.029,-0.034,-0.029,-0.693,0.108,0.034,0.416,-0.976,1.563
2024-09-23 11:47:47.323,163200.166,0.239,0.844,-0.481,0.02,-0.014,-0.027,-0.012,0.074,0.068,0.461,-1.004,1.603
2024-09-23 11:47:47.443,163200.286,0.245,0.835,-0.493,-0.011,-0.037,0.01,0.258,0.006,0.026,0.461,-0.987,1.596
2024-09-23 11:47:47.563,163200.405,0.246,0.797,-0.552,-0.006,0.038,-0.021,0.672,-0.167,0.04,0.419,-0.923,1.552
2024-09-23 11:47:47.682,163200.525,0.242,0.769,-0.591,-0.036,-0.039,0.003,0.134,0.041,-0.076,0.389,-0.878,1.52
2024-09-23 11:47:47.802,163200.645,0.235,0.757,-0.61,0.014,0.016,-0.026,0.255,-0.084,-0.083,0.368,-0.859,1.494
2024-09-23 11:47:47.922,163200.765,0.229,0.741,-0.632,-0.008,-0.028,-0.005,0.142,-0.038,-0.012,0.348,-0.834,1.475
2024-09-23 11:47:48.042,163200.885,0.223,0.727,-0.649,0.001,0.005,0.014,0.326,-0.072,-0.018,0.331,-0.815,1.46
2024-09-23 11:47:48.161,163201.004,0.216,0.695,-0.686,-0.041,-0.024,-0.002,0.276,0.051,-0.054,0.305,-0.768,1.434
2024-09-23 11:47:48.281,163201.124,0.216,0.686,-0.695,0.029,0.016,0.007,0.126,-0.021,-0.015,0.302,-0.756,1.421
2024-09-23 11:47:48.401,163201.244,0.216,0.68,-0.7,0.004,-0.0,-0.0,0.057,-0.035,0.041,0.3,-0.748,1.419
2024-09-23 11:47:48.521,163201.364,0.217,0.677,-0.704,0.017,-0.073,-0.046,-0.075,-0.01,0.038,0.299,-0.743,1.431
2024-09-23 11:47:48.640,163201.484,0.222,0.696,-0.683,-0.018,-0.041,-0.043,-0.428,0.12,0.004,0.314,-0.77,1.445
2024-09-23 11:47:48.760,163201.603,0.221,0.696,-0.683,0.003,-0.012,-0.01,0.24,-0.054,-0.003,0.313,-0.77,1.445
2024-09-23 11:47:48.879,163201.723,0.219,0.677,-0.703,-0.002,0.01,0.015,0.266,-0.049,-0.003,0.302,-0.744,1.435
2024-09-23 11:47:49.000,163201.843,0.218,0.666,-0.713,-0.002,-0.067,-0.061,0.11,0.064,0.01,0.297,-0.729,1.422
2024-09-23 11:47:49.120,163201.963,0.219,0.658,-0.721,-0.002,-0.064,-0.042,-0.158,0.016,-0.009,0.295,-0.718,1.411
2024-09-23 11:47:49.239,163202.083,0.237,0.733,-0.638,-0.012,-0.012,-0.078,-0.796,-0.016,-0.128,0.356,-0.823,1.476
2024-09-23 11:47:49.360,163202.202,0.233,0.725,-0.648,0.075,-0.082,0.081,0.096,-0.059,0.062,0.345,-0.812,1.447
2024-09-23 11:47:49.480,163202.322,0.231,0.726,-0.648,-0.018,0.045,-0.034,0.134,-0.074,0.005,0.343,-0.812,1.445
2024-09-23 11:47:49.599,163202.442,0.228,0.721,-0.655,-0.002,-0.011,0.014,0.022,-0.032,0.023,0.336,-0.805,1.445
2024-09-23 11:47:49.719,163202.562,0.229,0.709,-0.667,0.006,0.014,0.008,0.203,-0.011,-0.025,0.33,-0.788,1.44
2024-09-23 11:47:49.838,163202.681,0.225,0.69,-0.688,-0.04,-0.055,-0.007,-0.017,0.052,-0.004,0.316,-0.762,1.427
2024-09-23 11:47:49.958,163202.801,0.229,0.686,-0.691,-0.041,-0.121,-0.017,-0.343,0.114,0.027,0.319,-0.756,1.423
2024-09-23 11:47:50.078,163202.921,0.237,0.709,-0.664,0.022,-0.014,-0.02,-0.094,0.006,0.012,0.343,-0.788,1.443
2024-09-23 11:47:50.198,163203.041,0.235,0.705,-0.67,0.002,-0.008,-0.011,0.119,-0.075,0.022,0.337,-0.782,1.442
2024-09-23 11:47:50.318,163203.161,0.23,0.686,-0.69,-0.014,-0.026,0.004,0.193,-0.033,0.006,0.321,-0.757,1.432
2024-09-23 11:47:50.438,163203.28,0.232,0.686,-0.69,-0.018,-0.008,-0.06,-0.094,0.077,0.021,0.325,-0.755,1.427
2024-09-23 11:47:50.558,163203.4,0.233,0.682,-0.693,-0.008,0.0,-0.004,0.04,-0.009,-0.009,0.324,-0.751,1.425
2024-09-23 11:47:50.677,163203.52,0.233,0.679,-0.696,-0.017,0.079,0.008,0.078,-0.195,0.084,0.323,-0.747,1.436
2024-09-23 11:47:50.797,163203.64,0.229,0.683,-0.694,-0.021,-0.061,-0.002,-0.207,0.065,0.049,0.319,-0.752,1.437
2024-09-23 11:47:50.916,163203.76,0.235,0.698,-0.677,0.01,0.02,-0.002,0.077,-0.016,0.015,0.334,-0.772,1.449
2024-09-23 11:47:51.036,163203.879,0.231,0.683,-0.693,0.009,0.006,-0.007,0.307,-0.125,-0.006,0.322,-0.752,1.44
2024-09-23 11:47:51.156,163203.999,0.226,0.669,-0.708,-0.022,-0.02,-0.001,0.125,-0.009,0.002,0.309,-0.732,1.43
2024-09-23 11:47:51.277,163204.119,0.229,0.661,-0.715,0.026,0.041,0.007,0.2,-0.003,-0.083,0.31,-0.722,1.423
2024-09-23 11:47:51.396,163204.239,0.231,0.711,-0.664,-0.026,-0.113,-0.054,-2.141,0.23,-0.053,0.335,-0.791,1.447
2024-09-23 11:47:51.516,163204.359,0.24,0.847,-0.474,0.078,0.093,-0.028,-0.646,-0.008,0.067,0.469,-1.01,1.574
2024-09-23 11:47:51.635,163204.478,0.256,0.816,-0.517,0.021,-0.0,-0.081,0.469,-0.061,0.339,0.46,-0.955,1.576
2024-09-23 11:47:51.755,163204.598,0.271,0.776,-0.569,0.006,-0.043,0.076,0.109,-0.461,0.172,0.445,-0.888,1.595
2024-09-23 11:47:51.875,163204.718,0.231,0.785,-0.576,-0.051,-0.111,0.108,-0.555,-0.769,0.069,0.381,-0.902,1.621
2024-09-23 11:47:51.994,163204.838,0.177,0.818,-0.548,-0.024,-0.055,0.015,-0.317,-0.556,-0.2,0.312,-0.957,1.633
2024-09-23 11:47:52.115,163204.958,0.114,0.829,-0.547,0.007,-0.046,0.052,0.086,-0.432,-0.195,0.205,-0.977,1.58
2024-09-23 11:47:52.234,163205.077,0.079,0.812,-0.579,0.056,-0.091,-0.11,0.478,-0.369,-0.196,0.136,-0.947,1.526
2024-09-23 11:47:52.354,163205.197,0.079,0.781,-0.619,0.004,-0.037,-0.005,0.179,-0.007,-0.067,0.127,-0.897,1.508
2024-09-23 11:47:52.474,163205.317,0.078,0.778,-0.623,-0.009,0.004,-0.017,-0.076,0.065,0.006,0.124,-0.892,1.501
2024-09-23 11:47:52.593,163205.437,0.078,0.777,-0.624,0.004,0.007,-0.008,0.147,-0.062,-0.051,0.125,-0.89,1.498
2024-09-23 11:47:52.713,163205.557,0.07,0.743,-0.666,-0.029,-0.217,-0.005,0.003,0.041,0.04,0.104,-0.837,1.483
2024-09-23 11:47:52.833,163205.676,0.075,0.75,-0.657,-0.001,-0.047,-0.009,-0.169,0.038,-0.019,0.113,-0.848,1.488
2024-09-23 11:47:52.953,163205.796,0.082,0.775,-0.626,0.008,0.059,0.013,0.26,-0.029,-0.015,0.13,-0.887,1.501
2024-09-23 11:47:53.073,163205.916,0.082,0.766,-0.637,-0.002,-0.017,-0.003,0.106,0.001,0.005,0.127,-0.873,1.498
2024-09-23 11:47:53.193,163206.036,0.082,0.762,-0.642,-0.003,-0.014,-0.01,0.005,0.001,-0.003,0.127,-0.867,1.498
2024-09-23 11:47:53.313,163206.156,0.083,0.761,-0.643,-0.002,-0.009,-0.006,0.023,-0.011,-0.006,0.128,-0.866,1.498
2024-09-23 11:47:53.432,163206.275,0.08,0.755,-0.651,-0.001,-0.006,-0.002,0.219,-0.05,-0.016,0.122,-0.855,1.494
2024-09-23 11:47:53.552,163206.395,0.079,0.735,-0.674,-0.006,-0.017,0.001,0.23,0.016,-0.005,0.116,-0.825,1.489
2024-09-23 11:47:53.672,163206.515,0.081,0.75,-0.657,0.016,0.09,0.016,0.234,-0.043,-0.029,0.123,-0.847,1.492
2024-09-23 11:47:53.791,163206.635,0.086,0.753,-0.652,-0.01,-0.04,-0.027,-0.47,0.138,0.082,0.131,-0.853,1.496
2024-09-23 11:47:53.911,163206.754,0.09,0.764,-0.639,0.004,-0.006,-0.002,0.291,-0.077,-0.054,0.141,-0.87,1.503
2024-09-23 11:47:54.031,163206.874,0.087,0.755,-0.65,-0.003,-0.005,-0.011,0.064,-0.01,-0.004,0.133,-0.856,1.497
2024-09-23 11:47:54.151,163206.994,0.083,0.747,-0.659,-0.001,-0.001,-0.005,0.135,-0.034,-0.022,0.126,-0.844,1.492
2024-09-23 11:47:54.271,163207.114,0.083,0.746,-0.66,-0.005,-0.025,-0.007,0.008,0.002,0.002,0.125,-0.842,1.492
2024-09-23 11:47:54.390,163207.234,0.084,0.747,-0.659,-0.005,-0.026,-0.016,-0.047,0.005,0.025,0.127,-0.844,1.494
2024-09-23 11:47:54.510,163207.353,0.085,0.746,-0.661,-0.005,-0.025,-0.021,-0.067,-0.005,0.006,0.128,-0.842,1.497
2024-09-23 11:47:54.630,163207.473,0.085,0.749,-0.657,-0.012,-0.041,-0.032,-0.377,0.084,0.019,0.128,-0.847,1.495
2024-09-23 11:47:54.750,163207.593,0.081,0.754,-0.651,0.005,0.009,0.013,0.475,-0.08,-0.047,0.124,-0.855,1.492
2024-09-23 11:47:54.869,163207.713,0.08,0.746,-0.661,-0.005,-0.024,-0.009,0.019,-0.0,0.011,0.12,-0.842,1.489
2024-09-23 11:47:54.990,163207.833,0.091,0.747,-0.658,-0.007,0.006,-0.005,0.122,0.074,0.096,0.137,-0.844,1.502
2024-09-23 11:47:55.111,163207.952,0.089,0.746,-0.66,-0.007,-0.058,-0.005,-0.224,0.036,-0.038,0.134,-0.842,1.498
2024-09-23 11:47:55.228,163208.072,0.087,0.755,-0.649,0.003,0.007,-0.004,0.118,-0.051,-0.036,0.133,-0.856,1.496
2024-09-23 11:47:55.349,163208.192,0.085,0.752,-0.654,-0.003,-0.016,-0.008,-0.008,0.008,0.009,0.129,-0.851,1.494
2024-09-23 11:47:55.469,163208.312,0.082,0.745,-0.662,0.004,0.008,-0.004,0.192,-0.053,-0.017,0.123,-0.841,1.49
2024-09-23 11:47:55.588,163208.432,0.083,0.737,-0.671,-0.023,-0.065,-0.015,-0.217,0.119,0.079,0.123,-0.829,1.49
2024-09-23 11:47:55.708,163208.551,0.086,0.746,-0.66,-0.018,-0.085,-0.012,-0.172,0.017,-0.011,0.13,-0.842,1.493
2024-09-23 11:47:55.828,163208.671,0.087,0.745,-0.661,0.001,-0.038,-0.006,0.034,-0.006,-0.011,0.13,-0.841,1.492
2024-09-23 11:47:55.948,163208.791,0.083,0.741,-0.667,-0.008,-0.07,-0.009,0.023,-0.009,0.006,0.123,-0.834,1.488
2024-09-23 11:47:56.067,163208.911,0.088,0.745,-0.661,-0.0,-0.04,-0.003,-0.137,0.063,-0.015,0.133,-0.84,1.495
2024-09-23 11:47:56.188,163209.031,0.096,0.773,-0.627,0.016,0.038,0.019,0.268,-0.106,-0.086,0.151,-0.883,1.504
2024-09-23 11:47:56.307,163209.15,0.087,0.765,-0.639,-0.0,-0.002,-0.002,0.1,-0.033,-0.008,0.135,-0.871,1.494
2024-09-23 11:47:56.427,163209.27,0.082,0.753,-0.653,0.002,0.026,-0.005,0.192,-0.021,0.002,0.126,-0.853,1.488
2024-09-23 11:47:56.547,163209.39,0.085,0.751,-0.655,-0.012,-0.028,-0.041,-0.389,0.107,0.016,0.128,-0.849,1.487
2024-09-23 11:47:56.667,163209.51,0.085,0.759,-0.645,-0.005,-0.034,-0.012,-0.057,0.067,0.04,0.132,-0.862,1.49
2024-09-23 11:47:56.787,163209.63,0.093,0.756,-0.648,0.003,-0.046,-0.013,-0.005,-0.023,-0.035,0.143,-0.857,1.497
2024-09-23 11:47:56.907,163209.749,0.095,0.769,-0.632,0.005,0.045,-0.004,-0.03,0.015,0.005,0.15,-0.878,1.502
2024-09-23 11:47:57.026,163209.869,0.09,0.762,-0.641,-0.001,-0.017,-0.005,0.047,-0.036,-0.028,0.14,-0.867,1.494
2024-09-23 11:47:57.146,163209.989,0.085,0.752,-0.654,0.006,0.015,0.001,0.17,-0.025,-0.017,0.129,-0.851,1.487
2024-09-23 11:47:57.266,163210.109,0.089,0.75,-0.655,-0.009,-0.045,-0.016,-0.19,0.086,0.054,0.136,-0.848,1.494
2024-09-23 11:47:57.386,163210.229,0.136,0.807,-0.574,-0.227,0.05,0.157,-0.991,-0.009,-1.047,0.232,-0.94,1.563
2024-09-23 11:47:57.505,163210.348,0.157,0.832,-0.532,0.135,-0.093,-0.04,-0.271,0.105,0.16,0.287,-0.983,1.6
2024-09-23 11:47:57.625,163210.468,0.164,0.842,-0.515,0.012,-0.082,0.002,0.005,-0.035,-0.206,0.308,-1.0,1.609
2024-09-23 11:47:57.745,163210.588,0.152,0.806,-0.572,0.063,-0.114,0.028,0.448,-0.093,-0.196,0.26,-0.938,1.553
2024-09-23 11:47:57.865,163210.708,0.138,0.789,-0.599,0.016,-0.119,0.007,0.095,-0.094,-0.085,0.226,-0.909,1.521
2024-09-23 11:47:57.984,163210.827,0.128,0.777,-0.616,-0.0,-0.045,-0.008,0.102,-0.029,-0.026,0.204,-0.89,1.504
2024-09-23 11:47:58.104,163210.947,0.125,0.758,-0.64,-0.008,-0.107,-0.0,0.113,0.023,0.008,0.193,-0.861,1.493
2024-09-23 11:47:58.224,163211.067,0.133,0.759,-0.637,0.002,0.053,0.003,0.146,0.004,0.024,0.205,-0.862,1.501
2024-09-23 11:47:58.343,163211.187,0.131,0.765,-0.631,-0.009,-0.046,-0.017,-0.166,0.041,0.039,0.205,-0.871,1.502
2024-09-23 11:47:58.464,163211.307,0.133,0.759,-0.638,-0.0,-0.03,-0.014,0.05,-0.005,-0.005,0.205,-0.861,1.502
2024-09-23 11:47:58.583,163211.426,0.13,0.754,-0.644,-0.002,-0.05,-0.011,0.022,0.007,0.002,0.199,-0.854,1.498
2024-09-23 11:47:58.703,163211.546,0.131,0.752,-0.646,-0.008,-0.061,-0.037,-0.509,0.156,-0.038,0.2,-0.851,1.494
2024-09-23 11:47:58.824,163211.666,0.136,0.752,-0.645,-0.0,-0.068,-0.003,-0.05,0.008,0.045,0.208,-0.851,1.497
2024-09-23 11:47:58.943,163211.786,0.143,0.76,-0.634,0.01,0.025,0.003,0.078,-0.018,-0.031,0.221,-0.863,1.508
2024-09-23 11:47:59.063,163211.906,0.136,0.751,-0.646,-0.003,0.007,-0.002,0.071,-0.019,-0.013,0.208,-0.85,1.496
2024-09-23 11:47:59.182,163212.025,0.139,0.756,-0.64,-0.004,-0.007,0.014,-0.016,-0.034,0.116,0.214,-0.857,1.504
2024-09-23 11:47:59.302,163212.145,0.14,0.754,-0.642,0.008,-0.004,0.004,0.013,-0.072,-0.025,0.214,-0.854,1.51
2024-09-23 11:47:59.422,163212.265,0.137,0.771,-0.622,0.006,0.091,0.02,0.344,-0.081,-0.079,0.217,-0.88,1.511
2024-09-23 11:47:59.542,163212.385,0.134,0.757,-0.64,-0.004,0.06,-0.003,0.068,0.021,0.026,0.206,-0.858,1.499
2024-09-23 11:47:59.662,163212.505,0.145,0.762,-0.631,0.01,0.005,0.0,0.018,-0.031,-0.04,0.225,-0.867,1.516
2024-09-23 11:47:59.781,163212.624,0.134,0.771,-0.623,-0.005,0.025,-0.005,0.095,-0.037,-0.024,0.212,-0.88,1.505
2024-09-23 11:47:59.901,163212.744,0.132,0.767,-0.628,-0.002,-0.019,-0.004,-0.004,-0.008,-0.023,0.208,-0.874,1.501
2024-09-23 11:48:00.021,163212.864,0.133,0.764,-0.631,0.001,-0.004,-0.01,0.093,-0.009,-0.007,0.207,-0.87,1.5
2024-09-23 11:48:00.141,163212.984,0.13,0.755,-0.643,0.002,0.026,0.004,0.075,0.013,0.026,0.2,-0.855,1.493
2024-09-23 11:48:00.260,163213.104,0.141,0.762,-0.633,0.006,0.005,-0.012,-0.272,0.019,-0.037,0.219,-0.866,1.507
2024-09-23 11:48:00.380,163213.223,0.133,0.762,-0.634,-0.003,-0.013,-0.001,0.196,-0.023,-0.019,0.207,-0.866,1.496
2024-09-23 11:48:00.500,163213.343,0.133,0.756,-0.641,-0.01,-0.027,-0.012,-0.21,0.037,0.068,0.205,-0.857,1.493
2024-09-23 11:48:00.620,163213.463,0.142,0.777,-0.614,-0.004,-0.01,-0.012,-0.359,0.093,-0.024,0.227,-0.889,1.513
2024-09-23 11:48:00.740,163213.583,0.134,0.769,-0.625,-0.004,-0.068,-0.01,-0.043,-0.016,-0.008,0.211,-0.877,1.497
2024-09-23 11:48:00.859,163213.703,0.133,0.763,-0.632,0.0,-0.009,-0.004,0.218,-0.015,-0.011,0.207,-0.868,1.495
2024-09-23 11:48:00.979,163213.822,0.131,0.751,-0.648,0.005,-0.005,0.008,0.194,-0.035,-0.035,0.2,-0.849,1.487
2024-09-23 11:48:01.099,163213.942,0.131,0.76,-0.637,0.001,0.055,-0.014,-0.087,0.026,-0.007,0.203,-0.863,1.486
2024-09-23 11:48:01.219,163214.062,0.139,0.765,-0.629,-0.01,-0.057,-0.021,-0.051,0.078,0.128,0.217,-0.871,1.498
2024-09-23 11:48:01.339,163214.182,0.141,0.764,-0.63,0.0,0.006,0.01,0.344,-0.076,-0.037,0.221,-0.869,1.5
2024-09-23 11:48:01.459,163214.302,0.137,0.763,-0.632,0.004,0.009,-0.005,0.053,-0.032,-0.052,0.214,-0.867,1.495
2024-09-23 11:48:01.578,163214.421,0.135,0.755,-0.642,-0.007,-0.02,-0.007,0.004,0.009,0.028,0.207,-0.855,1.488
2024-09-23 11:48:01.698,163214.541,0.138,0.75,-0.647,0.002,-0.006,-0.02,-0.114,-0.003,0.028,0.211,-0.848,1.498
2024-09-23 11:48:01.818,163214.661,0.182,0.782,-0.596,-0.02,0.037,0.003,-0.212,0.129,0.554,0.296,-0.898,1.561
2024-09-23 11:48:01.938,163214.781,0.154,0.815,-0.559,0.246,0.284,-0.128,0.017,-0.189,-0.014,0.27,-0.952,1.557
2024-09-23 11:48:02.058,163214.9,0.158,0.814,-0.559,0.005,-0.009,-0.0,0.244,0.023,0.01,0.275,-0.951,1.55
2024-09-23 11:48:02.177,163215.02,0.159,0.796,-0.584,-0.009,-0.006,-0.023,0.383,0.037,0.002,0.266,-0.92,1.533
2024-09-23 11:48:02.296,163215.14,0.161,0.782,-0.602,0.002,-0.066,-0.024,-0.362,0.119,0.049,0.261,-0.899,1.525
2024-09-23 11:48:02.417,163215.26,0.173,0.807,-0.565,0.026,0.038,0.004,0.089,-0.005,-0.007,0.297,-0.938,1.547
2024-09-23 11:48:02.537,163215.38,0.171,0.799,-0.576,0.007,0.019,0.006,0.327,-0.034,0.093,0.289,-0.926,1.537
2024-09-23 11:48:02.657,163215.499,0.174,0.783,-0.597,0.027,0.025,-0.002,-0.018,0.04,-0.008,0.284,-0.9,1.532
2024-09-23 11:48:02.776,163215.619,0.176,0.785,-0.594,0.007,-0.033,-0.02,-0.038,0.028,-0.012,0.289,-0.902,1.531
2024-09-23 11:48:02.896,163215.739,0.179,0.79,-0.586,-0.029,-0.023,-0.018,-0.226,-0.093,0.049,0.296,-0.911,1.54
2024-09-23 11:48:03.016,163215.859,0.179,0.795,-0.58,0.001,0.001,0.004,0.027,0.015,-0.054,0.299,-0.919,1.548
2024-09-23 11:48:03.136,163215.979,0.179,0.806,-0.565,0.034,0.051,0.023,0.229,-0.099,-0.17,0.306,-0.937,1.549
2024-09-23 11:48:03.256,163216.098,0.173,0.791,-0.587,-0.057,-0.099,-0.012,-0.033,0.099,0.1,0.287,-0.912,1.531
2024-09-23 11:48:03.375,163216.218,0.18,0.8,-0.572,0.04,0.034,-0.015,0.034,-0.003,-0.083,0.305,-0.927,1.549
2024-09-23 11:48:03.495,163216.338,0.173,0.808,-0.563,0.011,0.02,0.007,0.082,-0.023,-0.055,0.299,-0.941,1.534
2024-09-23 11:48:03.615,163216.458,0.17,0.796,-0.581,0.02,0.027,0.024,0.21,-0.099,0.032,0.285,-0.92,1.522
2024-09-23 11:48:03.735,163216.578,0.174,0.793,-0.584,-0.034,-0.054,-0.029,-0.274,0.151,0.171,0.29,-0.916,1.53
2024-09-23 11:48:03.855,163216.697,0.182,0.801,-0.57,-0.026,-0.033,-0.026,-0.367,0.079,-0.033,0.309,-0.929,1.54
2024-09-23 11:48:03.974,163216.817,0.176,0.799,-0.575,-0.001,-0.018,-0.01,0.193,-0.027,-0.08,0.297,-0.926,1.529
2024-09-23 11:48:04.094,163216.937,0.178,0.796,-0.578,0.015,-0.025,-0.0,-0.221,0.054,0.106,0.299,-0.921,1.534
2024-09-23 11:48:04.213,163217.057,0.183,0.813,-0.552,0.029,0.046,0.01,0.215,-0.043,-0.079,0.32,-0.95,1.543
2024-09-23 11:48:04.334,163217.177,0.173,0.793,-0.584,-0.024,-0.106,-0.038,0.007,0.079,0.0,0.288,-0.915,1.52
2024-09-23 11:48:04.453,163217.296,0.177,0.8,-0.574,-0.001,0.041,0.011,0.103,-0.021,-0.016,0.299,-0.927,1.521
2024-09-23 11:48:04.573,163217.416,0.184,0.798,-0.574,-0.012,0.001,0.002,0.013,-0.045,0.062,0.31,-0.924,1.534
2024-09-23 11:48:04.693,163217.536,0.184,0.801,-0.57,-0.014,0.003,0.014,-0.031,-0.002,-0.133,0.312,-0.928,1.532
2024-09-23 11:48:04.812,163217.656,0.182,0.804,-0.566,0.006,-0.006,-0.008,0.052,-0.054,-0.062,0.311,-0.934,1.529
2024-09-23 11:48:04.932,163217.776,0.178,0.796,-0.578,-0.076,-0.054,-0.008,-0.166,-0.01,0.118,0.298,-0.921,1.52
2024-09-23 11:48:05.052,163217.895,0.187,0.811,-0.554,-0.03,-0.014,-0.001,-0.714,0.178,0.013,0.325,-0.946,1.554
2024-09-23 11:48:05.172,163218.015,0.2,0.814,-0.546,0.0,-0.007,0.022,0.101,0.01,-0.119,0.352,-0.95,1.582
2024-09-23 11:48:05.292,163218.135,0.202,0.808,-0.553,0.074,-0.069,-0.064,-0.147,0.104,-0.134,0.351,-0.941,1.572
2024-09-23 11:48:05.412,163218.255,0.201,0.798,-0.568,-0.005,0.021,0.001,0.645,-0.063,-0.026,0.34,-0.924,1.551
2024-09-23 11:48:05.531,163218.375,0.2,0.793,-0.575,0.005,-0.007,-0.018,-0.263,0.068,0.039,0.335,-0.916,1.548
2024-09-23 11:48:05.651,163218.494,0.201,0.785,-0.586,0.002,0.041,-0.001,0.574,-0.143,0.021,0.331,-0.903,1.543
2024-09-23 11:48:05.771,163218.614,0.202,0.782,-0.589,-0.015,-0.101,-0.032,-0.313,0.187,-0.034,0.33,-0.898,1.54
2024-09-23 11:48:05.891,163218.734,0.204,0.785,-0.584,-0.013,-0.005,-0.007,0.024,0.004,-0.002,0.336,-0.903,1.541
2024-09-23 11:48:06.010,163218.854,0.204,0.785,-0.585,-0.004,-0.008,-0.012,0.014,0.007,-0.008,0.336,-0.903,1.54
2024-09-23 11:48:06.131,163218.973,0.209,0.798,-0.565,0.0,-0.143,-0.007,-0.779,0.039,0.214,0.354,-0.924,1.565
2024-09-23 11:48:06.251,163219.093,0.209,0.808,-0.551,0.02,0.032,0.007,0.053,-0.011,-0.047,0.362,-0.941,1.571
2024-09-23 11:48:06.370,163219.213,0.205,0.797,-0.568,-0.002,-0.03,-0.03,-0.014,0.003,-0.01,0.346,-0.923,1.555
2024-09-23 11:48:06.490,163219.333,0.212,0.805,-0.554,0.001,-0.021,-0.027,-0.155,0.085,0.042,0.365,-0.936,1.575
2024-09-23 11:48:06.609,163219.453,0.21,0.807,-0.551,-0.005,0.01,-0.012,0.049,0.014,-0.019,0.365,-0.94,1.568
2024-09-23 11:48:06.729,163219.572,0.207,0.793,-0.573,0.011,0.015,0.006,0.248,-0.095,-0.038,0.347,-0.916,1.552
2024-09-23 11:48:06.849,163219.692,0.211,0.8,-0.561,-0.02,-0.076,-0.022,-0.43,0.155,0.018,0.359,-0.928,1.562
2024-09-23 11:48:06.969,163219.812,0.212,0.812,-0.543,0.005,0.021,0.025,0.163,-0.021,-0.032,0.372,-0.948,1.566
2024-09-23 11:48:07.089,163219.932,0.207,0.793,-0.573,0.012,0.026,0.012,0.313,-0.131,-0.028,0.347,-0.916,1.545
2024-09-23 11:48:07.209,163220.052,0.206,0.797,-0.567,-0.042,-0.057,-0.036,-0.205,0.159,-0.043,0.348,-0.923,1.546
2024-09-23 11:48:07.328,163220.171,0.207,0.798,-0.566,-0.014,0.001,-0.007,0.025,-0.024,0.007,0.35,-0.924,1.543
2024-09-23 11:48:07.448,163220.291,0.207,0.798,-0.566,-0.018,0.011,-0.019,0.025,-0.021,0.068,0.35,-0.923,1.547
2024-09-23 11:48:07.568,163220.411,0.209,0.797,-0.567,-0.005,0.029,-0.014,0.061,-0.009,-0.005,0.353,-0.923,1.55
2024-09-23 11:48:07.688,163220.531,0.213,0.816,-0.537,0.003,-0.078,-0.059,-0.414,0.138,0.012,0.378,-0.955,1.571
2024-09-23 11:48:07.808,163220.651,0.213,0.813,-0.542,0.007,-0.024,-0.013,0.134,0.009,-0.014,0.374,-0.949,1.566
2024-09-23 11:48:07.927,163220.77,0.208,0.795,-0.569,-0.021,-0.113,-0.045,-0.045,0.066,0.032,0.35,-0.92,1.542
2024-09-23 11:48:08.048,163220.89,0.214,0.805,-0.553,-0.012,0.056,0.074,0.09,-0.092,-0.012,0.369,-0.936,1.569
2024-09-23 11:48:08.168,163221.01,0.226,0.822,-0.523,0.024,0.13,0.059,0.185,-0.235,-0.732,0.408,-0.965,1.602
2024-09-23 11:48:08.287,163221.13,0.22,0.817,-0.533,0.022,-0.053,-0.053,0.142,-0.016,0.047,0.391,-0.956,1.583
2024-09-23 11:48:08.407,163221.25,0.219,0.811,-0.543,-0.002,0.044,0.016,0.349,-0.08,-0.03,0.383,-0.945,1.571
2024-09-23 11:48:08.526,163221.369,0.211,0.79,-0.575,-0.032,-0.021,0.009,0.002,-0.048,0.011,0.352,-0.911,1.546
2024-09-23 11:48:08.646,163221.489,0.217,0.802,-0.557,0.011,-0.027,-0.022,-0.012,0.018,0.041,0.371,-0.931,1.565
2024-09-23 11:48:08.766,163221.609,0.214,0.788,-0.577,-0.004,0.023,0.008,0.403,-0.119,0.004,0.355,-0.908,1.552
2024-09-23 11:48:08.886,163221.729,0.212,0.781,-0.588,-0.013,-0.056,-0.029,-0.232,0.152,-0.037,0.345,-0.896,1.543
2024-09-23 11:48:09.006,163221.849,0.216,0.785,-0.581,0.004,-0.044,-0.039,-0.049,0.057,0.002,0.355,-0.903,1.544
2024-09-23 11:48:09.125,163221.968,0.219,0.79,-0.573,-0.026,-0.063,-0.019,-0.203,-0.058,0.167,0.365,-0.911,1.559
2024-09-23 11:48:09.245,163222.088,0.22,0.797,-0.563,0.01,0.004,-0.011,-0.068,0.022,-0.008,0.372,-0.922,1.569
2024-09-23 11:48:09.365,163222.208,0.219,0.798,-0.561,0.012,0.014,-0.01,0.164,-0.044,-0.04,0.372,-0.925,1.566
2024-09-23 11:48:09.484,163222.328,0.216,0.793,-0.57,-0.006,-0.004,-0.035,-0.309,-0.042,0.11,0.362,-0.916,1.56
2024-09-23 11:48:09.605,163222.448,0.22,0.801,-0.556,0.006,0.038,0.007,0.003,0.015,-0.067,0.377,-0.929,1.576
2024-09-23 11:48:09.724,163222.567,0.218,0.801,-0.557,-0.015,0.017,0.002,0.251,-0.037,-0.035,0.373,-0.929,1.567
2024-09-23 11:48:09.844,163222.687,0.215,0.791,-0.573,-0.005,0.018,0.007,-0.002,-0.051,0.024,0.358,-0.912,1.555
2024-09-23 11:48:09.964,163222.807,0.225,0.814,-0.536,-0.001,-0.068,-0.048,-0.403,0.167,-0.023,0.397,-0.95,1.586
2024-09-23 11:48:10.084,163222.927,0.22,0.811,-0.542,0.012,0.003,-0.015,0.211,-0.036,-0.033,0.386,-0.945,1.574
2024-09-23 11:48:10.203,163223.046,0.215,0.791,-0.572,-0.006,-0.034,-0.041,0.024,-0.018,0.001,0.359,-0.913,1.548
2024-09-23 11:48:10.323,163223.166,0.217,0.796,-0.565,0.001,-0.036,-0.041,-0.029,0.043,-0.012,0.368,-0.921,1.552
2024-09-23 11:48:10.443,163223.286,0.217,0.795,-0.567,-0.001,-0.001,0.008,0.039,-0.041,0.006,0.366,-0.919,1.551
2024-09-23 11:48:10.563,163223.406,0.221,0.799,-0.559,0.038,0.031,-0.002,0.094,-0.002,-0.019,0.376,-0.926,1.567
2024-09-23 11:48:10.683,163223.526,0.224,0.808,-0.544,-0.007,0.024,-0.009,0.044,-0.022,-0.002,0.391,-0.941,1.575
2024-09-23 11:48:10.802,163223.645,0.222,0.802,-0.554,0.001,-0.004,-0.004,0.123,-0.024,-0.012,0.381,-0.931,1.566
2024-09-23 11:48:10.922,163223.765,0.222,0.798,-0.56,0.004,0.009,-0.006,0.158,-0.019,0.001,0.377,-0.924,1.561
2024-09-23 11:48:11.042,163223.885,0.218,0.792,-0.571,0.014,0.022,0.001,0.111,-0.079,0.023,0.365,-0.913,1.551
2024-09-23 11:48:11.162,163224.005,0.22,0.796,-0.563,-0.008,-0.082,-0.062,-0.289,-0.061,0.126,0.373,-0.921,1.573
2024-09-23 11:48:11.282,163224.125,0.236,0.834,-0.499,-0.007,0.113,0.011,0.027,-0.132,0.01,0.443,-0.986,1.639
2024-09-23 11:48:11.401,163224.244,0.227,0.833,-0.505,0.017,-0.045,-0.005,0.209,-0.112,-0.002,0.423,-0.984,1.624
2024-09-23 11:48:11.520,163224.364,0.219,0.817,-0.533,0.019,-0.006,-0.002,0.334,-0.107,-0.056,0.39,-0.957,1.597
2024-09-23 11:48:11.640,163224.484,0.215,0.809,-0.548,-0.014,-0.009,-0.016,0.011,0.012,-0.014,0.373,-0.942,1.584
2024-09-23 11:48:11.762,163224.604,0.21,0.793,-0.572,0.007,0.011,0.018,0.246,-0.073,-0.062,0.352,-0.916,1.564
2024-09-23 11:48:11.881,163224.724,0.213,0.801,-0.559,0.005,-0.006,0.006,-0.388,0.113,0.008,0.364,-0.93,1.574
2024-09-23 11:48:12.000,163224.843,0.215,0.805,-0.553,-0.001,-0.029,-0.025,0.107,-0.035,0.009,0.371,-0.936,1.581
2024-09-23 11:48:12.120,163224.963,0.211,0.789,-0.577,-0.002,0.004,-0.001,0.129,-0.045,-0.042,0.351,-0.909,1.565
2024-09-23 11:48:12.240,163225.083,0.211,0.788,-0.579,-0.019,-0.081,-0.063,-0.302,0.165,-0.024,0.349,-0.907,1.563
2024-09-23 11:48:12.359,163225.203,0.214,0.789,-0.576,-0.004,-0.054,-0.005,0.02,0.008,0.003,0.356,-0.909,1.562
2024-09-23 11:48:12.480,163225.323,0.213,0.788,-0.578,-0.007,-0.014,-0.02,-0.049,-0.007,0.009,0.354,-0.907,1.561
2024-09-23 11:48:12.599,163225.442,0.218,0.789,-0.574,-0.006,0.047,0.029,0.134,-0.071,0.031,0.362,-0.91,1.577
2024-09-23 11:48:12.719,163225.562,0.217,0.787,-0.578,-0.019,-0.001,0.013,-0.051,-0.005,-0.005,0.359,-0.906,1.574
2024-09-23 11:48:12.839,163225.682,0.217,0.788,-0.576,0.003,-0.007,-0.002,-0.031,0.014,0.003,0.36,-0.908,1.576
2024-09-23 11:48:12.959,163225.802,0.218,0.788,-0.576,0.002,-0.013,-0.011,-0.037,0.008,0.012,0.362,-0.907,1.578
2024-09-23 11:48:13.078,163225.922,0.224,0.81,-0.542,0.016,0.08,-0.035,0.201,-0.036,0.012,0.392,-0.944,1.599
2024-09-23 11:48:13.199,163226.041,0.216,0.791,-0.573,-0.016,-0.092,-0.076,-0.092,0.035,0.013,0.361,-0.912,1.57
2024-09-23 11:48:13.318,163226.161,0.219,0.801,-0.557,-0.011,-0.064,-0.078,-0.416,0.017,0.167,0.375,-0.929,1.591
2024-09-23 11:48:13.438,163226.281,0.22,0.803,-0.555,0.001,-0.016,-0.012,-0.219,0.12,-0.076,0.377,-0.932,1.588
2024-09-23 11:48:13.558,163226.401,0.218,0.797,-0.563,-0.003,0.019,-0.014,0.33,-0.075,0.003,0.369,-0.923,1.573
2024-09-23 11:48:13.682,163226.521,0.214,0.791,-0.573,-0.003,-0.045,-0.009,-0.142,0.017,0.009,0.358,-0.912,1.567
2024-09-23 11:48:13.798,163226.64,0.22,0.81,-0.544,-0.004,-0.062,-0.061,-0.217,0.132,-0.037,0.385,-0.944,1.587
2024-09-23 11:48:13.917,163226.76,0.217,0.803,-0.556,0.02,0.013,0.0,0.377,-0.077,-0.023,0.373,-0.932,1.572
2024-09-23 11:48:14.037,163226.88,0.213,0.786,-0.58,-0.005,0.016,0.017,-0.092,0.02,-0.043,0.352,-0.904,1.554
2024-09-23 11:48:14.156,163227.0,0.216,0.789,-0.575,0.011,-0.029,-0.044,-0.014,0.002,0.015,0.36,-0.91,1.554
2024-09-23 11:48:14.277,163227.119,0.22,0.791,-0.57,0.006,0.023,0.001,-0.06,0.017,-0.021,0.368,-0.913,1.567
2024-09-23 11:48:14.396,163227.239,0.224,0.803,-0.552,-0.013,0.027,-0.01,0.002,0.035,-0.038,0.386,-0.932,1.576
2024-09-23 11:48:14.516,163227.359,0.221,0.795,-0.565,-0.009,-0.01,-0.003,0.156,-0.045,-0.005,0.374,-0.919,1.562
2024-09-23 11:48:14.636,163227.479,0.218,0.788,-0.576,-0.007,0.009,0.001,0.097,-0.065,0.022,0.362,-0.908,1.554
2024-09-23 11:48:14.756,163227.599,0.224,0.795,-0.563,-0.054,0.152,0.178,0.372,-0.149,-0.061,0.378,-0.92,1.582
2024-09-23 11:48:14.876,163227.718,0.225,0.82,-0.527,-0.013,-0.08,-0.031,-1.581,0.289,-0.03,0.403,-0.961,1.61
2024-09-23 11:48:14.995,163227.838,0.226,0.891,-0.395,0.038,-0.002,-0.064,-0.968,-0.078,-0.075,0.519,-1.099,1.726
2024-09-23 11:48:15.114,163227.958,0.217,0.918,-0.333,0.009,0.032,-0.006,-0.08,-0.114,-0.02,0.577,-1.162,1.805
2024-09-23 11:48:15.234,163228.078,0.218,0.889,-0.403,0.003,-0.003,0.036,0.504,-0.029,0.106,0.497,-1.095,1.727
2024-09-23 11:48:15.355,163228.198,0.225,0.844,-0.488,0.017,-0.039,-0.013,0.73,-0.116,0.06,0.432,-1.004,1.664
2024-09-23 11:48:15.474,163228.317,0.222,0.81,-0.542,0.018,-0.084,0.046,0.234,-0.169,0.031,0.389,-0.945,1.634
2024-09-23 11:48:15.594,163228.437,0.198,0.809,-0.553,-0.011,0.071,0.139,-0.086,-0.75,0.005,0.343,-0.943,1.639
2024-09-23 11:48:15.714,163228.557,0.146,0.816,-0.559,-0.075,-0.031,-0.06,-0.168,-0.475,-0.078,0.255,-0.955,1.646
2024-09-23 11:48:15.834,163228.677,0.124,0.824,-0.553,-0.058,-0.022,-0.053,-0.125,-0.013,-0.07,0.22,-0.968,1.631
2024-09-23 11:48:15.953,163228.797,0.115,0.83,-0.546,0.007,-0.006,0.003,-0.003,-0.004,-0.085,0.207,-0.978,1.615
2024-09-23 11:48:16.074,163228.916,0.113,0.832,-0.544,0.031,-0.001,-0.005,-0.012,0.018,0.011,0.204,-0.982,1.608
2024-09-23 11:48:16.193,163229.036,0.115,0.834,-0.54,-0.017,-0.028,0.018,-0.032,-0.155,0.062,0.21,-0.986,1.625
2024-09-23 11:48:16.313,163229.156,0.104,0.838,-0.535,-0.025,-0.01,-0.025,-0.036,-0.075,-0.085,0.193,-0.994,1.62
2024-09-23 11:48:16.433,163229.276,0.097,0.834,-0.544,-0.029,-0.012,-0.022,0.011,-0.045,-0.085,0.177,-0.986,1.61
2024-09-23 11:48:16.552,163229.396,0.084,0.832,-0.548,-0.003,0.01,-0.004,0.16,-0.05,-0.073,0.153,-0.983,1.591
2024-09-23 11:48:16.673,163229.515,0.067,0.81,-0.582,0.009,0.021,-0.0,0.427,-0.162,-0.198,0.115,-0.945,1.556
2024-09-23 11:48:16.792,163229.635,0.037,0.791,-0.611,-0.001,-0.034,0.021,0.283,-0.073,-0.045,0.06,-0.912,1.512
2024-09-23 11:48:16.912,163229.755,0.027,0.776,-0.63,0.01,-0.035,-0.007,0.02,-0.093,-0.154,0.043,-0.888,1.498
2024-09-23 11:48:17.031,163229.875,0.026,0.777,-0.629,-0.007,-0.034,-0.011,-0.111,0.065,0.047,0.041,-0.889,1.495
2024-09-23 11:48:17.151,163229.995,0.03,0.78,-0.625,-0.005,-0.035,-0.005,-0.029,0.03,0.012,0.048,-0.894,1.498
2024-09-23 11:48:17.270,163230.114,0.032,0.785,-0.618,-0.003,-0.004,-0.005,-0.085,-0.004,0.005,0.051,-0.903,1.5
2024-09-23 11:48:17.391,163230.234,0.027,0.787,-0.617,-0.006,0.022,0.004,0.2,-0.022,-0.035,0.043,-0.905,1.493
2024-09-23 11:48:17.512,163230.354,0.019,0.754,-0.656,-0.026,-0.294,0.009,-0.176,0.102,0.095,0.029,-0.855,1.484
2024-09-23 11:48:17.630,163230.474,0.027,0.773,-0.634,0.008,-0.1,-0.024,-0.488,0.023,-0.088,0.042,-0.883,1.491
2024-09-23 11:48:17.750,163230.593,0.017,0.756,-0.654,0.014,-0.033,-0.007,-0.081,0.07,-0.294,0.027,-0.857,1.474
2024-09-23 11:48:17.870,163230.713,0.02,0.765,-0.644,-0.017,-0.087,-0.026,-0.598,0.053,0.086,0.031,-0.871,1.471
2024-09-23 11:48:17.990,163230.833,0.034,0.78,-0.625,0.015,-0.014,-0.006,0.132,-0.027,-0.052,0.054,-0.894,1.492
2024-09-23 11:48:18.110,163230.953,0.031,0.782,-0.623,-0.001,-0.007,0.0,-0.124,0.041,0.026,0.05,-0.897,1.488
2024-09-23 11:48:18.229,163231.073,0.032,0.787,-0.616,0.005,0.046,0.011,0.401,-0.056,-0.067,0.052,-0.906,1.488
2024-09-23 11:48:18.349,163231.192,0.029,0.772,-0.635,0.007,0.052,0.013,0.285,0.006,0.013,0.046,-0.882,1.483
2024-09-23 11:48:18.469,163231.312,0.042,0.788,-0.615,0.007,-0.128,-0.023,-0.501,0.059,-0.028,0.069,-0.907,1.498
2024-09-23 11:48:18.589,163231.432,0.035,0.78,-0.625,-0.011,-0.015,-0.004,0.173,0.008,0.005,0.056,-0.894,1.487
2024-09-23 11:48:18.709,163231.552,0.036,0.776,-0.63,-0.001,-0.002,-0.004,0.062,-0.002,-0.014,0.057,-0.888,1.486
2024-09-23 11:48:18.829,163231.672,0.034,0.767,-0.641,-0.011,-0.049,-0.006,0.161,0.005,0.003,0.053,-0.874,1.483
2024-09-23 11:48:18.948,163231.791,0.034,0.762,-0.647,0.0,-0.132,-0.02,-0.382,0.002,-0.003,0.053,-0.866,1.486
2024-09-23 11:48:19.068,163231.911,0.035,0.78,-0.625,0.001,0.036,0.001,0.105,-0.002,0.001,0.056,-0.895,1.487
2024-09-23 11:48:19.188,163232.031,0.034,0.771,-0.636,0.004,0.032,0.005,0.416,-0.053,-0.029,0.053,-0.881,1.484
2024-09-23 11:48:19.308,163232.151,0.033,0.755,-0.654,-0.011,-0.08,-0.011,-0.298,0.094,0.019,0.05,-0.856,1.481
2024-09-23 11:48:19.428,163232.271,0.043,0.785,-0.619,-0.004,-0.072,-0.025,-0.247,0.026,0.005,0.07,-0.902,1.494
2024-09-23 11:48:19.547,163232.39,0.04,0.781,-0.623,-0.0,-0.013,-0.009,0.114,-0.027,-0.011,0.065,-0.896,1.491
2024-09-23 11:48:19.667,163232.51,0.038,0.769,-0.638,-0.002,0.037,-0.003,0.144,-0.019,-0.017,0.059,-0.878,1.487
2024-09-23 11:48:19.787,163232.63,0.041,0.766,-0.641,-0.016,-0.168,-0.015,-0.563,0.181,0.062,0.064,-0.873,1.489
2024-09-23 11:48:19.907,163232.75,0.045,0.786,-0.616,0.008,0.009,-0.009,0.042,-0.043,-0.044,0.073,-0.905,1.493
2024-09-23 11:48:20.026,163232.87,0.04,0.77,-0.637,-0.002,0.012,-0.005,0.25,-0.017,-0.012,0.063,-0.879,1.485
2024-09-23 11:48:20.146,163232.989,0.043,0.772,-0.634,-0.01,-0.057,-0.002,-0.18,0.014,0.113,0.068,-0.882,1.49
2024-09-23 11:48:20.266,163233.109,0.049,0.774,-0.631,0.004,-0.052,-0.017,-0.07,0.007,-0.034,0.078,-0.886,1.499
2024-09-23 11:48:20.386,163233.229,0.051,0.779,-0.625,0.004,0.021,-0.015,0.036,-0.038,-0.01,0.081,-0.893,1.502
2024-09-23 11:48:20.506,163233.349,0.046,0.764,-0.643,-0.005,-0.11,-0.006,0.073,0.034,0.043,0.071,-0.87,1.495
2024-09-23 11:48:20.626,163233.469,0.052,0.763,-0.645,-0.014,-0.12,-0.015,-0.335,0.108,0.089,0.081,-0.867,1.499
2024-09-23 11:48:20.745,163233.588,0.062,0.781,-0.622,-0.01,0.004,-0.027,-0.198,0.037,0.105,0.1,-0.896,1.516
2024-09-23 11:48:20.864,163233.708,0.06,0.758,-0.649,0.001,-0.07,-0.016,-0.151,-0.051,-0.057,0.092,-0.861,1.512
2024-09-23 11:48:20.985,163233.828,0.055,0.758,-0.65,-0.008,-0.045,-0.011,-0.121,0.011,0.003,0.084,-0.86,1.506
2024-09-23 11:48:21.105,163233.948,0.055,0.759,-0.649,-0.003,-0.016,-0.005,0.009,0.003,0.003,0.084,-0.861,1.506
2024-09-23 11:48:21.224,163234.068,0.053,0.755,-0.654,-0.0,-0.01,-0.003,0.029,-0.013,-0.008,0.081,-0.855,1.504
2024-09-23 11:48:21.344,163234.187,0.055,0.757,-0.651,-0.007,-0.042,-0.011,-0.1,0.043,0.063,0.084,-0.859,1.508
2024-09-23 11:48:21.464,163234.307,0.056,0.761,-0.646,-0.002,-0.051,-0.011,-0.242,0.053,-0.019,0.086,-0.865,1.507
2024-09-23 11:48:21.584,163234.427,0.055,0.763,-0.645,-0.004,-0.026,-0.001,0.106,-0.004,-0.004,0.085,-0.867,1.505
2024-09-23 11:48:21.703,163234.547,0.054,0.76,-0.648,-0.005,-0.04,-0.008,-0.011,0.005,0.013,0.084,-0.863,1.504
2024-09-23 11:48:21.823,163234.666,0.057,0.771,-0.634,-0.009,-0.044,-0.01,-0.415,0.056,0.113,0.09,-0.881,1.511
2024-09-23 11:48:21.943,163234.786,0.064,0.779,-0.624,-0.005,0.004,0.006,0.224,-0.034,-0.061,0.102,-0.893,1.521
2024-09-23 11:48:22.063,163234.906,0.064,0.781,-0.622,-0.003,-0.013,-0.015,-0.002,0.044,0.045,0.103,-0.896,1.52
2024-09-23 11:48:22.183,163235.026,0.063,0.776,-0.628,-0.003,-0.023,-0.006,-0.012,0.001,-0.002,0.1,-0.888,1.517
2024-09-23 11:48:22.303,163235.146,0.062,0.773,-0.631,0.001,0.001,-0.003,0.137,-0.027,-0.018,0.098,-0.884,1.515
2024-09-23 11:48:22.423,163235.265,0.062,0.765,-0.641,-0.001,0.013,-0.005,-0.066,0.057,0.057,0.096,-0.871,1.515
2024-09-23 11:48:22.542,163235.385,0.065,0.768,-0.637,-0.011,-0.031,-0.015,-0.209,0.01,-0.012,0.101,-0.876,1.517
2024-09-23 11:48:22.662,163235.505,0.073,0.777,-0.625,0.003,0.022,0.01,0.233,0.003,-0.004,0.116,-0.89,1.527
2024-09-23 11:48:22.781,163235.625,0.066,0.768,-0.638,0.001,0.018,-0.003,0.276,-0.061,-0.044,0.103,-0.875,1.516
2024-09-23 11:48:22.902,163235.745,0.067,0.756,-0.651,-0.008,-0.021,0.001,0.088,-0.004,0.032,0.103,-0.858,1.516
2024-09-23 11:48:23.022,163235.864,0.068,0.762,-0.644,-0.011,0.081,-0.007,-0.297,0.037,0.001,0.105,-0.867,1.518
2024-09-23 11:48:23.141,163235.984,0.07,0.766,-0.639,-0.003,-0.027,-0.01,0.025,-0.007,-0.006,0.11,-0.872,1.521
2024-09-23 11:48:23.261,163236.104,0.067,0.754,-0.654,-0.004,0.027,-0.005,0.018,-0.034,0.009,0.102,-0.854,1.516
2024-09-23 11:48:23.380,163236.224,0.072,0.759,-0.647,-0.016,-0.113,-0.032,-0.631,0.111,0.071,0.111,-0.862,1.52
2024-09-23 11:48:23.500,163236.344,0.073,0.767,-0.638,-0.001,-0.035,-0.023,-0.036,-0.045,-0.001,0.113,-0.874,1.524
2024-09-23 11:48:23.620,163236.463,0.068,0.752,-0.656,-0.014,-0.024,-0.019,-0.012,-0.004,0.006,0.104,-0.851,1.518
2024-09-23 11:48:23.740,163236.583,0.068,0.75,-0.658,-0.008,-0.062,-0.009,-0.247,0.055,0.01,0.103,-0.849,1.517
2024-09-23 11:48:23.860,163236.703,0.073,0.767,-0.638,-0.007,-0.044,-0.01,-0.3,0.047,0.017,0.114,-0.874,1.523
2024-09-23 11:48:23.980,163236.823,0.069,0.762,-0.643,-0.004,-0.043,-0.009,0.095,-0.011,-0.016,0.107,-0.867,1.518
2024-09-23 11:48:24.100,163236.943,0.066,0.757,-0.65,-0.007,0.001,-0.005,-0.037,-0.001,0.002,0.102,-0.859,1.514
2024-09-23 11:48:24.218,163237.062,0.072,0.766,-0.639,-0.015,-0.035,-0.024,-0.301,0.049,0.093,0.112,-0.873,1.524
2024-09-23 11:48:24.338,163237.182,0.075,0.77,-0.633,-0.001,0.009,0.0,-0.049,-0.006,-0.016,0.119,-0.879,1.529
2024-09-23 11:48:24.459,163237.302,0.074,0.77,-0.634,-0.002,-0.021,-0.01,0.021,-0.0,-0.008,0.117,-0.878,1.528
2024-09-23 11:48:24.579,163237.422,0.071,0.762,-0.644,-0.008,0.003,-0.02,-0.019,-0.021,-0.003,0.11,-0.866,1.523
2024-09-23 11:48:24.698,163237.542,0.073,0.755,-0.652,-0.012,-0.056,-0.018,-0.28,0.077,0.025,0.111,-0.856,1.522
2024-09-23 11:48:24.818,163237.661,0.078,0.771,-0.632,-0.017,-0.052,-0.026,-0.582,0.092,0.129,0.123,-0.881,1.532
2024-09-23 11:48:24.939,163237.781,0.104,0.81,-0.577,-0.602,-0.09,0.02,-0.83,1.361,0.028,0.179,-0.944,1.567
2024-09-23 11:48:25.058,163237.901,0.114,0.815,-0.569,0.133,-0.145,-0.033,0.083,-0.037,-0.03,0.199,-0.952,1.592
2024-09-23 11:48:25.178,163238.021,0.099,0.808,-0.581,0.052,0.153,-0.145,0.826,-0.134,-0.084,0.169,-0.94,1.564
2024-09-23 11:48:25.298,163238.141,0.094,0.792,-0.603,0.004,-0.055,0.013,0.271,-0.093,-0.022,0.154,-0.914,1.55
2024-09-23 11:48:25.417,163238.26,0.091,0.772,-0.63,-0.003,0.046,-0.016,0.342,-0.041,-0.024,0.143,-0.881,1.541
2024-09-23 11:48:25.537,163238.38,0.084,0.759,-0.646,0.003,0.021,0.007,0.344,-0.058,-0.047,0.13,-0.861,1.529
2024-09-23 11:48:25.657,163238.5,0.083,0.753,-0.653,0.001,-0.007,-0.002,-0.205,0.026,-0.009,0.127,-0.852,1.523
2024-09-23 11:48:25.777,163238.62,0.085,0.758,-0.647,0.01,-0.047,-0.007,-0.167,-0.055,-0.072,0.131,-0.86,1.527
2024-09-23 11:48:25.897,163238.739,0.078,0.764,-0.64,-0.011,0.0,-0.005,0.082,0.006,0.004,0.121,-0.87,1.519
2024-09-23 11:48:26.016,163238.859,0.078,0.759,-0.647,0.001,0.008,-0.004,0.144,-0.009,-0.02,0.12,-0.862,1.516
2024-09-23 11:48:26.136,163238.979,0.079,0.763,-0.641,-0.002,-0.048,-0.011,-0.248,0.08,0.04,0.123,-0.868,1.517
2024-09-23 11:48:26.256,163239.099,0.097,0.771,-0.629,0.013,-0.03,0.01,0.296,-0.025,-0.011,0.153,-0.88,1.543
2024-09-23 11:48:26.376,163239.219,0.092,0.777,-0.623,-0.011,-0.053,-0.017,-0.241,0.028,0.008,0.147,-0.89,1.54
2024-09-23 11:48:26.495,163239.338,0.089,0.773,-0.628,-0.003,-0.011,-0.011,0.085,-0.011,-0.032,0.14,-0.884,1.533
2024-09-23 11:48:26.615,163239.458,0.086,0.763,-0.64,-0.001,-0.133,0.002,0.118,0.042,0.043,0.133,-0.869,1.526
2024-09-23 11:48:26.735,163239.578,0.095,0.762,-0.64,0.004,-0.003,-0.019,-0.357,0.038,-0.011,0.147,-0.867,1.536
2024-09-23 11:48:26.856,163239.698,0.092,0.772,-0.629,-0.008,-0.01,-0.007,0.155,0.012,0.013,0.145,-0.883,1.534
2024-09-23 11:48:26.974,163239.818,0.088,0.764,-0.639,-0.002,0.038,-0.001,0.346,-0.044,-0.058,0.137,-0.87,1.524
2024-09-23 11:48:27.094,163239.937,0.089,0.755,-0.649,-0.002,-0.017,0.005,-0.001,-0.006,0.066,0.136,-0.856,1.521
2024-09-23 11:48:27.214,163240.057,0.09,0.757,-0.647,-0.009,0.003,-0.008,-0.235,0.01,-0.004,0.139,-0.859,1.527
2024-09-23 11:48:27.334,163240.177,0.091,0.762,-0.641,-0.002,-0.024,-0.012,-0.02,-0.006,-0.009,0.142,-0.867,1.529
2024-09-23 11:48:27.454,163240.297,0.088,0.759,-0.645,-0.001,-0.015,-0.006,0.038,-0.02,-0.017,0.136,-0.862,1.525
2024-09-23 11:48:27.573,163240.417,0.087,0.745,-0.662,-0.006,-0.078,-0.001,0.165,0.015,0.033,0.131,-0.84,1.52
2024-09-23 11:48:27.693,163240.536,0.094,0.758,-0.646,-0.006,-0.024,-0.021,-0.377,0.1,0.051,0.144,-0.86,1.525
2024-09-23 11:48:27.813,163240.656,0.095,0.765,-0.636,0.004,0.084,0.014,0.342,-0.069,-0.003,0.148,-0.872,1.531
2024-09-23 11:48:27.933,163240.776,0.091,0.74,-0.666,-0.002,0.012,0.003,0.134,0.018,0.003,0.135,-0.834,1.521
2024-09-23 11:48:28.052,163240.896,0.093,0.733,-0.674,-0.008,-0.103,-0.007,-0.267,0.132,-0.032,0.138,-0.823,1.519
2024-09-23 11:48:28.172,163241.016,0.098,0.757,-0.646,-0.008,-0.068,-0.038,-0.502,0.036,-0.008,0.151,-0.859,1.526
2024-09-23 11:48:28.293,163241.135,0.091,0.755,-0.65,-0.008,-0.012,-0.013,0.046,-0.004,-0.039,0.14,-0.855,1.517
2024-09-23 11:48:28.412,163241.255,0.09,0.748,-0.657,-0.01,-0.072,-0.022,-0.091,0.047,0.018,0.135,-0.845,1.511
2024-09-23 11:48:28.532,163241.375,0.101,0.758,-0.644,-0.017,0.024,0.003,-0.227,0.107,0.195,0.155,-0.861,1.526
2024-09-23 11:48:28.653,163241.495,0.102,0.749,-0.655,-0.0,0.004,-0.021,-0.031,-0.076,-0.052,0.155,-0.846,1.528
2024-09-23 11:48:28.771,163241.615,0.1,0.753,-0.65,-0.0,0.01,-0.003,0.116,-0.021,-0.006,0.152,-0.853,1.528
2024-09-23 11:48:28.891,163241.734,0.098,0.742,-0.663,-0.003,-0.083,-0.002,0.107,0.02,0.027,0.147,-0.836,1.523
2024-09-23 11:48:29.011,163241.854,0.105,0.745,-0.659,-0.007,-0.106,-0.03,-0.439,0.17,-0.001,0.158,-0.84,1.525
2024-09-23 11:48:29.131,163241.974,0.11,0.763,-0.637,0.0,0.033,-0.037,-0.692,0.136,0.106,0.171,-0.867,1.535
2024-09-23 11:48:29.250,163242.094,0.123,0.805,-0.58,0.01,0.019,-0.046,-0.507,-0.269,0.186,0.209,-0.936,1.584
2024-09-23 11:48:29.371,163242.213,0.119,0.815,-0.567,0.03,-0.101,-0.021,-0.154,-0.005,0.005,0.208,-0.952,1.603
2024-09-23 11:48:29.490,163242.333,0.12,0.808,-0.577,0.006,-0.134,0.006,0.322,0.102,0.057,0.204,-0.941,1.594
2024-09-23 11:48:29.610,163242.453,0.128,0.792,-0.597,0.013,-0.022,-0.025,0.061,0.075,-0.036,0.211,-0.914,1.592
2024-09-23 11:48:29.730,163242.573,0.122,0.773,-0.623,0.002,0.026,0.012,0.232,0.015,-0.071,0.194,-0.883,1.568
2024-09-23 11:48:29.850,163242.693,0.132,0.778,-0.614,-0.012,-0.017,0.002,-0.036,0.086,-0.065,0.212,-0.891,1.581
2024-09-23 11:48:29.969,163242.812,0.119,0.779,-0.616,0.003,0.001,-0.001,0.193,-0.009,-0.208,0.192,-0.893,1.547
2024-09-23 11:48:30.089,163242.932,0.115,0.771,-0.626,-0.01,-0.082,-0.024,-0.06,0.076,0.075,0.182,-0.881,1.532
2024-09-23 11:48:30.209,163243.052,0.127,0.788,-0.603,-0.023,-0.006,-0.012,-0.352,0.078,0.312,0.207,-0.907,1.56
2024-09-23 11:48:30.329,163243.172,0.146,0.788,-0.598,-0.001,-0.021,-0.001,0.157,0.002,-0.096,0.239,-0.908,1.594
2024-09-23 11:48:30.449,163243.292,0.146,0.786,-0.601,-0.0,-0.043,-0.024,-0.102,0.06,-0.004,0.238,-0.904,1.581
2024-09-23 11:48:30.568,163243.411,0.136,0.777,-0.615,0.002,0.005,-0.008,-0.104,-0.065,-0.052,0.218,-0.89,1.562
2024-09-23 11:48:30.689,163243.531,0.146,0.779,-0.61,-0.015,-0.006,-0.01,-0.179,0.125,0.119,0.235,-0.893,1.575
2024-09-23 11:48:30.808,163243.651,0.156,0.79,-0.593,0.004,0.056,0.021,0.268,-0.058,-0.083,0.257,-0.911,1.586
2024-09-23 11:48:30.928,163243.771,0.146,0.785,-0.602,0.013,0.007,0.0,0.187,-0.07,-0.092,0.237,-0.903,1.565
2024-09-23 11:48:31.047,163243.891,0.137,0.779,-0.612,-0.026,-0.025,-0.016,-0.061,-0.017,-0.001,0.22,-0.893,1.55
2024-09-23 11:48:31.167,163244.01,0.142,0.778,-0.612,-0.022,0.085,0.021,-0.051,-0.189,-0.048,0.228,-0.892,1.57
2024-09-23 11:48:31.287,163244.13,0.144,0.785,-0.603,0.0,-0.019,-0.009,-0.04,0.083,-0.005,0.234,-0.903,1.571
2024-09-23 11:48:31.407,163244.25,0.137,0.775,-0.617,-0.005,-0.006,-0.019,0.022,-0.029,0.009,0.219,-0.887,1.557
2024-09-23 11:48:31.527,163244.37,0.148,0.78,-0.608,-0.026,-0.068,-0.031,-0.365,0.204,0.173,0.239,-0.895,1.566
2024-09-23 11:48:31.646,163244.49,0.15,0.786,-0.6,0.005,0.051,0.015,0.135,-0.142,-0.056,0.245,-0.905,1.578
2024-09-23 11:48:31.766,163244.609,0.142,0.776,-0.615,-0.003,0.009,0.015,0.209,-0.037,-0.046,0.227,-0.888,1.568
2024-09-23 11:48:31.886,163244.729,0.142,0.77,-0.622,-0.03,-0.116,-0.044,-0.389,0.326,0.016,0.224,-0.879,1.56
2024-09-23 11:48:32.005,163244.849,0.152,0.785,-0.601,-0.012,-0.003,-0.015,-0.062,-0.023,-0.097,0.247,-0.902,1.571
2024-09-23 11:48:32.126,163244.969,0.143,0.778,-0.612,0.004,-0.005,-0.001,0.228,-0.046,-0.069,0.23,-0.892,1.554
2024-09-23 11:48:32.245,163245.089,0.145,0.782,-0.606,-0.02,-0.056,-0.032,-0.353,-0.035,0.352,0.235,-0.898,1.566
2024-09-23 11:48:32.366,163245.208,0.16,0.786,-0.597,-0.003,-0.01,-0.004,0.177,0.023,-0.105,0.262,-0.904,1.599
2024-09-23 11:48:32.486,163245.328,0.156,0.785,-0.6,0.006,-0.012,-0.004,0.083,-0.055,-0.036,0.254,-0.902,1.592
2024-09-23 11:48:32.605,163245.448,0.151,0.776,-0.612,0.004,0.013,0.009,0.214,-0.077,-0.004,0.242,-0.889,1.584
2024-09-23 11:48:32.724,163245.568,0.162,0.781,-0.603,-0.018,0.012,-0.007,-0.073,0.052,0.185,0.262,-0.896,1.593
