Date,TimeStamp,GravityX,GravityY,GravityZ,UserAccelerationX,UserAccelerationY,UserAccelerationZ,RotationRateX,RotationRateY,RotationRateZ,AttitudeRoll,AttitudePitch,AttitudeYaw
2024-09-30 14:26:27.769,4034.913,0.094,0.122,-0.988,0.025,0.015,0.017,-0.039,0.011,-0.015,0.095,-0.122,1.254
2024-09-30 14:26:27.800,4035.032,0.092,0.127,-0.988,0.022,0.004,0.013,-0.003,-0.022,0.008,0.093,-0.127,1.256
2024-09-30 14:26:27.819,4035.152,0.086,0.132,-0.987,0.021,0.013,0.005,-0.051,-0.058,0.001,0.087,-0.133,1.256
2024-09-30 14:26:27.839,4035.272,0.082,0.129,-0.988,0.008,-0.025,-0.002,0.154,0.008,-0.257,0.083,-0.129,1.242
2024-09-30 14:26:27.854,4035.392,0.095,0.146,-0.985,0.013,0.011,-0.012,-0.312,0.25,-0.28,0.096,-0.147,1.208
2024-09-30 14:26:27.868,4035.512,0.114,0.174,-0.978,0.021,0.016,0.027,-0.187,0.148,-0.216,0.116,-0.175,1.182
2024-09-30 14:26:27.882,4035.631,0.118,0.193,-0.974,0.03,0.028,0.048,-0.171,-0.106,0.0,0.12,-0.194,1.167
2024-09-30 14:26:27.895,4035.751,0.096,0.188,-0.977,0.017,-0.069,0.023,-0.178,-0.186,0.032,0.098,-0.19,1.171
2024-09-30 14:26:27.907,4035.871,0.077,0.212,-0.974,0.007,0.069,-0.001,-0.209,-0.045,0.069,0.079,-0.213,1.177
2024-09-30 14:26:27.920,4035.991,0.08,0.234,-0.969,-0.032,-0.048,-0.073,-0.238,0.296,-0.261,0.083,-0.236,1.179
2024-09-30 14:26:28.019,4036.11,0.125,0.407,-0.905,0.005,-0.084,0.053,-3.037,0.981,-0.533,0.137,-0.419,1.131
2024-09-30 14:26:28.138,4036.23,0.176,0.749,-0.639,0.001,-0.005,0.028,-3.908,0.826,-0.493,0.269,-0.847,1.163
2024-09-30 14:26:28.259,4036.35,0.16,0.949,-0.272,-0.021,-0.007,-0.001,-2.369,0.318,-0.351,0.533,-1.25,1.387
2024-09-30 14:26:28.379,4036.47,0.127,0.984,-0.123,-0.015,0.049,0.064,-0.214,-0.292,-0.303,0.805,-1.393,1.664
2024-09-30 14:26:28.498,4036.59,0.081,0.986,-0.142,-0.012,0.043,0.011,0.59,-0.347,-0.327,0.518,-1.406,1.421
2024-09-30 14:26:28.618,4036.709,0.035,0.966,-0.257,0.043,-0.045,0.057,1.24,-0.3,-0.362,0.134,-1.308,1.067
2024-09-30 14:26:28.738,4036.829,-0.002,0.913,-0.407,0.062,0.123,0.055,1.556,-0.25,0.17,-0.005,-1.151,0.96
2024-09-30 14:26:28.858,4036.949,0.01,0.854,-0.521,-0.003,0.015,0.015,0.829,0.085,0.145,0.02,-1.023,1.001
2024-09-30 14:26:28.977,4037.069,0.026,0.817,-0.577,-0.022,0.028,0.04,-0.042,0.138,0.089,0.046,-0.956,1.013
2024-09-30 14:26:29.097,4037.189,0.03,0.856,-0.517,0.086,-0.034,-0.03,-0.382,0.037,-0.014,0.059,-1.027,1.024
2024-09-30 14:26:29.217,4037.308,0.037,0.866,-0.499,-0.007,-0.012,0.134,0.064,0.037,0.285,0.075,-1.046,1.037
2024-09-30 14:26:29.337,4037.428,0.071,0.82,-0.568,-0.039,0.015,0.006,0.739,0.082,0.306,0.125,-0.961,1.096
2024-09-30 14:26:29.456,4037.548,0.089,0.756,-0.648,0.027,-0.007,0.035,0.677,0.036,0.102,0.136,-0.858,1.108
2024-09-30 14:26:29.576,4037.668,0.092,0.738,-0.668,0.006,0.009,0.036,-0.11,0.04,-0.091,0.137,-0.83,1.095
2024-09-30 14:26:29.696,4037.788,0.091,0.729,-0.679,0.015,-0.043,-0.001,-0.097,-0.021,-0.045,0.134,-0.816,1.092
2024-09-30 14:26:29.815,4037.907,0.082,0.742,-0.666,0.022,0.027,0.028,0.013,-0.134,-0.072,0.122,-0.836,1.084
2024-09-30 14:26:29.935,4038.027,0.073,0.743,-0.665,0.009,0.018,0.02,-0.055,-0.003,0.027,0.109,-0.838,1.078
2024-09-30 14:26:30.056,4038.147,0.075,0.747,-0.66,0.014,-0.006,0.016,-0.037,0.006,-0.007,0.113,-0.844,1.08
2024-09-30 14:26:30.176,4038.267,0.074,0.748,-0.659,0.013,0.01,0.016,0.086,0.005,-0.037,0.112,-0.845,1.078
2024-09-30 14:26:30.295,4038.387,0.07,0.743,-0.665,0.016,-0.01,-0.005,-0.2,-0.104,-0.013,0.105,-0.838,1.073
2024-09-30 14:26:30.415,4038.506,0.075,0.75,-0.657,-0.001,0.034,0.033,0.1,0.112,0.046,0.113,-0.848,1.091
2024-09-30 14:26:30.534,4038.626,0.082,0.755,-0.651,0.028,0.047,0.031,0.202,-0.004,-0.089,0.125,-0.855,1.085
2024-09-30 14:26:30.654,4038.746,0.071,0.733,-0.676,0.024,0.016,0.02,0.085,-0.054,-0.023,0.105,-0.823,1.066
2024-09-30 14:26:30.774,4038.866,0.076,0.725,-0.684,0.002,-0.039,0.026,0.128,0.012,0.002,0.11,-0.811,1.067
2024-09-30 14:26:30.894,4038.985,0.092,0.747,-0.658,-0.023,-0.143,-0.047,-0.972,0.154,-0.066,0.139,-0.844,1.088
2024-09-30 14:26:31.014,4039.105,0.078,0.779,-0.623,-0.045,0.03,0.123,0.037,-0.22,-0.153,0.124,-0.892,1.079
2024-09-30 14:26:31.133,4039.225,0.065,0.765,-0.64,0.109,-0.053,0.047,0.312,0.117,-0.004,0.101,-0.872,1.057
2024-09-30 14:26:31.253,4039.345,0.066,0.756,-0.652,0.0,0.014,0.002,-0.049,0.012,-0.038,0.1,-0.857,1.049
2024-09-30 14:26:31.373,4039.465,0.064,0.749,-0.66,0.021,0.001,0.015,0.133,-0.014,-0.097,0.096,-0.846,1.041
2024-09-30 14:26:31.493,4039.584,0.061,0.74,-0.669,0.026,-0.023,-0.0,-0.119,-0.05,0.107,0.091,-0.834,1.036
2024-09-30 14:26:31.613,4039.704,0.069,0.75,-0.658,-0.012,-0.014,0.015,-0.028,0.208,0.013,0.104,-0.848,1.054
2024-09-30 14:26:31.732,4039.824,0.076,0.75,-0.657,0.028,0.057,0.038,0.341,-0.07,-0.096,0.115,-0.848,1.049
2024-09-30 14:26:31.852,4039.944,0.067,0.724,-0.687,0.014,0.005,0.014,0.048,0.05,0.016,0.097,-0.809,1.032
2024-09-30 14:26:31.973,4040.064,0.075,0.724,-0.686,-0.011,-0.064,0.001,-0.372,0.102,0.057,0.109,-0.809,1.036
2024-09-30 14:26:32.092,4040.183,0.081,0.748,-0.658,-0.067,0.018,0.054,-0.059,-0.186,-0.013,0.123,-0.845,1.05
2024-09-30 14:26:32.211,4040.303,0.071,0.751,-0.656,0.052,-0.033,0.002,0.056,-0.031,0.014,0.108,-0.85,1.051
2024-09-30 14:26:32.332,4040.423,0.069,0.749,-0.659,0.004,0.021,0.008,-0.006,-0.011,-0.025,0.104,-0.847,1.046
2024-09-30 14:26:32.451,4040.543,0.07,0.743,-0.666,0.015,0.017,0.018,0.19,0.005,-0.01,0.105,-0.837,1.046
2024-09-30 14:26:32.571,4040.663,0.068,0.724,-0.687,0.016,-0.013,0.006,0.078,-0.088,-0.01,0.098,-0.809,1.042
2024-09-30 14:26:32.691,4040.782,0.067,0.723,-0.688,0.005,-0.006,0.027,-0.151,0.018,0.023,0.098,-0.808,1.052
2024-09-30 14:26:32.811,4040.902,0.079,0.733,-0.676,0.008,-0.002,0.007,-0.129,0.139,-0.018,0.117,-0.822,1.057
2024-09-30 14:26:32.931,4041.022,0.073,0.718,-0.692,0.008,0.009,0.023,0.241,0.028,-0.029,0.105,-0.801,1.042
2024-09-30 14:26:33.050,4041.142,0.073,0.711,-0.699,0.008,-0.016,-0.001,-0.007,0.059,0.015,0.104,-0.791,1.039
2024-09-30 14:26:33.170,4041.262,0.078,0.707,-0.703,-0.016,-0.069,0.001,-0.272,0.065,0.077,0.11,-0.785,1.041
2024-09-30 14:26:33.290,4041.381,0.089,0.731,-0.677,-0.081,0.052,0.024,0.016,-0.015,0.014,0.13,-0.819,1.057
2024-09-30 14:26:33.410,4041.501,0.079,0.734,-0.675,0.037,-0.01,0.021,0.051,-0.003,-0.031,0.117,-0.824,1.047
2024-09-30 14:26:33.529,4041.621,0.076,0.733,-0.675,0.053,-0.024,-0.0,-0.031,-0.09,-0.087,0.112,-0.823,1.043
2024-09-30 14:26:33.648,4041.741,0.069,0.724,-0.686,0.019,0.023,0.018,0.295,-0.036,-0.026,0.1,-0.809,1.036
2024-09-30 14:26:33.769,4041.86,0.067,0.715,-0.696,0.019,-0.007,0.003,-0.068,-0.131,0.121,0.096,-0.797,1.04
2024-09-30 14:26:33.889,4041.98,0.072,0.722,-0.688,0.0,0.018,0.011,-0.109,0.125,0.01,0.105,-0.806,1.05
2024-09-30 14:26:34.009,4042.1,0.077,0.724,-0.685,0.025,0.047,0.031,0.363,-0.059,-0.1,0.111,-0.81,1.042
2024-09-30 14:26:34.128,4042.22,0.069,0.707,-0.704,0.014,0.031,0.022,0.187,-0.02,0.02,0.098,-0.785,1.03
2024-09-30 14:26:34.248,4042.34,0.074,0.701,-0.709,-0.001,0.036,0.027,0.097,0.034,0.018,0.104,-0.777,1.031
2024-09-30 14:26:34.368,4042.459,0.085,0.717,-0.692,-0.039,-0.053,-0.011,-0.351,0.044,0.024,0.123,-0.8,1.048
2024-09-30 14:26:34.488,4042.579,0.075,0.723,-0.687,-0.0,0.001,0.017,-0.057,-0.068,-0.073,0.109,-0.808,1.041
2024-09-30 14:26:34.607,4042.699,0.07,0.727,-0.683,0.06,-0.033,0.003,-0.012,0.031,0.023,0.102,-0.814,1.034
2024-09-30 14:26:34.727,4042.819,0.066,0.723,-0.688,-0.001,0.023,0.018,0.208,-0.067,0.006,0.096,-0.808,1.032
2024-09-30 14:26:34.847,4042.939,0.06,0.708,-0.703,0.012,-0.003,0.01,0.011,-0.078,0.014,0.085,-0.787,1.028
2024-09-30 14:26:34.967,4043.058,0.064,0.71,-0.701,-0.015,-0.031,0.004,-0.201,0.026,0.081,0.091,-0.79,1.043
2024-09-30 14:26:35.087,4043.178,0.073,0.726,-0.684,0.011,0.014,0.011,-0.083,0.104,-0.046,0.106,-0.812,1.047
2024-09-30 14:26:35.206,4043.298,0.074,0.722,-0.687,0.007,0.008,0.013,0.106,0.05,-0.019,0.108,-0.807,1.039
2024-09-30 14:26:35.326,4043.418,0.072,0.707,-0.704,0.009,0.016,0.02,0.314,0.032,-0.023,0.102,-0.785,1.033
2024-09-30 14:26:35.446,4043.538,0.071,0.694,-0.716,0.005,-0.003,0.012,0.141,-0.037,-0.021,0.098,-0.768,1.028
2024-09-30 14:26:35.566,4043.657,0.072,0.691,-0.719,0.011,0.017,0.025,0.205,0.025,0.018,0.099,-0.763,1.026
2024-09-30 14:26:35.686,4043.777,0.088,0.703,-0.706,-0.015,-0.033,-0.014,-0.463,-0.017,-0.188,0.125,-0.779,1.044
2024-09-30 14:26:35.806,4043.897,0.079,0.713,-0.697,0.004,-0.005,0.012,-0.033,-0.078,-0.105,0.113,-0.794,1.036
2024-09-30 14:26:35.925,4044.017,0.072,0.714,-0.696,0.07,-0.014,-0.012,-0.048,-0.064,-0.013,0.103,-0.795,1.028
2024-09-30 14:26:36.045,4044.137,0.066,0.715,-0.696,-0.005,0.023,0.013,0.056,-0.015,0.025,0.095,-0.797,1.028
2024-09-30 14:26:36.165,4044.256,0.063,0.702,-0.709,0.006,-0.058,0.001,0.032,-0.006,-0.017,0.088,-0.778,1.024
2024-09-30 14:26:36.284,4044.376,0.059,0.7,-0.712,-0.001,0.015,0.006,-0.065,-0.024,0.064,0.083,-0.775,1.031
2024-09-30 14:26:36.404,4044.496,0.066,0.713,-0.698,-0.007,-0.032,-0.009,-0.262,0.15,-0.018,0.095,-0.794,1.036
2024-09-30 14:26:36.525,4044.616,0.073,0.725,-0.685,0.019,0.028,0.019,0.145,-0.007,-0.053,0.106,-0.811,1.033
2024-09-30 14:26:36.644,4044.735,0.067,0.719,-0.692,0.008,0.016,0.014,0.177,-0.084,-0.035,0.097,-0.802,1.026
2024-09-30 14:26:36.764,4044.855,0.058,0.696,-0.716,0.008,0.019,0.015,0.233,-0.06,0.009,0.081,-0.77,1.017
2024-09-30 14:26:36.884,4044.975,0.064,0.69,-0.721,0.018,-0.018,0.013,0.094,0.051,-0.013,0.088,-0.762,1.022
2024-09-30 14:26:37.004,4045.095,0.068,0.71,-0.701,-0.003,-0.004,-0.022,-0.834,0.264,0.048,0.097,-0.789,1.027
2024-09-30 14:26:37.123,4045.215,0.087,0.798,-0.596,0.071,0.022,-0.02,-1.017,0.283,-0.177,0.146,-0.924,1.034
2024-09-30 14:26:37.243,4045.334,0.074,0.85,-0.521,0.121,0.007,-0.052,-0.283,0.039,-0.263,0.141,-1.017,1.02
2024-09-30 14:26:37.363,4045.454,0.046,0.855,-0.516,0.012,-0.052,0.085,0.165,-0.187,-0.009,0.089,-1.026,0.994
2024-09-30 14:26:37.482,4045.574,0.051,0.839,-0.542,-0.048,0.04,0.061,0.423,-0.024,0.181,0.093,-0.995,1.011
2024-09-30 14:26:37.603,4045.694,0.062,0.815,-0.576,-0.073,0.012,0.017,0.386,0.081,0.108,0.107,-0.953,1.029
2024-09-30 14:26:37.722,4045.814,0.078,0.754,-0.653,-0.045,0.048,0.017,1.053,0.045,0.162,0.12,-0.853,1.03
2024-09-30 14:26:37.842,4045.933,0.097,0.694,-0.713,0.019,-0.06,-0.01,0.03,0.162,-0.042,0.136,-0.767,1.036
2024-09-30 14:26:37.962,4046.053,0.089,0.723,-0.685,0.018,0.033,0.022,-0.093,-0.175,-0.055,0.129,-0.808,1.023
2024-09-30 14:26:38.081,4046.173,0.083,0.737,-0.67,0.015,0.006,0.012,-0.095,-0.034,-0.02,0.123,-0.829,1.019
2024-09-30 14:26:38.201,4046.293,0.082,0.739,-0.669,0.005,0.005,0.012,0.014,-0.002,-0.015,0.122,-0.832,1.017
2024-09-30 14:26:38.321,4046.413,0.075,0.731,-0.678,0.008,0.008,0.01,0.267,-0.089,-0.05,0.11,-0.82,1.007
2024-09-30 14:26:38.441,4046.532,0.071,0.716,-0.695,0.013,-0.038,-0.016,-0.051,-0.0,-0.01,0.103,-0.798,1.001
2024-09-30 14:26:38.561,4046.652,0.08,0.719,-0.69,-0.008,-0.021,0.001,-0.101,0.122,0.053,0.116,-0.803,1.007
2024-09-30 14:26:38.680,4046.772,0.085,0.729,-0.679,0.003,-0.001,0.006,-0.022,0.041,-0.02,0.125,-0.817,1.008
2024-09-30 14:26:38.800,4046.892,0.083,0.727,-0.682,0.008,-0.01,0.002,0.045,-0.043,-0.038,0.122,-0.814,1.005
2024-09-30 14:26:38.920,4047.012,0.077,0.715,-0.695,-0.004,-0.042,-0.008,0.012,0.05,-0.034,0.111,-0.797,0.997
2024-09-30 14:26:39.040,4047.131,0.08,0.712,-0.698,0.009,-0.011,0.003,0.016,-0.005,-0.029,0.114,-0.792,0.992
2024-09-30 14:26:39.160,4047.251,0.077,0.715,-0.695,-0.006,0.029,0.004,0.006,0.018,0.006,0.111,-0.796,0.99
2024-09-30 14:26:39.279,4047.371,0.085,0.72,-0.689,-0.008,0.004,-0.014,-0.271,0.04,0.039,0.123,-0.804,0.998
2024-09-30 14:26:39.399,4047.491,0.084,0.725,-0.683,0.005,0.001,0.004,0.007,-0.018,-0.028,0.123,-0.811,0.998
2024-09-30 14:26:39.519,4047.61,0.078,0.717,-0.693,0.006,0.012,0.016,0.13,-0.015,-0.028,0.112,-0.799,0.992
2024-09-30 14:26:39.639,4047.73,0.079,0.719,-0.691,-0.0,-0.023,0.003,-0.138,0.062,0.03,0.115,-0.802,0.991
2024-09-30 14:26:39.759,4047.85,0.085,0.727,-0.681,0.012,0.003,0.009,-0.014,-0.016,0.004,0.124,-0.815,1.0
2024-09-30 14:26:39.878,4047.97,0.081,0.721,-0.688,0.007,0.018,0.014,0.24,-0.062,-0.023,0.117,-0.806,0.999
2024-09-30 14:26:39.998,4048.09,0.084,0.714,-0.695,0.003,-0.029,0.001,-0.027,0.068,0.03,0.12,-0.796,0.994
2024-09-30 14:26:40.118,4048.209,0.095,0.727,-0.68,0.009,0.042,0.025,-0.015,-0.006,0.089,0.138,-0.814,1.016
2024-09-30 14:26:40.237,4048.329,0.093,0.726,-0.681,0.002,0.006,0.011,0.051,-0.016,-0.005,0.136,-0.813,1.017
2024-09-30 14:26:40.358,4048.449,0.089,0.723,-0.686,-0.001,0.002,0.006,0.092,-0.012,-0.04,0.129,-0.808,1.011
2024-09-30 14:26:40.477,4048.569,0.086,0.718,-0.691,0.011,-0.027,0.003,-0.108,-0.091,-0.016,0.124,-0.801,1.004
2024-09-30 14:26:40.597,4048.689,0.089,0.72,-0.688,-0.003,-0.007,0.007,0.012,0.059,-0.011,0.128,-0.804,1.004
2024-09-30 14:26:40.717,4048.808,0.085,0.721,-0.687,0.008,-0.014,0.001,-0.106,-0.061,0.004,0.123,-0.806,1.001
2024-09-30 14:26:40.836,4048.928,0.091,0.731,-0.676,0.005,-0.028,-0.001,-0.114,0.076,-0.017,0.134,-0.82,1.01
2024-09-30 14:26:40.957,4049.048,0.092,0.733,-0.674,0.001,-0.007,0.003,-0.024,0.034,-0.026,0.136,-0.823,1.008
2024-09-30 14:26:41.076,4049.168,0.088,0.725,-0.683,0.009,0.021,0.018,0.28,-0.098,-0.051,0.128,-0.811,0.998
2024-09-30 14:26:41.196,4049.288,0.096,0.719,-0.688,-0.019,-0.022,0.005,-0.166,0.255,0.214,0.139,-0.803,1.0
2024-09-30 14:26:41.316,4049.407,0.109,0.727,-0.678,-0.035,0.047,0.03,0.032,-0.117,-0.076,0.16,-0.813,1.012
2024-09-30 14:26:41.436,4049.527,0.094,0.723,-0.685,0.077,-0.045,-0.013,-0.061,-0.081,-0.001,0.137,-0.808,1.003
2024-09-30 14:26:41.556,4049.647,0.086,0.73,-0.678,-0.02,0.021,0.008,0.01,-0.033,0.04,0.125,-0.818,1.001
2024-09-30 14:26:41.675,4049.767,0.082,0.725,-0.684,0.002,0.02,0.015,0.217,-0.056,-0.028,0.119,-0.81,0.999
2024-09-30 14:26:41.795,4049.887,0.08,0.718,-0.691,-0.002,-0.022,0.003,-0.112,0.061,0.009,0.115,-0.801,0.994
2024-09-30 14:26:41.915,4050.006,0.085,0.726,-0.683,0.011,0.043,0.024,0.131,0.002,-0.026,0.123,-0.812,0.993
2024-09-30 14:26:42.034,4050.126,0.079,0.714,-0.696,-0.004,-0.077,-0.002,0.025,0.109,-0.071,0.113,-0.795,0.981
2024-09-30 14:26:42.154,4050.246,0.08,0.717,-0.693,0.0,-0.023,-0.007,-0.154,0.073,0.013,0.115,-0.799,0.977
2024-09-30 14:26:42.274,4050.366,0.087,0.726,-0.683,0.012,0.0,0.007,-0.003,-0.014,-0.008,0.127,-0.812,0.985
2024-09-30 14:26:42.394,4050.485,0.08,0.718,-0.692,-0.012,-0.042,-0.013,-0.103,0.07,-0.013,0.115,-0.8,0.977
2024-09-30 14:26:42.514,4050.605,0.086,0.723,-0.686,0.02,0.043,0.022,0.165,-0.076,-0.001,0.125,-0.808,0.988
2024-09-30 14:26:42.633,4050.725,0.085,0.717,-0.692,-0.004,-0.011,0.009,-0.091,0.014,0.086,0.122,-0.799,0.985
2024-09-30 14:26:42.753,4050.845,0.091,0.723,-0.685,0.019,0.045,0.023,0.2,-0.07,-0.044,0.133,-0.808,0.997
2024-09-30 14:26:42.872,4050.965,0.082,0.715,-0.695,-0.009,0.016,0.007,0.024,0.03,-0.01,0.117,-0.796,0.988
2024-09-30 14:26:42.993,4051.084,0.085,0.713,-0.696,0.012,-0.011,0.003,-0.017,-0.066,-0.014,0.122,-0.793,0.986
2024-09-30 14:26:43.113,4051.204,0.088,0.726,-0.682,-0.008,-0.032,-0.018,-0.254,0.146,-0.032,0.128,-0.812,0.993
2024-09-30 14:26:43.233,4051.324,0.086,0.716,-0.693,-0.011,0.008,0.001,-0.057,0.086,-0.07,0.124,-0.797,0.98
2024-09-30 14:26:43.353,4051.444,0.102,0.725,-0.681,-0.096,-0.042,0.032,-0.255,-0.248,-0.367,0.148,-0.811,0.998
2024-09-30 14:26:43.472,4051.564,0.092,0.722,-0.685,0.066,-0.009,0.005,0.055,-0.082,-0.035,0.134,-0.807,0.988
2024-09-30 14:26:43.592,4051.683,0.084,0.725,-0.683,0.006,0.007,0.008,-0.036,-0.126,-0.048,0.122,-0.812,0.982
2024-09-30 14:26:43.712,4051.803,0.079,0.717,-0.693,0.0,0.028,0.016,0.087,-0.038,-0.02,0.113,-0.8,0.979
2024-09-30 14:26:43.831,4051.923,0.084,0.722,-0.687,-0.011,0.034,0.011,-0.012,0.125,0.003,0.122,-0.807,0.981
2024-09-30 14:26:43.951,4052.043,0.082,0.714,-0.695,0.012,0.019,0.015,0.238,0.025,-0.053,0.117,-0.795,0.971
2024-09-30 14:26:44.071,4052.163,0.083,0.716,-0.694,0.005,-0.02,-0.005,-0.046,0.032,0.023,0.119,-0.797,0.968
2024-09-30 14:26:44.191,4052.282,0.089,0.72,-0.688,-0.007,0.031,0.017,-0.006,0.081,0.052,0.129,-0.803,0.975
2024-09-30 14:26:44.311,4052.402,0.086,0.713,-0.696,0.005,0.01,0.01,0.125,-0.031,0.003,0.124,-0.794,0.973
2024-09-30 14:26:44.431,4052.522,0.09,0.72,-0.688,-0.009,0.013,-0.006,-0.13,0.045,0.041,0.13,-0.804,0.979
2024-09-30 14:26:44.550,4052.642,0.088,0.714,-0.694,-0.019,-0.005,-0.007,-0.027,0.045,0.054,0.126,-0.795,0.978
2024-09-30 14:26:44.670,4052.762,0.113,0.706,-0.699,0.019,0.028,0.016,0.155,0.058,0.102,0.16,-0.783,1.005
2024-09-30 14:26:44.790,4052.881,0.103,0.7,-0.707,0.01,0.014,0.007,0.059,-0.142,-0.115,0.145,-0.775,0.998
2024-09-30 14:26:44.910,4053.001,0.093,0.702,-0.706,-0.011,0.042,0.012,0.048,0.115,-0.0,0.131,-0.778,0.988
2024-09-30 14:26:45.030,4053.121,0.095,0.699,-0.708,0.009,-0.029,-0.01,-0.03,-0.094,-0.002,0.133,-0.774,0.987
2024-09-30 14:26:45.150,4053.241,0.098,0.708,-0.699,0.001,-0.021,0.001,-0.125,0.14,-0.036,0.14,-0.787,0.992
2024-09-30 14:26:45.269,4053.361,0.095,0.696,-0.711,-0.018,-0.002,-0.006,-0.01,0.019,-0.072,0.133,-0.77,0.978
2024-09-30 14:26:45.389,4053.48,0.107,0.702,-0.704,-0.093,-0.054,0.017,-0.194,0.005,-0.034,0.15,-0.778,0.991
2024-09-30 14:26:45.509,4053.6,0.092,0.709,-0.699,0.038,-0.009,0.015,0.008,-0.043,-0.122,0.131,-0.788,0.975
2024-09-30 14:26:45.628,4053.72,0.088,0.709,-0.7,0.06,-0.066,-0.02,-0.168,-0.093,-0.131,0.125,-0.787,0.965
2024-09-30 14:26:45.748,4053.84,0.082,0.708,-0.701,0.008,0.011,0.008,0.166,-0.068,-0.021,0.116,-0.787,0.962
2024-09-30 14:26:45.868,4053.959,0.085,0.709,-0.7,-0.014,-0.012,-0.005,-0.114,0.168,-0.005,0.121,-0.789,0.961
2024-09-30 14:26:45.988,4054.079,0.091,0.708,-0.7,0.018,0.026,0.014,0.238,-0.093,-0.032,0.13,-0.787,0.956
2024-09-30 14:26:46.108,4054.199,0.088,0.703,-0.705,0.003,0.019,0.012,0.046,0.014,0.002,0.124,-0.78,0.949
2024-09-30 14:26:46.228,4054.319,0.089,0.708,-0.701,-0.008,-0.008,0.003,-0.088,0.031,0.025,0.126,-0.786,0.951
2024-09-30 14:26:46.347,4054.439,0.095,0.712,-0.695,0.019,0.019,0.007,0.076,-0.059,-0.015,0.136,-0.793,0.958
2024-09-30 14:26:46.467,4054.558,0.089,0.706,-0.703,-0.003,0.008,0.016,-0.036,0.066,0.024,0.127,-0.783,0.952
2024-09-30 14:26:46.587,4054.678,0.094,0.707,-0.701,0.015,0.045,0.026,0.239,-0.1,-0.01,0.133,-0.786,0.959
2024-09-30 14:26:46.706,4054.798,0.098,0.7,-0.707,-0.009,0.017,0.026,0.154,0.162,0.25,0.138,-0.775,0.967
2024-09-30 14:26:46.826,4054.918,0.113,0.696,-0.709,0.03,0.002,0.012,0.06,-0.134,-0.089,0.158,-0.77,0.98
2024-09-30 14:26:46.947,4055.038,0.097,0.696,-0.711,-0.001,-0.016,-0.007,-0.124,-0.076,-0.04,0.136,-0.77,0.967
2024-09-30 14:26:47.066,4055.157,0.101,0.698,-0.709,0.013,0.01,0.008,0.056,0.031,-0.004,0.141,-0.773,0.965
2024-09-30 14:26:47.186,4055.277,0.098,0.706,-0.702,-0.012,-0.008,0.005,-0.217,0.029,0.041,0.138,-0.784,0.967
2024-09-30 14:26:47.305,4055.397,0.106,0.717,-0.689,0.023,0.049,0.018,0.235,-0.017,-0.064,0.153,-0.8,0.969
2024-09-30 14:26:47.425,4055.517,0.101,0.706,-0.701,-0.002,-0.023,0.008,-0.091,0.02,0.11,0.143,-0.784,0.956
2024-09-30 14:26:47.545,4055.637,0.106,0.717,-0.689,-0.083,0.097,0.029,-0.093,-0.24,-0.085,0.152,-0.799,0.967
2024-09-30 14:26:47.665,4055.756,0.087,0.721,-0.687,0.052,-0.047,0.026,0.025,-0.062,-0.068,0.126,-0.806,0.955
2024-09-30 14:26:47.785,4055.876,0.085,0.715,-0.694,-0.005,0.018,-0.041,0.007,0.027,-0.024,0.121,-0.796,0.949
2024-09-30 14:26:47.904,4055.996,0.086,0.705,-0.704,0.014,0.001,0.002,0.112,0.009,-0.033,0.121,-0.782,0.946
2024-09-30 14:26:48.024,4056.116,0.091,0.714,-0.694,-0.013,0.037,0.003,-0.022,0.128,-0.017,0.131,-0.795,0.948
2024-09-30 14:26:48.144,4056.236,0.09,0.707,-0.702,-0.027,-0.001,-0.018,-0.035,0.067,-0.039,0.128,-0.785,0.94
2024-09-30 14:26:48.264,4056.355,0.092,0.711,-0.698,0.001,-0.031,-0.006,-0.087,0.038,-0.001,0.131,-0.79,0.938
2024-09-30 14:26:48.383,4056.475,0.1,0.721,-0.685,0.008,0.017,0.013,0.027,0.053,0.006,0.145,-0.806,0.949
2024-09-30 14:26:48.503,4056.595,0.093,0.706,-0.702,-0.018,-0.082,-0.033,-0.114,0.053,-0.042,0.132,-0.784,0.938
2024-09-30 14:26:48.623,4056.715,0.098,0.712,-0.695,0.009,0.05,0.019,0.15,-0.076,0.009,0.14,-0.792,0.947
2024-09-30 14:26:48.743,4056.834,0.095,0.708,-0.7,0.001,-0.004,0.014,-0.097,-0.011,0.063,0.135,-0.787,0.946
2024-09-30 14:26:48.863,4056.954,0.1,0.716,-0.691,0.011,0.026,0.016,0.145,-0.063,-0.013,0.144,-0.798,0.955
2024-09-30 14:26:48.982,4057.074,0.089,0.706,-0.703,0.004,-0.11,-0.002,-0.086,-0.06,-0.009,0.126,-0.783,0.946
2024-09-30 14:26:49.102,4057.194,0.092,0.705,-0.703,0.007,-0.005,-0.001,0.04,0.045,-0.026,0.131,-0.782,0.944
2024-09-30 14:26:49.222,4057.314,0.093,0.712,-0.696,-0.019,-0.019,-0.004,-0.149,0.064,0.039,0.133,-0.792,0.949
2024-09-30 14:26:49.342,4057.433,0.101,0.723,-0.683,0.027,0.08,0.039,0.408,-0.074,-0.065,0.147,-0.808,0.95
2024-09-30 14:26:49.461,4057.553,0.098,0.714,-0.693,0.003,-0.004,0.008,-0.282,0.009,0.066,0.141,-0.796,0.939
2024-09-30 14:26:49.581,4057.673,0.118,0.742,-0.66,-0.087,0.093,-0.002,0.257,-0.027,0.083,0.176,-0.837,0.979
2024-09-30 14:26:49.701,4057.793,0.098,0.729,-0.677,0.059,0.002,0.01,0.227,-0.203,-0.144,0.143,-0.817,0.958
2024-09-30 14:26:49.821,4057.913,0.082,0.724,-0.685,0.023,-0.007,0.002,-0.013,-0.082,-0.116,0.119,-0.81,0.941
2024-09-30 14:26:49.941,4058.032,0.081,0.718,-0.691,0.013,0.004,0.009,0.23,-0.037,-0.04,0.117,-0.801,0.939
2024-09-30 14:26:50.061,4058.152,0.08,0.716,-0.694,-0.009,-0.026,0.015,-0.127,0.095,0.02,0.115,-0.798,0.934
2024-09-30 14:26:50.180,4058.272,0.085,0.717,-0.691,0.014,0.036,0.019,0.25,-0.073,-0.048,0.122,-0.8,0.932
2024-09-30 14:26:50.300,4058.392,0.081,0.71,-0.699,0.002,-0.003,0.006,0.074,0.04,-0.002,0.115,-0.79,0.922
2024-09-30 14:26:50.420,4058.512,0.085,0.716,-0.693,-0.014,-0.031,0.006,-0.151,0.021,0.055,0.122,-0.798,0.925
2024-09-30 14:26:50.540,4058.631,0.088,0.716,-0.693,0.014,0.023,0.014,0.223,-0.113,-0.031,0.126,-0.798,0.93
2024-09-30 14:26:50.660,4058.751,0.086,0.712,-0.697,-0.003,-0.001,0.016,-0.057,0.0,0.078,0.123,-0.792,0.929
2024-09-30 14:26:50.779,4058.871,0.088,0.711,-0.698,0.015,0.014,0.014,0.3,-0.172,-0.037,0.125,-0.791,0.936
2024-09-30 14:26:50.899,4058.991,0.089,0.713,-0.695,0.002,-0.016,0.002,-0.192,0.073,0.103,0.128,-0.794,0.936
2024-09-30 14:26:51.019,4059.111,0.091,0.712,-0.696,0.01,0.005,0.009,0.253,-0.116,-0.05,0.129,-0.793,0.936
2024-09-30 14:26:51.139,4059.23,0.086,0.708,-0.701,-0.015,-0.002,0.008,0.036,0.09,-0.008,0.121,-0.787,0.93
2024-09-30 14:26:51.258,4059.35,0.088,0.706,-0.703,0.007,-0.018,-0.007,-0.042,-0.042,0.002,0.124,-0.784,0.924
2024-09-30 14:26:51.378,4059.47,0.09,0.717,-0.691,-0.004,-0.033,-0.015,-0.165,0.093,0.034,0.13,-0.799,0.937
2024-09-30 14:26:51.498,4059.59,0.099,0.731,-0.675,0.015,0.036,0.019,0.16,-0.006,-0.047,0.146,-0.82,0.938
2024-09-30 14:26:51.618,4059.71,0.093,0.712,-0.696,-0.008,-0.173,-0.006,-0.352,0.104,-0.039,0.133,-0.793,0.919
2024-09-30 14:26:51.738,4059.829,0.105,0.781,-0.616,0.014,-0.027,-0.005,-1.127,0.305,-0.142,0.169,-0.896,0.932
2024-09-30 14:26:51.858,4059.949,0.098,0.838,-0.538,0.056,0.02,-0.028,-0.505,-0.163,-0.202,0.18,-0.993,0.942
2024-09-30 14:26:51.977,4060.069,0.072,0.844,-0.531,0.097,0.014,0.035,0.083,-0.226,0.034,0.135,-1.005,0.939
2024-09-30 14:26:52.097,4060.189,0.092,0.828,-0.553,0.027,0.022,0.021,0.061,-0.235,0.492,0.165,-0.976,1.023
2024-09-30 14:26:52.217,4060.308,0.109,0.817,-0.566,-0.072,-0.074,0.058,0.208,-0.293,0.122,0.19,-0.957,1.1
2024-09-30 14:26:52.337,4060.428,0.094,0.803,-0.589,-0.117,0.009,0.006,0.304,-0.263,-0.083,0.158,-0.932,1.096
2024-09-30 14:26:52.457,4060.548,0.084,0.76,-0.644,-0.031,0.016,-0.009,0.816,0.203,0.021,0.13,-0.864,1.07
2024-09-30 14:26:52.576,4060.668,0.096,0.73,-0.676,0.015,0.05,-0.029,0.063,0.006,0.073,0.141,-0.819,1.065
2024-09-30 14:26:52.696,4060.788,0.094,0.738,-0.668,-0.012,-0.021,-0.01,-0.349,0.003,-0.017,0.14,-0.83,1.072
2024-09-30 14:26:52.815,4060.907,0.094,0.744,-0.661,-0.01,-0.029,-0.01,-0.071,0.067,-0.012,0.142,-0.839,1.074
2024-09-30 14:26:52.936,4061.027,0.092,0.744,-0.661,0.001,-0.019,-0.003,0.014,-0.042,-0.023,0.139,-0.84,1.07
2024-09-30 14:26:53.055,4061.147,0.088,0.735,-0.673,0.001,0.01,0.007,0.033,0.047,-0.009,0.13,-0.825,1.064
2024-09-30 14:26:53.175,4061.267,0.1,0.749,-0.655,0.004,-0.008,0.01,-0.074,0.02,0.041,0.152,-0.846,1.078
2024-09-30 14:26:53.295,4061.387,0.099,0.748,-0.656,0.006,-0.007,0.005,0.036,-0.038,-0.003,0.149,-0.845,1.08
2024-09-30 14:26:53.415,4061.506,0.093,0.74,-0.666,0.008,0.015,0.012,0.281,-0.131,-0.027,0.139,-0.833,1.077
2024-09-30 14:26:53.535,4061.626,0.099,0.737,-0.669,0.022,0.002,0.017,0.108,-0.02,-0.002,0.146,-0.829,1.07
2024-09-30 14:26:53.654,4061.746,0.099,0.742,-0.663,-0.002,0.006,0.009,-0.09,0.048,0.04,0.148,-0.836,1.079
2024-09-30 14:26:53.774,4061.866,0.102,0.748,-0.656,-0.007,-0.004,0.005,-0.021,-0.003,0.02,0.154,-0.845,1.084
2024-09-30 14:26:53.895,4061.986,0.1,0.748,-0.656,0.002,-0.01,-0.002,0.01,-0.043,-0.003,0.152,-0.845,1.087
2024-09-30 14:26:54.014,4062.105,0.097,0.741,-0.665,0.004,0.013,0.008,0.185,-0.043,-0.036,0.145,-0.834,1.083
2024-09-30 14:26:54.134,4062.225,0.099,0.735,-0.671,0.006,0.003,0.007,0.083,0.018,-0.016,0.146,-0.825,1.078
2024-09-30 14:26:54.254,4062.345,0.1,0.731,-0.675,-0.005,0.008,-0.001,0.044,0.026,-0.028,0.147,-0.82,1.073
2024-09-30 14:26:54.374,4062.465,0.102,0.729,-0.677,-0.001,-0.015,0.007,-0.013,0.064,-0.014,0.15,-0.817,1.068
2024-09-30 14:26:54.494,4062.585,0.106,0.736,-0.669,-0.016,-0.042,-0.021,-0.328,0.095,0.119,0.157,-0.827,1.076
2024-09-30 14:26:54.613,4062.704,0.126,0.772,-0.623,0.005,0.041,0.017,-0.167,0.053,0.081,0.2,-0.882,1.107
2024-09-30 14:26:54.733,4062.824,0.12,0.772,-0.624,-0.055,0.074,-0.02,0.173,-0.189,-0.071,0.19,-0.882,1.103
2024-09-30 14:26:54.852,4062.944,0.104,0.77,-0.629,0.04,-0.053,0.02,0.1,-0.134,-0.017,0.163,-0.879,1.086
2024-09-30 14:26:54.972,4063.064,0.084,0.765,-0.639,0.003,-0.113,0.092,0.534,-0.1,0.068,0.13,-0.871,1.077
2024-09-30 14:26:55.092,4063.183,0.09,0.75,-0.656,0.037,0.087,-0.067,0.058,-0.017,0.051,0.136,-0.847,1.084
2024-09-30 14:26:55.211,4063.303,0.09,0.751,-0.655,-0.003,-0.007,0.005,-0.034,0.028,0.021,0.136,-0.849,1.085
2024-09-30 14:26:55.332,4063.423,0.089,0.744,-0.663,0.008,0.016,0.013,0.246,-0.061,-0.05,0.134,-0.839,1.08
2024-09-30 14:26:55.451,4063.543,0.091,0.738,-0.669,0.002,-0.02,-0.0,-0.012,0.093,0.06,0.136,-0.83,1.076
2024-09-30 14:26:55.571,4063.663,0.101,0.749,-0.654,0.015,0.05,0.024,0.063,-0.064,0.026,0.154,-0.847,1.09
2024-09-30 14:26:55.691,4063.782,0.092,0.735,-0.672,-0.028,0.033,-0.002,0.033,0.051,-0.022,0.136,-0.826,1.081
2024-09-30 14:26:55.810,4063.902,0.098,0.733,-0.673,0.001,-0.021,-0.003,-0.02,-0.057,0.034,0.144,-0.822,1.077
2024-09-30 14:26:55.931,4064.022,0.104,0.743,-0.662,-0.014,0.003,-0.002,-0.115,0.105,0.084,0.156,-0.837,1.092
2024-09-30 14:26:56.050,4064.142,0.107,0.744,-0.66,0.001,-0.025,-0.005,-0.041,-0.058,-0.008,0.161,-0.838,1.097
2024-09-30 14:26:56.170,4064.262,0.103,0.744,-0.66,-0.002,-0.013,-0.002,0.015,-0.002,-0.019,0.154,-0.839,1.097
2024-09-30 14:26:56.290,4064.381,0.101,0.741,-0.663,-0.001,0.001,0.004,0.051,-0.008,-0.023,0.152,-0.835,1.093
2024-09-30 14:26:56.410,4064.501,0.099,0.734,-0.672,-0.013,-0.034,-0.002,0.051,0.114,-0.01,0.146,-0.824,1.087
2024-09-30 14:26:56.530,4064.621,0.102,0.728,-0.678,-0.001,-0.019,-0.001,0.022,0.008,-0.023,0.149,-0.816,1.081
2024-09-30 14:26:56.649,4064.741,0.102,0.726,-0.68,0.006,-0.027,0.001,-0.017,0.043,-0.023,0.149,-0.812,1.077
2024-09-30 14:26:56.769,4064.861,0.104,0.729,-0.677,-0.005,-0.006,0.002,0.002,0.021,-0.013,0.152,-0.817,1.075
2024-09-30 14:26:56.889,4064.98,0.11,0.751,-0.651,-0.037,0.021,-0.019,-0.72,0.223,0.055,0.168,-0.849,1.088
2024-09-30 14:26:57.009,4065.1,0.112,0.786,-0.608,-0.051,0.09,-0.049,-0.196,-0.083,-0.093,0.182,-0.904,1.096
2024-09-30 14:26:57.129,4065.22,0.094,0.78,-0.619,0.033,-0.064,0.035,0.291,-0.056,0.017,0.15,-0.894,1.071
2024-09-30 14:26:57.248,4065.34,0.093,0.754,-0.65,0.013,-0.03,0.009,0.107,-0.059,0.038,0.141,-0.855,1.069
2024-09-30 14:26:57.367,4065.46,0.097,0.752,-0.652,0.01,0.002,0.003,0.078,0.035,-0.003,0.148,-0.851,1.075
2024-09-30 14:26:57.488,4065.579,0.095,0.741,-0.664,0.005,0.028,0.013,0.332,-0.095,-0.046,0.142,-0.835,1.068
2024-09-30 14:26:57.608,4065.699,0.097,0.745,-0.66,-0.001,-0.032,-0.007,-0.296,-0.019,0.037,0.146,-0.84,1.067
2024-09-30 14:26:57.727,4065.819,0.098,0.748,-0.656,0.012,0.012,0.01,0.306,-0.116,-0.035,0.149,-0.845,1.069
2024-09-30 14:26:57.847,4065.939,0.098,0.743,-0.662,0.008,0.03,0.017,0.151,0.029,0.011,0.146,-0.838,1.063
2024-09-30 14:26:57.967,4066.059,0.097,0.747,-0.657,-0.01,-0.022,-0.007,-0.194,-0.012,0.07,0.147,-0.844,1.072
2024-09-30 14:26:58.087,4066.178,0.104,0.754,-0.649,0.003,0.011,0.009,-0.002,-0.01,0.03,0.16,-0.854,1.081
2024-09-30 14:26:58.207,4066.298,0.102,0.752,-0.651,-0.0,0.003,0.005,0.023,-0.039,0.006,0.155,-0.852,1.082
2024-09-30 14:26:58.326,4066.418,0.097,0.746,-0.659,0.003,0.012,0.01,0.213,-0.082,-0.026,0.146,-0.842,1.078
2024-09-30 14:26:58.446,4066.538,0.099,0.739,-0.667,0.007,-0.001,0.006,0.075,0.038,-0.029,0.148,-0.831,1.07
2024-09-30 14:26:58.566,4066.657,0.098,0.734,-0.672,-0.007,-0.002,0.001,0.001,0.024,-0.007,0.144,-0.825,1.064
2024-09-30 14:26:58.686,4066.777,0.101,0.734,-0.671,0.003,0.017,0.0,0.059,0.057,-0.017,0.149,-0.825,1.062
2024-09-30 14:26:58.805,4066.897,0.105,0.734,-0.671,-0.004,-0.06,-0.011,-0.39,-0.024,0.073,0.155,-0.824,1.066
2024-09-30 14:26:58.925,4067.017,0.121,0.793,-0.597,-0.004,0.042,0.019,-0.451,0.121,-0.053,0.199,-0.916,1.093
2024-09-30 14:26:59.045,4067.137,0.112,0.795,-0.597,-0.022,0.004,0.01,0.075,-0.138,-0.12,0.185,-0.919,1.086
2024-09-30 14:26:59.165,4067.256,0.092,0.779,-0.62,0.002,-0.023,0.021,0.45,-0.181,-0.028,0.148,-0.893,1.067
2024-09-30 14:26:59.285,4067.376,0.087,0.762,-0.642,0.068,-0.014,-0.005,0.034,0.043,0.006,0.135,-0.866,1.061
2024-09-30 14:26:59.404,4067.496,0.091,0.757,-0.648,-0.018,-0.021,-0.012,0.018,0.088,0.041,0.14,-0.858,1.061
2024-09-30 14:26:59.524,4067.616,0.095,0.755,-0.649,0.008,0.008,0.005,0.125,-0.06,-0.06,0.146,-0.855,1.059
2024-09-30 14:26:59.644,4067.736,0.094,0.752,-0.653,-0.004,-0.038,0.006,-0.104,0.111,0.03,0.142,-0.851,1.053
2024-09-30 14:26:59.764,4067.855,0.1,0.76,-0.643,0.017,0.051,0.026,0.257,-0.115,-0.031,0.155,-0.863,1.065
2024-09-30 14:26:59.883,4067.975,0.099,0.753,-0.65,-0.002,-0.002,0.004,0.026,0.104,-0.016,0.152,-0.853,1.055
2024-09-30 14:27:00.004,4068.095,0.102,0.761,-0.64,-0.008,0.034,0.009,-0.061,0.062,0.078,0.158,-0.865,1.068
2024-09-30 14:27:00.123,4068.215,0.104,0.763,-0.638,0.004,0.005,0.006,0.057,-0.052,-0.014,0.162,-0.867,1.071
2024-09-30 14:27:00.243,4068.335,0.103,0.763,-0.639,-0.001,-0.007,0.001,-0.01,-0.014,0.024,0.159,-0.867,1.073
2024-09-30 14:27:00.363,4068.454,0.101,0.76,-0.642,0.001,-0.006,-0.001,0.08,-0.032,-0.018,0.156,-0.863,1.071
2024-09-30 14:27:00.482,4068.574,0.099,0.752,-0.651,-0.003,0.013,0.012,0.086,0.098,-0.011,0.151,-0.852,1.065
2024-09-30 14:27:00.602,4068.694,0.102,0.748,-0.655,0.007,-0.015,-0.005,0.024,-0.024,-0.006,0.154,-0.846,1.06
2024-09-30 14:27:00.722,4068.814,0.101,0.747,-0.657,-0.006,-0.01,-0.003,0.03,0.026,-0.003,0.152,-0.843,1.057
2024-09-30 14:27:00.842,4068.934,0.102,0.748,-0.656,0.006,-0.01,-0.003,-0.008,0.03,-0.018,0.154,-0.845,1.055
2024-09-30 14:27:00.962,4069.053,0.104,0.75,-0.654,0.001,-0.007,0.003,0.032,0.059,-0.01,0.158,-0.848,1.053
2024-09-30 14:27:01.081,4069.173,0.115,0.779,-0.616,-0.058,-0.007,-0.067,-1.168,0.346,0.031,0.184,-0.894,1.073
2024-09-30 14:27:01.201,4069.293,0.125,0.826,-0.55,-0.022,-0.01,-0.01,-0.095,0.004,-0.093,0.224,-0.971,1.1
2024-09-30 14:27:01.321,4069.413,0.105,0.808,-0.579,0.014,-0.035,0.045,0.638,-0.24,-0.075,0.179,-0.942,1.069
2024-09-30 14:27:01.441,4069.532,0.087,0.763,-0.64,0.058,-0.044,-0.006,0.165,-0.064,-0.032,0.134,-0.868,1.045
2024-09-30 14:27:01.561,4069.652,0.085,0.76,-0.644,-0.023,-0.024,0.003,0.062,0.07,0.066,0.132,-0.863,1.043
2024-09-30 14:27:01.681,4069.772,0.087,0.761,-0.643,0.001,-0.002,0.004,0.056,-0.004,-0.01,0.134,-0.865,1.041
2024-09-30 14:27:01.801,4069.892,0.083,0.751,-0.655,-0.004,-0.074,-0.021,-0.07,0.068,-0.018,0.126,-0.849,1.035
2024-09-30 14:27:01.921,4070.012,0.096,0.763,-0.639,0.008,-0.01,0.003,-0.019,0.018,0.025,0.148,-0.868,1.049
2024-09-30 14:27:02.040,4070.131,0.092,0.754,-0.651,-0.029,-0.025,-0.011,-0.098,0.151,-0.059,0.141,-0.854,1.04
2024-09-30 14:27:02.160,4070.251,0.092,0.755,-0.649,-0.005,0.013,-0.009,-0.245,-0.028,0.07,0.142,-0.856,1.049
2024-09-30 14:27:02.279,4070.371,0.1,0.767,-0.634,0.01,0.022,0.01,-0.003,-0.038,0.01,0.157,-0.874,1.059
2024-09-30 14:27:02.399,4070.491,0.096,0.766,-0.635,-0.001,0.001,0.004,0.045,-0.044,0.017,0.15,-0.873,1.059
2024-09-30 14:27:02.519,4070.611,0.095,0.765,-0.637,0.002,0.002,0.004,0.07,-0.006,-0.013,0.147,-0.871,1.059
2024-09-30 14:27:02.639,4070.73,0.092,0.754,-0.65,-0.003,0.01,0.01,0.107,0.064,-0.026,0.14,-0.855,1.051
2024-09-30 14:27:02.759,4070.85,0.095,0.749,-0.656,-0.009,-0.012,-0.003,0.077,0.06,0.002,0.144,-0.846,1.047
2024-09-30 14:27:02.879,4070.97,0.095,0.744,-0.661,-0.006,0.002,0.007,0.105,0.041,0.005,0.143,-0.839,1.044
2024-09-30 14:27:02.998,4071.09,0.097,0.745,-0.66,0.001,-0.007,0.001,-0.058,0.076,-0.036,0.146,-0.841,1.041
2024-09-30 14:27:03.118,4071.21,0.101,0.747,-0.657,0.008,-0.009,0.002,-0.014,0.045,-0.031,0.153,-0.844,1.038
2024-09-30 14:27:03.238,4071.329,0.103,0.749,-0.654,0.0,-0.024,0.0,-0.278,0.005,0.044,0.156,-0.847,1.039
2024-09-30 14:27:03.358,4071.449,0.129,0.823,-0.553,0.005,0.008,-0.012,-0.828,0.105,0.059,0.23,-0.967,1.091
2024-09-30 14:27:03.477,4071.569,0.115,0.804,-0.583,-0.013,0.012,-0.007,0.534,-0.226,-0.148,0.195,-0.934,1.073
2024-09-30 14:27:03.597,4071.689,0.091,0.769,-0.632,0.055,-0.034,0.015,0.199,-0.165,-0.007,0.142,-0.878,1.044
2024-09-30 14:27:03.717,4071.809,0.082,0.765,-0.639,-0.011,0.014,-0.001,0.024,-0.037,0.017,0.127,-0.871,1.04
2024-09-30 14:27:03.838,4071.928,0.085,0.763,-0.64,-0.002,-0.005,0.008,0.02,0.053,-0.007,0.132,-0.869,1.04
2024-09-30 14:27:03.957,4072.048,0.082,0.75,-0.656,0.013,0.024,0.01,0.132,0.004,0.052,0.125,-0.849,1.033
2024-09-30 14:27:04.076,4072.168,0.091,0.761,-0.643,-0.009,0.006,-0.02,-0.182,0.052,0.055,0.14,-0.864,1.042
2024-09-30 14:27:04.196,4072.288,0.086,0.749,-0.657,-0.047,-0.04,-0.055,-0.089,0.132,-0.053,0.13,-0.847,1.036
2024-09-30 14:27:04.316,4072.408,0.091,0.748,-0.658,-0.0,-0.075,-0.027,-0.287,-0.058,0.101,0.137,-0.845,1.037
2024-09-30 14:27:04.436,4072.527,0.096,0.762,-0.641,0.015,0.014,0.012,0.02,-0.031,-0.001,0.149,-0.866,1.051
2024-09-30 14:27:04.555,4072.647,0.094,0.76,-0.643,-0.005,-0.004,0.001,0.024,-0.005,0.007,0.145,-0.863,1.05
2024-09-30 14:27:04.675,4072.767,0.092,0.759,-0.644,0.002,-0.014,-0.0,-0.011,-0.042,0.005,0.142,-0.862,1.05
2024-09-30 14:27:04.795,4072.887,0.09,0.758,-0.645,-0.001,-0.007,0.0,0.016,0.002,-0.013,0.139,-0.861,1.05
2024-09-30 14:27:04.916,4073.006,0.089,0.752,-0.653,-0.004,-0.069,-0.015,-0.025,0.122,-0.036,0.135,-0.851,1.044
2024-09-30 14:27:05.034,4073.126,0.091,0.749,-0.656,-0.0,-0.012,-0.004,0.024,0.032,-0.014,0.137,-0.846,1.04
2024-09-30 14:27:05.154,4073.246,0.09,0.746,-0.659,0.004,-0.012,0.001,0.026,-0.011,-0.024,0.136,-0.843,1.037
2024-09-30 14:27:05.274,4073.366,0.092,0.747,-0.659,-0.009,-0.017,-0.001,-0.044,0.071,-0.009,0.139,-0.843,1.035
2024-09-30 14:27:05.393,4073.486,0.095,0.747,-0.658,-0.001,-0.007,-0.007,-0.023,0.021,-0.005,0.143,-0.844,1.034
2024-09-30 14:27:05.514,4073.605,0.097,0.748,-0.657,-0.006,-0.03,-0.006,-0.062,0.042,-0.007,0.146,-0.845,1.034
2024-09-30 14:27:05.634,4073.725,0.102,0.748,-0.656,0.001,-0.062,-0.012,-0.483,0.075,0.034,0.154,-0.844,1.037
2024-09-30 14:27:05.754,4073.845,0.131,0.863,-0.488,-0.006,-0.021,-0.038,-2.076,0.728,-0.153,0.261,-1.041,1.092
2024-09-30 14:27:05.873,4073.965,0.135,0.956,-0.259,0.083,0.132,-0.074,-1.626,0.187,-0.305,0.48,-1.274,1.274
2024-09-30 14:27:05.993,4074.085,0.101,0.974,-0.204,0.095,0.049,0.052,1.087,-0.105,-0.079,0.458,-1.341,1.273
2024-09-30 14:27:06.113,4074.204,0.102,0.94,-0.327,0.041,0.01,0.094,1.42,-0.432,0.265,0.302,-1.222,1.162
2024-09-30 14:27:06.233,4074.324,0.1,0.879,-0.466,-0.063,-0.08,0.065,0.629,-0.431,-0.01,0.211,-1.074,1.13
2024-09-30 14:27:06.353,4074.444,0.081,0.81,-0.58,-0.089,0.016,-0.004,1.21,-0.25,0.007,0.139,-0.945,1.098
2024-09-30 14:27:06.472,4074.564,0.08,0.761,-0.644,-0.067,0.061,-0.014,0.44,0.038,0.098,0.123,-0.864,1.085
2024-09-30 14:27:06.592,4074.684,0.103,0.736,-0.669,0.123,0.179,-0.179,0.262,0.147,0.034,0.153,-0.827,1.098
2024-09-30 14:27:06.711,4074.803,0.098,0.737,-0.669,-0.005,0.005,-0.002,-0.09,0.037,-0.017,0.145,-0.828,1.085
2024-09-30 14:27:06.831,4074.923,0.098,0.745,-0.659,0.002,0.007,0.003,-0.122,-0.046,-0.026,0.148,-0.841,1.087
2024-09-30 14:27:06.951,4075.043,0.093,0.75,-0.655,-0.004,-0.018,-0.006,-0.063,0.007,-0.028,0.142,-0.848,1.084
2024-09-30 14:27:07.071,4075.163,0.09,0.747,-0.658,0.006,0.007,0.008,0.119,-0.046,-0.042,0.136,-0.844,1.078
2024-09-30 14:27:07.191,4075.283,0.086,0.738,-0.669,0.008,0.01,0.01,0.191,0.038,-0.024,0.127,-0.83,1.069
2024-09-30 14:27:07.311,4075.402,0.084,0.736,-0.672,-0.006,0.01,0.011,0.054,0.058,0.012,0.125,-0.827,1.063
2024-09-30 14:27:07.431,4075.522,0.089,0.731,-0.677,0.0,-0.031,-0.003,0.007,0.041,-0.003,0.131,-0.82,1.06
2024-09-30 14:27:07.551,4075.642,0.091,0.743,-0.663,-0.013,-0.014,-0.009,-0.257,0.095,0.005,0.137,-0.837,1.064
2024-09-30 14:27:07.670,4075.762,0.094,0.739,-0.667,-0.0,-0.01,0.001,0.141,0.006,-0.032,0.139,-0.832,1.059
2024-09-30 14:27:07.790,4075.882,0.089,0.73,-0.677,0.009,-0.005,-0.009,-0.065,-0.013,-0.014,0.13,-0.819,1.051
2024-09-30 14:27:07.910,4076.001,0.094,0.738,-0.668,-0.007,-0.004,-0.007,-0.154,0.017,0.016,0.139,-0.83,1.059
2024-09-30 14:27:08.030,4076.121,0.092,0.738,-0.669,0.003,0.007,0.004,0.044,-0.03,-0.021,0.136,-0.83,1.056
2024-09-30 14:27:08.149,4076.241,0.087,0.731,-0.676,-0.011,-0.003,-0.006,0.032,0.004,-0.007,0.128,-0.82,1.051
2024-09-30 14:27:08.269,4076.361,0.087,0.732,-0.676,0.009,0.003,0.008,0.049,0.015,0.005,0.128,-0.821,1.051
2024-09-30 14:27:08.389,4076.48,0.091,0.735,-0.672,-0.005,-0.018,-0.003,-0.091,-0.002,0.031,0.135,-0.826,1.058
2024-09-30 14:27:08.509,4076.6,0.091,0.736,-0.671,0.001,0.007,0.008,0.046,-0.013,0.006,0.135,-0.827,1.062
2024-09-30 14:27:08.629,4076.72,0.088,0.725,-0.683,-0.024,-0.008,-0.017,0.061,0.032,-0.015,0.128,-0.812,1.056
2024-09-30 14:27:08.748,4076.84,0.092,0.721,-0.687,0.0,-0.024,0.003,0.03,0.013,0.011,0.133,-0.805,1.052
2024-09-30 14:27:08.867,4076.96,0.099,0.737,-0.668,-0.027,0.001,-0.023,-0.422,0.046,0.141,0.147,-0.829,1.067
2024-09-30 14:27:08.988,4077.079,0.097,0.742,-0.663,-0.016,-0.009,0.018,0.063,-0.02,-0.08,0.146,-0.836,1.079
2024-09-30 14:27:09.108,4077.199,0.087,0.742,-0.665,-0.008,-0.011,0.0,-0.111,-0.035,-0.058,0.131,-0.836,1.066
2024-09-30 14:27:09.228,4077.319,0.085,0.746,-0.661,0.011,0.011,0.008,0.013,-0.013,-0.019,0.129,-0.842,1.064
2024-09-30 14:27:09.348,4077.439,0.086,0.744,-0.663,0.006,0.007,0.007,0.072,-0.013,-0.01,0.129,-0.839,1.063
2024-09-30 14:27:09.467,4077.559,0.083,0.734,-0.674,-0.01,-0.045,-0.001,0.041,0.075,-0.022,0.123,-0.824,1.056
2024-09-30 14:27:09.587,4077.678,0.094,0.751,-0.654,-0.003,-0.043,-0.019,-0.388,0.088,0.023,0.143,-0.849,1.068
2024-09-30 14:27:09.707,4077.798,0.083,0.759,-0.645,-0.019,-0.052,-0.005,-0.025,-0.115,-0.114,0.128,-0.862,1.063
2024-09-30 14:27:09.826,4077.918,0.075,0.754,-0.652,0.048,-0.028,0.031,0.26,-0.049,0.028,0.114,-0.854,1.052
2024-09-30 14:27:09.946,4078.038,0.076,0.743,-0.665,-0.019,-0.017,-0.004,0.027,0.017,0.034,0.114,-0.837,1.057
2024-09-30 14:27:10.066,4078.158,0.083,0.74,-0.667,0.022,0.023,-0.052,-0.036,0.055,0.012,0.123,-0.834,1.063
2024-09-30 14:27:10.186,4078.277,0.082,0.738,-0.67,-0.003,-0.014,0.001,0.044,-0.006,-0.011,0.122,-0.83,1.06
2024-09-30 14:27:10.306,4078.397,0.08,0.733,-0.675,0.009,-0.009,0.004,-0.019,-0.017,0.014,0.118,-0.823,1.055
2024-09-30 14:27:10.425,4078.517,0.081,0.731,-0.678,0.001,-0.009,0.0,0.024,0.019,-0.013,0.12,-0.82,1.054
2024-09-30 14:27:10.545,4078.637,0.084,0.731,-0.677,0.004,-0.021,-0.001,0.009,0.081,-0.021,0.124,-0.819,1.051
2024-09-30 14:27:10.665,4078.757,0.089,0.74,-0.666,-0.011,-0.014,-0.014,-0.232,0.078,-0.01,0.133,-0.834,1.058
2024-09-30 14:27:10.785,4078.876,0.09,0.74,-0.667,0.004,0.004,0.005,0.11,0.014,-0.038,0.134,-0.833,1.053
2024-09-30 14:27:10.904,4078.996,0.086,0.734,-0.674,0.003,0.012,0.004,-0.013,-0.016,0.018,0.127,-0.824,1.048
2024-09-30 14:27:11.024,4079.116,0.091,0.74,-0.667,-0.005,0.005,-0.002,-0.053,0.062,0.009,0.135,-0.833,1.053
2024-09-30 14:27:11.144,4079.236,0.09,0.74,-0.667,0.002,-0.001,0.003,0.038,-0.023,-0.009,0.135,-0.833,1.054
2024-09-30 14:27:11.264,4079.355,0.086,0.732,-0.676,-0.001,-0.067,-0.01,-0.036,-0.021,-0.021,0.127,-0.821,1.048
2024-09-30 14:27:11.384,4079.475,0.087,0.734,-0.674,0.001,0.017,0.004,-0.001,0.045,0.006,0.128,-0.824,1.05
2024-09-30 14:27:11.504,4079.595,0.092,0.736,-0.67,0.004,-0.012,0.0,-0.065,-0.026,0.026,0.136,-0.828,1.058
2024-09-30 14:27:11.623,4079.715,0.089,0.735,-0.672,0.002,0.004,0.005,0.086,-0.012,-0.01,0.132,-0.826,1.06
2024-09-30 14:27:11.743,4079.835,0.087,0.727,-0.681,-0.006,-0.053,-0.008,0.02,0.034,-0.024,0.127,-0.813,1.055
2024-09-30 14:27:11.863,4079.954,0.091,0.723,-0.685,0.005,0.009,0.009,0.042,0.019,-0.005,0.132,-0.808,1.049
2024-09-30 14:27:11.982,4080.074,0.099,0.735,-0.671,-0.026,0.029,-0.018,-0.305,0.042,0.176,0.146,-0.826,1.065
2024-09-30 14:27:12.103,4080.194,0.09,0.746,-0.66,-0.047,-0.013,0.008,-0.044,-0.073,-0.084,0.135,-0.841,1.067
2024-09-30 14:27:12.222,4080.314,0.081,0.737,-0.67,0.08,-0.055,-0.024,0.086,0.011,0.004,0.121,-0.829,1.056
2024-09-30 14:27:12.342,4080.434,0.08,0.737,-0.671,-0.024,0.014,0.007,0.048,-0.02,0.003,0.119,-0.829,1.053
2024-09-30 14:27:12.462,4080.553,0.083,0.739,-0.668,-0.003,-0.002,0.002,-0.034,0.059,-0.003,0.124,-0.832,1.057
2024-09-30 14:27:12.581,4080.673,0.084,0.736,-0.672,0.007,0.008,0.008,0.119,-0.049,-0.028,0.124,-0.827,1.054
2024-09-30 14:27:12.702,4080.793,0.08,0.733,-0.676,0.005,-0.014,-0.003,-0.075,-0.03,-0.006,0.118,-0.822,1.049
2024-09-30 14:27:12.821,4080.913,0.083,0.731,-0.678,-0.003,-0.013,-0.003,0.026,0.092,-0.013,0.122,-0.819,1.046
2024-09-30 14:27:12.941,4081.033,0.086,0.733,-0.674,-0.005,-0.015,-0.003,-0.103,0.034,0.006,0.128,-0.823,1.046
2024-09-30 14:27:13.061,4081.152,0.088,0.734,-0.673,0.002,-0.004,0.004,0.169,-0.003,-0.026,0.13,-0.824,1.044
2024-09-30 14:27:13.182,4081.272,0.086,0.731,-0.677,-0.001,-0.023,0.002,-0.104,0.033,0.013,0.126,-0.819,1.04
2024-09-30 14:27:13.300,4081.392,0.093,0.735,-0.672,0.006,-0.01,-0.004,-0.056,0.018,0.022,0.137,-0.825,1.047
2024-09-30 14:27:13.420,4081.512,0.086,0.731,-0.677,0.001,0.001,0.005,0.139,-0.063,-0.039,0.127,-0.819,1.042
2024-09-30 14:27:13.540,4081.632,0.084,0.729,-0.679,-0.006,-0.011,0.012,-0.007,0.066,0.013,0.123,-0.817,1.04
2024-09-30 14:27:13.660,4081.751,0.09,0.732,-0.675,-0.004,-0.01,-0.003,-0.195,0.028,0.064,0.133,-0.822,1.047
2024-09-30 14:27:13.780,4081.871,0.087,0.732,-0.675,0.002,-0.006,0.004,0.129,-0.08,-0.024,0.128,-0.822,1.049
2024-09-30 14:27:13.899,4081.991,0.085,0.723,-0.686,-0.001,0.022,0.014,0.159,0.043,-0.002,0.124,-0.808,1.045
2024-09-30 14:27:14.019,4082.111,0.091,0.721,-0.687,0.019,0.003,0.008,0.069,-0.021,0.031,0.132,-0.805,1.043
2024-09-30 14:27:14.139,4082.231,0.102,0.741,-0.664,-0.016,-0.027,-0.015,-0.424,0.109,0.224,0.152,-0.834,1.065
2024-09-30 14:27:14.259,4082.35,0.098,0.749,-0.655,-0.064,0.058,-0.015,0.018,-0.089,-0.146,0.148,-0.847,1.069
2024-09-30 14:27:14.379,4082.47,0.091,0.741,-0.666,0.103,-0.042,0.015,0.32,-0.072,0.112,0.136,-0.834,1.05
2024-09-30 14:27:14.498,4082.59,0.08,0.74,-0.668,-0.017,0.022,0.009,0.02,-0.052,0.045,0.118,-0.833,1.046
2024-09-30 14:27:14.618,4082.71,0.081,0.739,-0.668,0.005,0.01,0.009,0.046,-0.014,-0.008,0.12,-0.832,1.047
2024-09-30 14:27:14.738,4082.829,0.079,0.739,-0.669,-0.001,-0.002,0.004,0.039,-0.03,0.011,0.117,-0.832,1.046
2024-09-30 14:27:14.858,4082.949,0.077,0.733,-0.676,-0.005,0.011,0.005,0.08,0.033,-0.012,0.114,-0.822,1.041
2024-09-30 14:27:14.978,4083.069,0.079,0.731,-0.678,-0.013,0.003,0.001,0.07,0.113,0.006,0.116,-0.82,1.04
2024-09-30 14:27:15.097,4083.189,0.085,0.737,-0.67,-0.005,-0.006,-0.008,-0.24,0.054,0.018,0.126,-0.829,1.043
2024-09-30 14:27:15.217,4083.309,0.083,0.735,-0.673,0.005,-0.002,0.006,0.191,-0.031,-0.061,0.123,-0.826,1.038
2024-09-30 14:27:15.337,4083.428,0.081,0.731,-0.678,0.006,-0.027,-0.006,-0.119,0.029,0.034,0.118,-0.82,1.032
2024-09-30 14:27:15.457,4083.548,0.09,0.738,-0.668,0.004,-0.053,-0.022,-0.26,0.054,0.008,0.134,-0.831,1.04
2024-09-30 14:27:15.577,4083.668,0.086,0.739,-0.668,-0.001,-0.012,-0.003,0.012,-0.046,-0.015,0.128,-0.832,1.04
2024-09-30 14:27:15.696,4083.788,0.082,0.732,-0.677,-0.007,-0.035,-0.017,-0.036,-0.014,-0.036,0.12,-0.821,1.034
2024-09-30 14:27:15.816,4083.908,0.083,0.735,-0.673,-0.01,-0.013,0.012,-0.026,0.059,0.007,0.123,-0.825,1.036
2024-09-30 14:27:15.936,4084.027,0.088,0.74,-0.667,0.011,0.024,0.013,0.007,-0.048,0.009,0.131,-0.833,1.045
2024-09-30 14:27:16.055,4084.147,0.086,0.739,-0.668,0.004,0.01,0.01,0.044,-0.028,0.001,0.128,-0.832,1.046
2024-09-30 14:27:16.175,4084.267,0.083,0.732,-0.677,-0.004,-0.061,-0.017,-0.003,0.02,-0.027,0.122,-0.821,1.041
2024-09-30 14:27:16.295,4084.387,0.086,0.729,-0.679,0.009,0.002,0.01,-0.007,0.014,0.017,0.126,-0.817,1.037
2024-09-30 14:27:16.415,4084.507,0.093,0.74,-0.666,-0.024,0.02,-0.016,-0.219,0.063,0.191,0.138,-0.833,1.053
2024-09-30 14:27:16.535,4084.626,0.097,0.737,-0.669,-0.097,0.106,0.008,0.184,0.047,-0.121,0.145,-0.829,1.057
2024-09-30 14:27:16.654,4084.746,0.091,0.732,-0.675,0.088,-0.021,-0.007,0.078,-0.072,-0.074,0.134,-0.822,1.032
2024-09-30 14:27:16.775,4084.866,0.076,0.736,-0.673,-0.008,0.003,0.004,-0.053,-0.099,-0.025,0.112,-0.827,1.024
2024-09-30 14:27:16.896,4084.986,0.075,0.735,-0.674,0.002,-0.012,-0.002,-0.002,0.02,-0.025,0.111,-0.826,1.025
2024-09-30 14:27:17.014,4085.106,0.072,0.734,-0.675,0.002,-0.007,-0.001,0.031,-0.011,-0.025,0.107,-0.824,1.019
2024-09-30 14:27:17.134,4085.225,0.07,0.731,-0.679,0.003,-0.011,-0.0,-0.003,-0.007,0.015,0.103,-0.82,1.015
2024-09-30 14:27:17.253,4085.345,0.076,0.727,-0.683,-0.005,-0.023,-0.008,-0.062,0.083,-0.008,0.111,-0.814,1.013
2024-09-30 14:27:17.374,4085.465,0.079,0.738,-0.67,-0.0,-0.006,0.009,-0.054,0.024,-0.018,0.117,-0.83,1.015
2024-09-30 14:27:17.493,4085.585,0.076,0.73,-0.679,0.006,0.022,0.013,0.243,0.0,-0.029,0.111,-0.819,1.007
2024-09-30 14:27:17.613,4085.705,0.075,0.732,-0.677,0.001,-0.024,0.001,-0.062,0.04,0.007,0.11,-0.822,1.008
2024-09-30 14:27:17.733,4085.824,0.08,0.735,-0.673,0.003,-0.002,-0.004,-0.123,-0.012,0.015,0.119,-0.826,1.014
2024-09-30 14:27:17.853,4085.944,0.073,0.732,-0.678,-0.002,0.01,0.006,0.128,-0.064,-0.026,0.108,-0.821,1.009
2024-09-30 14:27:17.972,4086.064,0.073,0.73,-0.679,0.019,0.002,0.008,0.021,0.032,0.019,0.107,-0.819,1.009
2024-09-30 14:27:18.092,4086.184,0.078,0.733,-0.676,0.003,-0.034,-0.009,-0.188,-0.004,0.072,0.115,-0.822,1.014
2024-09-30 14:27:18.212,4086.303,0.076,0.737,-0.672,-0.004,-0.011,0.001,-0.006,-0.025,0.013,0.113,-0.828,1.02
2024-09-30 14:27:18.331,4086.423,0.074,0.728,-0.682,-0.002,0.0,0.004,0.088,0.03,-0.035,0.108,-0.815,1.015
2024-09-30 14:27:18.452,4086.543,0.076,0.725,-0.684,-0.008,-0.015,-0.006,-0.004,0.108,-0.043,0.11,-0.811,1.008
2024-09-30 14:27:18.571,4086.663,0.082,0.73,-0.678,-0.008,-0.035,-0.016,-0.247,0.106,0.107,0.12,-0.818,1.014
2024-09-30 14:27:18.691,4086.783,0.101,0.74,-0.665,-0.13,0.077,0.03,0.042,-0.163,-0.033,0.151,-0.833,1.044
2024-09-30 14:27:18.811,4086.902,0.083,0.73,-0.679,0.06,-0.034,-0.011,0.126,-0.043,-0.095,0.121,-0.818,1.02
2024-09-30 14:27:18.931,4087.022,0.071,0.731,-0.678,-0.011,-0.001,-0.009,-0.171,-0.048,-0.018,0.105,-0.82,1.009
2024-09-30 14:27:19.050,4087.142,0.073,0.741,-0.667,0.003,0.008,0.009,0.014,0.01,0.001,0.109,-0.835,1.013
2024-09-30 14:27:19.170,4087.262,0.073,0.74,-0.669,0.007,-0.005,0.005,0.035,-0.04,0.006,0.108,-0.832,1.014
2024-09-30 14:27:19.290,4087.382,0.07,0.734,-0.675,0.004,0.005,0.007,0.168,-0.029,-0.027,0.104,-0.824,1.01
2024-09-30 14:27:19.410,4087.501,0.069,0.731,-0.679,-0.001,0.013,-0.002,0.041,0.009,0.012,0.101,-0.82,1.009
2024-09-30 14:27:19.530,4087.621,0.074,0.729,-0.681,-0.007,-0.046,-0.005,-0.038,0.039,0.006,0.108,-0.816,1.007
2024-09-30 14:27:19.650,4087.741,0.075,0.736,-0.673,-0.006,0.009,0.01,0.024,0.046,-0.008,0.11,-0.827,1.008
2024-09-30 14:27:19.769,4087.861,0.073,0.729,-0.681,-0.005,-0.06,-0.013,-0.027,0.002,-0.017,0.107,-0.816,1.002
2024-09-30 14:27:19.889,4087.981,0.077,0.732,-0.677,-0.012,0.024,0.014,0.061,0.057,0.035,0.113,-0.821,1.005
2024-09-30 14:27:20.009,4088.1,0.079,0.732,-0.676,0.007,0.007,0.007,0.062,-0.04,-0.011,0.116,-0.822,1.008
2024-09-30 14:27:20.129,4088.22,0.074,0.726,-0.684,-0.016,0.001,-0.015,-0.076,-0.013,-0.02,0.107,-0.812,1.004
2024-09-30 14:27:20.248,4088.34,0.075,0.728,-0.681,0.003,-0.007,-0.001,-0.031,0.028,-0.002,0.11,-0.816,1.005
2024-09-30 14:27:20.368,4088.46,0.078,0.733,-0.676,0.0,-0.002,-0.001,-0.115,-0.024,0.039,0.115,-0.823,1.012
2024-09-30 14:27:20.488,4088.58,0.076,0.732,-0.677,-0.001,0.01,0.01,0.088,-0.035,0.001,0.112,-0.821,1.015
2024-09-30 14:27:20.608,4088.699,0.073,0.723,-0.687,0.002,0.022,0.012,0.134,0.057,-0.033,0.106,-0.808,1.009
2024-09-30 14:27:20.727,4088.819,0.076,0.72,-0.69,0.005,0.022,0.011,0.124,0.013,-0.008,0.109,-0.803,1.003
2024-09-30 14:27:20.847,4088.939,0.075,0.725,-0.685,-0.002,-0.004,0.01,-0.176,-0.074,0.085,0.109,-0.811,1.009
2024-09-30 14:27:20.967,4089.059,0.096,0.807,-0.583,0.014,0.045,0.015,-0.943,0.298,-0.104,0.163,-0.939,1.028
2024-09-30 14:27:21.087,4089.179,0.089,0.847,-0.525,0.074,0.048,-0.06,-0.45,-0.083,-0.196,0.167,-1.01,1.028
2024-09-30 14:27:21.207,4089.298,0.079,0.842,-0.534,0.094,0.01,0.051,-0.013,-0.12,0.146,0.146,-1.001,1.036
2024-09-30 14:27:21.326,4089.418,0.098,0.827,-0.553,0.064,-0.016,0.032,0.232,-0.258,0.413,0.176,-0.974,1.109
2024-09-30 14:27:21.446,4089.538,0.109,0.806,-0.582,-0.053,0.001,0.052,0.431,-0.488,0.244,0.184,-0.937,1.163
2024-09-30 14:27:21.566,4089.658,0.095,0.745,-0.66,-0.123,-0.08,0.023,0.236,-0.1,-0.013,0.143,-0.84,1.169
2024-09-30 14:27:21.686,4089.777,0.08,0.737,-0.671,-0.045,-0.029,0.001,-0.237,-0.071,-0.169,0.119,-0.829,1.143
2024-09-30 14:27:21.805,4089.897,0.084,0.74,-0.667,0.048,0.021,0.0,0.097,0.012,0.037,0.126,-0.834,1.137
2024-09-30 14:27:21.925,4090.017,0.086,0.744,-0.663,0.001,0.008,0.003,-0.17,-0.091,0.01,0.128,-0.839,1.149
2024-09-30 14:27:22.045,4090.137,0.077,0.757,-0.649,0.005,0.011,0.004,-0.081,-0.111,0.009,0.118,-0.858,1.151
2024-09-30 14:27:22.165,4090.257,0.077,0.763,-0.642,0.008,0.011,0.011,0.036,-0.003,0.002,0.119,-0.868,1.155
2024-09-30 14:27:22.284,4090.376,0.08,0.765,-0.639,0.006,0.003,0.004,0.012,-0.023,0.026,0.124,-0.871,1.156
2024-09-30 14:27:22.405,4090.496,0.078,0.762,-0.642,0.003,0.021,0.014,0.289,-0.087,-0.029,0.121,-0.867,1.154
2024-09-30 14:27:22.525,4090.616,0.08,0.756,-0.649,0.005,0.002,0.009,-0.12,0.021,0.077,0.123,-0.857,1.153
2024-09-30 14:27:22.644,4090.736,0.084,0.765,-0.638,0.008,0.027,0.016,0.113,-0.112,0.027,0.131,-0.871,1.166
2024-09-30 14:27:22.764,4090.856,0.081,0.753,-0.653,-0.008,-0.075,-0.007,0.02,0.141,-0.021,0.123,-0.853,1.161
2024-09-30 14:27:22.884,4090.975,0.08,0.75,-0.657,0.002,-0.004,-0.005,-0.166,-0.128,0.074,0.121,-0.848,1.162
2024-09-30 14:27:23.003,4091.095,0.084,0.762,-0.642,0.011,0.002,0.001,-0.116,0.039,-0.052,0.13,-0.866,1.171
2024-09-30 14:27:23.123,4091.215,0.081,0.757,-0.648,0.008,0.017,0.006,0.174,-0.05,-0.04,0.125,-0.859,1.162
2024-09-30 14:27:23.243,4091.335,0.077,0.752,-0.654,0.005,-0.016,-0.003,-0.065,-0.035,0.006,0.118,-0.851,1.155
2024-09-30 14:27:23.363,4091.455,0.081,0.752,-0.654,-0.007,0.017,0.002,-0.017,0.086,0.008,0.123,-0.851,1.161
2024-09-30 14:27:23.483,4091.574,0.083,0.754,-0.652,0.001,-0.024,-0.007,-0.053,0.011,-0.015,0.127,-0.854,1.16
2024-09-30 14:27:23.602,4091.694,0.081,0.751,-0.655,0.003,0.011,0.008,0.149,-0.009,-0.04,0.124,-0.849,1.155
2024-09-30 14:27:23.722,4091.814,0.079,0.747,-0.66,-0.002,-0.025,-0.001,-0.071,-0.032,0.045,0.119,-0.844,1.152
2024-09-30 14:27:23.842,4091.934,0.078,0.746,-0.661,0.005,0.01,0.01,0.171,0.015,-0.011,0.118,-0.842,1.151
2024-09-30 14:27:23.962,4092.054,0.08,0.747,-0.66,-0.005,-0.04,-0.002,-0.133,-0.059,0.112,0.121,-0.844,1.154
2024-09-30 14:27:24.082,4092.173,0.096,0.749,-0.656,-0.012,-0.017,0.003,0.137,0.199,0.064,0.146,-0.846,1.168
2024-09-30 14:27:24.202,4092.293,0.105,0.74,-0.664,0.002,-0.017,-0.004,-0.065,0.008,-0.018,0.156,-0.834,1.16
2024-09-30 14:27:24.322,4092.413,0.102,0.742,-0.663,0.001,-0.009,0.0,-0.017,0.011,-0.021,0.152,-0.836,1.158
2024-09-30 14:27:24.441,4092.533,0.112,0.739,-0.664,0.012,-0.004,0.007,0.023,0.013,-0.001,0.167,-0.832,1.162
2024-09-30 14:27:24.561,4092.653,0.107,0.745,-0.658,0.005,-0.009,0.003,-0.126,-0.059,-0.019,0.162,-0.841,1.158
2024-09-30 14:27:24.681,4092.772,0.104,0.754,-0.649,-0.009,-0.012,-0.004,-0.163,0.027,0.001,0.158,-0.854,1.159
2024-09-30 14:27:24.800,4092.892,0.102,0.755,-0.648,-0.002,-0.008,0.002,-0.034,-0.009,-0.01,0.156,-0.856,1.158
2024-09-30 14:27:24.920,4093.012,0.099,0.754,-0.649,0.0,-0.003,0.004,0.024,-0.026,-0.014,0.152,-0.854,1.156
2024-09-30 14:27:25.040,4093.132,0.096,0.747,-0.658,-0.005,-0.057,-0.008,0.018,0.039,-0.025,0.144,-0.843,1.152
2024-09-30 14:27:25.160,4093.251,0.099,0.747,-0.658,0.014,0.017,0.017,0.076,-0.009,-0.012,0.15,-0.843,1.148
2024-09-30 14:27:25.280,4093.371,0.096,0.747,-0.658,-0.001,-0.007,0.003,-0.018,-0.018,-0.005,0.146,-0.844,1.146
2024-09-30 14:27:25.400,4093.491,0.093,0.748,-0.657,-0.002,0.013,0.004,0.091,-0.062,0.008,0.14,-0.846,1.147
2024-09-30 14:27:25.519,4093.611,0.092,0.747,-0.658,0.004,0.001,0.011,-0.073,-0.026,0.009,0.139,-0.844,1.148
2024-09-30 14:27:25.639,4093.731,0.095,0.753,-0.651,0.0,0.0,0.002,0.02,0.034,-0.012,0.145,-0.853,1.15
2024-09-30 14:27:25.759,4093.85,0.094,0.748,-0.658,0.008,0.01,0.01,0.181,-0.034,-0.035,0.142,-0.844,1.143
2024-09-30 14:27:25.879,4093.97,0.091,0.742,-0.665,0.009,-0.017,-0.001,-0.019,-0.065,0.033,0.136,-0.835,1.138
2024-09-30 14:27:25.998,4094.09,0.098,0.753,-0.651,-0.012,-0.063,-0.024,-0.4,0.168,0.051,0.149,-0.853,1.155
2024-09-30 14:27:26.119,4094.21,0.113,0.766,-0.632,-0.076,-0.016,-0.018,-0.284,0.087,0.069,0.176,-0.873,1.177
2024-09-30 14:27:26.238,4094.33,0.105,0.773,-0.626,-0.017,0.025,0.019,0.273,-0.144,-0.149,0.166,-0.883,1.163
2024-09-30 14:27:26.358,4094.449,0.092,0.738,-0.669,0.034,-0.018,-0.0,0.33,-0.016,0.068,0.136,-0.829,1.149
2024-09-30 14:27:26.478,4094.569,0.105,0.73,-0.676,0.041,0.023,-0.007,-0.028,0.041,0.045,0.154,-0.818,1.158
2024-09-30 14:27:26.597,4094.689,0.102,0.742,-0.663,-0.008,0.008,0.001,-0.236,0.055,-0.054,0.152,-0.836,1.153
2024-09-30 14:27:26.717,4094.809,0.095,0.767,-0.634,-0.005,0.002,-0.002,-0.308,0.004,-0.065,0.149,-0.875,1.148
2024-09-30 14:27:26.837,4094.929,0.091,0.78,-0.619,-0.003,-0.018,-0.009,-0.15,0.008,-0.004,0.145,-0.895,1.147
2024-09-30 14:27:26.957,4095.048,0.086,0.78,-0.619,-0.0,-0.013,0.001,0.001,-0.017,-0.006,0.139,-0.895,1.144
2024-09-30 14:27:27.077,4095.168,0.084,0.779,-0.621,0.004,-0.005,0.003,0.089,-0.053,-0.044,0.134,-0.893,1.141
2024-09-30 14:27:27.197,4095.288,0.082,0.771,-0.632,-0.004,-0.017,0.015,-0.012,0.091,0.013,0.13,-0.88,1.136
2024-09-30 14:27:27.316,4095.408,0.086,0.775,-0.626,0.013,0.045,0.024,0.173,-0.079,-0.021,0.136,-0.887,1.145
2024-09-30 14:27:27.435,4095.528,0.086,0.77,-0.632,0.005,0.017,0.01,0.091,0.024,0.007,0.136,-0.879,1.137
2024-09-30 14:27:27.556,4095.647,0.084,0.773,-0.629,-0.001,0.014,0.003,-0.018,-0.071,0.086,0.132,-0.884,1.149
2024-09-30 14:27:27.676,4095.767,0.086,0.78,-0.62,0.014,0.041,0.025,0.17,0.026,-0.076,0.138,-0.894,1.146
2024-09-30 14:27:27.795,4095.887,0.082,0.774,-0.627,0.003,0.018,0.005,0.004,0.026,0.018,0.131,-0.886,1.136
2024-09-30 14:27:27.915,4096.007,0.087,0.779,-0.621,-0.002,0.027,0.015,0.074,0.103,0.043,0.139,-0.893,1.141
2024-09-30 14:27:28.036,4096.127,0.088,0.775,-0.626,0.006,0.001,0.004,0.187,-0.009,-0.087,0.14,-0.887,1.134
2024-09-30 14:27:28.155,4096.246,0.087,0.772,-0.63,0.0,-0.011,-0.002,0.015,0.038,-0.011,0.137,-0.882,1.134
2024-09-30 14:27:28.275,4096.366,0.088,0.773,-0.628,0.008,-0.02,0.004,-0.072,0.057,-0.002,0.139,-0.883,1.131
2024-09-30 14:27:28.394,4096.486,0.099,0.778,-0.621,-0.003,-0.005,-0.002,-0.016,0.154,0.047,0.159,-0.891,1.147
2024-09-30 14:27:28.514,4096.606,0.108,0.769,-0.63,0.023,-0.025,-0.004,-0.014,-0.073,-0.073,0.17,-0.878,1.146
2024-09-30 14:27:28.634,4096.725,0.1,0.773,-0.627,0.0,0.008,0.006,-0.037,-0.034,-0.013,0.158,-0.883,1.14
2024-09-30 14:27:28.754,4096.845,0.097,0.772,-0.628,0.006,0.012,0.009,0.097,-0.065,-0.038,0.153,-0.883,1.136
2024-09-30 14:27:28.873,4096.965,0.097,0.769,-0.632,-0.002,-0.004,0.003,-0.0,0.122,-0.037,0.152,-0.878,1.129
2024-09-30 14:27:28.993,4097.085,0.097,0.768,-0.633,-0.003,-0.012,0.009,0.003,0.023,-0.019,0.152,-0.876,1.124
2024-09-30 14:27:29.113,4097.205,0.095,0.771,-0.629,0.004,-0.014,0.003,-0.056,-0.031,0.012,0.15,-0.881,1.124
2024-09-30 14:27:29.233,4097.324,0.095,0.771,-0.629,0.005,0.002,0.014,0.015,-0.03,0.041,0.15,-0.881,1.127
2024-09-30 14:27:29.352,4097.444,0.095,0.775,-0.625,0.0,0.003,0.007,0.023,0.002,-0.02,0.151,-0.886,1.127
2024-09-30 14:27:29.473,4097.564,0.092,0.768,-0.633,-0.006,-0.033,-0.007,0.007,0.014,-0.026,0.144,-0.876,1.117
2024-09-30 14:27:29.592,4097.684,0.094,0.775,-0.625,-0.02,0.018,0.006,-0.042,0.007,0.124,0.149,-0.886,1.128
2024-09-30 14:27:29.712,4097.804,0.108,0.781,-0.615,-0.1,-0.014,0.017,0.05,-0.257,-0.204,0.174,-0.897,1.154
2024-09-30 14:27:29.832,4097.923,0.09,0.772,-0.63,0.026,-0.04,-0.009,0.093,-0.088,-0.07,0.143,-0.881,1.136
2024-09-30 14:27:29.952,4098.043,0.083,0.769,-0.634,0.081,-0.053,0.002,-0.09,-0.108,-0.08,0.131,-0.877,1.129
2024-09-30 14:27:30.071,4098.163,0.082,0.776,-0.626,0.004,0.008,0.006,-0.059,0.034,0.017,0.13,-0.888,1.13
2024-09-30 14:27:30.191,4098.283,0.076,0.769,-0.634,0.004,0.018,0.007,0.236,-0.109,-0.055,0.12,-0.878,1.12
2024-09-30 14:27:30.311,4098.403,0.078,0.773,-0.63,-0.002,-0.042,-0.01,-0.242,-0.053,0.085,0.124,-0.883,1.119
2024-09-30 14:27:30.431,4098.522,0.078,0.771,-0.632,-0.024,-0.016,-0.026,-0.043,0.111,-0.058,0.123,-0.881,1.119
2024-09-30 14:27:30.551,4098.642,0.079,0.769,-0.634,0.007,-0.014,-0.01,-0.051,-0.147,0.025,0.123,-0.877,1.119
2024-09-30 14:27:30.670,4098.762,0.083,0.775,-0.627,0.002,-0.001,-0.002,-0.137,0.1,-0.033,0.132,-0.886,1.129
2024-09-30 14:27:30.790,4098.882,0.079,0.773,-0.63,0.002,-0.001,0.007,0.061,0.028,-0.002,0.125,-0.883,1.118
2024-09-30 14:27:30.910,4099.002,0.083,0.776,-0.625,-0.012,-0.04,0.009,-0.079,0.05,0.002,0.131,-0.888,1.122
2024-09-30 14:27:31.030,4099.121,0.088,0.778,-0.622,0.009,0.016,0.007,0.032,0.016,-0.028,0.141,-0.892,1.126
2024-09-30 14:27:31.150,4099.241,0.084,0.773,-0.629,0.003,-0.02,-0.005,-0.102,-0.095,0.056,0.134,-0.884,1.119
2024-09-30 14:27:31.269,4099.361,0.085,0.771,-0.631,0.004,0.029,0.014,0.14,0.026,-0.013,0.133,-0.88,1.119
2024-09-30 14:27:31.389,4099.481,0.087,0.772,-0.63,-0.004,-0.007,0.004,-0.073,0.019,0.058,0.138,-0.882,1.119
2024-09-30 14:27:31.509,4099.601,0.099,0.776,-0.623,-0.006,0.025,0.014,0.096,0.175,0.048,0.157,-0.888,1.132
2024-09-30 14:27:31.628,4099.72,0.104,0.766,-0.634,0.022,-0.011,0.007,0.091,-0.096,-0.072,0.163,-0.872,1.126
2024-09-30 14:27:31.749,4099.84,0.098,0.769,-0.632,0.003,0.012,0.011,0.044,-0.049,-0.017,0.153,-0.877,1.122
2024-09-30 14:27:31.870,4099.96,0.092,0.766,-0.636,-0.01,-0.032,-0.009,-0.014,0.098,-0.011,0.144,-0.872,1.116
2024-09-30 14:27:31.988,4100.08,0.095,0.766,-0.636,0.005,-0.002,0.0,0.011,-0.008,-0.026,0.149,-0.873,1.112
2024-09-30 14:27:32.108,4100.199,0.092,0.766,-0.636,-0.0,-0.002,-0.002,-0.091,-0.053,-0.004,0.144,-0.873,1.108
2024-09-30 14:27:32.228,4100.319,0.093,0.769,-0.633,-0.01,-0.009,-0.004,-0.1,-0.003,0.051,0.146,-0.877,1.112
2024-09-30 14:27:32.347,4100.439,0.093,0.773,-0.627,0.002,-0.013,-0.003,-0.096,0.002,-0.019,0.147,-0.884,1.114
2024-09-30 14:27:32.467,4100.559,0.089,0.768,-0.634,-0.002,-0.038,-0.006,0.017,0.024,-0.033,0.139,-0.876,1.105
2024-09-30 14:27:32.587,4100.679,0.089,0.773,-0.628,-0.008,0.002,0.003,-0.179,-0.0,0.06,0.14,-0.884,1.11
2024-09-30 14:27:32.707,4100.798,0.105,0.783,-0.613,-0.015,0.011,-0.001,-0.153,0.132,0.203,0.17,-0.9,1.138
2024-09-30 14:27:32.827,4100.918,0.108,0.778,-0.619,-0.064,0.068,0.013,0.248,-0.138,-0.064,0.173,-0.891,1.144
2024-09-30 14:27:32.946,4101.038,0.091,0.767,-0.635,0.051,-0.022,-0.004,0.062,-0.176,-0.055,0.142,-0.874,1.126
2024-09-30 14:27:33.066,4101.158,0.082,0.769,-0.634,0.008,-0.005,0.007,-0.008,-0.063,-0.039,0.129,-0.878,1.123
2024-09-30 14:27:33.186,4101.278,0.083,0.772,-0.63,0.009,-0.013,-0.002,-0.04,-0.018,-0.024,0.13,-0.882,1.125
2024-09-30 14:27:33.305,4101.397,0.076,0.769,-0.635,0.001,0.033,0.012,-0.002,-0.002,-0.049,0.119,-0.877,1.116
2024-09-30 14:27:33.425,4101.517,0.081,0.776,-0.625,-0.011,0.012,-0.007,-0.154,-0.004,0.052,0.128,-0.889,1.122
2024-09-30 14:27:33.545,4101.637,0.079,0.774,-0.629,-0.018,-0.028,0.002,-0.019,0.121,-0.037,0.125,-0.885,1.116
2024-09-30 14:27:33.666,4101.757,0.077,0.771,-0.632,0.006,-0.013,-0.0,-0.09,-0.155,0.049,0.121,-0.881,1.117
2024-09-30 14:27:33.785,4101.877,0.083,0.78,-0.62,-0.001,-0.012,-0.001,-0.137,0.108,-0.015,0.133,-0.895,1.127
2024-09-30 14:27:33.905,4101.996,0.079,0.772,-0.63,0.005,0.003,0.011,0.131,0.008,-0.03,0.124,-0.882,1.115
2024-09-30 14:27:34.024,4102.116,0.08,0.771,-0.631,0.007,-0.029,-0.013,-0.07,0.013,0.047,0.126,-0.881,1.117
2024-09-30 14:27:34.145,4102.236,0.086,0.771,-0.631,-0.006,-0.013,0.002,0.018,0.097,0.023,0.136,-0.881,1.123
2024-09-30 14:27:34.264,4102.356,0.086,0.768,-0.634,0.004,0.004,0.01,0.219,0.058,-0.061,0.135,-0.876,1.116
2024-09-30 14:27:34.384,4102.476,0.086,0.768,-0.634,-0.003,-0.008,0.001,-0.012,0.037,-0.018,0.134,-0.876,1.119
2024-09-30 14:27:34.504,4102.595,0.084,0.767,-0.636,-0.008,-0.019,-0.004,-0.068,0.022,0.038,0.132,-0.874,1.115
2024-09-30 14:27:34.623,4102.715,0.102,0.769,-0.632,-0.01,0.009,-0.002,0.05,0.208,0.064,0.16,-0.877,1.133
2024-09-30 14:27:34.743,4102.835,0.1,0.762,-0.64,0.001,-0.03,-0.007,-0.06,-0.064,-0.065,0.155,-0.867,1.126
2024-09-30 14:27:34.863,4102.955,0.093,0.764,-0.638,0.009,0.01,0.007,0.075,-0.094,-0.057,0.145,-0.87,1.121
2024-09-30 14:27:34.983,4103.075,0.093,0.763,-0.64,-0.002,0.017,0.01,0.014,0.1,-0.014,0.144,-0.868,1.114
2024-09-30 14:27:35.103,4103.194,0.09,0.765,-0.638,-0.005,-0.005,-0.011,-0.125,-0.036,-0.025,0.14,-0.871,1.11
2024-09-30 14:27:35.222,4103.314,0.092,0.767,-0.636,0.018,0.003,-0.007,0.027,-0.007,0.017,0.144,-0.873,1.114
2024-09-30 14:27:35.342,4103.434,0.091,0.768,-0.634,-0.008,0.003,0.005,0.02,0.032,-0.002,0.142,-0.876,1.113
2024-09-30 14:27:35.462,4103.554,0.087,0.762,-0.642,0.002,0.008,0.009,0.03,-0.0,-0.051,0.135,-0.866,1.105
2024-09-30 14:27:35.583,4103.674,0.086,0.765,-0.638,0.006,-0.015,-0.029,-0.274,0.001,0.063,0.134,-0.871,1.104
2024-09-30 14:27:35.701,4103.793,0.101,0.786,-0.61,-0.04,-0.002,-0.001,-0.277,0.013,0.119,0.164,-0.904,1.13
2024-09-30 14:27:35.822,4103.913,0.105,0.78,-0.617,-0.003,0.008,0.013,0.278,-0.046,-0.041,0.169,-0.895,1.136
2024-09-30 14:27:35.941,4104.033,0.092,0.771,-0.63,0.073,-0.034,-0.015,-0.005,-0.185,-0.06,0.144,-0.88,1.121
2024-09-30 14:27:36.061,4104.153,0.081,0.775,-0.627,-0.019,-0.009,-0.003,-0.088,0.025,0.05,0.129,-0.887,1.117
2024-09-30 14:27:36.181,4104.272,0.082,0.777,-0.625,-0.001,-0.01,0.0,-0.005,-0.022,-0.013,0.13,-0.889,1.118
2024-09-30 14:27:36.301,4104.392,0.077,0.77,-0.633,0.008,0.02,0.014,0.252,-0.018,-0.019,0.12,-0.879,1.112
2024-09-30 14:27:36.420,4104.512,0.082,0.774,-0.628,-0.005,-0.018,-0.005,-0.207,0.033,0.081,0.13,-0.885,1.117
2024-09-30 14:27:36.540,4104.632,0.078,0.77,-0.633,-0.035,-0.014,-0.031,-0.079,0.097,-0.054,0.123,-0.879,1.114
2024-09-30 14:27:36.660,4104.752,0.08,0.766,-0.638,0.002,-0.018,-0.004,0.037,-0.09,0.019,0.124,-0.872,1.111
2024-09-30 14:27:36.780,4104.871,0.082,0.772,-0.63,-0.001,-0.017,-0.002,-0.122,0.098,0.015,0.13,-0.882,1.124
2024-09-30 14:27:36.899,4104.991,0.078,0.772,-0.631,0.005,0.001,0.009,0.164,0.013,-0.078,0.123,-0.882,1.115
2024-09-30 14:27:37.019,4105.111,0.079,0.771,-0.631,0.005,-0.035,0.0,-0.014,-0.011,0.006,0.125,-0.881,1.115
2024-09-30 14:27:37.139,4105.231,0.085,0.772,-0.63,-0.005,0.001,0.002,-0.022,0.098,0.014,0.134,-0.882,1.121
2024-09-30 14:27:37.259,4105.351,0.084,0.765,-0.639,0.005,0.014,0.016,0.178,0.061,-0.027,0.131,-0.871,1.112
2024-09-30 14:27:37.379,4105.47,0.084,0.765,-0.638,-0.0,-0.021,-0.002,-0.026,0.039,-0.022,0.131,-0.871,1.116
2024-09-30 14:27:37.499,4105.59,0.081,0.765,-0.639,0.001,-0.01,0.013,-0.028,0.027,-0.001,0.126,-0.871,1.111
2024-09-30 14:27:37.618,4105.71,0.096,0.769,-0.632,-0.01,0.001,-0.005,0.019,0.183,0.068,0.151,-0.878,1.129
2024-09-30 14:27:37.738,4105.83,0.099,0.758,-0.645,0.005,-0.033,-0.01,-0.065,-0.014,-0.036,0.153,-0.86,1.123
2024-09-30 14:27:37.858,4105.95,0.097,0.763,-0.639,0.005,-0.002,0.001,0.032,-0.041,-0.036,0.15,-0.868,1.12
2024-09-30 14:27:37.978,4106.069,0.091,0.758,-0.646,-0.027,-0.01,-0.017,-0.089,0.16,-0.059,0.14,-0.86,1.109
2024-09-30 14:27:38.098,4106.189,0.092,0.757,-0.647,0.004,-0.007,0.0,-0.014,-0.009,-0.026,0.141,-0.859,1.103
2024-09-30 14:27:38.217,4106.309,0.091,0.759,-0.645,-0.002,-0.025,0.011,0.044,0.043,-0.017,0.14,-0.862,1.105
2024-09-30 14:27:38.337,4106.429,0.093,0.763,-0.64,-0.007,-0.012,-0.003,-0.099,0.041,0.005,0.144,-0.867,1.109
2024-09-30 14:27:38.457,4106.549,0.089,0.755,-0.65,0.004,0.011,0.014,0.188,0.051,-0.022,0.135,-0.855,1.1
2024-09-30 14:27:38.577,4106.668,0.087,0.756,-0.648,-0.008,-0.032,-0.015,-0.223,-0.025,0.068,0.133,-0.858,1.098
2024-09-30 14:27:38.697,4106.788,0.103,0.77,-0.63,-0.022,-0.027,-0.001,-0.244,0.087,0.139,0.162,-0.878,1.123
2024-09-30 14:27:38.816,4106.908,0.108,0.766,-0.634,-0.028,-0.003,0.012,0.02,-0.023,-0.053,0.169,-0.873,1.13
2024-09-30 14:27:38.936,4107.028,0.092,0.766,-0.636,0.058,-0.029,-0.012,-0.002,-0.118,-0.065,0.143,-0.873,1.115
2024-09-30 14:27:39.056,4107.148,0.085,0.773,-0.628,-0.012,0.026,0.015,0.003,-0.048,0.03,0.135,-0.884,1.114
2024-09-30 14:27:39.176,4107.267,0.088,0.78,-0.62,0.008,0.02,0.013,0.054,-0.029,-0.011,0.141,-0.894,1.121
2024-09-30 14:27:39.296,4107.387,0.087,0.778,-0.622,0.004,0.0,0.003,0.045,-0.04,0.009,0.139,-0.891,1.12
2024-09-30 14:27:39.416,4107.507,0.08,0.765,-0.639,-0.005,0.025,0.011,0.057,0.007,-0.048,0.124,-0.872,1.112
2024-09-30 14:27:39.535,4107.627,0.086,0.77,-0.633,-0.005,0.009,-0.011,-0.204,0.036,0.061,0.135,-0.878,1.118
2024-09-30 14:27:39.655,4107.746,0.082,0.767,-0.636,-0.007,-0.113,-0.025,-0.098,0.135,-0.066,0.128,-0.874,1.115
2024-09-30 14:27:39.775,4107.866,0.083,0.763,-0.642,0.0,-0.012,-0.003,0.07,-0.078,0.09,0.128,-0.867,1.113
2024-09-30 14:27:39.895,4107.986,0.085,0.77,-0.632,-0.008,0.021,0.016,-0.116,0.099,-0.017,0.133,-0.879,1.128
2024-09-30 14:27:40.014,4108.106,0.085,0.773,-0.629,0.011,0.002,0.005,0.159,-0.06,-0.054,0.134,-0.883,1.121
2024-09-30 14:27:40.134,4108.226,0.081,0.763,-0.641,0.013,0.013,-0.002,0.045,0.007,0.015,0.126,-0.868,1.115
2024-09-30 14:27:40.254,4108.345,0.088,0.768,-0.635,-0.005,0.005,0.005,-0.124,0.146,-0.007,0.137,-0.875,1.122
2024-09-30 14:27:40.373,4108.465,0.086,0.761,-0.643,0.006,0.016,0.012,-0.143,-0.048,-0.075,0.133,-0.865,1.11
2024-09-30 14:27:40.493,4108.585,0.086,0.76,-0.644,0.007,-0.01,-0.004,0.047,0.019,-0.014,0.133,-0.863,1.114
2024-09-30 14:27:40.613,4108.705,0.088,0.761,-0.643,-0.015,-0.032,0.012,-0.109,0.007,0.117,0.136,-0.865,1.116
2024-09-30 14:27:40.733,4108.825,0.107,0.76,-0.641,0.005,0.008,0.02,0.141,0.141,-0.005,0.166,-0.863,1.13
2024-09-30 14:27:40.853,4108.944,0.103,0.757,-0.646,0.001,-0.009,-0.004,-0.158,-0.092,-0.034,0.158,-0.858,1.122
2024-09-30 14:27:40.973,4109.064,0.097,0.757,-0.646,0.015,0.019,0.013,0.139,-0.082,-0.063,0.148,-0.859,1.116
2024-09-30 14:27:41.092,4109.184,0.095,0.754,-0.65,-0.012,0.014,0.015,0.03,0.125,-0.035,0.144,-0.854,1.106
2024-09-30 14:27:41.213,4109.304,0.094,0.754,-0.65,0.006,-0.006,-0.014,-0.138,-0.067,0.029,0.143,-0.854,1.103
2024-09-30 14:27:41.332,4109.424,0.097,0.757,-0.647,0.004,-0.029,-0.001,-0.093,-0.019,0.005,0.149,-0.858,1.108
2024-09-30 14:27:41.452,4109.543,0.096,0.762,-0.64,-0.004,-0.008,0.0,-0.02,0.01,-0.027,0.149,-0.867,1.109
2024-09-30 14:27:41.572,4109.663,0.091,0.753,-0.651,-0.003,-0.086,-0.013,-0.026,-0.009,-0.03,0.139,-0.853,1.098
2024-09-30 14:27:41.691,4109.783,0.092,0.765,-0.637,-0.038,-0.043,0.038,-0.223,0.141,0.048,0.144,-0.872,1.107
2024-09-30 14:27:41.811,4109.903,0.114,0.829,-0.547,-0.014,-0.015,-0.009,-1.246,0.586,-0.078,0.206,-0.978,1.128
2024-09-30 14:27:41.931,4110.023,0.133,0.906,-0.403,0.025,0.025,0.003,-0.913,0.422,-0.212,0.319,-1.133,1.186
2024-09-30 14:27:42.051,4110.142,0.118,0.919,-0.375,0.071,-0.026,-0.032,-0.184,-0.117,-0.105,0.304,-1.166,1.182
2024-09-30 14:27:42.171,4110.262,0.112,0.895,-0.431,0.067,-0.047,0.039,0.339,-0.273,0.134,0.255,-1.109,1.162
2024-09-30 14:27:42.290,4110.382,0.129,0.86,-0.493,0.028,-0.023,0.023,0.404,-0.307,0.292,0.256,-1.036,1.205
2024-09-30 14:27:42.410,4110.502,0.119,0.828,-0.548,-0.081,-0.043,0.06,0.631,-0.435,-0.018,0.215,-0.975,1.208
2024-09-30 14:27:42.530,4110.622,0.09,0.803,-0.589,-0.102,0.046,0.025,0.473,-0.139,0.014,0.152,-0.933,1.186
2024-09-30 14:27:42.650,4110.741,0.096,0.752,-0.652,-0.019,-0.013,0.042,0.515,0.134,0.005,0.147,-0.851,1.177
2024-09-30 14:27:42.769,4110.861,0.106,0.753,-0.649,-0.005,-0.038,-0.02,-0.51,0.155,-0.115,0.162,-0.853,1.168
2024-09-30 14:27:42.890,4110.981,0.105,0.772,-0.626,0.011,0.002,0.008,-0.105,-0.056,-0.005,0.167,-0.883,1.168
2024-09-30 14:27:43.009,4111.101,0.1,0.78,-0.618,-0.01,0.01,0.003,-0.038,0.043,-0.028,0.161,-0.895,1.165
2024-09-30 14:27:43.128,4111.22,0.099,0.78,-0.618,-0.002,-0.023,-0.006,-0.064,0.006,-0.011,0.159,-0.894,1.159
2024-09-30 14:27:43.249,4111.34,0.099,0.782,-0.616,0.001,-0.012,-0.001,-0.043,-0.015,-0.004,0.159,-0.898,1.161
2024-09-30 14:27:43.368,4111.46,0.094,0.775,-0.625,0.003,0.013,0.015,0.289,0.008,0.015,0.15,-0.887,1.156
2024-09-30 14:27:43.488,4111.58,0.102,0.772,-0.628,-0.002,-0.012,0.005,-0.193,-0.009,0.136,0.161,-0.881,1.158
2024-09-30 14:27:43.608,4111.7,0.103,0.778,-0.62,0.0,-0.013,0.005,0.039,-0.047,-0.008,0.164,-0.891,1.166
2024-09-30 14:27:43.728,4111.819,0.098,0.77,-0.63,0.011,0.014,0.014,0.254,-0.038,-0.022,0.154,-0.879,1.161
2024-09-30 14:27:43.848,4111.939,0.105,0.763,-0.638,0.013,-0.071,-0.009,-0.062,-0.005,0.037,0.164,-0.867,1.153
2024-09-30 14:27:43.967,4112.059,0.103,0.765,-0.635,0.011,0.022,0.018,0.188,-0.085,-0.045,0.161,-0.872,1.158
2024-09-30 14:27:44.087,4112.179,0.108,0.766,-0.634,-0.005,-0.003,0.011,-0.064,0.104,0.082,0.168,-0.873,1.163
2024-09-30 14:27:44.207,4112.299,0.111,0.764,-0.635,0.007,-0.005,0.006,0.134,-0.044,-0.052,0.172,-0.87,1.163
2024-09-30 14:27:44.327,4112.418,0.105,0.757,-0.645,0.008,-0.017,0.004,-0.06,-0.094,0.045,0.162,-0.859,1.155
2024-09-30 14:27:44.446,4112.538,0.108,0.766,-0.634,0.013,0.033,0.016,0.088,-0.042,-0.031,0.169,-0.873,1.164
2024-09-30 14:27:44.566,4112.658,0.103,0.758,-0.644,0.001,0.003,-0.006,-0.013,0.017,-0.02,0.159,-0.86,1.152
2024-09-30 14:27:44.685,4112.778,0.122,0.77,-0.627,-0.023,-0.032,-0.013,-0.233,0.051,0.041,0.192,-0.878,1.182
2024-09-30 14:27:44.806,4112.898,0.113,0.766,-0.632,0.011,-0.02,-0.003,0.071,0.014,-0.072,0.178,-0.873,1.168
2024-09-30 14:27:44.926,4113.017,0.11,0.766,-0.633,0.06,-0.024,-0.004,-0.132,-0.152,-0.039,0.172,-0.873,1.166
2024-09-30 14:27:45.045,4113.137,0.102,0.77,-0.63,-0.007,-0.01,-0.001,-0.01,0.017,0.015,0.161,-0.878,1.164
2024-09-30 14:27:45.165,4113.257,0.1,0.763,-0.639,0.003,0.009,0.01,0.173,-0.006,-0.017,0.155,-0.868,1.156
2024-09-30 14:27:45.285,4113.377,0.105,0.764,-0.636,0.003,-0.03,-0.001,-0.193,-0.017,0.078,0.164,-0.87,1.159
2024-09-30 14:27:45.405,4113.497,0.102,0.762,-0.64,0.004,-0.003,0.007,0.127,0.001,-0.032,0.158,-0.866,1.159
2024-09-30 14:27:45.525,4113.616,0.107,0.764,-0.637,0.009,-0.022,0.002,-0.174,-0.009,0.072,0.167,-0.869,1.16
2024-09-30 14:27:45.645,4113.736,0.104,0.759,-0.642,0.002,0.0,0.004,0.094,-0.013,-0.024,0.161,-0.862,1.157
2024-09-30 14:27:45.764,4113.856,0.114,0.765,-0.634,-0.007,-0.031,-0.007,-0.115,0.081,0.107,0.179,-0.871,1.172
2024-09-30 14:27:45.884,4113.976,0.111,0.757,-0.644,0.006,0.02,0.014,0.274,-0.107,-0.077,0.171,-0.859,1.166
2024-09-30 14:27:46.004,4114.096,0.107,0.755,-0.647,-0.006,-0.014,0.006,-0.164,-0.019,0.093,0.163,-0.855,1.165
2024-09-30 14:27:46.124,4114.215,0.109,0.76,-0.64,0.01,0.033,0.02,0.165,-0.044,-0.034,0.169,-0.864,1.167
2024-09-30 14:27:46.243,4114.335,0.104,0.754,-0.648,-0.003,-0.012,0.001,-0.073,0.014,0.059,0.16,-0.855,1.158
2024-09-30 14:27:46.363,4114.455,0.118,0.761,-0.638,-0.074,-0.007,0.026,0.112,0.031,-0.037,0.182,-0.865,1.177
2024-09-30 14:27:46.483,4114.575,0.11,0.758,-0.643,0.051,-0.011,0.006,0.026,-0.109,-0.075,0.169,-0.86,1.162
2024-09-30 14:27:46.603,4114.695,0.1,0.762,-0.639,0.023,-0.003,0.003,-0.055,-0.125,-0.053,0.155,-0.867,1.16
2024-09-30 14:27:46.723,4114.814,0.098,0.763,-0.639,0.008,0.002,0.004,0.042,-0.006,-0.02,0.153,-0.868,1.162
2024-09-30 14:27:46.843,4114.934,0.092,0.757,-0.647,-0.024,0.024,-0.01,-0.064,0.006,-0.042,0.141,-0.859,1.152
2024-09-30 14:27:46.962,4115.054,0.097,0.76,-0.642,-0.0,-0.003,-0.003,-0.155,-0.001,0.073,0.15,-0.864,1.156
2024-09-30 14:27:47.082,4115.174,0.094,0.757,-0.647,-0.028,-0.001,-0.017,-0.072,0.043,-0.051,0.145,-0.858,1.155
2024-09-30 14:27:47.201,4115.293,0.101,0.759,-0.643,-0.001,-0.011,0.01,-0.144,0.064,0.053,0.156,-0.862,1.158
2024-09-30 14:27:47.322,4115.413,0.098,0.755,-0.648,-0.001,0.001,0.004,0.139,-0.014,-0.064,0.149,-0.856,1.154
2024-09-30 14:27:47.441,4115.533,0.102,0.756,-0.647,-0.023,0.021,0.008,0.041,0.086,0.138,0.157,-0.857,1.158
2024-09-30 14:27:47.562,4115.653,0.114,0.754,-0.647,0.029,-0.017,0.006,0.134,-0.087,-0.078,0.175,-0.853,1.173
2024-09-30 14:27:47.681,4115.773,0.103,0.747,-0.657,0.008,-0.006,0.002,-0.018,-0.082,-0.004,0.156,-0.843,1.16
2024-09-30 14:27:47.801,4115.892,0.107,0.757,-0.645,0.004,-0.015,-0.003,-0.058,0.04,-0.022,0.164,-0.858,1.168
2024-09-30 14:27:47.921,4116.012,0.102,0.748,-0.656,-0.003,-0.076,-0.015,-0.017,-0.001,-0.011,0.154,-0.845,1.157
2024-09-30 14:27:48.040,4116.132,0.117,0.753,-0.647,-0.034,0.021,-0.021,-0.185,0.158,0.088,0.179,-0.853,1.178
2024-09-30 14:27:48.160,4116.252,0.117,0.755,-0.646,-0.01,-0.012,0.003,-0.021,0.004,-0.083,0.179,-0.855,1.169
2024-09-30 14:27:48.280,4116.372,0.105,0.753,-0.649,0.046,-0.028,-0.006,-0.058,-0.089,-0.026,0.16,-0.853,1.157
2024-09-30 14:27:48.400,4116.491,0.099,0.758,-0.645,-0.011,-0.022,-0.005,-0.142,-0.037,0.015,0.153,-0.86,1.16
2024-09-30 14:27:48.520,4116.611,0.095,0.756,-0.647,0.002,-0.005,0.004,0.104,-0.089,-0.045,0.146,-0.858,1.158
2024-09-30 14:27:48.640,4116.731,0.095,0.754,-0.65,0.002,-0.04,-0.003,-0.012,0.012,0.049,0.145,-0.854,1.154
2024-09-30 14:27:48.759,4116.851,0.096,0.757,-0.646,0.013,0.038,0.025,0.242,-0.112,-0.04,0.148,-0.858,1.162
2024-09-30 14:27:48.879,4116.971,0.098,0.752,-0.652,-0.005,-0.023,0.002,-0.059,0.017,0.072,0.149,-0.851,1.155
2024-09-30 14:27:48.999,4117.09,0.101,0.757,-0.645,0.014,0.035,0.023,0.183,-0.062,-0.06,0.155,-0.859,1.164
2024-09-30 14:27:49.118,4117.21,0.096,0.75,-0.654,-0.001,-0.004,-0.001,-0.055,0.014,0.018,0.145,-0.849,1.153
2024-09-30 14:27:49.238,4117.33,0.111,0.75,-0.652,-0.078,-0.005,0.012,0.02,0.022,-0.014,0.169,-0.848,1.166
2024-09-30 14:27:49.358,4117.45,0.109,0.748,-0.655,0.056,0.007,0.006,0.045,-0.049,-0.068,0.164,-0.845,1.158
2024-09-30 14:27:49.477,4117.57,0.101,0.739,-0.666,0.007,0.013,0.011,0.115,-0.044,-0.009,0.15,-0.832,1.148
2024-09-30 14:27:49.598,4117.689,0.101,0.746,-0.659,-0.013,-0.03,-0.001,-0.246,0.12,0.032,0.152,-0.841,1.153
2024-09-30 14:27:49.717,4117.809,0.097,0.744,-0.661,0.001,0.007,0.01,0.181,0.031,-0.022,0.146,-0.839,1.146
2024-09-30 14:27:49.837,4117.929,0.104,0.749,-0.654,-0.023,-0.054,-0.019,-0.233,0.172,0.176,0.157,-0.847,1.153
2024-09-30 14:27:49.957,4118.049,0.115,0.754,-0.646,-0.042,0.028,0.024,0.006,-0.023,-0.042,0.176,-0.855,1.162
2024-09-30 14:27:50.077,4118.169,0.101,0.752,-0.651,0.055,-0.033,-0.011,-0.041,-0.1,-0.006,0.154,-0.852,1.149
2024-09-30 14:27:50.197,4118.288,0.094,0.757,-0.647,-0.019,-0.009,-0.001,-0.07,0.007,0.022,0.144,-0.859,1.148
2024-09-30 14:27:50.316,4118.408,0.091,0.755,-0.649,0.006,0.005,0.007,0.114,-0.079,-0.045,0.139,-0.856,1.145
2024-09-30 14:27:50.437,4118.528,0.093,0.753,-0.651,-0.001,-0.001,0.004,-0.091,0.042,0.08,0.142,-0.853,1.143
2024-09-30 14:27:50.556,4118.648,0.095,0.761,-0.642,0.003,-0.009,-0.0,-0.034,-0.073,0.009,0.147,-0.865,1.153
2024-09-30 14:27:50.676,4118.767,0.089,0.752,-0.653,-0.021,0.005,-0.002,-0.035,0.071,-0.057,0.135,-0.852,1.146
2024-09-30 14:27:50.796,4118.887,0.096,0.757,-0.646,-0.011,0.013,-0.006,-0.237,0.049,0.058,0.148,-0.859,1.149
2024-09-30 14:27:50.915,4119.007,0.095,0.759,-0.645,0.0,-0.008,0.001,0.092,-0.074,-0.037,0.146,-0.861,1.152
2024-09-30 14:27:51.035,4119.127,0.09,0.751,-0.655,-0.004,0.017,0.018,0.043,0.043,0.046,0.136,-0.849,1.145
2024-09-30 14:27:51.155,4119.247,0.104,0.748,-0.656,-0.017,-0.0,0.016,0.122,0.055,-0.048,0.157,-0.845,1.158
2024-09-30 14:27:51.275,4119.366,0.101,0.745,-0.66,0.045,-0.002,0.012,0.094,-0.003,-0.059,0.152,-0.84,1.148
2024-09-30 14:27:51.394,4119.486,0.095,0.739,-0.667,0.004,0.005,0.009,0.192,-0.062,-0.037,0.142,-0.831,1.141
2024-09-30 14:27:51.514,4119.606,0.093,0.739,-0.667,-0.014,-0.029,0.007,-0.17,0.014,0.052,0.138,-0.832,1.142
2024-09-30 14:27:51.634,4119.726,0.094,0.747,-0.658,0.001,0.006,0.004,0.078,-0.016,-0.041,0.143,-0.844,1.142
2024-09-30 14:27:51.754,4119.846,0.091,0.74,-0.667,0.0,-0.016,0.005,-0.057,0.032,0.013,0.136,-0.833,1.132
2024-09-30 14:27:51.873,4119.965,0.108,0.752,-0.65,-0.026,0.02,0.013,-0.094,0.081,0.003,0.165,-0.851,1.153
2024-09-30 14:27:51.993,4120.085,0.104,0.753,-0.649,0.021,0.01,0.009,0.088,-0.122,-0.075,0.159,-0.853,1.143
2024-09-30 14:27:52.113,4120.205,0.093,0.752,-0.652,0.06,-0.032,-0.013,-0.042,-0.082,0.006,0.142,-0.852,1.138
2024-09-30 14:27:52.233,4120.325,0.091,0.754,-0.651,-0.006,0.016,0.009,0.082,0.023,0.008,0.138,-0.853,1.139
2024-09-30 14:27:52.353,4120.445,0.086,0.746,-0.661,-0.008,-0.037,-0.006,-0.059,-0.064,0.03,0.13,-0.842,1.133
2024-09-30 14:27:52.472,4120.564,0.094,0.756,-0.648,0.021,0.031,0.014,0.066,-0.023,-0.024,0.144,-0.857,1.141
2024-09-30 14:27:52.592,4120.684,0.087,0.747,-0.66,-0.015,-0.026,0.001,0.07,-0.076,0.044,0.131,-0.843,1.133
2024-09-30 14:27:52.712,4120.804,0.093,0.753,-0.651,-0.006,-0.037,-0.013,-0.198,0.121,0.015,0.142,-0.853,1.143
2024-09-30 14:27:52.832,4120.924,0.093,0.754,-0.65,0.001,0.008,0.005,0.092,-0.04,-0.041,0.142,-0.854,1.143
2024-09-30 14:27:52.952,4121.044,0.088,0.747,-0.659,-0.013,0.005,-0.007,-0.035,0.012,0.019,0.132,-0.844,1.134
2024-09-30 14:27:53.072,4121.163,0.098,0.757,-0.646,0.022,0.04,0.023,0.078,-0.042,0.015,0.151,-0.859,1.148
2024-09-30 14:27:53.191,4121.283,0.092,0.755,-0.65,0.003,0.026,0.014,0.209,-0.053,-0.038,0.141,-0.855,1.143
2024-09-30 14:27:53.311,4121.403,0.088,0.746,-0.661,0.004,0.001,0.007,0.08,-0.057,0.012,0.132,-0.841,1.136
2024-09-30 14:27:53.431,4121.523,0.092,0.757,-0.647,-0.011,-0.042,-0.028,-0.329,0.09,-0.015,0.141,-0.858,1.145
2024-09-30 14:27:53.551,4121.643,0.086,0.748,-0.658,0.002,0.031,0.017,0.202,0.043,-0.033,0.131,-0.845,1.133
2024-09-30 14:27:53.671,4121.762,0.086,0.752,-0.653,-0.003,-0.039,-0.003,-0.147,0.033,0.022,0.13,-0.851,1.131
2024-09-30 14:27:53.791,4121.882,0.096,0.777,-0.622,-0.003,-0.053,-0.03,-0.71,0.188,-0.039,0.153,-0.89,1.143
2024-09-30 14:27:53.910,4122.002,0.101,0.798,-0.594,-0.01,-0.024,-0.015,-0.269,0.176,-0.063,0.169,-0.925,1.144
2024-09-30 14:27:54.030,4122.122,0.101,0.812,-0.575,0.004,0.012,0.004,-0.025,0.012,-0.056,0.175,-0.947,1.135
2024-09-30 14:27:54.150,4122.241,0.097,0.832,-0.547,0.014,0.006,-0.02,-0.44,0.108,-0.025,0.175,-0.982,1.129
2024-09-30 14:27:54.270,4122.361,0.083,0.851,-0.518,0.043,0.023,0.012,0.007,0.002,0.036,0.159,-1.019,1.121
2024-09-30 14:27:54.389,4122.481,0.107,0.847,-0.521,0.055,0.017,0.01,0.188,-0.169,0.357,0.203,-1.01,1.177
2024-09-30 14:27:54.509,4122.601,0.112,0.83,-0.546,-0.017,-0.033,0.045,0.354,-0.336,0.078,0.203,-0.979,1.216
2024-09-30 14:27:54.630,4122.721,0.101,0.804,-0.586,-0.049,-0.018,0.005,0.246,-0.163,0.047,0.17,-0.934,1.215
2024-09-30 14:27:54.749,4122.84,0.096,0.787,-0.609,-0.06,-0.022,-0.002,0.655,-0.114,-0.088,0.156,-0.906,1.206
2024-09-30 14:27:54.868,4122.96,0.095,0.738,-0.668,-0.004,-0.02,0.015,0.389,-0.052,-0.197,0.141,-0.83,1.187
2024-09-30 14:27:54.988,4123.08,0.095,0.749,-0.655,0.007,0.016,-0.002,-0.338,-0.004,-0.037,0.145,-0.847,1.179
2024-09-30 14:27:55.108,4123.2,0.094,0.763,-0.639,0.006,-0.022,-0.008,-0.242,-0.067,0.002,0.146,-0.868,1.189
2024-09-30 14:27:55.228,4123.32,0.091,0.773,-0.628,0.0,-0.003,0.006,-0.009,-0.043,-0.007,0.144,-0.883,1.192
2024-09-30 14:27:55.348,4123.439,0.087,0.77,-0.632,0.004,0.016,0.017,0.286,-0.086,-0.038,0.137,-0.879,1.188
2024-09-30 14:27:55.467,4123.559,0.086,0.768,-0.635,-0.019,-0.017,0.007,-0.098,0.012,0.122,0.135,-0.875,1.19
2024-09-30 14:27:55.587,4123.679,0.094,0.772,-0.629,-0.005,0.023,0.015,0.17,0.048,-0.015,0.148,-0.882,1.193
2024-09-30 14:27:55.707,4123.799,0.087,0.756,-0.648,-0.012,-0.096,-0.016,-0.026,0.0,-0.03,0.133,-0.858,1.176
2024-09-30 14:27:55.827,4123.919,0.087,0.761,-0.643,-0.002,-0.012,0.008,-0.126,0.01,0.032,0.135,-0.864,1.179
2024-09-30 14:27:55.947,4124.038,0.09,0.762,-0.642,0.011,0.03,0.017,0.146,-0.028,-0.036,0.139,-0.866,1.178
2024-09-30 14:27:56.067,4124.158,0.087,0.754,-0.651,-0.002,-0.027,0.002,-0.106,-0.004,0.071,0.133,-0.854,1.171
2024-09-30 14:27:56.187,4124.278,0.104,0.754,-0.649,0.006,0.002,0.004,-0.025,0.14,-0.001,0.159,-0.854,1.188
2024-09-30 14:27:56.306,4124.398,0.098,0.745,-0.66,0.006,0.014,0.012,0.359,-0.094,-0.085,0.147,-0.84,1.174
2024-09-30 14:27:56.426,4124.518,0.096,0.751,-0.653,-0.011,-0.029,-0.016,-0.301,0.059,0.052,0.147,-0.85,1.179
2024-09-30 14:27:56.546,4124.637,0.098,0.754,-0.649,0.007,0.038,0.017,0.352,-0.094,-0.052,0.15,-0.855,1.179
2024-09-30 14:27:56.665,4124.757,0.103,0.756,-0.646,0.009,-0.018,0.002,-0.134,-0.038,0.141,0.159,-0.858,1.179
2024-09-30 14:27:56.785,4124.877,0.099,0.748,-0.656,-0.003,0.012,0.008,0.091,0.018,-0.045,0.149,-0.845,1.179
2024-09-30 14:27:56.905,4124.997,0.105,0.752,-0.651,0.003,-0.004,0.001,-0.088,0.072,0.013,0.159,-0.851,1.179
2024-09-30 14:27:57.025,4125.117,0.102,0.742,-0.663,-0.021,0.023,0.001,0.038,0.0,-0.057,0.153,-0.836,1.171
2024-09-30 14:27:57.144,4125.236,0.103,0.753,-0.65,-0.002,0.017,-0.002,-0.04,-0.015,0.071,0.157,-0.853,1.179
2024-09-30 14:27:57.264,4125.356,0.099,0.745,-0.659,-0.015,-0.018,-0.006,0.047,0.052,-0.008,0.149,-0.841,1.177
2024-09-30 14:27:57.384,4125.476,0.111,0.751,-0.651,-0.016,0.043,-0.0,-0.196,0.11,0.188,0.169,-0.85,1.195
2024-09-30 14:27:57.504,4125.596,0.116,0.744,-0.658,-0.044,-0.012,0.011,0.029,-0.056,-0.08,0.175,-0.838,1.203
2024-09-30 14:27:57.624,4125.716,0.104,0.748,-0.655,0.057,0.018,0.01,-0.041,-0.16,0.026,0.157,-0.846,1.197
2024-09-30 14:27:57.743,4125.835,0.093,0.752,-0.652,-0.006,0.007,0.007,0.082,-0.024,-0.025,0.142,-0.851,1.195
2024-09-30 14:27:57.864,4125.955,0.092,0.74,-0.666,-0.001,0.016,0.008,0.121,0.013,-0.029,0.138,-0.834,1.188
2024-09-30 14:27:57.983,4126.075,0.095,0.748,-0.656,-0.012,-0.013,-0.006,-0.195,0.212,0.001,0.144,-0.846,1.194
2024-09-30 14:27:58.103,4126.195,0.096,0.744,-0.662,0.011,-0.003,0.008,0.212,-0.045,-0.119,0.144,-0.839,1.182
2024-09-30 14:27:58.223,4126.314,0.091,0.743,-0.663,-0.002,-0.016,-0.01,-0.151,-0.037,0.03,0.137,-0.838,1.178
2024-09-30 14:27:58.342,4126.434,0.097,0.745,-0.66,0.007,0.013,0.006,0.154,-0.037,0.021,0.146,-0.841,1.188
2024-09-30 14:27:58.462,4126.554,0.092,0.733,-0.675,-0.008,-0.021,-0.004,-0.039,0.037,0.044,0.135,-0.822,1.179
2024-09-30 14:27:58.582,4126.674,0.107,0.734,-0.671,0.007,0.02,0.006,0.044,0.098,-0.003,0.159,-0.824,1.192
2024-09-30 14:27:58.702,4126.794,0.1,0.717,-0.689,-0.027,-0.062,-0.047,-0.119,-0.083,-0.018,0.144,-0.8,1.176
2024-09-30 14:27:58.822,4126.913,0.106,0.737,-0.668,0.011,0.018,0.011,0.004,0.037,-0.047,0.157,-0.829,1.188
2024-09-30 14:27:58.942,4127.033,0.105,0.726,-0.68,-0.017,0.007,0.011,-0.097,0.062,-0.006,0.153,-0.812,1.176
2024-09-30 14:27:59.061,4127.153,0.105,0.73,-0.676,0.023,0.043,0.025,0.287,-0.177,-0.016,0.154,-0.818,1.186
2024-09-30 14:27:59.181,4127.273,0.105,0.726,-0.68,-0.005,-0.005,0.01,-0.058,0.042,0.049,0.153,-0.812,1.182
2024-09-30 14:27:59.301,4127.393,0.105,0.722,-0.684,0.013,-0.001,0.003,0.246,-0.126,-0.067,0.152,-0.807,1.18
2024-09-30 14:27:59.421,4127.512,0.103,0.725,-0.681,-0.009,0.035,0.018,0.087,-0.046,0.08,0.151,-0.811,1.185
2024-09-30 14:27:59.541,4127.632,0.103,0.716,-0.691,-0.009,0.004,-0.0,0.041,0.088,-0.018,0.148,-0.797,1.183
2024-09-30 14:27:59.660,4127.752,0.115,0.728,-0.676,-0.029,-0.032,-0.01,-0.237,0.086,0.013,0.169,-0.815,1.198
2024-09-30 14:27:59.780,4127.872,0.114,0.734,-0.669,0.002,-0.012,0.0,-0.086,-0.032,-0.048,0.168,-0.825,1.197
2024-09-30 14:27:59.901,4127.992,0.101,0.735,-0.67,0.058,-0.021,-0.014,-0.039,-0.165,0.023,0.15,-0.826,1.194
2024-09-30 14:28:00.019,4128.111,0.092,0.731,-0.676,-0.001,0.008,0.009,0.2,-0.079,-0.005,0.135,-0.819,1.192
2024-09-30 14:28:00.139,4128.231,0.09,0.73,-0.677,-0.011,-0.006,0.006,-0.111,0.057,0.036,0.133,-0.819,1.194
2024-09-30 14:28:00.259,4128.351,0.092,0.732,-0.675,0.006,0.023,0.012,0.25,-0.026,-0.091,0.136,-0.821,1.187
2024-09-30 14:28:00.379,4128.471,0.088,0.73,-0.678,-0.005,-0.014,-0.018,-0.248,-0.064,0.011,0.129,-0.818,1.179
2024-09-30 14:28:00.499,4128.591,0.095,0.74,-0.666,-0.003,-0.012,-0.004,0.006,0.048,-0.012,0.141,-0.833,1.187
2024-09-30 14:28:00.619,4128.71,0.092,0.731,-0.676,-0.005,-0.025,-0.017,-0.15,-0.011,0.034,0.135,-0.82,1.18
2024-09-30 14:28:00.739,4128.83,0.104,0.742,-0.662,0.0,-0.002,0.007,0.031,0.151,-0.021,0.157,-0.837,1.19
2024-09-30 14:28:00.858,4128.95,0.1,0.729,-0.677,-0.001,-0.098,-0.015,-0.21,-0.143,0.061,0.147,-0.817,1.179
2024-09-30 14:28:00.978,4129.07,0.102,0.729,-0.677,0.008,0.029,0.017,0.216,-0.06,-0.021,0.149,-0.817,1.183
2024-09-30 14:28:01.098,4129.19,0.104,0.729,-0.676,0.001,0.014,0.005,-0.103,-0.046,0.105,0.152,-0.817,1.183
2024-09-30 14:28:01.218,4129.309,0.1,0.723,-0.683,-0.022,-0.072,-0.036,-0.061,0.051,-0.053,0.145,-0.809,1.183
2024-09-30 14:28:01.337,4129.429,0.105,0.728,-0.678,0.001,0.007,0.006,0.034,0.047,0.011,0.153,-0.815,1.186
2024-09-30 14:28:01.457,4129.549,0.1,0.717,-0.69,0.003,-0.127,-0.021,-0.196,-0.056,-0.0,0.144,-0.8,1.176
2024-09-30 14:28:01.576,4129.669,0.1,0.716,-0.69,0.002,-0.003,-0.003,0.083,-0.022,-0.004,0.144,-0.799,1.185
2024-09-30 14:28:01.697,4129.789,0.105,0.715,-0.691,-0.007,-0.023,0.0,-0.081,0.04,0.037,0.151,-0.796,1.184
2024-09-30 14:28:01.817,4129.908,0.113,0.728,-0.676,-0.078,-0.0,0.007,-0.113,0.023,-0.01,0.166,-0.816,1.195
2024-09-30 14:28:01.937,4130.028,0.1,0.734,-0.672,0.037,-0.015,0.001,-0.076,-0.213,-0.058,0.147,-0.824,1.184
2024-09-30 14:28:02.056,4130.148,0.085,0.732,-0.676,0.054,-0.025,-0.004,0.001,-0.105,-0.008,0.125,-0.821,1.181
2024-09-30 14:28:02.176,4130.268,0.082,0.728,-0.681,-0.001,-0.004,0.0,0.097,-0.0,0.001,0.119,-0.815,1.18
2024-09-30 14:28:02.296,4130.387,0.079,0.725,-0.685,0.001,-0.025,0.0,-0.06,-0.046,0.061,0.115,-0.81,1.179
2024-09-30 14:28:02.416,4130.507,0.09,0.739,-0.667,-0.001,0.021,0.007,-0.022,0.169,-0.032,0.133,-0.832,1.183
2024-09-30 14:28:02.535,4130.627,0.084,0.728,-0.68,-0.033,-0.008,-0.035,-0.023,-0.109,-0.04,0.123,-0.816,1.166
2024-09-30 14:28:02.655,4130.747,0.085,0.737,-0.67,-0.007,0.006,0.008,0.006,0.062,0.025,0.126,-0.829,1.175
2024-09-30 14:28:02.775,4130.867,0.083,0.729,-0.68,0.011,0.048,0.028,0.214,-0.03,-0.048,0.122,-0.817,1.167
2024-09-30 14:28:02.895,4130.986,0.089,0.733,-0.675,-0.008,0.004,0.007,-0.036,0.153,0.062,0.131,-0.822,1.175
2024-09-30 14:28:03.015,4131.106,0.091,0.725,-0.683,0.016,0.025,0.015,0.375,-0.095,-0.112,0.132,-0.811,1.167
2024-09-30 14:28:03.134,4131.226,0.088,0.727,-0.681,-0.015,-0.022,-0.01,-0.2,0.086,0.05,0.129,-0.814,1.17
2024-09-30 14:28:03.254,4131.346,0.09,0.722,-0.686,0.012,0.034,0.018,0.217,0.062,-0.048,0.13,-0.807,1.167
2024-09-30 14:28:03.374,4131.466,0.095,0.728,-0.679,-0.011,0.003,-0.007,-0.071,-0.035,0.063,0.139,-0.815,1.173
2024-09-30 14:28:03.494,4131.585,0.089,0.719,-0.69,-0.028,-0.002,-0.016,-0.108,0.118,-0.031,0.128,-0.802,1.167
2024-09-30 14:28:03.614,4131.705,0.093,0.723,-0.685,0.008,0.055,0.023,0.226,-0.026,-0.019,0.136,-0.808,1.171
2024-09-30 14:28:03.733,4131.825,0.087,0.719,-0.689,-0.002,-0.026,-0.003,-0.253,-0.069,0.073,0.126,-0.803,1.167
2024-09-30 14:28:03.853,4131.945,0.087,0.714,-0.694,-0.005,0.034,-0.013,0.119,-0.047,0.011,0.125,-0.796,1.174
2024-09-30 14:28:03.973,4132.065,0.094,0.715,-0.693,0.005,-0.007,-0.005,-0.084,0.027,0.095,0.135,-0.797,1.179
2024-09-30 14:28:04.093,4132.184,0.092,0.734,-0.673,-0.057,0.033,0.004,-0.11,-0.039,-0.119,0.136,-0.824,1.178
2024-09-30 14:28:04.213,4132.304,0.078,0.74,-0.669,0.072,-0.034,-0.014,-0.04,-0.146,0.02,0.116,-0.832,1.169
2024-09-30 14:28:04.332,4132.424,0.069,0.74,-0.67,-0.01,0.038,0.011,0.1,-0.063,-0.046,0.102,-0.832,1.168
2024-09-30 14:28:04.452,4132.544,0.067,0.731,-0.679,0.005,-0.022,-0.011,-0.063,-0.019,-0.002,0.099,-0.819,1.161
2024-09-30 14:28:04.572,4132.664,0.074,0.742,-0.666,0.012,-0.015,0.004,-0.035,0.049,-0.064,0.111,-0.836,1.167
2024-09-30 14:28:04.691,4132.783,0.068,0.732,-0.678,0.006,-0.137,-0.007,-0.116,-0.065,-0.011,0.1,-0.821,1.152
2024-09-30 14:28:04.812,4132.903,0.071,0.742,-0.666,-0.0,0.008,0.011,-0.07,0.09,0.005,0.106,-0.836,1.163
2024-09-30 14:28:04.931,4133.023,0.068,0.728,-0.682,-0.031,0.042,-0.019,0.016,-0.062,-0.011,0.099,-0.816,1.152
2024-09-30 14:28:05.051,4133.143,0.077,0.741,-0.667,-0.002,-0.045,-0.015,-0.138,0.154,-0.035,0.114,-0.835,1.161
2024-09-30 14:28:05.171,4133.263,0.071,0.729,-0.681,-0.023,-0.068,-0.034,-0.145,-0.126,-0.032,0.104,-0.816,1.149
2024-09-30 14:28:05.291,4133.382,0.073,0.725,-0.685,-0.005,-0.029,-0.012,-0.093,0.109,-0.031,0.107,-0.811,1.15
2024-09-30 14:28:05.411,4133.502,0.078,0.737,-0.671,-0.005,-0.024,-0.013,-0.181,-0.016,0.026,0.116,-0.829,1.159
2024-09-30 14:28:05.530,4133.622,0.072,0.726,-0.683,-0.017,-0.061,-0.008,-0.096,0.123,-0.049,0.105,-0.813,1.152
2024-09-30 14:28:05.650,4133.742,0.076,0.727,-0.682,0.008,0.029,0.023,0.206,0.007,-0.035,0.111,-0.814,1.153
2024-09-30 14:28:05.770,4133.861,0.072,0.724,-0.686,-0.003,-0.032,0.024,-0.08,-0.097,0.089,0.104,-0.81,1.154
2024-09-30 14:28:05.889,4133.981,0.072,0.716,-0.694,-0.002,-0.0,-0.014,-0.01,0.022,0.009,0.104,-0.798,1.158
2024-09-30 14:28:06.009,4134.101,0.082,0.72,-0.689,-0.017,0.033,0.009,-0.047,0.171,0.161,0.119,-0.803,1.169
2024-09-30 14:28:06.129,4134.221,0.085,0.737,-0.671,-0.007,0.014,0.02,-0.117,-0.175,0.009,0.126,-0.828,1.182
2024-09-30 14:28:06.249,4134.341,0.074,0.734,-0.675,0.045,-0.037,-0.028,0.006,-0.101,0.012,0.109,-0.825,1.184
2024-09-30 14:28:06.369,4134.46,0.065,0.724,-0.687,-0.003,-0.009,-0.005,-0.041,-0.062,-0.009,0.094,-0.809,1.179
2024-09-30 14:28:06.488,4134.58,0.066,0.726,-0.684,-0.02,-0.07,-0.011,-0.278,0.037,0.038,0.097,-0.813,1.179
2024-09-30 14:28:06.608,4134.7,0.066,0.719,-0.692,0.007,0.027,0.005,0.329,-0.126,-0.025,0.095,-0.802,1.177
2024-09-30 14:28:06.728,4134.82,0.067,0.721,-0.689,-0.025,-0.007,0.023,-0.106,0.067,0.027,0.097,-0.806,1.184
2024-09-30 14:28:06.848,4134.94,0.088,0.724,-0.684,-0.006,-0.012,-0.018,-0.207,0.295,0.015,0.128,-0.81,1.187
2024-09-30 14:28:06.968,4135.059,0.082,0.712,-0.698,0.016,-0.003,0.002,0.294,-0.12,-0.147,0.117,-0.792,1.169
2024-09-30 14:28:07.086,4135.179,0.079,0.704,-0.706,-0.008,-0.008,-0.001,0.071,0.099,-0.025,0.111,-0.78,1.168
2024-09-30 14:28:07.207,4135.299,0.087,0.714,-0.695,0.009,-0.037,-0.005,-0.107,-0.034,0.031,0.124,-0.795,1.178
2024-09-30 14:28:07.327,4135.419,0.077,0.707,-0.703,-0.034,-0.024,-0.014,-0.238,0.043,-0.033,0.109,-0.785,1.172
2024-09-30 14:28:07.447,4135.539,0.081,0.705,-0.705,0.017,0.021,0.005,0.191,-0.045,-0.043,0.114,-0.782,1.172
2024-09-30 14:28:07.566,4135.658,0.075,0.707,-0.704,-0.007,0.072,0.03,0.104,-0.037,0.069,0.106,-0.785,1.174
2024-09-30 14:28:07.686,4135.778,0.074,0.696,-0.714,-0.003,0.008,0.001,0.135,0.013,-0.002,0.103,-0.77,1.173
2024-09-30 14:28:07.806,4135.898,0.078,0.704,-0.706,-0.002,-0.047,-0.01,-0.312,0.025,-0.024,0.11,-0.781,1.176
2024-09-30 14:28:07.926,4136.018,0.09,0.765,-0.638,0.024,0.027,-0.008,-0.614,0.115,-0.127,0.14,-0.871,1.179
2024-09-30 14:28:08.046,4136.138,0.085,0.805,-0.587,0.072,-0.035,-0.034,-0.314,0.108,-0.119,0.143,-0.935,1.174
2024-09-30 14:28:08.166,4136.257,0.076,0.802,-0.593,0.048,-0.008,0.031,0.24,-0.084,0.023,0.127,-0.93,1.153
2024-09-30 14:28:08.285,4136.377,0.082,0.784,-0.615,-0.038,-0.023,0.063,0.216,-0.073,0.059,0.133,-0.902,1.166
2024-09-30 14:28:08.404,4136.497,0.09,0.77,-0.631,-0.066,-0.013,0.058,0.069,0.067,0.067,0.141,-0.879,1.176
2024-09-30 14:28:08.525,4136.617,0.092,0.761,-0.642,-0.074,0.002,-0.005,0.195,0.076,-0.068,0.143,-0.865,1.17
2024-09-30 14:28:08.645,4136.737,0.099,0.754,-0.649,0.003,-0.006,-0.006,-0.04,0.092,-0.061,0.151,-0.854,1.16
2024-09-30 14:28:08.764,4136.856,0.097,0.756,-0.647,0.005,-0.022,-0.004,-0.036,-0.07,-0.003,0.148,-0.857,1.158
2024-09-30 14:28:08.883,4136.976,0.096,0.755,-0.649,0.008,-0.01,0.0,0.062,-0.021,-0.009,0.147,-0.856,1.156
2024-09-30 14:28:09.004,4137.096,0.093,0.739,-0.667,-0.014,0.0,0.003,0.136,0.136,-0.027,0.138,-0.832,1.145
2024-09-30 14:28:09.124,4137.216,0.101,0.741,-0.663,0.01,-0.01,0.003,0.09,0.021,-0.025,0.151,-0.835,1.153
2024-09-30 14:28:09.244,4137.336,0.099,0.736,-0.67,-0.011,-0.027,0.0,-0.141,0.05,0.058,0.147,-0.827,1.151
2024-09-30 14:28:09.364,4137.455,0.106,0.735,-0.67,0.02,0.069,0.031,0.432,-0.164,-0.003,0.157,-0.826,1.16
2024-09-30 14:28:09.483,4137.575,0.105,0.725,-0.68,-0.006,-0.029,0.013,-0.074,0.042,0.075,0.153,-0.811,1.153
2024-09-30 14:28:09.603,4137.695,0.109,0.727,-0.678,0.013,0.027,0.014,0.225,-0.058,-0.048,0.159,-0.814,1.16
2024-09-30 14:28:09.723,4137.815,0.103,0.721,-0.685,-0.007,0.016,0.018,0.172,0.1,-0.001,0.149,-0.806,1.151
2024-09-30 14:28:09.843,4137.934,0.109,0.725,-0.68,0.006,0.012,0.023,0.152,0.011,0.002,0.158,-0.811,1.153
2024-09-30 14:28:09.963,4138.054,0.107,0.724,-0.681,-0.026,-0.006,0.004,-0.117,0.102,0.115,0.156,-0.81,1.157
2024-09-30 14:28:10.082,4138.174,0.112,0.736,-0.668,-0.021,0.01,0.01,-0.092,0.03,-0.081,0.166,-0.827,1.154
2024-09-30 14:28:10.202,4138.294,0.102,0.74,-0.664,0.05,-0.013,-0.002,0.004,-0.084,0.029,0.152,-0.834,1.145
2024-09-30 14:28:10.322,4138.414,0.095,0.736,-0.671,0.0,0.022,0.009,0.292,-0.159,-0.021,0.141,-0.826,1.147
2024-09-30 14:28:10.442,4138.533,0.1,0.736,-0.67,0.009,0.016,0.008,-0.058,0.064,0.042,0.148,-0.827,1.147
2024-09-30 14:28:10.562,4138.653,0.098,0.733,-0.673,-0.015,-0.046,-0.021,-0.143,-0.033,-0.005,0.145,-0.823,1.148
2024-09-30 14:28:10.681,4138.773,0.102,0.736,-0.67,0.021,0.028,0.019,0.309,-0.134,-0.022,0.151,-0.827,1.155
2024-09-30 14:28:10.800,4138.893,0.1,0.73,-0.676,-0.008,-0.027,0.007,-0.121,0.011,0.077,0.147,-0.818,1.151
2024-09-30 14:28:10.921,4139.013,0.102,0.734,-0.671,0.008,0.006,0.006,0.134,-0.093,-0.038,0.151,-0.824,1.16
2024-09-30 14:28:11.041,4139.132,0.097,0.729,-0.678,-0.012,0.019,0.012,0.076,0.097,0.003,0.142,-0.816,1.15
2024-09-30 14:28:11.160,4139.252,0.1,0.733,-0.673,0.01,0.069,0.03,0.283,-0.075,-0.008,0.148,-0.823,1.154
2024-09-30 14:28:11.280,4139.372,0.104,0.729,-0.676,-0.084,0.037,0.003,-0.006,0.189,0.1,0.153,-0.818,1.157
2024-09-30 14:28:11.400,4139.492,0.107,0.734,-0.671,0.025,-0.002,0.015,-0.025,-0.028,-0.056,0.159,-0.824,1.153
2024-09-30 14:28:11.520,4139.612,0.101,0.741,-0.664,0.017,0.005,-0.001,-0.047,-0.053,0.01,0.151,-0.835,1.157
2024-09-30 14:28:11.640,4139.731,0.092,0.728,-0.68,-0.014,0.028,0.006,0.096,0.001,-0.031,0.135,-0.815,1.153
2024-09-30 14:28:11.759,4139.851,0.099,0.731,-0.675,0.008,0.002,0.011,0.151,-0.019,-0.0,0.145,-0.82,1.158
2024-09-30 14:28:11.879,4139.971,0.096,0.734,-0.672,-0.009,0.003,0.012,-0.126,0.092,0.081,0.142,-0.824,1.161
2024-09-30 14:28:11.999,4140.091,0.094,0.728,-0.679,0.003,0.019,0.013,0.276,-0.024,-0.017,0.137,-0.815,1.16
2024-09-30 14:28:12.119,4140.211,0.099,0.732,-0.674,-0.014,0.014,-0.004,-0.098,0.042,0.059,0.146,-0.822,1.165
2024-09-30 14:28:12.239,4140.33,0.093,0.727,-0.68,-0.003,-0.109,-0.02,-0.03,0.031,-0.024,0.136,-0.815,1.162
2024-09-30 14:28:12.358,4140.45,0.097,0.732,-0.674,0.001,-0.004,0.002,-0.192,0.086,-0.007,0.143,-0.821,1.163
2024-09-30 14:28:12.478,4140.57,0.094,0.724,-0.684,-0.038,0.005,-0.041,-0.147,0.002,-0.013,0.136,-0.809,1.158
2024-09-30 14:28:12.598,4140.69,0.105,0.731,-0.674,-0.057,0.009,0.009,-0.049,0.081,-0.031,0.155,-0.82,1.164
2024-09-30 14:28:12.718,4140.81,0.099,0.733,-0.673,0.045,-0.026,-0.004,-0.083,-0.095,0.022,0.146,-0.823,1.158
2024-09-30 14:28:12.838,4140.929,0.088,0.727,-0.681,0.024,0.017,0.011,0.303,-0.226,-0.006,0.128,-0.814,1.159
2024-09-30 14:28:12.958,4141.049,0.089,0.729,-0.679,-0.001,-0.004,0.003,-0.064,0.086,0.047,0.131,-0.817,1.162
2024-09-30 14:28:13.077,4141.169,0.086,0.726,-0.682,-0.009,-0.126,-0.021,-0.203,-0.02,0.019,0.125,-0.813,1.163
2024-09-30 14:28:13.197,4141.289,0.091,0.738,-0.668,0.013,0.024,0.015,0.114,-0.061,0.005,0.135,-0.831,1.172
2024-09-30 14:28:13.317,4141.409,0.084,0.727,-0.681,-0.012,0.052,-0.004,0.071,0.031,-0.012,0.123,-0.814,1.165
2024-09-30 14:28:13.437,4141.528,0.092,0.732,-0.675,0.002,0.022,0.007,0.05,-0.017,0.028,0.135,-0.822,1.176
2024-09-30 14:28:13.556,4141.648,0.082,0.721,-0.688,-0.021,0.007,-0.021,0.03,0.017,-0.05,0.119,-0.806,1.169
2024-09-30 14:28:13.676,4141.768,0.086,0.725,-0.683,-0.005,-0.024,-0.004,-0.173,0.093,0.001,0.125,-0.811,1.169
2024-09-30 14:28:13.796,4141.888,0.084,0.715,-0.694,-0.006,0.049,0.009,-0.016,-0.033,-0.048,0.121,-0.796,1.164
2024-09-30 14:28:13.916,4142.007,0.092,0.724,-0.683,-0.078,-0.027,-0.001,-0.18,0.147,-0.042,0.134,-0.81,1.167
2024-09-30 14:28:14.036,4142.127,0.089,0.731,-0.676,0.019,-0.003,0.008,-0.001,-0.104,-0.018,0.131,-0.82,1.161
2024-09-30 14:28:14.156,4142.247,0.084,0.731,-0.678,0.031,-0.019,-0.005,0.008,0.006,0.079,0.123,-0.819,1.16
2024-09-30 14:28:14.275,4142.367,0.076,0.713,-0.697,-0.01,0.034,0.014,0.152,-0.024,-0.015,0.109,-0.794,1.155
2024-09-30 14:28:14.395,4142.487,0.082,0.723,-0.686,-0.023,0.016,-0.009,-0.16,0.075,0.051,0.119,-0.808,1.16
2024-09-30 14:28:14.515,4142.606,0.077,0.715,-0.695,-0.02,-0.126,-0.028,-0.187,0.014,0.043,0.11,-0.796,1.158
2024-09-30 14:28:14.635,4142.726,0.082,0.72,-0.689,0.013,0.029,0.014,0.187,-0.105,-0.006,0.119,-0.803,1.166
2024-09-30 14:28:14.755,4142.846,0.077,0.713,-0.697,-0.01,-0.015,0.009,-0.057,0.064,0.055,0.111,-0.794,1.16
2024-09-30 14:28:14.874,4142.966,0.089,0.72,-0.688,0.002,0.037,0.016,0.124,-0.055,0.042,0.128,-0.804,1.173
2024-09-30 14:28:14.994,4143.086,0.076,0.712,-0.698,-0.018,0.02,-0.001,0.021,-0.033,-0.018,0.109,-0.793,1.163
2024-09-30 14:28:15.114,4143.205,0.08,0.718,-0.691,-0.002,-0.001,-0.003,-0.23,0.134,0.011,0.116,-0.801,1.164
2024-09-30 14:28:15.233,4143.325,0.08,0.707,-0.703,0.003,0.011,0.009,0.043,-0.01,-0.028,0.113,-0.785,1.16
2024-09-30 14:28:15.353,4143.445,0.091,0.718,-0.69,-0.085,-0.045,0.011,-0.175,0.137,-0.063,0.131,-0.802,1.167
2024-09-30 14:28:15.473,4143.565,0.085,0.718,-0.691,0.015,-0.014,0.0,-0.022,-0.091,-0.045,0.123,-0.8,1.157
2024-09-30 14:28:15.593,4143.685,0.077,0.721,-0.689,0.06,-0.021,0.0,0.03,-0.141,-0.03,0.111,-0.805,1.155
2024-09-30 14:28:15.712,4143.804,0.071,0.716,-0.694,-0.011,-0.019,0.005,-0.095,0.043,0.001,0.103,-0.799,1.15
2024-09-30 14:28:15.832,4143.924,0.075,0.72,-0.69,0.017,0.069,0.028,0.302,-0.124,-0.019,0.108,-0.803,1.155
2024-09-30 14:28:15.952,4144.044,0.071,0.717,-0.693,-0.02,0.014,0.018,-0.084,0.022,0.081,0.101,-0.8,1.156
2024-09-30 14:28:16.072,4144.164,0.07,0.71,-0.701,-0.002,0.032,0.01,-0.023,-0.028,-0.072,0.1,-0.789,1.158
2024-09-30 14:28:16.192,4144.284,0.075,0.723,-0.687,-0.011,-0.03,-0.022,-0.255,0.06,0.008,0.109,-0.808,1.163
2024-09-30 14:28:16.312,4144.403,0.068,0.715,-0.695,-0.008,-0.059,-0.025,0.022,-0.01,-0.025,0.097,-0.797,1.158
2024-09-30 14:28:16.431,4144.523,0.071,0.719,-0.692,-0.011,-0.039,-0.008,-0.251,0.069,0.016,0.102,-0.802,1.158
2024-09-30 14:28:16.551,4144.643,0.068,0.714,-0.697,0.008,0.032,0.012,0.205,-0.005,-0.011,0.098,-0.795,1.152
2024-09-30 14:28:16.671,4144.763,0.076,0.732,-0.677,-0.03,-0.077,-0.029,-0.639,0.356,-0.02,0.112,-0.821,1.154
2024-09-30 14:28:16.791,4144.883,0.1,0.782,-0.615,0.007,-0.027,-0.014,-0.618,0.252,-0.078,0.161,-0.898,1.161
2024-09-30 14:28:16.910,4145.002,0.1,0.812,-0.576,-0.009,-0.007,-0.037,0.18,0.022,-0.155,0.172,-0.947,1.153
2024-09-30 14:28:17.030,4145.122,0.08,0.811,-0.579,0.005,0.013,-0.027,-0.142,0.012,-0.245,0.138,-0.946,1.112
2024-09-30 14:28:17.150,4145.242,0.075,0.827,-0.557,0.049,-0.035,0.055,0.006,0.123,0.024,0.134,-0.973,1.099
2024-09-30 14:28:17.270,4145.362,0.096,0.827,-0.554,0.06,0.063,0.075,0.165,-0.098,0.337,0.171,-0.974,1.138
2024-09-30 14:28:17.390,4145.482,0.13,0.789,-0.601,-0.037,-0.054,0.0,0.361,-0.101,0.368,0.213,-0.909,1.206
2024-09-30 14:28:17.509,4145.601,0.135,0.725,-0.675,-0.112,-0.106,0.02,0.363,-0.087,-0.071,0.197,-0.811,1.203
2024-09-30 14:28:17.629,4145.721,0.125,0.73,-0.672,-0.037,0.248,-0.179,-0.245,0.217,-0.019,0.183,-0.818,1.185
2024-09-30 14:28:17.749,4145.841,0.117,0.738,-0.665,-0.028,-0.002,-0.009,-0.158,0.027,-0.09,0.174,-0.83,1.168
2024-09-30 14:28:17.869,4145.961,0.112,0.754,-0.648,-0.002,-0.012,-0.007,-0.233,-0.004,-0.029,0.172,-0.854,1.164
2024-09-30 14:28:17.989,4146.08,0.108,0.762,-0.638,-0.009,-0.018,0.001,-0.032,-0.031,0.003,0.168,-0.867,1.164
2024-09-30 14:28:18.108,4146.2,0.102,0.755,-0.648,-0.026,0.053,0.006,0.164,0.017,-0.036,0.156,-0.855,1.156
2024-09-30 14:28:18.229,4146.32,0.111,0.753,-0.648,0.017,-0.015,0.003,-0.127,-0.067,0.021,0.17,-0.853,1.157
2024-09-30 14:28:18.348,4146.44,0.105,0.745,-0.659,-0.018,0.0,-0.018,0.044,-0.052,-0.018,0.158,-0.841,1.15
2024-09-30 14:28:18.468,4146.56,0.106,0.747,-0.656,0.006,-0.044,0.001,-0.073,0.035,-0.047,0.16,-0.844,1.151
2024-09-30 14:28:18.588,4146.679,0.105,0.74,-0.664,-0.0,-0.024,-0.008,0.01,-0.06,0.004,0.156,-0.834,1.146
2024-09-30 14:28:18.708,4146.799,0.108,0.751,-0.651,-0.008,-0.026,-0.011,-0.293,0.156,-0.036,0.165,-0.85,1.158
2024-09-30 14:28:18.827,4146.919,0.108,0.739,-0.665,-0.038,-0.014,-0.045,-0.044,0.049,-0.067,0.161,-0.831,1.144
2024-09-30 14:28:18.947,4147.039,0.117,0.755,-0.645,-0.006,0.01,-0.001,-0.287,0.026,0.117,0.179,-0.855,1.158
2024-09-30 14:28:19.067,4147.159,0.114,0.752,-0.649,0.006,-0.009,0.005,0.28,-0.161,-0.058,0.175,-0.852,1.163
2024-09-30 14:28:19.187,4147.278,0.118,0.744,-0.658,-0.012,-0.085,-0.016,-0.239,0.085,0.128,0.178,-0.839,1.161
2024-09-30 14:28:19.306,4147.398,0.137,0.747,-0.651,-0.072,0.035,0.015,0.143,-0.014,-0.071,0.208,-0.844,1.182
2024-09-30 14:28:19.426,4147.518,0.122,0.746,-0.655,0.033,-0.017,-0.004,-0.033,-0.047,-0.033,0.185,-0.842,1.165
2024-09-30 14:28:19.546,4147.638,0.12,0.747,-0.654,0.014,-0.013,0.0,0.026,-0.094,0.003,0.182,-0.844,1.169
2024-09-30 14:28:19.666,4147.758,0.119,0.747,-0.655,-0.004,0.008,0.004,0.075,-0.033,0.007,0.18,-0.843,1.175
2024-09-30 14:28:19.786,4147.877,0.114,0.734,-0.67,-0.022,-0.007,-0.014,0.076,0.149,-0.024,0.169,-0.824,1.166
2024-09-30 14:28:19.905,4147.997,0.122,0.741,-0.66,-0.006,-0.028,-0.015,-0.112,0.001,-0.009,0.183,-0.835,1.169
2024-09-30 14:28:20.025,4148.117,0.112,0.731,-0.673,-0.017,-0.069,-0.02,-0.114,-0.043,-0.057,0.165,-0.819,1.157
2024-09-30 14:28:20.145,4148.237,0.112,0.737,-0.667,0.005,-0.019,0.003,-0.021,0.028,0.002,0.166,-0.828,1.159
2024-09-30 14:28:20.265,4148.357,0.114,0.739,-0.664,0.002,0.001,0.005,0.098,-0.035,-0.031,0.169,-0.832,1.16
2024-09-30 14:28:20.385,4148.476,0.11,0.738,-0.666,-0.019,-0.037,0.01,-0.152,-0.029,0.075,0.164,-0.83,1.162
2024-09-30 14:28:20.504,4148.596,0.117,0.748,-0.654,0.009,0.054,0.024,0.244,0.001,-0.064,0.177,-0.844,1.165
2024-09-30 14:28:20.624,4148.716,0.112,0.742,-0.66,-0.014,-0.065,0.008,-0.116,0.075,0.073,0.168,-0.837,1.15
2024-09-30 14:28:20.744,4148.836,0.123,0.756,-0.643,0.004,0.033,0.018,-0.006,-0.088,0.087,0.188,-0.857,1.174
2024-09-30 14:28:20.864,4148.956,0.111,0.738,-0.665,0.005,0.042,0.024,0.461,-0.046,-0.026,0.166,-0.831,1.165
2024-09-30 14:28:20.984,4149.075,0.122,0.74,-0.662,-0.021,0.015,-0.003,-0.132,0.216,0.221,0.183,-0.833,1.174
2024-09-30 14:28:21.103,4149.195,0.129,0.739,-0.661,-0.02,0.02,0.023,0.06,-0.12,-0.075,0.192,-0.831,1.177
2024-09-30 14:28:21.223,4149.315,0.117,0.746,-0.655,0.048,-0.021,-0.003,-0.126,-0.018,0.002,0.177,-0.842,1.168
2024-09-30 14:28:21.343,4149.435,0.115,0.751,-0.65,-0.01,0.001,0.003,-0.02,-0.049,0.066,0.176,-0.85,1.175
2024-09-30 14:28:21.462,4149.555,0.112,0.743,-0.66,0.004,0.013,0.013,0.31,-0.105,-0.042,0.168,-0.838,1.171
2024-09-30 14:28:21.582,4149.674,0.113,0.732,-0.672,-0.023,-0.071,-0.006,-0.148,0.175,-0.02,0.167,-0.821,1.159
2024-09-30 14:28:21.702,4149.794,0.116,0.736,-0.667,0.009,-0.007,0.002,0.116,-0.09,-0.07,0.172,-0.827,1.163
2024-09-30 14:28:21.822,4149.914,0.108,0.734,-0.671,-0.005,-0.045,-0.008,-0.114,0.004,-0.023,0.159,-0.824,1.155
2024-09-30 14:28:21.942,4150.034,0.111,0.737,-0.667,0.001,0.027,0.014,0.093,0.022,-0.018,0.165,-0.828,1.157
2024-09-30 14:28:22.061,4150.153,0.109,0.73,-0.675,-0.001,-0.022,-0.004,-0.054,-0.11,0.043,0.159,-0.818,1.154
2024-09-30 14:28:22.181,4150.273,0.114,0.743,-0.66,-0.017,0.006,-0.007,-0.213,0.18,-0.028,0.171,-0.837,1.168
2024-09-30 14:28:22.302,4150.393,0.112,0.731,-0.673,0.009,0.009,0.015,0.166,-0.013,-0.097,0.166,-0.82,1.149
2024-09-30 14:28:22.421,4150.513,0.112,0.74,-0.663,-0.016,-0.034,0.0,-0.147,0.023,0.097,0.167,-0.833,1.151
2024-09-30 14:28:22.541,4150.633,0.119,0.747,-0.654,0.007,0.032,0.023,0.093,-0.089,0.082,0.18,-0.844,1.168
2024-09-30 14:28:22.660,4150.752,0.108,0.73,-0.675,-0.006,0.032,0.02,0.211,-0.004,-0.024,0.159,-0.818,1.158
2024-09-30 14:28:22.780,4150.872,0.122,0.739,-0.663,-0.035,0.043,-0.016,-0.29,0.231,0.207,0.182,-0.831,1.173
2024-09-30 14:28:22.900,4150.992,0.12,0.744,-0.657,-0.023,-0.009,0.003,-0.007,-0.048,-0.186,0.181,-0.84,1.166
2024-09-30 14:28:23.020,4151.112,0.106,0.746,-0.657,0.035,-0.006,0.004,-0.03,-0.112,-0.024,0.16,-0.843,1.149
2024-09-30 14:28:23.140,4151.232,0.103,0.753,-0.65,0.023,0.006,-0.003,-0.055,-0.048,0.004,0.157,-0.853,1.156
2024-09-30 14:28:23.260,4151.351,0.099,0.749,-0.656,0.001,0.014,0.008,0.278,-0.106,-0.024,0.149,-0.846,1.156
2024-09-30 14:28:23.380,4151.471,0.097,0.741,-0.664,-0.012,-0.089,-0.003,-0.23,0.041,0.044,0.145,-0.835,1.148
2024-09-30 14:28:23.499,4151.591,0.1,0.741,-0.664,0.009,0.039,0.02,0.287,-0.097,-0.081,0.149,-0.834,1.152
2024-09-30 14:28:23.619,4151.711,0.093,0.737,-0.67,-0.008,0.021,-0.004,-0.049,-0.002,0.003,0.138,-0.828,1.145
2024-09-30 14:28:23.738,4151.831,0.098,0.735,-0.671,0.004,0.042,0.027,0.168,0.068,-0.005,0.145,-0.826,1.146
2024-09-30 14:28:23.858,4151.95,0.096,0.729,-0.678,0.0,-0.038,-0.01,-0.057,-0.144,0.067,0.14,-0.817,1.144
2024-09-30 14:28:23.978,4152.07,0.102,0.739,-0.666,-0.015,0.022,0.002,-0.095,0.163,-0.031,0.152,-0.832,1.155
2024-09-30 14:28:24.098,4152.19,0.099,0.73,-0.676,-0.023,-0.054,-0.059,-0.13,-0.041,-0.075,0.145,-0.819,1.14
2024-09-30 14:28:24.218,4152.31,0.102,0.743,-0.661,-0.013,-0.003,-0.005,-0.18,0.07,0.079,0.153,-0.838,1.148
2024-09-30 14:28:24.338,4152.43,0.107,0.749,-0.654,0.002,0.023,0.012,0.119,-0.117,-0.005,0.162,-0.847,1.162
2024-09-30 14:28:24.457,4152.549,0.1,0.736,-0.669,-0.026,-0.002,-0.007,-0.076,0.139,-0.0,0.149,-0.827,1.151
2024-09-30 14:28:24.578,4152.669,0.117,0.747,-0.655,-0.034,0.029,0.026,0.07,0.015,-0.035,0.177,-0.843,1.17
2024-09-30 14:28:24.697,4152.789,0.1,0.746,-0.658,0.027,-0.027,-0.004,-0.08,-0.065,-0.033,0.15,-0.843,1.149
2024-09-30 14:28:24.817,4152.909,0.096,0.749,-0.656,0.022,-0.015,-0.02,-0.019,-0.051,-0.014,0.146,-0.847,1.151
2024-09-30 14:28:24.937,4153.029,0.092,0.742,-0.664,0.003,0.015,0.014,0.318,-0.135,-0.003,0.138,-0.836,1.15
2024-09-30 14:28:25.057,4153.148,0.093,0.74,-0.666,-0.026,-0.017,0.024,-0.084,0.05,0.02,0.139,-0.834,1.146
2024-09-30 14:28:25.177,4153.268,0.09,0.734,-0.673,0.006,0.027,0.007,0.235,-0.06,-0.001,0.132,-0.824,1.141
2024-09-30 14:28:25.296,4153.388,0.089,0.739,-0.668,-0.016,-0.005,0.075,0.078,0.035,0.035,0.133,-0.831,1.146
2024-09-30 14:28:25.416,4153.508,0.093,0.74,-0.666,0.002,-0.003,-0.019,-0.051,0.023,-0.017,0.139,-0.834,1.147
2024-09-30 14:28:25.536,4153.628,0.09,0.735,-0.672,0.01,0.027,0.016,0.17,0.01,-0.005,0.133,-0.825,1.139
2024-09-30 14:28:25.655,4153.747,0.09,0.74,-0.666,-0.018,-0.011,-0.005,-0.175,0.041,0.034,0.134,-0.833,1.148
2024-09-30 14:28:25.776,4153.867,0.092,0.745,-0.661,0.021,0.071,0.033,0.424,-0.092,-0.071,0.139,-0.841,1.147
2024-09-30 14:28:25.895,4153.987,0.091,0.747,-0.659,-0.016,-0.037,0.042,-0.031,0.063,0.052,0.138,-0.843,1.141
2024-09-30 14:28:26.015,4154.107,0.099,0.752,-0.652,-0.008,0.002,-0.007,-0.074,-0.0,0.054,0.151,-0.85,1.154
2024-09-30 14:28:26.135,4154.226,0.092,0.738,-0.669,-0.03,0.016,-0.004,-0.048,0.006,-0.031,0.137,-0.83,1.15
2024-09-30 14:28:26.255,4154.346,0.105,0.744,-0.66,-0.038,-0.029,-0.026,-0.25,0.164,0.095,0.158,-0.838,1.164
2024-09-30 14:28:26.374,4154.466,0.098,0.742,-0.663,-0.0,-0.021,0.009,-0.119,-0.072,-0.104,0.146,-0.836,1.151
2024-09-30 14:28:26.494,4154.586,0.085,0.75,-0.656,0.021,-0.027,0.008,-0.112,-0.062,-0.001,0.129,-0.848,1.148
2024-09-30 14:28:26.614,4154.706,0.086,0.75,-0.655,-0.006,-0.031,-0.021,-0.059,0.018,0.027,0.131,-0.848,1.154
2024-09-30 14:28:26.734,4154.825,0.083,0.738,-0.669,0.012,0.009,0.004,0.255,-0.08,0.018,0.123,-0.831,1.153
2024-09-30 14:28:26.853,4154.945,0.085,0.738,-0.669,-0.024,-0.012,0.045,-0.03,0.043,0.052,0.126,-0.83,1.149
2024-09-30 14:28:26.973,4155.065,0.088,0.73,-0.678,0.016,0.022,0.005,0.341,-0.058,-0.033,0.13,-0.818,1.147
2024-09-30 14:28:27.093,4155.185,0.084,0.735,-0.673,-0.003,-0.002,-0.033,-0.181,-0.065,-0.009,0.124,-0.825,1.143
2024-09-30 14:28:27.212,4155.305,0.086,0.738,-0.669,-0.012,0.02,0.024,0.071,0.045,0.038,0.128,-0.83,1.148
2024-09-30 14:28:27.333,4155.424,0.089,0.734,-0.673,0.01,0.014,0.009,0.231,-0.086,-0.019,0.131,-0.825,1.147
2024-09-30 14:28:27.452,4155.544,0.085,0.732,-0.677,-0.014,-0.024,0.058,-0.056,0.023,0.054,0.124,-0.821,1.15
2024-09-30 14:28:27.572,4155.664,0.092,0.735,-0.672,0.01,0.036,0.014,0.165,0.042,-0.073,0.137,-0.826,1.15
2024-09-30 14:28:27.692,4155.784,0.086,0.725,-0.683,0.001,0.011,0.001,0.059,0.03,-0.004,0.125,-0.812,1.138
2024-09-30 14:28:27.812,4155.904,0.089,0.725,-0.682,-0.011,0.013,0.051,0.042,-0.004,0.068,0.13,-0.812,1.14
2024-09-30 14:28:27.931,4156.023,0.097,0.738,-0.668,0.011,0.011,0.002,-0.067,-0.025,0.079,0.145,-0.83,1.156
2024-09-30 14:28:28.051,4156.143,0.089,0.726,-0.682,0.011,0.021,0.012,0.314,-0.046,-0.029,0.129,-0.812,1.15
2024-09-30 14:28:28.172,4156.263,0.092,0.73,-0.677,-0.027,-0.021,0.008,-0.226,0.108,0.065,0.134,-0.818,1.152
2024-09-30 14:28:28.291,4156.383,0.105,0.785,-0.611,0.016,0.002,-0.057,-1.007,0.241,-0.152,0.17,-0.902,1.16
2024-09-30 14:28:28.410,4156.503,0.084,0.867,-0.49,0.085,0.055,-0.136,-0.182,-0.095,-0.231,0.169,-1.05,1.152
2024-09-30 14:28:28.530,4156.622,0.097,0.84,-0.534,0.065,-0.011,0.097,0.407,-0.015,0.283,0.179,-0.997,1.168
2024-09-30 14:28:28.650,4156.742,0.112,0.809,-0.577,-0.041,-0.047,0.089,0.507,-0.283,0.087,0.192,-0.942,1.209
2024-09-30 14:28:28.770,4156.862,0.09,0.779,-0.621,-0.139,-0.004,0.025,-0.026,-0.003,-0.183,0.143,-0.893,1.181
2024-09-30 14:28:28.890,4156.982,0.098,0.787,-0.609,-0.053,-0.066,0.057,0.051,0.191,-0.06,0.159,-0.906,1.173
2024-09-30 14:28:29.010,4157.102,0.117,0.767,-0.631,0.037,-0.054,0.003,-0.002,0.064,-0.079,0.183,-0.873,1.177
2024-09-30 14:28:29.129,4157.221,0.123,0.764,-0.634,0.013,-0.016,0.008,0.089,-0.067,0.033,0.191,-0.869,1.186
2024-09-30 14:28:29.249,4157.341,0.12,0.765,-0.633,-0.001,-0.013,-0.004,-0.035,0.003,-0.04,0.187,-0.871,1.187
2024-09-30 14:28:29.369,4157.461,0.119,0.766,-0.632,-0.007,-0.002,-0.001,-0.033,0.0,-0.008,0.187,-0.872,1.183
2024-09-30 14:28:29.489,4157.581,0.117,0.76,-0.64,0.006,0.012,0.012,0.258,-0.012,-0.032,0.182,-0.863,1.175
2024-09-30 14:28:29.609,4157.701,0.118,0.757,-0.643,-0.006,0.016,0.013,0.106,0.175,0.002,0.182,-0.858,1.173
2024-09-30 14:28:29.729,4157.82,0.118,0.757,-0.643,0.003,-0.014,-0.014,-0.042,-0.106,-0.005,0.182,-0.858,1.168
2024-09-30 14:28:29.848,4157.94,0.118,0.76,-0.64,0.001,-0.038,-0.012,-0.17,0.003,0.05,0.182,-0.863,1.171
2024-09-30 14:28:29.968,4158.06,0.124,0.764,-0.633,0.007,0.006,0.007,0.088,-0.063,0.005,0.194,-0.869,1.185
2024-09-30 14:28:30.088,4158.18,0.118,0.752,-0.649,0.006,0.009,0.009,0.307,-0.051,-0.061,0.18,-0.851,1.174
2024-09-30 14:28:30.207,4158.299,0.118,0.748,-0.653,-0.01,0.002,-0.004,0.087,0.117,-0.022,0.179,-0.846,1.169
2024-09-30 14:28:30.327,4158.419,0.116,0.748,-0.654,-0.003,-0.02,-0.007,-0.075,-0.099,0.06,0.176,-0.844,1.17
2024-09-30 14:28:30.447,4158.539,0.12,0.754,-0.646,0.006,-0.0,-0.0,-0.004,-0.024,-0.046,0.183,-0.855,1.172
2024-09-30 14:28:30.567,4158.659,0.114,0.749,-0.652,-0.004,-0.005,0.007,0.061,0.061,-0.025,0.173,-0.847,1.159
2024-09-30 14:28:30.687,4158.779,0.124,0.765,-0.632,-0.034,0.02,-0.014,-0.369,0.072,0.14,0.194,-0.871,1.176
2024-09-30 14:28:30.806,4158.898,0.113,0.768,-0.63,-0.016,0.052,0.01,-0.002,-0.102,-0.111,0.177,-0.876,1.165
2024-09-30 14:28:30.926,4159.018,0.107,0.763,-0.638,0.053,-0.052,-0.006,-0.04,-0.016,0.062,0.166,-0.867,1.155
2024-09-30 14:28:31.046,4159.138,0.106,0.765,-0.635,-0.009,-0.002,0.003,0.049,-0.039,0.019,0.166,-0.871,1.162
2024-09-30 14:28:31.166,4159.258,0.104,0.757,-0.646,0.007,0.013,0.015,0.286,0.012,-0.086,0.16,-0.858,1.155
2024-09-30 14:28:31.286,4159.378,0.102,0.755,-0.648,-0.008,0.017,0.001,0.018,0.075,-0.012,0.156,-0.856,1.15
2024-09-30 14:28:31.405,4159.497,0.107,0.752,-0.65,0.005,0.015,0.005,0.038,-0.032,0.005,0.162,-0.851,1.147
2024-09-30 14:28:31.526,4159.617,0.104,0.755,-0.648,-0.002,-0.017,-0.0,-0.076,-0.034,0.046,0.159,-0.855,1.147
2024-09-30 14:28:31.646,4159.737,0.113,0.764,-0.635,-0.002,0.024,0.005,-0.084,0.015,0.093,0.176,-0.869,1.164
2024-09-30 14:28:31.765,4159.857,0.113,0.761,-0.639,0.008,0.003,0.004,0.119,-0.102,0.001,0.175,-0.865,1.17
2024-09-30 14:28:31.885,4159.977,0.108,0.755,-0.647,-0.004,0.005,0.009,0.12,-0.01,-0.012,0.166,-0.855,1.164
2024-09-30 14:28:32.005,4160.096,0.106,0.749,-0.654,-0.005,-0.013,-0.005,-0.003,-0.015,-0.002,0.161,-0.846,1.158
2024-09-30 14:28:32.124,4160.216,0.108,0.749,-0.654,-0.005,-0.001,0.001,0.026,0.082,-0.03,0.164,-0.847,1.157
2024-09-30 14:28:32.244,4160.336,0.106,0.751,-0.652,-0.012,-0.026,-0.002,-0.169,0.007,0.033,0.161,-0.849,1.156
2024-09-30 14:28:32.364,4160.456,0.11,0.757,-0.644,0.007,0.011,0.012,0.091,-0.001,-0.045,0.169,-0.859,1.159
2024-09-30 14:28:32.484,4160.576,0.105,0.751,-0.652,-0.0,-0.007,0.013,0.061,0.01,-0.016,0.159,-0.849,1.146
2024-09-30 14:28:32.604,4160.695,0.114,0.756,-0.644,-0.028,0.021,-0.012,-0.265,0.045,0.231,0.175,-0.858,1.157
2024-09-30 14:28:32.723,4160.815,0.109,0.762,-0.638,-0.036,0.022,0.027,-0.117,-0.073,-0.092,0.17,-0.866,1.158
2024-09-30 14:28:32.843,4160.935,0.102,0.762,-0.64,0.08,-0.049,-0.036,-0.011,0.035,0.013,0.157,-0.866,1.145
2024-09-30 14:28:32.963,4161.055,0.099,0.761,-0.641,-0.021,-0.018,-0.006,-0.022,0.039,0.042,0.154,-0.865,1.143
2024-09-30 14:28:33.083,4161.175,0.098,0.754,-0.65,-0.003,0.009,0.006,0.057,0.009,-0.028,0.15,-0.854,1.137
2024-09-30 14:28:33.203,4161.294,0.098,0.754,-0.65,-0.008,0.009,0.002,0.073,0.148,-0.018,0.149,-0.854,1.136
2024-09-30 14:28:33.322,4161.414,0.098,0.753,-0.651,0.007,-0.039,-0.014,-0.137,-0.084,-0.047,0.15,-0.853,1.133
2024-09-30 14:28:33.442,4161.534,0.101,0.756,-0.647,-0.014,-0.004,-0.005,-0.116,0.057,0.077,0.154,-0.857,1.138
2024-09-30 14:28:33.562,4161.654,0.111,0.759,-0.642,-0.013,0.018,0.011,0.08,0.026,0.055,0.171,-0.862,1.157
2024-09-30 14:28:33.682,4161.774,0.106,0.753,-0.65,0.018,-0.019,-0.001,0.002,-0.006,-0.03,0.162,-0.852,1.153
2024-09-30 14:28:33.801,4161.893,0.104,0.752,-0.65,-0.011,-0.013,-0.007,-0.035,0.008,0.006,0.159,-0.852,1.149
2024-09-30 14:28:33.921,4162.013,0.103,0.75,-0.653,-0.001,-0.01,-0.001,0.07,0.007,-0.047,0.156,-0.848,1.145
2024-09-30 14:28:34.041,4162.133,0.098,0.747,-0.658,-0.01,0.014,0.014,0.04,0.036,0.005,0.147,-0.843,1.139
2024-09-30 14:28:34.161,4162.253,0.103,0.743,-0.661,0.01,0.024,0.017,0.088,-0.04,-0.005,0.154,-0.838,1.136
2024-09-30 14:28:34.281,4162.373,0.104,0.749,-0.655,-0.004,0.012,0.008,-0.018,0.085,0.004,0.157,-0.846,1.141
2024-09-30 14:28:34.400,4162.492,0.102,0.747,-0.657,0.007,-0.001,0.003,0.141,-0.027,-0.085,0.155,-0.843,1.134
2024-09-30 14:28:34.520,4162.612,0.101,0.745,-0.659,-0.014,0.02,0.009,0.173,0.162,0.011,0.153,-0.84,1.127
2024-09-30 14:28:34.640,4162.732,0.115,0.756,-0.645,-0.016,0.031,0.002,-0.1,0.006,0.067,0.176,-0.857,1.148
2024-09-30 14:28:34.760,4162.852,0.1,0.759,-0.644,-0.0,-0.005,0.015,0.044,-0.107,-0.084,0.155,-0.861,1.135
2024-09-30 14:28:34.880,4162.971,0.095,0.759,-0.644,0.097,0.005,-0.006,0.034,-0.072,-0.08,0.146,-0.862,1.129
2024-09-30 14:28:34.999,4163.091,0.092,0.757,-0.647,-0.004,-0.008,0.002,0.016,0.024,0.032,0.141,-0.859,1.127
2024-09-30 14:28:35.119,4163.211,0.091,0.753,-0.651,-0.004,-0.003,0.003,0.076,-0.022,-0.02,0.139,-0.853,1.122
2024-09-30 14:28:35.239,4163.331,0.087,0.75,-0.656,0.003,-0.006,0.006,-0.03,-0.026,-0.008,0.132,-0.848,1.117
2024-09-30 14:28:35.359,4163.451,0.089,0.75,-0.655,-0.005,-0.004,0.003,0.035,0.061,-0.016,0.134,-0.848,1.115
2024-09-30 14:28:35.478,4163.57,0.09,0.749,-0.656,0.001,0.014,0.009,0.032,0.018,-0.007,0.137,-0.847,1.112
2024-09-30 14:28:35.598,4163.69,0.09,0.752,-0.653,0.005,-0.009,0.0,-0.032,-0.016,-0.009,0.136,-0.852,1.112
2024-09-30 14:28:35.718,4163.81,0.091,0.753,-0.651,0.003,0.013,0.01,-0.108,-0.003,0.053,0.139,-0.853,1.117
2024-09-30 14:28:35.838,4163.93,0.102,0.764,-0.637,0.002,0.007,0.003,-0.043,-0.006,0.132,0.159,-0.869,1.134
2024-09-30 14:28:35.958,4164.05,0.099,0.761,-0.642,-0.002,0.004,0.001,0.074,-0.073,-0.024,0.152,-0.864,1.14
2024-09-30 14:28:36.077,4164.169,0.095,0.757,-0.647,0.0,-0.007,0.005,0.05,-0.017,-0.021,0.146,-0.858,1.137
2024-09-30 14:28:36.198,4164.289,0.094,0.754,-0.651,0.001,0.004,0.005,0.106,0.008,-0.033,0.143,-0.854,1.132
2024-09-30 14:28:36.317,4164.409,0.09,0.749,-0.656,0.001,-0.009,-0.0,-0.01,-0.08,0.011,0.137,-0.847,1.126
2024-09-30 14:28:36.437,4164.529,0.093,0.749,-0.657,0.0,-0.042,-0.007,-0.008,0.06,-0.021,0.141,-0.846,1.124
2024-09-30 14:28:36.557,4164.649,0.091,0.751,-0.655,-0.008,-0.025,0.001,-0.184,-0.044,0.064,0.138,-0.849,1.125
2024-09-30 14:28:36.676,4164.768,0.095,0.752,-0.653,0.0,-0.006,-0.002,-0.049,0.054,-0.032,0.145,-0.851,1.127
2024-09-30 14:28:36.796,4164.888,0.092,0.747,-0.658,0.007,0.017,0.008,0.089,0.031,-0.048,0.139,-0.844,1.117
2024-09-30 14:28:36.916,4165.008,0.093,0.745,-0.661,-0.012,-0.01,0.001,0.012,0.136,-0.012,0.14,-0.84,1.111
2024-09-30 14:28:37.036,4165.128,0.108,0.762,-0.639,0.001,0.066,0.014,0.003,0.018,0.168,0.168,-0.866,1.132
2024-09-30 14:28:37.156,4165.248,0.094,0.757,-0.646,0.004,0.003,-0.016,0.077,-0.1,-0.072,0.145,-0.859,1.122
2024-09-30 14:28:37.276,4165.367,0.087,0.755,-0.65,0.065,-0.03,0.002,-0.001,-0.021,0.009,0.133,-0.856,1.115
2024-09-30 14:28:37.395,4165.487,0.086,0.753,-0.653,-0.014,-0.007,0.001,0.001,0.015,0.002,0.131,-0.852,1.118
2024-09-30 14:28:37.515,4165.607,0.087,0.75,-0.656,0.007,0.005,0.0,0.103,-0.016,-0.025,0.132,-0.848,1.115
2024-09-30 14:28:37.635,4165.727,0.084,0.748,-0.658,0.003,-0.0,-0.002,0.04,-0.005,0.022,0.126,-0.845,1.113
2024-09-30 14:28:37.755,4165.847,0.089,0.747,-0.659,-0.001,-0.003,-0.003,0.014,0.068,-0.019,0.134,-0.844,1.11
2024-09-30 14:28:37.874,4165.966,0.088,0.748,-0.658,0.0,-0.009,-0.004,-0.05,0.005,0.022,0.133,-0.845,1.109
2024-09-30 14:28:37.994,4166.086,0.089,0.749,-0.656,-0.019,-0.004,0.004,-0.044,0.015,0.017,0.135,-0.847,1.112
2024-09-30 14:28:38.114,4166.206,0.097,0.762,-0.64,-0.008,0.044,0.012,0.026,-0.031,0.109,0.15,-0.866,1.128
2024-09-30 14:28:38.234,4166.326,0.094,0.756,-0.648,0.034,-0.06,-0.005,0.02,-0.087,-0.037,0.144,-0.857,1.133
2024-09-30 14:28:38.354,4166.446,0.092,0.754,-0.651,-0.009,-0.01,-0.003,0.011,0.012,0.001,0.14,-0.854,1.129
2024-09-30 14:28:38.473,4166.565,0.091,0.748,-0.657,0.001,0.002,0.003,0.145,-0.007,-0.042,0.137,-0.846,1.123
2024-09-30 14:28:38.593,4166.685,0.088,0.746,-0.661,0.001,0.036,0.015,0.048,0.016,0.017,0.132,-0.841,1.119
2024-09-30 14:28:38.713,4166.805,0.09,0.746,-0.66,-0.002,0.008,0.007,0.044,0.031,-0.009,0.136,-0.841,1.116
2024-09-30 14:28:38.832,4166.925,0.091,0.749,-0.657,-0.029,-0.025,0.024,-0.088,0.029,0.035,0.138,-0.846,1.122
