Date,TimeStamp,GravityX,GravityY,GravityZ,UserAccelerationX,UserAccelerationY,UserAccelerationZ,RotationRateX,RotationRateY,RotationRateZ,AttitudeRoll,AttitudePitch,AttitudeYaw
2024-09-23 11:26:49.884,161942.721,-0.028,0.642,-0.766,-0.002,0.0,0.008,-0.032,-0.015,0.007,-0.037,-0.697,1.964
2024-09-23 11:26:50.004,161942.841,-0.029,0.64,-0.768,0.006,0.004,0.037,0.132,-0.084,0.063,-0.038,-0.695,1.969
2024-09-23 11:26:50.124,161942.961,-0.034,0.63,-0.776,0.015,0.043,-0.026,0.056,-0.091,0.022,-0.044,-0.681,1.975
2024-09-23 11:26:50.243,161943.081,-0.032,0.647,-0.761,0.011,0.043,-0.004,-0.108,0.017,-0.017,-0.042,-0.704,1.971
2024-09-23 11:26:50.362,161943.201,-0.034,0.645,-0.764,-0.006,0.015,0.004,0.119,-0.004,-0.008,-0.045,-0.701,1.971
2024-09-23 11:26:50.484,161943.32,-0.033,0.634,-0.773,0.003,0.002,0.007,0.085,0.007,0.06,-0.043,-0.686,1.974
2024-09-23 11:26:50.603,161943.44,-0.03,0.642,-0.766,-0.009,-0.031,0.015,-0.194,-0.01,0.007,-0.039,-0.698,1.979
2024-09-23 11:26:50.723,161943.56,-0.032,0.654,-0.756,-0.038,-0.045,-0.057,-0.581,0.1,-0.087,-0.042,-0.712,1.971
2024-09-23 11:26:50.842,161943.68,-0.023,0.69,-0.724,-0.007,0.019,-0.01,-0.322,0.061,0.052,-0.032,-0.761,1.966
2024-09-23 11:26:50.962,161943.8,-0.015,0.703,-0.711,0.001,0.023,0.008,0.068,0.092,0.047,-0.022,-0.78,1.97
2024-09-23 11:26:51.082,161943.919,0.001,0.696,-0.718,-0.027,0.042,0.066,0.179,0.057,0.15,0.002,-0.77,1.987
2024-09-23 11:26:51.202,161944.039,0.006,0.674,-0.739,0.077,0.003,-0.113,-0.221,0.145,0.05,0.009,-0.74,1.999
2024-09-23 11:26:51.322,161944.159,0.009,0.674,-0.739,-0.032,-0.035,0.042,-0.143,-0.201,0.123,0.012,-0.739,2.012
2024-09-23 11:26:51.442,161944.279,-0.005,0.665,-0.747,0.068,-0.025,0.051,0.21,-0.192,-0.049,-0.007,-0.727,2.012
2024-09-23 11:26:51.562,161944.399,-0.016,0.65,-0.76,-0.022,0.029,-0.002,0.128,-0.02,-0.007,-0.02,-0.707,2.009
2024-09-23 11:26:51.681,161944.518,-0.018,0.644,-0.765,-0.004,-0.003,0.003,0.086,-0.006,-0.004,-0.024,-0.7,2.006
2024-09-23 11:26:51.801,161944.638,-0.02,0.638,-0.77,0.005,0.017,0.009,0.181,-0.034,-0.014,-0.025,-0.692,2.002
2024-09-23 11:26:51.921,161944.758,-0.019,0.631,-0.775,-0.0,0.0,-0.005,-0.013,-0.022,0.087,-0.024,-0.683,2.008
2024-09-23 11:26:52.041,161944.878,-0.024,0.619,-0.785,-0.006,-0.055,-0.01,0.157,-0.048,-0.039,-0.03,-0.668,2.015
2024-09-23 11:26:52.161,161944.998,-0.019,0.64,-0.768,-0.017,-0.061,-0.013,-0.427,0.139,-0.048,-0.025,-0.695,2.011
2024-09-23 11:26:52.279,161945.117,-0.021,0.637,-0.771,0.002,-0.015,0.006,0.129,0.001,-0.019,-0.028,-0.69,2.005
2024-09-23 11:26:52.400,161945.237,-0.02,0.624,-0.781,0.003,-0.021,-0.018,0.026,-0.003,0.077,-0.025,-0.674,2.01
2024-09-23 11:26:52.520,161945.357,-0.018,0.628,-0.778,-0.021,-0.035,0.006,0.004,0.013,-0.095,-0.023,-0.679,2.014
2024-09-23 11:26:52.639,161945.477,-0.006,0.647,-0.762,-0.022,0.044,0.097,-0.754,-0.014,0.236,-0.007,-0.704,2.019
2024-09-23 11:26:52.759,161945.597,0.006,0.641,-0.767,0.103,-0.026,-0.102,-0.003,0.065,-0.005,0.008,-0.696,2.034
2024-09-23 11:26:52.879,161945.716,0.004,0.634,-0.773,0.005,-0.078,0.012,0.006,-0.032,-0.017,0.005,-0.687,2.037
2024-09-23 11:26:52.999,161945.836,0.002,0.624,-0.782,0.0,0.024,0.005,0.144,-0.001,-0.007,0.003,-0.673,2.035
2024-09-23 11:26:53.119,161945.956,0.001,0.619,-0.786,0.004,0.02,0.015,0.126,-0.01,-0.003,0.001,-0.667,2.033
2024-09-23 11:26:53.239,161946.076,0.0,0.614,-0.79,0.011,0.017,0.002,0.077,-0.03,-0.032,0.0,-0.661,2.031
2024-09-23 11:26:53.358,161946.196,-0.003,0.61,-0.793,-0.007,-0.025,-0.0,-0.026,-0.016,0.027,-0.004,-0.656,2.03
2024-09-23 11:26:53.478,161946.315,-0.006,0.6,-0.8,0.005,-0.06,-0.006,0.051,-0.086,0.031,-0.007,-0.643,2.037
2024-09-23 11:26:53.598,161946.435,-0.008,0.598,-0.801,-0.001,-0.005,0.009,-0.216,0.077,0.028,-0.01,-0.642,2.04
2024-09-23 11:26:53.718,161946.555,0.006,0.617,-0.787,-0.028,0.035,0.005,-0.09,0.007,-0.004,0.007,-0.665,2.045
2024-09-23 11:26:53.838,161946.675,0.002,0.616,-0.788,0.001,0.005,0.008,0.031,-0.003,-0.009,0.003,-0.663,2.042
2024-09-23 11:26:53.957,161946.795,-0.0,0.613,-0.79,-0.001,0.006,0.005,0.042,0.013,-0.01,-0.0,-0.66,2.038
2024-09-23 11:26:54.077,161946.914,0.0,0.604,-0.797,-0.019,-0.058,-0.004,-0.145,0.045,-0.038,0.0,-0.649,2.038
2024-09-23 11:26:54.197,161947.034,0.007,0.616,-0.788,-0.005,-0.014,-0.007,-0.138,0.073,0.012,0.009,-0.663,2.041
2024-09-23 11:26:54.317,161947.154,0.014,0.632,-0.775,0.016,0.045,0.009,0.022,0.05,0.072,0.018,-0.684,2.038
2024-09-23 11:26:54.436,161947.274,0.034,0.625,-0.78,-0.007,-0.066,-0.271,-0.834,0.398,-0.05,0.044,-0.675,2.079
2024-09-23 11:26:54.556,161947.394,0.036,0.623,-0.782,-0.038,-0.038,-0.022,0.093,-0.094,-0.049,0.046,-0.672,2.073
2024-09-23 11:26:54.677,161947.513,0.041,0.609,-0.792,-0.013,-0.034,-0.016,0.089,0.115,0.054,0.052,-0.655,2.08
2024-09-23 11:26:54.796,161947.633,0.055,0.607,-0.793,0.02,-0.067,-0.043,-0.105,0.063,-0.03,0.069,-0.652,2.094
2024-09-23 11:26:54.916,161947.753,0.048,0.607,-0.794,-0.001,-0.01,0.006,0.066,0.002,-0.058,0.06,-0.652,2.083
2024-09-23 11:26:55.036,161947.873,0.045,0.595,-0.802,0.007,0.026,0.005,0.142,-0.029,0.004,0.056,-0.638,2.076
2024-09-23 11:26:55.156,161947.993,0.042,0.589,-0.807,0.024,0.029,0.027,0.319,-0.202,0.034,0.052,-0.63,2.082
2024-09-23 11:26:55.276,161948.112,0.033,0.59,-0.807,-0.003,-0.049,0.009,-0.243,0.065,0.037,0.041,-0.631,2.081
2024-09-23 11:26:55.395,161948.232,0.046,0.597,-0.801,-0.0,-0.003,-0.011,0.067,0.051,-0.02,0.058,-0.64,2.084
2024-09-23 11:26:55.515,161948.352,0.046,0.598,-0.8,-0.015,-0.013,-0.017,-0.236,0.043,0.004,0.058,-0.642,2.082
2024-09-23 11:26:55.635,161948.472,0.055,0.62,-0.783,0.005,0.013,-0.008,-0.05,0.142,-0.002,0.07,-0.668,2.085
2024-09-23 11:26:55.754,161948.592,0.061,0.614,-0.787,-0.003,0.141,0.125,-0.01,-0.202,0.267,0.078,-0.661,2.094
2024-09-23 11:26:55.874,161948.711,0.061,0.612,-0.789,0.051,-0.077,-0.03,0.027,0.01,-0.108,0.077,-0.659,2.101
2024-09-23 11:26:55.993,161948.831,0.05,0.605,-0.795,-0.006,-0.076,-0.017,-0.105,-0.01,-0.006,0.063,-0.649,2.093
2024-09-23 11:26:56.114,161948.951,0.051,0.606,-0.794,-0.005,-0.034,-0.008,-0.026,0.057,-0.033,0.065,-0.65,2.091
2024-09-23 11:26:56.234,161949.071,0.05,0.595,-0.802,0.001,0.016,0.013,0.148,-0.054,0.003,0.063,-0.637,2.088
2024-09-23 11:26:56.354,161949.191,0.045,0.588,-0.808,0.004,-0.013,0.007,0.186,-0.149,0.038,0.056,-0.628,2.091
2024-09-23 11:26:56.473,161949.31,0.039,0.581,-0.813,0.001,-0.027,0.011,-0.051,0.013,0.034,0.048,-0.62,2.093
2024-09-23 11:26:56.593,161949.43,0.051,0.593,-0.804,0.013,0.064,0.015,0.098,0.037,-0.028,0.064,-0.634,2.098
2024-09-23 11:26:56.712,161949.55,0.048,0.584,-0.81,0.001,-0.019,-0.023,-0.169,0.016,0.02,0.059,-0.624,2.094
2024-09-23 11:26:56.833,161949.67,0.057,0.609,-0.791,-0.003,-0.038,0.02,-0.072,0.023,0.022,0.072,-0.654,2.102
2024-09-23 11:26:56.953,161949.79,0.062,0.603,-0.796,-0.164,0.119,0.094,-0.18,-0.215,0.091,0.078,-0.647,2.103
2024-09-23 11:26:57.073,161949.909,0.058,0.603,-0.796,0.095,-0.076,-0.044,-0.063,-0.033,-0.145,0.073,-0.647,2.101
2024-09-23 11:26:57.192,161950.029,0.051,0.605,-0.794,0.005,0.018,0.005,-0.002,-0.039,0.037,0.064,-0.65,2.1
2024-09-23 11:26:57.312,161950.149,0.053,0.601,-0.798,-0.003,-0.021,-0.001,-0.009,0.056,0.015,0.067,-0.645,2.104
2024-09-23 11:26:57.432,161950.269,0.056,0.594,-0.803,-0.004,-0.015,-0.003,0.064,0.018,0.003,0.069,-0.636,2.102
2024-09-23 11:26:57.551,161950.389,0.056,0.584,-0.81,-0.006,-0.031,0.0,0.039,0.015,0.001,0.069,-0.624,2.099
2024-09-23 11:26:57.671,161950.508,0.056,0.58,-0.813,0.003,-0.004,-0.006,-0.017,-0.038,0.062,0.069,-0.618,2.103
2024-09-23 11:26:57.791,161950.628,0.048,0.566,-0.823,0.006,-0.024,0.004,0.141,-0.146,0.021,0.059,-0.602,2.109
2024-09-23 11:26:57.911,161950.748,0.05,0.573,-0.818,-0.027,-0.041,-0.003,-0.348,0.142,-0.01,0.061,-0.61,2.114
2024-09-23 11:26:58.031,161950.868,0.057,0.582,-0.811,0.004,-0.016,-0.008,0.015,0.024,-0.024,0.07,-0.621,2.111
2024-09-23 11:26:58.151,161950.988,0.054,0.582,-0.812,-0.002,-0.082,0.013,-0.173,0.021,0.015,0.067,-0.621,2.11
2024-09-23 11:26:58.270,161951.107,0.061,0.603,-0.796,-0.011,0.028,0.053,0.159,0.07,-0.03,0.076,-0.647,2.116
2024-09-23 11:26:58.390,161951.227,0.06,0.652,-0.756,0.01,-0.064,-0.016,-1.201,0.079,-0.164,0.079,-0.71,2.112
2024-09-23 11:26:58.510,161951.347,0.071,0.77,-0.633,0.079,0.062,-0.017,-0.388,0.232,-0.01,0.112,-0.88,2.112
2024-09-23 11:26:58.629,161951.467,0.068,0.757,-0.65,0.053,-0.002,-0.011,0.376,-0.144,-0.019,0.104,-0.858,2.102
2024-09-23 11:26:58.749,161951.587,0.042,0.754,-0.656,-0.037,0.002,0.029,-0.167,-0.256,-0.12,0.064,-0.854,2.08
2024-09-23 11:26:58.869,161951.706,-0.001,0.745,-0.667,-0.026,-0.045,0.007,0.07,-0.234,-0.376,-0.001,-0.841,2.043
2024-09-23 11:26:58.989,161951.826,-0.04,0.75,-0.66,-0.092,0.291,-0.044,0.655,0.038,-0.036,-0.06,-0.848,1.99
2024-09-23 11:26:59.109,161951.946,-0.023,0.721,-0.692,-0.017,0.059,0.023,-0.314,-0.117,0.329,-0.033,-0.806,2.019
2024-09-23 11:26:59.229,161952.066,-0.037,0.743,-0.669,-0.051,-0.03,-0.082,-0.001,-0.111,-0.164,-0.055,-0.837,2.023
2024-09-23 11:26:59.349,161952.186,-0.05,0.728,-0.684,-0.01,0.094,0.091,0.472,-0.061,-0.042,-0.073,-0.815,2.01
2024-09-23 11:26:59.467,161952.305,-0.049,0.691,-0.722,-0.009,0.06,0.039,0.367,0.077,0.029,-0.068,-0.762,2.016
2024-09-23 11:26:59.588,161952.425,-0.039,0.68,-0.732,0.011,-0.056,0.016,-0.237,0.057,0.06,-0.053,-0.748,2.02
2024-09-23 11:26:59.708,161952.545,-0.038,0.674,-0.737,0.019,-0.11,-0.065,-0.093,0.006,-0.12,-0.052,-0.74,2.025
2024-09-23 11:26:59.828,161952.665,-0.044,0.682,-0.73,-0.011,-0.004,-0.036,-0.08,-0.001,-0.046,-0.061,-0.75,2.012
2024-09-23 11:26:59.948,161952.785,-0.045,0.679,-0.733,0.001,0.018,0.003,0.181,0.049,-0.027,-0.061,-0.746,2.007
2024-09-23 11:27:00.066,161952.904,-0.044,0.655,-0.754,0.009,-0.09,0.003,-0.023,-0.022,0.015,-0.059,-0.715,2.01
2024-09-23 11:27:00.188,161953.024,-0.048,0.644,-0.764,0.017,0.012,0.001,0.308,-0.09,0.029,-0.063,-0.699,2.012
2024-09-23 11:27:00.307,161953.144,-0.051,0.628,-0.777,-0.008,0.013,0.013,0.035,-0.043,0.054,-0.065,-0.679,2.016
2024-09-23 11:27:00.427,161953.264,-0.049,0.626,-0.778,0.021,0.05,0.009,0.141,-0.025,0.015,-0.063,-0.676,2.018
2024-09-23 11:27:00.546,161953.384,-0.049,0.62,-0.783,0.012,0.008,0.011,0.087,-0.048,0.052,-0.063,-0.669,2.022
2024-09-23 11:27:00.666,161953.503,-0.053,0.616,-0.786,-0.003,-0.03,0.002,-0.029,-0.001,0.013,-0.067,-0.664,2.025
2024-09-23 11:27:00.786,161953.623,-0.053,0.612,-0.789,0.008,0.0,-0.007,-0.011,-0.027,-0.01,-0.067,-0.659,2.025
2024-09-23 11:27:00.906,161953.743,-0.052,0.612,-0.789,0.006,-0.02,-0.015,-0.096,0.029,-0.011,-0.066,-0.658,2.028
2024-09-23 11:27:01.026,161953.863,-0.053,0.623,-0.781,0.001,-0.021,-0.005,-0.192,-0.019,-0.029,-0.067,-0.672,2.026
2024-09-23 11:27:01.145,161953.983,-0.051,0.644,-0.764,-0.052,-0.061,-0.044,-0.573,0.15,0.03,-0.067,-0.699,2.016
2024-09-23 11:27:01.265,161954.102,-0.029,0.673,-0.74,-0.0,0.207,0.05,0.207,0.044,0.31,-0.04,-0.738,2.027
2024-09-23 11:27:01.385,161954.222,-0.033,0.656,-0.754,0.107,-0.139,-0.262,-0.536,0.071,-0.112,-0.043,-0.715,2.043
2024-09-23 11:27:01.505,161954.342,-0.041,0.644,-0.764,-0.014,-0.071,-0.041,-0.087,0.06,-0.055,-0.054,-0.7,2.033
2024-09-23 11:27:01.625,161954.462,-0.042,0.645,-0.763,0.024,-0.043,-0.018,-0.027,0.009,-0.051,-0.055,-0.701,2.027
2024-09-23 11:27:01.745,161954.582,-0.042,0.627,-0.778,0.007,0.066,0.009,0.375,-0.047,0.045,-0.054,-0.678,2.027
2024-09-23 11:27:01.865,161954.701,-0.041,0.613,-0.789,0.0,-0.013,0.032,0.162,-0.074,0.009,-0.051,-0.66,2.035
2024-09-23 11:27:01.984,161954.821,-0.045,0.596,-0.802,-0.004,-0.029,-0.008,0.043,-0.02,0.037,-0.056,-0.639,2.039
2024-09-23 11:27:02.104,161954.941,-0.041,0.6,-0.799,0.002,0.062,-0.009,0.079,-0.005,0.022,-0.051,-0.644,2.04
2024-09-23 11:27:02.224,161955.061,-0.042,0.596,-0.802,-0.004,0.026,0.031,0.14,-0.048,0.055,-0.053,-0.639,2.043
2024-09-23 11:27:02.343,161955.181,-0.045,0.583,-0.811,-0.008,-0.015,-0.004,0.12,-0.043,0.015,-0.056,-0.622,2.048
2024-09-23 11:27:02.463,161955.3,-0.045,0.582,-0.812,-0.012,-0.018,-0.005,-0.067,0.031,-0.002,-0.056,-0.621,2.05
2024-09-23 11:27:02.583,161955.42,-0.042,0.585,-0.81,-0.006,-0.005,0.006,-0.043,0.023,-0.013,-0.052,-0.625,2.052
2024-09-23 11:27:02.703,161955.54,-0.041,0.591,-0.805,0.016,0.007,0.011,-0.036,-0.01,-0.005,-0.051,-0.633,2.05
2024-09-23 11:27:02.822,161955.66,-0.041,0.607,-0.793,0.0,-0.096,0.01,-0.148,0.026,-0.092,-0.051,-0.653,2.045
2024-09-23 11:27:02.942,161955.78,-0.032,0.622,-0.782,0.008,0.137,0.003,0.231,0.04,0.084,-0.041,-0.671,2.046
2024-09-23 11:27:03.062,161955.899,-0.026,0.63,-0.776,-0.002,-0.102,0.019,0.102,0.003,-0.049,-0.033,-0.682,2.068
2024-09-23 11:27:03.182,161956.019,-0.023,0.627,-0.779,0.014,0.069,0.056,0.188,-0.017,0.005,-0.029,-0.678,2.057
2024-09-23 11:27:03.302,161956.139,-0.026,0.626,-0.78,0.001,-0.078,0.01,-0.122,0.055,-0.082,-0.033,-0.676,2.051
2024-09-23 11:27:03.421,161956.259,-0.029,0.626,-0.779,-0.002,-0.018,-0.003,-0.003,-0.003,-0.053,-0.038,-0.676,2.042
2024-09-23 11:27:03.541,161956.379,-0.033,0.616,-0.787,-0.002,0.02,-0.01,0.33,-0.002,-0.064,-0.043,-0.664,2.037
2024-09-23 11:27:03.662,161956.498,-0.031,0.601,-0.799,-0.016,0.015,0.017,0.108,-0.02,0.046,-0.038,-0.645,2.043
2024-09-23 11:27:03.781,161956.618,-0.035,0.582,-0.812,-0.014,-0.04,-0.002,-0.043,-0.04,0.015,-0.043,-0.622,2.047
2024-09-23 11:27:03.901,161956.738,-0.03,0.591,-0.806,0.012,0.02,0.014,-0.004,0.046,0.034,-0.038,-0.633,2.047
2024-09-23 11:27:04.021,161956.858,-0.029,0.588,-0.808,0.006,0.022,0.005,0.12,-0.061,0.075,-0.036,-0.628,2.053
2024-09-23 11:27:04.140,161956.978,-0.035,0.567,-0.823,-0.011,-0.009,0.005,0.081,-0.052,0.015,-0.042,-0.603,2.062
2024-09-23 11:27:04.260,161957.097,-0.033,0.566,-0.824,0.009,-0.017,-0.002,-0.008,-0.004,0.006,-0.04,-0.602,2.065
2024-09-23 11:27:04.380,161957.217,-0.031,0.57,-0.821,-0.001,0.001,0.003,-0.08,0.052,0.015,-0.038,-0.606,2.066
2024-09-23 11:27:04.500,161957.337,-0.028,0.576,-0.817,-0.005,-0.019,-0.006,-0.18,0.051,-0.032,-0.034,-0.614,2.065
2024-09-23 11:27:04.620,161957.457,-0.028,0.589,-0.808,0.019,0.029,0.02,-0.14,0.01,-0.013,-0.035,-0.629,2.062
2024-09-23 11:27:04.739,161957.577,-0.026,0.606,-0.795,-0.011,-0.047,-0.01,-0.525,0.094,-0.103,-0.033,-0.652,2.057
2024-09-23 11:27:04.859,161957.696,-0.015,0.63,-0.777,-0.217,0.045,0.084,-0.481,0.034,0.001,-0.019,-0.681,2.055
2024-09-23 11:27:04.979,161957.816,-0.002,0.628,-0.778,0.039,0.02,0.009,0.153,0.014,0.179,-0.003,-0.679,2.071
2024-09-23 11:27:05.099,161957.936,0.004,0.623,-0.782,0.019,0.036,0.021,0.155,-0.037,-0.044,0.005,-0.672,2.071
2024-09-23 11:27:05.218,161958.056,-0.004,0.615,-0.788,0.004,0.013,0.002,0.056,-0.018,-0.044,-0.005,-0.663,2.063
2024-09-23 11:27:05.338,161958.176,-0.004,0.608,-0.794,-0.008,0.003,-0.005,0.128,0.043,-0.042,-0.005,-0.654,2.058
2024-09-23 11:27:05.459,161958.295,-0.005,0.589,-0.808,-0.007,-0.012,-0.006,0.053,-0.03,0.017,-0.006,-0.629,2.059
2024-09-23 11:27:05.578,161958.415,-0.009,0.569,-0.823,-0.009,-0.015,-0.007,0.14,-0.031,0.001,-0.011,-0.605,2.061
2024-09-23 11:27:05.698,161958.535,-0.007,0.575,-0.818,-0.006,-0.041,-0.005,-0.223,0.079,0.016,-0.008,-0.613,2.063
2024-09-23 11:27:05.818,161958.655,-0.0,0.576,-0.817,0.012,0.002,0.008,0.056,-0.003,0.031,-0.0,-0.614,2.067
2024-09-23 11:27:05.937,161958.775,-0.005,0.566,-0.824,0.013,-0.014,0.012,0.162,-0.107,0.007,-0.006,-0.602,2.072
2024-09-23 11:27:06.057,161958.894,-0.008,0.558,-0.83,-0.003,-0.018,-0.007,0.032,-0.024,0.01,-0.009,-0.591,2.075
2024-09-23 11:27:06.177,161959.014,-0.007,0.557,-0.83,-0.007,-0.006,0.0,-0.059,0.039,0.035,-0.008,-0.591,2.077
2024-09-23 11:27:06.297,161959.134,-0.001,0.565,-0.825,-0.002,-0.009,0.004,-0.111,0.044,-0.007,-0.001,-0.6,2.079
2024-09-23 11:27:06.417,161959.254,0.004,0.578,-0.816,-0.008,-0.03,-0.011,-0.179,0.035,0.002,0.004,-0.617,2.081
2024-09-23 11:27:06.536,161959.374,0.004,0.599,-0.801,-0.013,-0.02,-0.003,-0.291,0.008,-0.06,0.005,-0.642,2.078
2024-09-23 11:27:06.656,161959.493,0.013,0.614,-0.789,-0.021,-0.007,0.009,0.136,-0.132,0.031,0.016,-0.662,2.08
2024-09-23 11:27:06.776,161959.613,0.02,0.608,-0.794,0.085,-0.072,-0.05,0.401,0.071,-0.098,0.025,-0.653,2.099
2024-09-23 11:27:06.896,161959.733,0.012,0.607,-0.795,0.03,-0.082,0.004,0.049,-0.017,-0.045,0.015,-0.652,2.086
2024-09-23 11:27:07.015,161959.853,0.014,0.597,-0.802,0.004,-0.014,0.008,0.137,0.015,-0.007,0.018,-0.64,2.084
2024-09-23 11:27:07.135,161959.973,0.012,0.577,-0.817,0.006,0.018,-0.0,0.321,-0.017,-0.069,0.015,-0.615,2.079
2024-09-23 11:27:07.255,161960.092,0.01,0.564,-0.826,-0.011,-0.041,0.001,0.027,-0.002,-0.025,0.013,-0.599,2.08
2024-09-23 11:27:07.375,161960.212,0.006,0.549,-0.836,0.001,-0.054,-0.002,0.121,-0.069,0.018,0.007,-0.581,2.083
2024-09-23 11:27:07.496,161960.332,0.001,0.538,-0.843,0.001,-0.006,-0.001,-0.118,0.015,0.025,0.002,-0.568,2.085
2024-09-23 11:27:07.615,161960.452,0.01,0.558,-0.83,0.008,0.041,0.005,-0.017,0.049,0.023,0.012,-0.592,2.087
2024-09-23 11:27:07.734,161960.572,0.009,0.552,-0.834,0.004,-0.005,0.008,0.121,-0.055,0.043,0.011,-0.585,2.089
2024-09-23 11:27:07.854,161960.691,0.004,0.539,-0.842,-0.005,-0.017,-0.006,0.025,-0.014,0.006,0.005,-0.569,2.092
2024-09-23 11:27:07.974,161960.811,0.005,0.531,-0.848,-0.001,-0.0,0.009,0.063,-0.001,0.03,0.006,-0.559,2.096
2024-09-23 11:27:08.094,161960.931,0.009,0.533,-0.846,-0.004,0.001,-0.001,-0.028,0.043,0.042,0.011,-0.562,2.098
2024-09-23 11:27:08.214,161961.051,0.014,0.542,-0.84,-0.003,-0.035,-0.007,-0.206,0.049,0.004,0.017,-0.572,2.1
2024-09-23 11:27:08.333,161961.171,0.018,0.557,-0.83,0.005,-0.045,-0.004,-0.335,0.039,-0.049,0.021,-0.591,2.1
2024-09-23 11:27:08.453,161961.29,0.015,0.585,-0.811,-0.011,0.032,-0.004,-0.27,0.041,-0.04,0.018,-0.625,2.094
2024-09-23 11:27:08.573,161961.41,0.019,0.613,-0.79,-0.009,0.106,0.006,0.237,0.094,0.072,0.024,-0.66,2.095
2024-09-23 11:27:08.693,161961.53,0.028,0.607,-0.794,0.067,0.054,-0.06,-0.029,0.071,0.073,0.035,-0.653,2.114
2024-09-23 11:27:08.812,161961.65,0.047,0.608,-0.793,0.015,0.078,0.037,-0.198,0.056,0.123,0.06,-0.653,2.117
2024-09-23 11:27:08.933,161961.77,0.058,0.605,-0.794,0.001,0.049,-0.01,0.109,0.083,-0.021,0.074,-0.65,2.116
2024-09-23 11:27:09.052,161961.889,0.061,0.6,-0.798,0.007,-0.011,0.004,-0.024,0.016,-0.021,0.077,-0.643,2.112
2024-09-23 11:27:09.172,161962.009,0.059,0.595,-0.802,0.001,0.015,0.003,0.15,0.012,-0.038,0.073,-0.637,2.107
2024-09-23 11:27:09.292,161962.129,0.06,0.569,-0.82,-0.04,-0.024,0.026,0.207,-0.015,0.048,0.073,-0.605,2.108
2024-09-23 11:27:09.411,161962.249,0.06,0.558,-0.828,0.012,0.007,0.013,0.21,-0.05,-0.003,0.072,-0.592,2.108
2024-09-23 11:27:09.531,161962.369,0.055,0.55,-0.833,0.008,-0.011,-0.003,-0.074,-0.004,-0.004,0.066,-0.583,2.109
2024-09-23 11:27:09.651,161962.488,0.058,0.555,-0.83,0.015,0.001,0.01,0.027,-0.0,0.004,0.07,-0.588,2.109
2024-09-23 11:27:09.771,161962.608,0.053,0.55,-0.834,0.009,0.007,0.014,0.114,-0.093,0.015,0.063,-0.582,2.109
2024-09-23 11:27:09.890,161962.728,0.051,0.544,-0.837,-0.001,0.03,0.012,0.103,-0.011,0.041,0.061,-0.575,2.112
2024-09-23 11:27:10.011,161962.848,0.053,0.544,-0.837,-0.006,0.022,0.014,-0.009,0.05,-0.003,0.064,-0.575,2.114
2024-09-23 11:27:10.130,161962.968,0.056,0.549,-0.834,0.006,-0.013,0.004,-0.114,0.026,-0.007,0.067,-0.581,2.113
2024-09-23 11:27:10.250,161963.087,0.056,0.558,-0.828,0.004,0.014,0.001,-0.065,-0.022,0.002,0.068,-0.592,2.115
2024-09-23 11:27:10.370,161963.207,0.053,0.568,-0.821,0.004,-0.022,-0.018,-0.056,-0.056,-0.036,0.064,-0.604,2.117
2024-09-23 11:27:10.490,161963.327,0.054,0.58,-0.812,-0.056,-0.075,0.029,-0.353,0.079,-0.041,0.066,-0.619,2.116
2024-09-23 11:27:10.610,161963.447,0.056,0.631,-0.773,0.031,0.009,-0.005,-0.358,0.009,-0.063,0.072,-0.683,2.112
2024-09-23 11:27:10.729,161963.567,0.063,0.668,-0.742,-0.002,-0.019,0.001,-0.49,0.125,-0.041,0.084,-0.731,2.113
2024-09-23 11:27:10.849,161963.686,0.071,0.714,-0.696,-0.0,-0.018,-0.02,-0.687,0.263,-0.073,0.102,-0.796,2.116
2024-09-23 11:27:10.969,161963.806,0.094,0.738,-0.668,0.073,-0.012,-0.062,-0.116,0.274,0.044,0.14,-0.83,2.135
2024-09-23 11:27:11.089,161963.926,0.105,0.723,-0.683,0.093,-0.135,-0.05,-0.178,0.034,-0.267,0.152,-0.809,2.125
2024-09-23 11:27:11.209,161964.046,0.051,0.749,-0.661,-0.043,0.114,0.052,0.522,-0.408,-0.421,0.077,-0.846,2.057
2024-09-23 11:27:11.328,161964.166,-0.02,0.74,-0.672,-0.1,0.056,0.104,-0.016,-0.219,-0.355,-0.03,-0.833,1.973
2024-09-23 11:27:11.447,161964.285,-0.026,0.706,-0.707,0.005,-0.057,0.028,0.225,0.054,-0.035,-0.037,-0.784,1.969
2024-09-23 11:27:11.568,161964.405,-0.019,0.665,-0.746,0.088,0.059,0.015,0.346,-0.132,0.275,-0.025,-0.728,1.994
2024-09-23 11:27:11.688,161964.525,-0.019,0.658,-0.753,0.009,-0.036,0.092,-0.276,-0.272,0.214,-0.026,-0.718,2.037
2024-09-23 11:27:11.808,161964.645,-0.042,0.664,-0.746,-0.116,0.094,-0.002,0.322,-0.009,0.09,-0.056,-0.727,2.037
2024-09-23 11:27:11.927,161964.765,-0.048,0.636,-0.771,0.026,0.025,-0.053,0.048,-0.058,0.044,-0.062,-0.689,2.047
2024-09-23 11:27:12.048,161964.884,-0.05,0.638,-0.769,-0.01,0.024,0.008,0.01,0.001,-0.096,-0.065,-0.691,2.043
2024-09-23 11:27:12.167,161965.004,-0.05,0.641,-0.766,-0.011,0.018,-0.01,-0.075,0.114,-0.066,-0.066,-0.696,2.029
2024-09-23 11:27:12.287,161965.124,-0.051,0.632,-0.773,0.008,-0.006,0.026,0.176,0.016,-0.043,-0.066,-0.684,2.024
2024-09-23 11:27:12.407,161965.244,-0.051,0.609,-0.792,0.007,0.038,-0.001,0.184,-0.034,0.013,-0.064,-0.654,2.025
2024-09-23 11:27:12.527,161965.364,-0.052,0.6,-0.798,-0.004,0.003,0.017,0.171,-0.062,0.019,-0.065,-0.644,2.026
2024-09-23 11:27:12.645,161965.483,-0.056,0.584,-0.81,-0.011,-0.022,-0.029,0.039,-0.024,0.021,-0.069,-0.623,2.03
2024-09-23 11:27:12.766,161965.603,-0.054,0.587,-0.808,-0.013,0.014,0.009,-0.052,0.05,-0.012,-0.067,-0.628,2.03
2024-09-23 11:27:12.886,161965.723,-0.055,0.583,-0.81,0.002,0.005,0.004,0.064,-0.036,0.028,-0.067,-0.623,2.03
2024-09-23 11:27:13.007,161965.843,-0.057,0.568,-0.821,-0.004,-0.043,-0.016,-0.035,-0.048,0.034,-0.07,-0.604,2.037
2024-09-23 11:27:13.126,161965.963,-0.056,0.584,-0.81,-0.014,-0.023,0.012,-0.164,0.057,-0.008,-0.069,-0.624,2.034
2024-09-23 11:27:13.245,161966.082,-0.055,0.583,-0.811,-0.002,0.01,0.005,0.078,-0.014,0.048,-0.068,-0.622,2.034
2024-09-23 11:27:13.365,161966.202,-0.056,0.577,-0.815,-0.003,0.025,0.007,0.052,-0.032,0.017,-0.068,-0.615,2.041
2024-09-23 11:27:13.485,161966.322,-0.058,0.582,-0.811,-0.015,-0.044,0.007,-0.308,0.061,-0.053,-0.071,-0.621,2.038
2024-09-23 11:27:13.604,161966.442,-0.058,0.592,-0.804,0.006,0.024,0.012,0.135,-0.048,-0.05,-0.072,-0.634,2.031
2024-09-23 11:27:13.725,161966.562,-0.058,0.581,-0.812,0.005,0.026,0.014,0.221,-0.002,0.008,-0.071,-0.62,2.035
2024-09-23 11:27:13.844,161966.681,-0.059,0.57,-0.819,-0.003,-0.012,0.01,0.013,0.011,0.022,-0.072,-0.607,2.037
2024-09-23 11:27:13.964,161966.801,-0.058,0.575,-0.816,-0.01,0.001,-0.004,-0.235,0.012,-0.034,-0.071,-0.613,2.039
2024-09-23 11:27:14.084,161966.921,-0.049,0.623,-0.781,0.026,-0.032,-0.039,0.006,0.147,-0.33,-0.062,-0.673,2.029
2024-09-23 11:27:14.204,161967.041,-0.045,0.621,-0.782,-0.024,-0.067,0.031,-0.178,0.105,-0.085,-0.057,-0.67,2.016
2024-09-23 11:27:14.324,161967.161,-0.037,0.633,-0.773,0.014,-0.015,0.054,-0.253,0.137,-0.054,-0.048,-0.685,2.004
2024-09-23 11:27:14.443,161967.28,-0.035,0.623,-0.781,0.011,0.007,0.02,0.082,-0.107,0.037,-0.045,-0.673,2.008
2024-09-23 11:27:14.563,161967.4,-0.049,0.636,-0.77,-0.042,0.078,-0.115,0.074,-0.122,0.054,-0.064,-0.689,2.009
2024-09-23 11:27:14.683,161967.52,-0.052,0.64,-0.767,0.004,0.018,-0.007,0.02,-0.018,0.003,-0.068,-0.694,2.008
2024-09-23 11:27:14.803,161967.64,-0.054,0.634,-0.771,-0.01,0.005,0.014,0.121,-0.025,0.007,-0.071,-0.687,2.01
2024-09-23 11:27:14.923,161967.76,-0.055,0.62,-0.783,0.005,-0.006,-0.003,0.243,-0.003,-0.005,-0.07,-0.668,2.011
2024-09-23 11:27:15.042,161967.879,-0.054,0.61,-0.791,0.003,-0.039,-0.001,-0.033,-0.006,0.02,-0.068,-0.656,2.014
2024-09-23 11:27:15.162,161967.999,-0.053,0.609,-0.791,0.0,-0.001,0.015,0.011,0.017,-0.002,-0.067,-0.655,2.013
2024-09-23 11:27:15.282,161968.119,-0.053,0.603,-0.796,0.01,-0.027,0.005,0.087,-0.01,0.06,-0.066,-0.647,2.018
2024-09-23 11:27:15.401,161968.239,-0.051,0.594,-0.803,0.016,-0.016,-0.011,0.025,-0.026,0.004,-0.064,-0.636,2.027
2024-09-23 11:27:15.521,161968.359,-0.056,0.593,-0.803,-0.005,-0.033,-0.047,-0.175,0.002,-0.048,-0.07,-0.635,2.021
2024-09-23 11:27:15.642,161968.478,-0.056,0.597,-0.8,0.006,0.002,0.003,0.083,0.034,-0.005,-0.069,-0.64,2.017
2024-09-23 11:27:15.761,161968.598,-0.053,0.589,-0.806,-0.006,0.0,-0.001,0.054,-0.005,0.047,-0.065,-0.63,2.023
2024-09-23 11:27:15.883,161968.718,-0.057,0.613,-0.788,-0.064,-0.02,-0.02,-0.476,0.061,-0.03,-0.072,-0.659,2.017
2024-09-23 11:27:16.000,161968.838,-0.041,0.634,-0.772,-0.015,0.155,-0.004,-0.164,0.024,0.361,-0.053,-0.686,2.039
2024-09-23 11:27:16.120,161968.958,-0.043,0.628,-0.777,0.053,-0.164,-0.223,-0.576,0.194,-0.192,-0.055,-0.679,2.048
2024-09-23 11:27:16.240,161969.077,-0.043,0.626,-0.779,-0.007,-0.021,-0.064,-0.037,0.089,0.002,-0.055,-0.676,2.04
2024-09-23 11:27:16.360,161969.197,-0.039,0.623,-0.781,-0.005,-0.043,0.016,0.002,-0.013,-0.015,-0.049,-0.673,2.043
2024-09-23 11:27:16.480,161969.317,-0.043,0.616,-0.786,0.01,0.019,0.007,0.207,0.013,-0.029,-0.054,-0.664,2.04
2024-09-23 11:27:16.599,161969.437,-0.043,0.598,-0.801,-0.018,-0.027,0.01,0.068,-0.051,0.026,-0.054,-0.641,2.045
2024-09-23 11:27:16.720,161969.557,-0.047,0.589,-0.807,-0.007,-0.002,-0.014,0.055,-0.013,-0.005,-0.058,-0.629,2.045
2024-09-23 11:27:16.845,161969.676,-0.048,0.583,-0.811,0.002,-0.021,-0.018,-0.072,-0.032,0.025,-0.06,-0.622,2.048
2024-09-23 11:27:16.959,161969.796,-0.047,0.589,-0.807,0.007,0.042,0.003,0.051,0.01,-0.004,-0.059,-0.63,2.046
2024-09-23 11:27:17.079,161969.916,-0.05,0.581,-0.813,-0.001,0.003,0.017,0.196,-0.081,0.071,-0.061,-0.619,2.05
2024-09-23 11:27:17.198,161970.036,-0.049,0.583,-0.811,-0.019,-0.052,-0.007,-0.204,0.059,-0.021,-0.061,-0.623,2.053
2024-09-23 11:27:17.318,161970.156,-0.049,0.585,-0.81,0.0,0.0,0.002,0.08,-0.018,-0.002,-0.06,-0.625,2.05
2024-09-23 11:27:17.438,161970.275,-0.048,0.579,-0.814,-0.005,0.001,0.002,0.064,-0.025,0.051,-0.058,-0.618,2.056
2024-09-23 11:27:17.558,161970.395,-0.051,0.591,-0.805,-0.025,-0.054,-0.008,-0.505,0.061,-0.062,-0.064,-0.632,2.054
2024-09-23 11:27:17.678,161970.515,-0.051,0.604,-0.795,0.003,-0.018,0.001,0.077,0.015,-0.056,-0.064,-0.648,2.045
2024-09-23 11:27:17.798,161970.635,-0.053,0.586,-0.809,-0.018,-0.053,0.015,0.095,-0.008,0.026,-0.065,-0.626,2.047
2024-09-23 11:27:17.918,161970.755,-0.054,0.575,-0.816,-0.004,-0.005,0.007,0.008,0.014,0.038,-0.066,-0.613,2.049
2024-09-23 11:27:18.037,161970.874,-0.05,0.593,-0.803,-0.023,-0.062,0.024,-0.616,0.02,-0.02,-0.063,-0.635,2.05
2024-09-23 11:27:18.157,161970.994,-0.046,0.631,-0.775,0.034,-0.014,-0.002,-0.009,0.046,-0.035,-0.059,-0.682,2.041
2024-09-23 11:27:18.277,161971.114,-0.05,0.618,-0.785,-0.024,0.002,0.017,0.014,-0.045,-0.012,-0.063,-0.666,2.038
2024-09-23 11:27:18.397,161971.234,-0.051,0.614,-0.788,-0.002,0.03,0.008,0.182,0.003,0.005,-0.065,-0.661,2.035
2024-09-23 11:27:18.516,161971.354,-0.05,0.595,-0.802,0.002,-0.014,0.005,0.06,0.015,0.016,-0.062,-0.637,2.042
2024-09-23 11:27:18.637,161971.473,-0.05,0.597,-0.8,0.011,0.006,-0.026,-0.08,0.006,-0.019,-0.062,-0.64,2.04
2024-09-23 11:27:18.756,161971.593,-0.051,0.59,-0.805,0.004,-0.005,-0.008,0.005,0.004,0.01,-0.063,-0.632,2.04
2024-09-23 11:27:18.876,161971.713,-0.05,0.59,-0.806,0.006,0.009,-0.007,0.029,-0.045,0.067,-0.062,-0.631,2.045
2024-09-23 11:27:18.995,161971.833,-0.051,0.586,-0.809,-0.014,0.009,0.048,0.189,-0.085,0.065,-0.063,-0.626,2.052
2024-09-23 11:27:19.115,161971.953,-0.055,0.586,-0.809,-0.015,-0.029,-0.069,-0.32,0.032,-0.058,-0.068,-0.626,2.048
2024-09-23 11:27:19.235,161972.072,-0.054,0.595,-0.802,-0.001,-0.0,-0.008,-0.023,0.021,-0.01,-0.067,-0.638,2.044
2024-09-23 11:27:19.355,161972.192,-0.054,0.588,-0.807,0.008,0.023,0.008,0.043,0.019,0.024,-0.067,-0.629,2.043
2024-09-23 11:27:19.475,161972.312,-0.052,0.578,-0.814,-0.012,-0.01,0.002,0.13,-0.022,0.005,-0.063,-0.616,2.05
2024-09-23 11:27:19.594,161972.432,-0.051,0.599,-0.799,-0.034,0.075,0.0,-0.026,0.047,0.074,-0.064,-0.642,2.051
2024-09-23 11:27:19.714,161972.552,-0.034,0.598,-0.8,-0.007,0.063,0.091,0.122,-0.261,0.267,-0.042,-0.642,2.083
2024-09-23 11:27:19.834,161972.671,-0.045,0.614,-0.788,-0.003,-0.144,0.088,-0.142,-0.006,-0.204,-0.057,-0.661,2.072
2024-09-23 11:27:19.954,161972.791,-0.05,0.614,-0.788,-0.024,-0.024,-0.012,-0.098,0.03,-0.04,-0.063,-0.661,2.065
2024-09-23 11:27:20.074,161972.911,-0.051,0.619,-0.784,0.007,0.03,-0.019,0.029,-0.035,0.003,-0.065,-0.667,2.062
2024-09-23 11:27:20.194,161973.031,-0.053,0.616,-0.786,-0.006,-0.014,0.009,0.07,0.004,-0.013,-0.067,-0.664,2.061
2024-09-23 11:27:20.313,161973.151,-0.05,0.598,-0.8,0.007,-0.076,0.007,0.049,0.005,0.033,-0.062,-0.641,2.068
2024-09-23 11:27:20.434,161973.27,-0.05,0.585,-0.809,0.023,0.021,0.012,0.159,-0.058,-0.014,-0.062,-0.625,2.07
2024-09-23 11:27:20.553,161973.39,-0.051,0.59,-0.806,-0.025,-0.019,0.001,-0.119,0.056,-0.006,-0.063,-0.631,2.07
2024-09-23 11:27:20.673,161973.51,-0.05,0.59,-0.806,-0.001,0.015,0.003,0.091,-0.024,0.005,-0.062,-0.631,2.07
2024-09-23 11:27:20.792,161973.63,-0.053,0.574,-0.817,0.004,-0.042,0.006,0.094,-0.095,0.044,-0.065,-0.611,2.078
2024-09-23 11:27:20.912,161973.75,-0.052,0.585,-0.809,-0.018,-0.053,-0.002,-0.222,0.087,-0.014,-0.064,-0.625,2.079
2024-09-23 11:27:21.032,161973.869,-0.051,0.583,-0.811,-0.01,0.005,0.007,0.083,-0.018,0.049,-0.063,-0.623,2.081
2024-09-23 11:27:21.152,161973.989,-0.052,0.575,-0.817,0.0,-0.058,-0.002,0.03,-0.022,-0.034,-0.063,-0.613,2.085
2024-09-23 11:27:21.272,161974.109,-0.051,0.586,-0.808,0.009,0.052,-0.004,0.011,0.027,-0.012,-0.063,-0.627,2.08
2024-09-23 11:27:21.392,161974.229,-0.053,0.579,-0.814,-0.01,-0.033,-0.004,0.044,-0.007,-0.015,-0.065,-0.617,2.079
2024-09-23 11:27:21.511,161974.349,-0.052,0.567,-0.822,0.001,-0.023,0.0,-0.004,0.001,0.018,-0.064,-0.603,2.081
2024-09-23 11:27:21.631,161974.468,-0.051,0.576,-0.816,-0.003,-0.007,0.018,-0.207,0.058,0.005,-0.063,-0.614,2.081
2024-09-23 11:27:21.751,161974.588,-0.043,0.605,-0.795,-0.046,0.027,-0.07,-0.212,0.228,-0.009,-0.054,-0.649,2.072
2024-09-23 11:27:21.871,161974.708,-0.051,0.595,-0.802,-0.01,-0.033,-0.03,0.015,-0.105,-0.029,-0.064,-0.637,2.069
2024-09-23 11:27:21.990,161974.828,-0.052,0.601,-0.797,0.001,-0.028,-0.015,-0.12,0.074,-0.051,-0.066,-0.645,2.064
2024-09-23 11:27:22.110,161974.948,-0.053,0.594,-0.803,0.003,0.025,0.006,0.301,-0.048,0.004,-0.066,-0.636,2.063
2024-09-23 11:27:22.230,161975.067,-0.052,0.585,-0.809,-0.023,-0.039,-0.008,-0.034,0.064,-0.034,-0.064,-0.625,2.065
2024-09-23 11:27:22.350,161975.187,-0.052,0.583,-0.811,0.008,-0.013,0.005,0.067,-0.021,-0.002,-0.063,-0.622,2.063
2024-09-23 11:27:22.470,161975.307,-0.051,0.579,-0.814,-0.002,0.016,-0.003,0.051,0.014,0.023,-0.063,-0.618,2.065
2024-09-23 11:27:22.590,161975.427,-0.05,0.579,-0.814,0.001,0.007,0.005,-0.018,-0.033,0.046,-0.061,-0.618,2.069
2024-09-23 11:27:22.709,161975.547,-0.049,0.577,-0.815,-0.007,0.044,0.002,0.066,-0.02,0.062,-0.061,-0.615,2.075
2024-09-23 11:27:22.829,161975.666,-0.049,0.574,-0.817,0.015,0.004,0.008,0.107,-0.056,0.025,-0.06,-0.612,2.079
2024-09-23 11:27:22.949,161975.786,-0.05,0.572,-0.819,0.003,-0.012,0.037,0.03,-0.019,-0.039,-0.061,-0.609,2.079
2024-09-23 11:27:23.069,161975.906,-0.053,0.582,-0.811,0.008,0.017,0.01,-0.059,0.015,-0.026,-0.065,-0.621,2.072
2024-09-23 11:27:23.189,161976.026,-0.053,0.579,-0.814,0.013,-0.037,-0.008,0.125,0.0,0.051,-0.065,-0.618,2.069
2024-09-23 11:27:23.308,161976.146,-0.05,0.566,-0.823,-0.009,0.04,0.039,0.251,-0.001,-0.016,-0.06,-0.602,2.076
2024-09-23 11:27:23.428,161976.265,-0.05,0.587,-0.808,-0.038,0.091,-0.028,-0.192,0.092,0.103,-0.062,-0.628,2.081
2024-09-23 11:27:23.548,161976.385,-0.022,0.615,-0.788,-0.029,-0.008,0.116,-0.407,-0.04,0.103,-0.028,-0.663,2.114
2024-09-23 11:27:23.668,161976.505,-0.025,0.631,-0.776,0.105,-0.139,0.182,0.042,-0.002,-0.161,-0.032,-0.682,2.087
2024-09-23 11:27:23.787,161976.625,-0.029,0.623,-0.782,-0.017,0.006,0.016,0.109,0.053,-0.059,-0.038,-0.672,2.075
2024-09-23 11:27:23.907,161976.745,-0.028,0.611,-0.791,0.005,0.028,-0.003,0.166,-0.022,-0.028,-0.036,-0.657,2.075
2024-09-23 11:27:24.027,161976.864,-0.03,0.603,-0.797,0.005,-0.003,0.007,0.155,0.0,-0.021,-0.037,-0.648,2.075
2024-09-23 11:27:24.147,161976.984,-0.027,0.586,-0.81,-0.023,-0.029,-0.005,0.034,0.026,-0.023,-0.033,-0.626,2.08
2024-09-23 11:27:24.267,161977.104,-0.028,0.571,-0.82,0.005,-0.0,-0.004,0.083,-0.047,0.027,-0.034,-0.608,2.083
2024-09-23 11:27:24.386,161977.224,-0.029,0.58,-0.814,-0.002,-0.014,0.016,-0.032,0.033,0.019,-0.035,-0.618,2.082
2024-09-23 11:27:24.505,161977.344,-0.028,0.576,-0.817,0.013,0.017,0.007,0.124,-0.077,0.057,-0.034,-0.614,2.086
2024-09-23 11:27:24.627,161977.463,-0.035,0.559,-0.828,-0.025,-0.082,-0.011,-0.125,-0.044,-0.02,-0.042,-0.593,2.094
2024-09-23 11:27:24.746,161977.583,-0.031,0.574,-0.819,0.005,0.003,0.006,-0.024,0.036,-0.008,-0.038,-0.611,2.091
2024-09-23 11:27:24.866,161977.703,-0.028,0.573,-0.819,0.001,-0.002,0.003,0.065,-0.04,0.047,-0.035,-0.611,2.099
2024-09-23 11:27:24.986,161977.823,-0.03,0.57,-0.821,-0.018,-0.053,0.002,-0.115,0.05,-0.048,-0.037,-0.606,2.1
2024-09-23 11:27:25.105,161977.943,-0.028,0.575,-0.818,0.001,0.038,0.002,0.16,-0.024,-0.018,-0.034,-0.612,2.095
2024-09-23 11:27:25.226,161978.062,-0.031,0.561,-0.827,0.006,0.016,0.019,0.245,-0.037,0.02,-0.037,-0.596,2.096
2024-09-23 11:27:25.345,161978.182,-0.03,0.564,-0.825,-0.006,-0.044,-0.019,-0.266,0.048,0.002,-0.036,-0.6,2.096
2024-09-23 11:27:25.465,161978.302,-0.017,0.618,-0.786,-0.081,0.045,-0.047,-0.218,0.269,-0.101,-0.022,-0.666,2.091
2024-09-23 11:27:25.585,161978.422,-0.014,0.616,-0.787,0.013,-0.016,0.026,0.022,-0.011,-0.006,-0.018,-0.664,2.084
2024-09-23 11:27:25.704,161978.542,-0.019,0.615,-0.788,-0.003,-0.001,-0.006,0.047,-0.012,-0.017,-0.024,-0.662,2.081
2024-09-23 11:27:25.824,161978.661,-0.021,0.604,-0.797,-0.022,-0.082,-0.0,0.058,-0.033,0.021,-0.026,-0.649,2.081
2024-09-23 11:27:25.944,161978.781,-0.02,0.604,-0.797,0.013,0.036,0.021,0.059,-0.0,0.046,-0.026,-0.649,2.081
2024-09-23 11:27:26.064,161978.901,-0.02,0.601,-0.799,0.007,0.017,0.013,0.047,-0.01,0.002,-0.025,-0.645,2.081
2024-09-23 11:27:26.185,161979.021,-0.02,0.601,-0.799,0.001,-0.013,0.003,-0.001,-0.019,0.005,-0.025,-0.644,2.081
2024-09-23 11:27:26.304,161979.141,-0.02,0.599,-0.8,-0.001,-0.006,0.011,0.038,-0.002,0.013,-0.025,-0.642,2.082
2024-09-23 11:27:26.423,161979.26,-0.018,0.6,-0.8,-0.003,-0.021,-0.012,0.044,-0.005,0.041,-0.023,-0.643,2.085
2024-09-23 11:27:26.543,161979.38,-0.017,0.594,-0.805,0.016,0.005,0.013,0.104,-0.032,0.049,-0.021,-0.636,2.094
2024-09-23 11:27:26.663,161979.5,-0.021,0.584,-0.811,0.012,0.03,0.017,0.188,-0.085,-0.002,-0.026,-0.624,2.1
2024-09-23 11:27:26.782,161979.62,-0.026,0.583,-0.812,-0.033,-0.036,-0.031,-0.267,0.057,-0.045,-0.032,-0.623,2.093
2024-09-23 11:27:26.903,161979.74,-0.025,0.584,-0.812,0.002,0.015,0.01,0.145,0.029,-0.024,-0.03,-0.623,2.088
2024-09-23 11:27:27.022,161979.859,-0.024,0.571,-0.821,0.002,-0.029,0.006,0.017,0.002,0.028,-0.029,-0.608,2.089
2024-09-23 11:27:27.142,161979.979,-0.023,0.557,-0.83,-0.012,-0.025,0.005,0.233,-0.038,0.005,-0.028,-0.591,2.094
2024-09-23 11:27:27.262,161980.099,-0.022,0.579,-0.815,-0.007,0.054,0.004,-0.103,0.113,0.132,-0.027,-0.617,2.098
2024-09-23 11:27:27.381,161980.219,0.015,0.607,-0.794,-0.055,0.132,0.092,-0.147,0.004,0.286,0.019,-0.653,2.126
2024-09-23 11:27:27.501,161980.339,0.014,0.63,-0.776,0.01,-0.152,-0.004,-0.242,-0.03,-0.306,0.018,-0.682,2.119
2024-09-23 11:27:27.621,161980.458,0.002,0.624,-0.781,-0.0,-0.04,0.013,-0.069,0.002,-0.061,0.002,-0.674,2.105
2024-09-23 11:27:27.741,161980.578,0.002,0.614,-0.789,0.005,-0.008,-0.003,0.008,-0.008,-0.023,0.002,-0.661,2.106
2024-09-23 11:27:27.861,161980.698,-0.001,0.604,-0.797,0.0,0.005,0.01,0.236,-0.015,0.002,-0.001,-0.648,2.105
2024-09-23 11:27:27.981,161980.818,0.002,0.589,-0.808,-0.029,-0.071,-0.0,0.046,0.004,0.011,0.002,-0.629,2.109
2024-09-23 11:27:28.100,161980.938,-0.002,0.57,-0.822,0.012,-0.02,-0.0,0.229,-0.127,-0.017,-0.002,-0.606,2.112
2024-09-23 11:27:28.220,161981.057,-0.005,0.575,-0.818,-0.006,-0.053,-0.003,-0.196,0.089,-0.021,-0.006,-0.613,2.11
2024-09-23 11:27:28.340,161981.177,-0.001,0.579,-0.816,0.0,0.004,-0.006,0.076,-0.02,0.008,-0.001,-0.617,2.112
2024-09-23 11:27:28.460,161981.297,-0.009,0.559,-0.829,-0.007,-0.085,0.003,0.089,-0.118,0.022,-0.01,-0.593,2.118
2024-09-23 11:27:28.579,161981.417,-0.009,0.573,-0.819,-0.009,0.02,0.007,-0.077,0.093,0.027,-0.011,-0.611,2.118
2024-09-23 11:27:28.699,161981.537,-0.003,0.567,-0.824,0.003,0.008,0.002,0.136,-0.016,0.049,-0.004,-0.603,2.121
2024-09-23 11:27:28.819,161981.656,-0.005,0.559,-0.829,-0.002,0.007,0.009,0.064,-0.02,-0.017,-0.006,-0.594,2.125
2024-09-23 11:27:28.939,161981.776,-0.002,0.569,-0.823,-0.001,-0.021,0.015,-0.152,0.098,0.008,-0.002,-0.605,2.125
2024-09-23 11:27:29.059,161981.896,-0.004,0.563,-0.826,-0.002,0.005,0.001,0.076,-0.016,0.001,-0.004,-0.598,2.121
2024-09-23 11:27:29.179,161982.016,-0.004,0.549,-0.836,-0.003,-0.035,-0.0,0.059,0.011,0.02,-0.004,-0.581,2.122
2024-09-23 11:27:29.298,161982.136,-0.001,0.558,-0.83,0.005,-0.025,-0.002,-0.267,0.018,0.037,-0.001,-0.592,2.123
2024-09-23 11:27:29.419,161982.255,0.02,0.607,-0.794,0.022,0.116,0.035,-0.131,0.105,-0.019,0.025,-0.653,2.127
2024-09-23 11:27:29.538,161982.375,0.019,0.601,-0.799,0.011,-0.0,-0.007,-0.055,-0.004,-0.012,0.023,-0.645,2.122
2024-09-23 11:27:29.658,161982.495,0.015,0.599,-0.8,0.002,0.021,0.017,0.181,-0.006,-0.011,0.019,-0.643,2.117
2024-09-23 11:27:29.778,161982.615,0.015,0.586,-0.81,0.006,-0.003,0.016,0.153,0.004,-0.011,0.018,-0.626,2.116
2024-09-23 11:27:29.898,161982.735,0.017,0.586,-0.81,-0.002,0.028,-0.003,-0.008,0.008,-0.017,0.021,-0.626,2.115
2024-09-23 11:27:30.017,161982.854,0.014,0.589,-0.808,0.001,-0.013,-0.001,-0.05,-0.024,-0.015,0.017,-0.63,2.113
2024-09-23 11:27:30.137,161982.974,0.013,0.595,-0.803,-0.006,-0.006,-0.005,-0.028,0.004,0.016,0.017,-0.638,2.112
2024-09-23 11:27:30.257,161983.094,0.013,0.598,-0.801,0.002,0.006,0.015,0.031,0.001,0.037,0.017,-0.641,2.113
2024-09-23 11:27:30.376,161983.214,0.016,0.599,-0.8,-0.011,-0.003,-0.007,-0.102,-0.013,0.039,0.02,-0.643,2.118
2024-09-23 11:27:30.496,161983.334,0.013,0.588,-0.809,0.022,-0.041,-0.004,-0.041,-0.046,0.003,0.016,-0.629,2.125
2024-09-23 11:27:30.616,161983.453,0.007,0.571,-0.821,0.017,0.044,0.028,0.163,-0.009,-0.014,0.008,-0.608,2.122
2024-09-23 11:27:30.736,161983.573,0.006,0.575,-0.818,-0.005,-0.026,0.003,-0.052,0.069,-0.017,0.008,-0.613,2.118
2024-09-23 11:27:30.856,161983.693,0.007,0.571,-0.821,0.002,0.007,0.001,0.073,-0.016,0.028,0.009,-0.608,2.117
2024-09-23 11:27:30.976,161983.813,0.006,0.561,-0.828,0.004,-0.021,0.018,0.189,-0.095,0.032,0.007,-0.596,2.12
2024-09-23 11:27:31.095,161983.933,0.009,0.573,-0.82,-0.043,-0.003,0.032,-0.423,-0.004,0.162,0.011,-0.61,2.137
2024-09-23 11:27:31.215,161984.052,0.019,0.596,-0.803,0.011,-0.174,-0.102,-0.288,0.245,-0.111,0.024,-0.638,2.152
2024-09-23 11:27:31.335,161984.172,0.017,0.6,-0.8,-0.002,-0.049,-0.007,0.042,-0.004,-0.087,0.022,-0.643,2.135
2024-09-23 11:27:31.455,161984.292,0.016,0.596,-0.803,0.0,-0.036,-0.012,0.014,0.022,-0.031,0.02,-0.639,2.128
2024-09-23 11:27:31.574,161984.412,0.013,0.584,-0.812,-0.0,0.015,-0.003,0.328,-0.023,-0.034,0.016,-0.623,2.121
2024-09-23 11:27:31.695,161984.532,0.013,0.569,-0.822,-0.002,-0.064,-0.01,0.065,-0.01,-0.011,0.016,-0.605,2.125
2024-09-23 11:27:31.815,161984.651,0.012,0.55,-0.835,-0.006,-0.005,-0.005,0.132,-0.035,0.036,0.014,-0.583,2.125
2024-09-23 11:27:31.934,161984.771,0.014,0.558,-0.83,-0.015,-0.027,0.008,-0.164,0.112,0.043,0.017,-0.592,2.126
2024-09-23 11:27:32.054,161984.891,0.016,0.557,-0.83,-0.003,-0.028,-0.006,0.049,-0.073,-0.0,0.02,-0.591,2.129
2024-09-23 11:27:32.173,161985.011,0.006,0.54,-0.841,0.038,-0.059,-0.031,-0.206,-0.049,0.017,0.007,-0.571,2.137
2024-09-23 11:27:32.293,161985.131,0.013,0.566,-0.824,-0.002,-0.011,0.008,-0.167,0.117,-0.035,0.016,-0.602,2.137
2024-09-23 11:27:32.413,161985.25,0.016,0.566,-0.825,-0.002,-0.015,-0.01,0.001,-0.017,0.042,0.019,-0.601,2.138
2024-09-23 11:27:32.533,161985.37,0.014,0.56,-0.828,0.004,-0.049,0.001,-0.092,-0.047,-0.022,0.017,-0.595,2.143
2024-09-23 11:27:32.653,161985.49,0.014,0.576,-0.817,-0.004,0.024,0.006,0.085,0.003,-0.049,0.018,-0.614,2.138
2024-09-23 11:27:32.772,161985.61,0.014,0.565,-0.825,0.001,-0.002,0.001,0.126,0.008,0.019,0.018,-0.6,2.136
2024-09-23 11:27:32.892,161985.73,0.014,0.554,-0.833,-0.004,-0.001,0.008,0.077,-0.001,0.017,0.017,-0.587,2.137
2024-09-23 11:27:33.012,161985.849,0.019,0.569,-0.822,-0.004,-0.023,0.0,-0.648,0.073,0.002,0.023,-0.605,2.14
2024-09-23 11:27:33.132,161985.969,0.028,0.614,-0.788,-0.087,0.072,0.046,0.156,0.041,-0.019,0.036,-0.662,2.134
2024-09-23 11:27:33.252,161986.089,0.022,0.604,-0.796,-0.002,0.025,-0.006,0.021,-0.071,-0.009,0.027,-0.649,2.126
2024-09-23 11:27:33.372,161986.209,0.018,0.6,-0.8,0.003,0.011,0.016,0.177,-0.005,0.02,0.023,-0.643,2.125
2024-09-23 11:27:33.492,161986.329,0.02,0.594,-0.804,-0.001,-0.02,0.006,-0.074,-0.001,0.044,0.024,-0.636,2.128
2024-09-23 11:27:33.612,161986.448,0.022,0.601,-0.799,0.005,-0.035,0.01,-0.007,0.021,-0.034,0.028,-0.645,2.128
2024-09-23 11:27:33.731,161986.568,0.022,0.599,-0.8,-0.004,-0.005,-0.004,-0.003,-0.022,0.011,0.027,-0.643,2.126
2024-09-23 11:27:33.851,161986.688,0.021,0.6,-0.8,0.002,-0.004,0.002,-0.012,-0.003,-0.01,0.026,-0.643,2.128
2024-09-23 11:27:33.971,161986.808,0.023,0.599,-0.8,-0.006,-0.024,-0.0,0.043,0.011,0.061,0.029,-0.642,2.131
2024-09-23 11:27:34.090,161986.928,0.025,0.594,-0.804,0.007,0.007,0.013,0.042,-0.029,0.051,0.032,-0.636,2.138
2024-09-23 11:27:34.210,161987.047,0.024,0.588,-0.809,-0.008,0.049,0.012,0.071,-0.042,0.014,0.029,-0.628,2.141
2024-09-23 11:27:34.330,161987.167,0.017,0.575,-0.818,0.006,-0.076,-0.006,-0.163,0.01,-0.039,0.021,-0.613,2.136
2024-09-23 11:27:34.450,161987.287,0.015,0.583,-0.813,0.002,0.013,0.003,0.094,0.022,-0.061,0.019,-0.622,2.13
2024-09-23 11:27:34.570,161987.407,0.015,0.571,-0.821,-0.001,0.0,-0.002,0.037,0.001,0.028,0.018,-0.608,2.126
2024-09-23 11:27:34.690,161987.527,0.015,0.565,-0.825,0.001,-0.073,0.003,0.084,-0.019,-0.035,0.018,-0.601,2.128
2024-09-23 11:27:34.809,161987.646,0.012,0.588,-0.809,-0.003,0.059,0.004,-0.19,-0.004,0.031,0.015,-0.629,2.13
2024-09-23 11:27:34.929,161987.766,0.021,0.63,-0.776,-0.005,-0.041,-0.014,-0.69,0.209,-0.005,0.027,-0.681,2.128
2024-09-23 11:27:35.049,161987.886,0.04,0.731,-0.681,-0.006,-0.036,-0.043,-1.573,0.296,-0.183,0.059,-0.82,2.128
2024-09-23 11:27:35.169,161988.006,0.055,0.759,-0.649,0.012,-0.013,-0.202,0.662,0.136,-0.179,0.085,-0.862,2.125
2024-09-23 11:27:35.288,161988.126,0.037,0.746,-0.665,0.049,0.046,-0.024,0.261,-0.223,-0.168,0.055,-0.842,2.091
2024-09-23 11:27:35.408,161988.245,-0.004,0.74,-0.673,-0.002,-0.014,0.064,0.075,-0.367,-0.161,-0.006,-0.833,2.057
2024-09-23 11:27:35.529,161988.365,-0.051,0.748,-0.662,-0.129,-0.027,0.043,0.066,-0.095,-0.363,-0.077,-0.845,2.002
2024-09-23 11:27:35.648,161988.485,-0.053,0.742,-0.668,0.031,0.026,0.023,0.49,0.029,-0.013,-0.08,-0.836,1.984
2024-09-23 11:27:35.767,161988.605,-0.054,0.697,-0.715,-0.041,-0.049,0.022,0.166,0.061,-0.002,-0.075,-0.771,1.991
2024-09-23 11:27:35.887,161988.725,-0.048,0.666,-0.744,0.014,0.13,-0.018,0.798,0.113,0.032,-0.065,-0.729,1.986
2024-09-23 11:27:36.007,161988.844,-0.031,0.628,-0.777,0.015,0.028,0.011,0.137,-0.155,0.368,-0.04,-0.679,2.024
2024-09-23 11:27:36.127,161988.964,-0.05,0.636,-0.77,-0.029,-0.069,0.103,-0.032,-0.361,-0.241,-0.065,-0.689,2.027
2024-09-23 11:27:36.247,161989.084,-0.058,0.634,-0.771,0.001,-0.064,-0.041,-0.106,-0.064,-0.034,-0.075,-0.687,2.025
2024-09-23 11:27:36.366,161989.204,-0.062,0.638,-0.768,-0.047,0.019,-0.024,0.148,0.005,-0.01,-0.08,-0.691,2.021
2024-09-23 11:27:36.487,161989.324,-0.065,0.629,-0.775,0.015,0.002,0.006,0.153,-0.008,-0.017,-0.084,-0.68,2.019
2024-09-23 11:27:36.607,161989.443,-0.065,0.617,-0.784,-0.002,-0.015,-0.011,0.12,0.019,-0.02,-0.083,-0.665,2.02
2024-09-23 11:27:36.726,161989.563,-0.064,0.601,-0.797,-0.004,-0.04,0.015,0.153,0.009,-0.025,-0.08,-0.645,2.022
2024-09-23 11:27:36.846,161989.683,-0.066,0.599,-0.798,-0.024,-0.079,-0.007,-0.24,0.039,-0.079,-0.083,-0.642,2.018
2024-09-23 11:27:36.966,161989.803,-0.067,0.601,-0.796,0.007,-0.004,-0.005,-0.0,0.009,0.03,-0.084,-0.645,2.013
2024-09-23 11:27:37.085,161989.923,-0.068,0.603,-0.795,-0.01,-0.061,-0.027,-0.055,-0.041,-0.001,-0.085,-0.648,2.021
2024-09-23 11:27:37.206,161990.042,-0.07,0.608,-0.791,-0.024,0.018,-0.004,-0.163,0.045,-0.05,-0.089,-0.653,2.017
2024-09-23 11:27:37.325,161990.162,-0.07,0.606,-0.793,0.028,0.003,0.011,0.085,-0.011,0.042,-0.088,-0.65,2.014
2024-09-23 11:27:37.445,161990.282,-0.071,0.601,-0.796,-0.02,0.01,0.041,0.161,-0.07,0.005,-0.09,-0.645,2.014
2024-09-23 11:27:37.565,161990.402,-0.071,0.624,-0.779,-0.032,-0.032,-0.021,-0.255,0.144,-0.029,-0.091,-0.673,2.007
2024-09-23 11:27:37.685,161990.522,-0.06,0.628,-0.776,0.027,-0.025,0.062,0.091,0.043,-0.058,-0.077,-0.679,2.002
2024-09-23 11:27:37.804,161990.641,-0.063,0.619,-0.783,0.012,0.031,0.01,0.028,-0.044,0.008,-0.081,-0.667,2.003
2024-09-23 11:27:37.924,161990.761,-0.066,0.616,-0.785,0.01,0.012,0.01,0.075,-0.045,0.002,-0.084,-0.664,2.003
2024-09-23 11:27:38.044,161990.881,-0.068,0.607,-0.792,-0.001,-0.001,0.006,0.114,0.02,0.005,-0.085,-0.652,2.005
2024-09-23 11:27:38.163,161991.001,-0.067,0.597,-0.8,-0.001,-0.032,0.004,0.032,-0.012,0.044,-0.083,-0.64,2.009
2024-09-23 11:27:38.284,161991.121,-0.07,0.583,-0.809,-0.003,-0.089,-0.018,-0.133,-0.053,-0.016,-0.087,-0.623,2.015
2024-09-23 11:27:38.403,161991.24,-0.07,0.59,-0.805,-0.001,-0.015,-0.005,-0.071,0.006,0.022,-0.086,-0.631,2.014
2024-09-23 11:27:38.523,161991.36,-0.068,0.602,-0.796,0.011,0.022,-0.014,-0.181,0.056,-0.05,-0.086,-0.645,2.01
2024-09-23 11:27:38.643,161991.48,-0.069,0.602,-0.795,0.009,-0.02,-0.003,0.08,-0.006,-0.012,-0.086,-0.647,2.006
2024-09-23 11:27:38.763,161991.6,-0.069,0.593,-0.803,-0.007,0.012,-0.006,0.102,-0.056,0.067,-0.085,-0.634,2.013
2024-09-23 11:27:38.883,161991.72,-0.07,0.586,-0.807,-0.003,-0.002,0.021,0.086,-0.03,-0.004,-0.087,-0.626,2.017
2024-09-23 11:27:39.002,161991.839,-0.072,0.579,-0.812,-0.007,0.003,-0.002,0.078,-0.013,0.028,-0.089,-0.617,2.016
2024-09-23 11:27:39.122,161991.959,-0.071,0.581,-0.81,-0.002,0.009,0.013,-0.062,0.006,-0.011,-0.087,-0.621,2.019
2024-09-23 11:27:39.242,161992.079,-0.073,0.567,-0.82,0.012,-0.005,-0.002,0.167,-0.03,-0.018,-0.088,-0.603,2.021
2024-09-23 11:27:39.362,161992.199,-0.074,0.557,-0.827,0.002,-0.015,0.004,0.032,0.0,-0.027,-0.089,-0.59,2.024
2024-09-23 11:27:39.481,161992.319,-0.072,0.565,-0.822,0.005,-0.04,-0.027,-0.169,0.027,-0.017,-0.088,-0.601,2.024
2024-09-23 11:27:39.601,161992.438,-0.071,0.567,-0.82,-0.003,0.01,-0.01,-0.048,0.032,-0.04,-0.087,-0.603,2.021
2024-09-23 11:27:39.721,161992.558,-0.07,0.589,-0.805,-0.038,-0.059,-0.037,-0.462,0.102,-0.031,-0.087,-0.629,2.01
2024-09-23 11:27:39.841,161992.678,-0.039,0.586,-0.809,-0.031,0.131,0.051,0.202,0.202,0.4,-0.048,-0.626,2.037
2024-09-23 11:27:39.961,161992.798,-0.038,0.601,-0.798,0.015,-0.048,-0.087,-0.22,-0.152,-0.134,-0.047,-0.645,2.049
2024-09-23 11:27:40.080,161992.918,-0.054,0.614,-0.788,0.034,0.041,0.085,0.102,-0.096,0.015,-0.068,-0.661,2.031
2024-09-23 11:27:40.200,161993.037,-0.057,0.61,-0.791,-0.006,0.0,0.017,0.033,-0.024,0.006,-0.072,-0.656,2.032
2024-09-23 11:27:40.320,161993.157,-0.059,0.596,-0.801,-0.002,0.016,0.006,0.216,-0.028,0.002,-0.074,-0.638,2.032
2024-09-23 11:27:40.440,161993.277,-0.06,0.585,-0.809,0.009,-0.032,-0.005,0.028,-0.063,-0.025,-0.074,-0.625,2.037
2024-09-23 11:27:40.560,161993.397,-0.062,0.597,-0.8,-0.009,-0.018,0.0,-0.095,0.064,-0.041,-0.077,-0.639,2.028
2024-09-23 11:27:40.679,161993.517,-0.062,0.594,-0.802,-0.005,-0.02,0.005,0.017,-0.02,0.064,-0.077,-0.636,2.028
2024-09-23 11:27:40.800,161993.636,-0.063,0.592,-0.804,0.015,-0.034,0.018,-0.017,-0.125,0.033,-0.078,-0.633,2.039
2024-09-23 11:27:40.919,161993.756,-0.068,0.598,-0.799,-0.013,-0.043,-0.015,-0.227,0.07,-0.071,-0.085,-0.641,2.034
2024-09-23 11:27:41.039,161993.876,-0.069,0.6,-0.797,0.007,0.012,0.001,0.113,0.008,-0.02,-0.086,-0.644,2.025
2024-09-23 11:27:41.159,161993.996,-0.065,0.596,-0.8,-0.01,-0.019,0.008,0.016,0.014,0.015,-0.081,-0.639,2.031
2024-09-23 11:27:41.278,161994.116,-0.065,0.599,-0.798,-0.023,-0.067,-0.004,-0.414,0.01,-0.015,-0.081,-0.642,2.032
2024-09-23 11:27:41.398,161994.235,-0.058,0.622,-0.781,-0.051,-0.04,-0.047,-0.18,0.177,-0.056,-0.074,-0.672,2.028
2024-09-23 11:27:41.518,161994.355,-0.058,0.616,-0.786,-0.016,-0.03,0.021,0.073,-0.036,-0.037,-0.074,-0.663,2.021
2024-09-23 11:27:41.638,161994.475,-0.061,0.607,-0.792,0.003,-0.006,-0.006,0.009,-0.007,0.014,-0.077,-0.653,2.02
2024-09-23 11:27:41.758,161994.595,-0.06,0.608,-0.792,0.002,0.002,0.01,0.054,0.001,-0.006,-0.076,-0.653,2.022
2024-09-23 11:27:41.878,161994.715,-0.063,0.602,-0.796,0.006,0.031,0.004,0.162,-0.036,-0.021,-0.078,-0.646,2.02
2024-09-23 11:27:41.998,161994.834,-0.062,0.593,-0.803,0.01,-0.016,0.012,0.057,-0.012,0.018,-0.077,-0.634,2.023
2024-09-23 11:27:42.117,161994.954,-0.065,0.58,-0.812,-0.004,0.006,0.004,0.099,-0.061,0.001,-0.08,-0.619,2.03
2024-09-23 11:27:42.237,161995.074,-0.066,0.592,-0.803,0.003,0.006,0.01,-0.081,0.024,0.004,-0.082,-0.634,2.028
2024-09-23 11:27:42.356,161995.194,-0.066,0.588,-0.806,0.02,0.011,-0.01,0.064,0.024,-0.004,-0.082,-0.629,2.029
2024-09-23 11:27:42.477,161995.314,-0.062,0.598,-0.799,0.005,-0.002,-0.012,-0.203,0.05,-0.041,-0.077,-0.641,2.024
2024-09-23 11:27:42.596,161995.433,-0.064,0.596,-0.801,-0.004,0.021,0.007,0.156,-0.039,0.037,-0.079,-0.638,2.022
2024-09-23 11:27:42.715,161995.553,-0.062,0.594,-0.802,0.022,-0.042,-0.007,-0.0,-0.041,0.042,-0.078,-0.636,2.031
2024-09-23 11:27:42.836,161995.673,-0.064,0.59,-0.805,-0.001,-0.022,0.002,0.04,-0.011,-0.022,-0.08,-0.631,2.033
2024-09-23 11:27:42.956,161995.793,-0.068,0.581,-0.811,-0.004,-0.03,-0.006,0.024,-0.002,0.01,-0.083,-0.62,2.032
2024-09-23 11:27:43.076,161995.913,-0.064,0.587,-0.807,0.003,0.02,-0.011,-0.019,-0.025,0.006,-0.079,-0.627,2.034
2024-09-23 11:27:43.195,161996.032,-0.07,0.57,-0.819,0.004,0.013,0.009,0.303,-0.063,0.022,-0.085,-0.606,2.037
2024-09-23 11:27:43.315,161996.152,-0.069,0.559,-0.826,-0.002,0.002,-0.002,-0.017,-0.002,0.08,-0.084,-0.594,2.041
2024-09-23 11:27:43.435,161996.272,-0.066,0.572,-0.818,0.025,0.043,-0.013,-0.032,-0.005,-0.017,-0.081,-0.609,2.042
2024-09-23 11:27:43.555,161996.392,-0.065,0.576,-0.815,-0.009,-0.042,-0.015,-0.153,0.028,-0.046,-0.08,-0.614,2.041
2024-09-23 11:27:43.674,161996.512,-0.055,0.572,-0.818,0.002,0.093,0.014,0.306,0.182,0.143,-0.067,-0.609,2.05
2024-09-23 11:27:43.794,161996.631,-0.04,0.591,-0.805,0.036,-0.178,0.094,-0.297,-0.358,-0.03,-0.05,-0.633,2.081
2024-09-23 11:27:43.914,161996.751,-0.052,0.597,-0.8,-0.001,-0.06,0.109,-0.231,0.023,-0.118,-0.064,-0.64,2.063
2024-09-23 11:27:44.034,161996.871,-0.054,0.604,-0.795,-0.0,0.014,0.004,-0.09,-0.002,-0.047,-0.068,-0.648,2.056
2024-09-23 11:27:44.153,161996.991,-0.058,0.602,-0.797,0.006,0.028,0.014,0.154,-0.034,-0.003,-0.072,-0.645,2.054
2024-09-23 11:27:44.273,161997.111,-0.058,0.59,-0.805,-0.017,-0.014,0.03,0.119,-0.01,0.032,-0.071,-0.632,2.058
2024-09-23 11:27:44.393,161997.23,-0.06,0.584,-0.81,0.011,-0.018,0.007,-0.038,-0.022,-0.014,-0.074,-0.623,2.06
2024-09-23 11:27:44.513,161997.35,-0.057,0.593,-0.803,0.009,0.04,0.006,0.037,0.029,-0.023,-0.071,-0.635,2.052
2024-09-23 11:27:44.633,161997.47,-0.058,0.592,-0.803,-0.003,-0.013,0.001,0.01,-0.054,0.064,-0.072,-0.634,2.054
2024-09-23 11:27:44.753,161997.59,-0.059,0.59,-0.805,0.01,-0.033,0.004,-0.062,-0.018,-0.008,-0.073,-0.631,2.063
2024-09-23 11:27:44.873,161997.71,-0.06,0.598,-0.8,0.009,0.041,0.002,0.117,-0.012,-0.038,-0.074,-0.64,2.055
2024-09-23 11:27:44.993,161997.829,-0.057,0.594,-0.802,-0.013,-0.028,0.032,-0.052,0.038,0.002,-0.071,-0.637,2.057
2024-09-23 11:27:45.112,161997.949,-0.051,0.61,-0.791,0.028,-0.112,0.016,-0.113,0.083,0.003,-0.065,-0.655,2.056
2024-09-23 11:27:45.232,161998.069,-0.051,0.601,-0.798,-0.017,-0.002,0.009,0.047,-0.019,-0.029,-0.064,-0.644,2.05
2024-09-23 11:27:45.352,161998.189,-0.055,0.593,-0.803,0.01,0.023,0.02,0.11,0.015,0.05,-0.068,-0.635,2.046
2024-09-23 11:27:45.471,161998.309,-0.055,0.582,-0.811,0.001,0.003,0.021,0.29,-0.108,0.035,-0.068,-0.621,2.053
2024-09-23 11:27:45.591,161998.428,-0.057,0.581,-0.812,0.004,0.024,0.006,-0.081,0.027,-0.001,-0.07,-0.62,2.054
2024-09-23 11:27:45.711,161998.548,-0.055,0.599,-0.799,0.001,0.004,0.002,-0.146,0.025,-0.029,-0.069,-0.642,2.052
2024-09-23 11:27:45.831,161998.668,-0.057,0.598,-0.799,0.002,0.006,0.014,0.075,-0.023,0.013,-0.071,-0.642,2.048
2024-09-23 11:27:45.951,161998.788,-0.056,0.597,-0.801,-0.002,-0.007,0.022,-0.01,-0.048,0.078,-0.07,-0.639,2.057
2024-09-23 11:27:46.070,161998.908,-0.058,0.596,-0.801,-0.002,-0.003,0.015,0.049,-0.013,-0.005,-0.073,-0.638,2.06
2024-09-23 11:27:46.190,161999.027,-0.06,0.59,-0.805,0.011,0.01,-0.014,0.138,-0.03,0.004,-0.074,-0.631,2.058
2024-09-23 11:27:46.310,161999.147,-0.06,0.587,-0.807,-0.014,-0.027,0.016,0.001,0.029,0.01,-0.074,-0.628,2.062
2024-09-23 11:27:46.430,161999.267,-0.06,0.587,-0.807,0.006,0.033,0.0,0.165,-0.05,0.007,-0.075,-0.628,2.063
2024-09-23 11:27:46.549,161999.387,-0.062,0.573,-0.817,-0.01,-0.031,-0.0,0.008,-0.003,0.008,-0.076,-0.61,2.065
2024-09-23 11:27:46.670,161999.507,-0.062,0.573,-0.817,0.001,-0.033,-0.008,-0.104,0.029,-0.001,-0.076,-0.61,2.067
2024-09-23 11:27:46.793,161999.626,-0.061,0.579,-0.813,0.004,0.006,0.0,-0.048,0.018,0.009,-0.075,-0.618,2.068
2024-09-23 11:27:46.909,161999.746,-0.06,0.588,-0.807,0.002,-0.03,-0.009,-0.207,0.034,-0.003,-0.074,-0.629,2.067
2024-09-23 11:27:47.029,161999.866,-0.061,0.599,-0.799,-0.031,-0.032,-0.018,-0.399,-0.017,0.11,-0.076,-0.642,2.065
2024-09-23 11:27:47.149,161999.986,-0.032,0.601,-0.799,-0.115,0.079,0.195,-0.243,0.147,0.333,-0.04,-0.644,2.093
2024-09-23 11:27:47.268,162000.106,-0.039,0.621,-0.783,0.032,0.153,-0.414,-0.397,0.076,-0.187,-0.05,-0.669,2.084
2024-09-23 11:27:47.388,162000.225,-0.05,0.618,-0.785,-0.034,-0.005,-0.016,-0.06,0.031,-0.05,-0.064,-0.666,2.071
2024-09-23 11:27:47.508,162000.345,-0.049,0.61,-0.791,0.007,-0.033,-0.024,0.053,0.008,-0.032,-0.062,-0.656,2.068
2024-09-23 11:27:47.628,162000.465,-0.049,0.599,-0.799,-0.019,0.004,0.007,0.122,0.002,0.045,-0.061,-0.642,2.07
2024-09-23 11:27:47.747,162000.585,-0.05,0.592,-0.804,0.01,0.025,0.019,0.028,-0.001,0.003,-0.062,-0.634,2.071
2024-09-23 11:27:47.867,162000.705,-0.049,0.596,-0.801,0.014,0.039,0.013,0.148,-0.016,-0.003,-0.061,-0.639,2.065
2024-09-23 11:27:47.987,162000.824,-0.044,0.601,-0.798,-0.005,0.013,0.006,-0.02,-0.004,0.193,-0.055,-0.644,2.076
2024-09-23 11:27:48.107,162000.944,-0.048,0.597,-0.801,0.013,0.022,0.024,-0.07,-0.009,-0.063,-0.059,-0.64,2.08
2024-09-23 11:27:48.227,162001.064,-0.049,0.602,-0.797,0.009,0.01,-0.0,0.007,-0.022,-0.029,-0.062,-0.646,2.071
2024-09-23 11:27:48.346,162001.184,-0.048,0.598,-0.8,-0.001,0.015,0.008,0.091,0.016,0.025,-0.06,-0.641,2.073
2024-09-23 11:27:48.467,162001.304,-0.044,0.597,-0.801,-0.033,-0.01,-0.011,-0.184,0.103,-0.002,-0.055,-0.64,2.082
2024-09-23 11:27:48.587,162001.423,-0.039,0.603,-0.797,0.01,-0.027,-0.017,-0.102,0.02,-0.104,-0.049,-0.648,2.075
2024-09-23 11:27:48.706,162001.543,-0.044,0.608,-0.793,-0.001,-0.01,-0.002,-0.027,-0.016,-0.056,-0.056,-0.653,2.069
2024-09-23 11:27:48.826,162001.663,-0.045,0.603,-0.797,0.002,-0.026,0.008,0.117,0.003,0.043,-0.056,-0.647,2.069
2024-09-23 11:27:48.945,162001.783,-0.048,0.588,-0.808,-0.004,-0.068,-0.011,-0.01,-0.06,-0.007,-0.059,-0.628,2.076
2024-09-23 11:27:49.065,162001.903,-0.049,0.593,-0.804,0.003,0.024,-0.006,-0.021,-0.01,-0.006,-0.061,-0.634,2.076
2024-09-23 11:27:49.185,162002.022,-0.045,0.602,-0.797,0.002,-0.043,0.005,-0.102,0.04,-0.024,-0.057,-0.646,2.077
2024-09-23 11:27:49.305,162002.142,-0.045,0.607,-0.793,0.005,-0.002,-0.001,0.047,0.003,-0.032,-0.057,-0.653,2.071
2024-09-23 11:27:49.425,162002.262,-0.046,0.604,-0.796,-0.002,-0.04,0.002,-0.036,-0.029,0.059,-0.058,-0.649,2.071
2024-09-23 11:27:49.544,162002.382,-0.044,0.604,-0.796,-0.01,-0.023,0.011,0.055,-0.048,0.066,-0.055,-0.649,2.082
2024-09-23 11:27:49.665,162002.502,-0.048,0.602,-0.797,0.003,0.018,0.016,0.041,-0.011,-0.015,-0.06,-0.646,2.084
2024-09-23 11:27:49.784,162002.621,-0.047,0.602,-0.797,0.027,0.038,0.016,0.116,-0.014,-0.036,-0.059,-0.645,2.08
2024-09-23 11:27:49.904,162002.741,-0.048,0.597,-0.801,0.003,0.001,0.006,-0.016,-0.011,0.014,-0.06,-0.639,2.08
2024-09-23 11:27:50.024,162002.861,-0.045,0.596,-0.802,-0.005,0.015,-0.013,-0.012,-0.021,0.032,-0.057,-0.638,2.083
2024-09-23 11:27:50.143,162002.981,-0.05,0.585,-0.809,-0.005,-0.016,0.005,0.174,-0.029,0.012,-0.061,-0.625,2.085
2024-09-23 11:27:50.264,162003.101,-0.05,0.574,-0.818,-0.005,0.004,0.007,0.13,-0.01,0.02,-0.061,-0.611,2.088
2024-09-23 11:27:50.384,162003.22,-0.048,0.57,-0.82,-0.003,0.006,-0.001,-0.055,0.037,0.031,-0.059,-0.607,2.091
2024-09-23 11:27:50.504,162003.34,-0.046,0.579,-0.814,0.002,-0.025,-0.013,-0.162,0.019,-0.003,-0.056,-0.618,2.09
2024-09-23 11:27:50.623,162003.46,-0.044,0.596,-0.802,-0.011,-0.022,0.004,-0.268,0.023,-0.02,-0.055,-0.639,2.09
2024-09-23 11:27:50.742,162003.58,-0.043,0.61,-0.791,-0.017,0.012,-0.021,-0.48,0.052,-0.036,-0.054,-0.656,2.086
2024-09-23 11:27:50.862,162003.7,-0.02,0.627,-0.779,-0.051,0.209,0.019,-0.149,0.346,0.26,-0.026,-0.677,2.09
2024-09-23 11:27:50.982,162003.819,-0.025,0.627,-0.779,-0.011,-0.118,-0.149,-0.523,0.058,-0.332,-0.032,-0.677,2.091
2024-09-23 11:27:51.102,162003.939,-0.021,0.625,-0.781,0.032,-0.045,0.071,0.124,0.028,0.039,-0.027,-0.675,2.087
2024-09-23 11:27:51.222,162004.059,-0.014,0.616,-0.787,0.0,-0.043,-0.004,0.14,-0.029,0.001,-0.017,-0.664,2.1
2024-09-23 11:27:51.342,162004.179,-0.022,0.612,-0.791,-0.003,-0.017,-0.004,0.07,-0.045,-0.021,-0.027,-0.658,2.094
2024-09-23 11:27:51.461,162004.299,-0.023,0.602,-0.798,0.0,-0.0,0.008,0.123,0.001,-0.027,-0.029,-0.646,2.09
2024-09-23 11:27:51.581,162004.418,-0.021,0.593,-0.805,0.013,-0.025,0.004,-0.07,0.002,-0.018,-0.027,-0.635,2.092
2024-09-23 11:27:51.701,162004.538,-0.023,0.604,-0.797,0.001,-0.011,-0.005,-0.22,0.092,-0.08,-0.029,-0.649,2.085
2024-09-23 11:27:51.821,162004.658,-0.021,0.604,-0.797,0.0,-0.028,-0.006,-0.011,0.005,0.036,-0.026,-0.649,2.082
2024-09-23 11:27:51.940,162004.778,-0.014,0.599,-0.8,0.01,0.08,0.033,0.13,-0.058,0.089,-0.018,-0.643,2.1
2024-09-23 11:27:52.061,162004.898,-0.018,0.604,-0.797,-0.012,-0.035,-0.011,-0.188,0.059,-0.053,-0.022,-0.649,2.098
2024-09-23 11:27:52.180,162005.017,-0.019,0.608,-0.793,-0.002,0.002,-0.011,-0.001,0.012,-0.017,-0.024,-0.654,2.089
2024-09-23 11:27:52.301,162005.137,-0.018,0.607,-0.794,0.0,0.021,0.014,0.088,0.007,0.02,-0.023,-0.653,2.089
2024-09-23 11:27:52.420,162005.257,-0.017,0.603,-0.798,0.007,-0.036,0.007,-0.229,-0.049,0.066,-0.022,-0.647,2.094
2024-09-23 11:27:52.540,162005.377,-0.013,0.616,-0.788,-0.043,-0.049,-0.026,-0.034,0.16,-0.058,-0.016,-0.663,2.098
2024-09-23 11:27:52.660,162005.497,0.0,0.609,-0.793,-0.029,-0.079,0.004,-0.11,0.132,-0.013,0.0,-0.655,2.092
2024-09-23 11:27:52.779,162005.616,-0.003,0.609,-0.793,0.038,-0.0,0.016,0.017,-0.096,-0.056,-0.003,-0.655,2.088
2024-09-23 11:27:52.899,162005.736,-0.007,0.605,-0.796,0.012,-0.008,0.005,0.102,-0.024,-0.024,-0.009,-0.649,2.087
2024-09-23 11:27:53.019,162005.856,-0.01,0.598,-0.802,-0.018,-0.026,-0.012,0.01,-0.031,0.013,-0.012,-0.641,2.086
2024-09-23 11:27:53.139,162005.976,-0.015,0.579,-0.815,0.0,-0.02,0.006,0.079,-0.113,0.022,-0.018,-0.617,2.093
2024-09-23 11:27:53.258,162006.096,-0.016,0.583,-0.812,0.001,0.02,0.003,-0.074,0.012,0.008,-0.02,-0.623,2.094
2024-09-23 11:27:53.378,162006.215,-0.013,0.595,-0.804,0.001,0.008,0.022,-0.033,0.051,-0.02,-0.017,-0.637,2.094
2024-09-23 11:27:53.499,162006.335,-0.013,0.597,-0.802,0.014,-0.002,-0.002,0.05,-0.029,-0.034,-0.016,-0.64,2.092
2024-09-23 11:27:53.618,162006.455,-0.014,0.598,-0.801,-0.003,-0.025,-0.009,-0.057,-0.018,0.063,-0.018,-0.641,2.095
2024-09-23 11:27:53.738,162006.575,-0.013,0.597,-0.802,0.003,-0.032,-0.005,-0.003,-0.015,-0.018,-0.017,-0.64,2.101
2024-09-23 11:27:53.857,162006.695,-0.016,0.591,-0.807,0.002,0.004,0.002,0.105,-0.042,-0.038,-0.02,-0.632,2.099
2024-09-23 11:27:53.977,162006.814,-0.018,0.587,-0.809,0.001,-0.014,0.011,0.004,-0.014,0.009,-0.022,-0.628,2.1
2024-09-23 11:27:54.097,162006.934,-0.016,0.587,-0.81,-0.002,-0.028,-0.007,0.06,-0.005,0.006,-0.02,-0.627,2.102
2024-09-23 11:27:54.218,162007.054,-0.021,0.569,-0.822,-0.007,0.008,0.009,0.082,-0.003,0.031,-0.026,-0.605,2.102
2024-09-23 11:27:54.337,162007.174,-0.019,0.566,-0.824,-0.003,-0.01,-0.003,-0.027,0.021,0.038,-0.023,-0.602,2.105
2024-09-23 11:27:54.456,162007.294,-0.016,0.569,-0.822,0.004,0.012,0.009,-0.019,0.011,0.015,-0.019,-0.605,2.109
2024-09-23 11:27:54.577,162007.413,-0.012,0.575,-0.818,-0.008,-0.041,-0.001,-0.264,0.065,-0.005,-0.014,-0.612,2.111
2024-09-23 11:27:54.696,162007.533,-0.009,0.599,-0.801,0.01,0.098,0.012,0.081,-0.007,-0.04,-0.011,-0.642,2.105
2024-09-23 11:27:54.816,162007.653,-0.003,0.596,-0.803,-0.056,0.045,0.024,-0.855,0.352,0.253,-0.003,-0.638,2.111
2024-09-23 11:27:54.936,162007.773,0.009,0.611,-0.792,-0.03,-0.207,-0.267,-0.801,0.297,-0.289,0.011,-0.657,2.131
2024-09-23 11:27:55.056,162007.893,-0.001,0.606,-0.796,-0.048,-0.096,-0.029,-0.019,-0.026,-0.033,-0.001,-0.651,2.119
2024-09-23 11:27:55.175,162008.012,-0.003,0.594,-0.805,0.001,-0.018,-0.003,0.054,0.018,-0.024,-0.004,-0.636,2.118
2024-09-23 11:27:55.295,162008.132,-0.005,0.58,-0.814,0.01,-0.012,0.013,0.114,-0.031,0.023,-0.006,-0.619,2.118
2024-09-23 11:27:55.415,162008.252,-0.008,0.579,-0.815,-0.019,-0.08,-0.007,-0.127,0.082,-0.094,-0.01,-0.617,2.115
2024-09-23 11:27:55.535,162008.372,-0.007,0.584,-0.812,0.003,-0.007,0.011,0.029,-0.021,0.017,-0.009,-0.624,2.111
2024-09-23 11:27:55.655,162008.492,-0.006,0.581,-0.814,0.0,-0.022,-0.001,0.031,-0.03,0.035,-0.008,-0.62,2.118
2024-09-23 11:27:55.774,162008.611,-0.004,0.574,-0.819,-0.009,-0.005,-0.006,-0.042,-0.035,0.027,-0.005,-0.611,2.132
2024-09-23 11:27:55.894,162008.731,-0.007,0.594,-0.804,-0.003,0.037,0.002,-0.144,0.039,-0.047,-0.009,-0.636,2.126
2024-09-23 11:27:56.014,162008.851,-0.005,0.605,-0.796,0.003,-0.021,0.001,-0.034,0.015,-0.025,-0.006,-0.65,2.122
2024-09-23 11:27:56.134,162008.971,-0.009,0.6,-0.8,0.007,-0.006,-0.002,-0.003,-0.049,-0.03,-0.011,-0.643,2.118
2024-09-23 11:27:56.253,162009.091,-0.006,0.597,-0.802,0.0,-0.029,0.01,-0.095,0.065,0.054,-0.007,-0.64,2.122
2024-09-23 11:27:56.373,162009.21,0.006,0.613,-0.79,-0.052,-0.089,-0.033,-0.301,0.253,-0.067,0.008,-0.659,2.124
2024-09-23 11:27:56.493,162009.33,0.014,0.607,-0.795,0.087,-0.059,-0.013,0.012,0.034,-0.07,0.018,-0.652,2.113
2024-09-23 11:27:56.613,162009.45,0.005,0.602,-0.799,-0.003,0.019,0.006,0.081,-0.022,-0.007,0.006,-0.646,2.103
2024-09-23 11:27:56.733,162009.57,0.003,0.589,-0.808,-0.001,-0.007,0.015,0.166,-0.018,-0.01,0.003,-0.63,2.102
2024-09-23 11:27:56.852,162009.69,0.002,0.578,-0.816,0.0,0.025,0.008,0.183,-0.062,0.052,0.002,-0.617,2.105
2024-09-23 11:27:56.972,162009.809,-0.003,0.571,-0.821,-0.003,0.009,0.003,-0.037,-0.013,0.01,-0.004,-0.608,2.107
2024-09-23 11:27:57.092,162009.929,0.0,0.583,-0.813,0.005,-0.013,-0.002,-0.282,0.01,0.048,0.0,-0.622,2.108
2024-09-23 11:27:57.212,162010.049,0.002,0.588,-0.809,-0.001,-0.021,0.006,-0.049,0.015,-0.005,0.002,-0.628,2.109
2024-09-23 11:27:57.332,162010.169,0.003,0.593,-0.805,0.004,-0.019,-0.007,-0.006,0.028,-0.048,0.003,-0.635,2.106
2024-09-23 11:27:57.451,162010.289,0.001,0.587,-0.81,-0.002,0.018,-0.005,0.075,-0.013,0.024,0.001,-0.627,2.103
2024-09-23 11:27:57.572,162010.408,0.004,0.583,-0.812,-0.006,-0.003,0.012,0.022,-0.005,0.059,0.005,-0.623,2.111
2024-09-23 11:27:57.690,162010.528,0.002,0.576,-0.818,0.009,0.01,0.008,0.063,-0.05,-0.012,0.002,-0.613,2.114
2024-09-23 11:27:57.811,162010.648,-0.001,0.575,-0.818,-0.002,0.022,0.021,0.039,-0.026,0.005,-0.002,-0.613,2.112
2024-09-23 11:27:57.931,162010.768,-0.003,0.579,-0.815,0.003,-0.017,-0.002,-0.181,0.006,-0.008,-0.003,-0.618,2.111
2024-09-23 11:27:58.049,162010.888,-0.0,0.585,-0.811,0.0,-0.037,-0.006,-0.043,-0.002,0.015,-0.0,-0.625,2.114
2024-09-23 11:27:58.170,162011.007,-0.005,0.571,-0.821,-0.002,-0.007,0.009,0.131,-0.05,0.002,-0.006,-0.607,2.115
2024-09-23 11:27:58.290,162011.127,-0.006,0.57,-0.822,-0.002,-0.018,0.001,-0.197,0.018,0.011,-0.007,-0.606,2.117
2024-09-23 11:27:58.410,162011.247,-0.003,0.59,-0.807,0.009,-0.018,-0.002,-0.051,0.0,-0.016,-0.004,-0.631,2.12
2024-09-23 11:27:58.529,162011.367,-0.001,0.595,-0.804,0.0,-0.072,-0.032,-0.512,0.079,-0.044,-0.001,-0.637,2.119
2024-09-23 11:27:58.650,162011.487,0.004,0.64,-0.768,-0.033,-0.063,-0.005,-0.783,0.15,-0.006,0.005,-0.695,2.111
2024-09-23 11:27:58.769,162011.606,0.014,0.689,-0.724,-0.002,0.006,-0.012,-0.324,0.083,0.044,0.019,-0.761,2.111
2024-09-23 11:27:58.889,162011.726,0.029,0.733,-0.68,0.025,-0.03,-0.069,-0.905,0.256,0.085,0.042,-0.823,2.119
2024-09-23 11:27:59.009,162011.846,0.058,0.821,-0.568,0.041,0.0,-0.031,-0.843,0.256,0.15,0.102,-0.963,2.155
2024-09-23 11:27:59.129,162011.966,0.091,0.781,-0.617,0.062,0.081,-0.049,1.503,0.186,0.108,0.146,-0.897,2.171
2024-09-23 11:27:59.249,162012.086,0.1,0.75,-0.654,0.025,-0.031,0.05,0.595,-0.267,-0.009,0.152,-0.848,2.182
2024-09-23 11:27:59.368,162012.205,0.029,0.74,-0.672,-0.059,-0.037,0.09,-0.1,-0.433,-0.724,0.043,-0.833,2.101
2024-09-23 11:27:59.488,162012.325,-0.04,0.748,-0.663,-0.066,0.154,0.019,0.108,-0.046,-0.237,-0.061,-0.844,2.005
2024-09-23 11:27:59.608,162012.445,-0.046,0.738,-0.673,-0.0,0.017,0.033,0.398,-0.094,-0.086,-0.068,-0.83,1.993
2024-09-23 11:27:59.728,162012.565,-0.05,0.71,-0.703,0.025,-0.061,0.01,0.248,0.052,-0.023,-0.07,-0.789,1.992
2024-09-23 11:27:59.849,162012.685,-0.035,0.664,-0.747,0.042,-0.037,0.038,0.26,-0.091,0.232,-0.047,-0.726,2.022
2024-09-23 11:27:59.968,162012.804,-0.05,0.663,-0.747,-0.06,-0.1,0.064,-0.039,-0.038,-0.186,-0.066,-0.724,2.019
2024-09-23 11:28:00.086,162012.924,-0.063,0.653,-0.755,0.066,0.062,-0.037,-0.018,-0.132,-0.017,-0.084,-0.711,2.011
2024-09-23 11:28:00.207,162013.044,-0.072,0.651,-0.756,-0.016,-0.031,0.011,-0.024,-0.046,0.007,-0.094,-0.709,2.011
2024-09-23 11:28:00.327,162013.164,-0.074,0.643,-0.763,-0.006,0.013,-0.005,0.143,-0.029,0.011,-0.097,-0.698,2.013
2024-09-23 11:28:00.446,162013.284,-0.074,0.632,-0.771,0.009,0.027,0.023,0.256,0.002,0.005,-0.096,-0.684,2.015
2024-09-23 11:28:00.567,162013.403,-0.072,0.612,-0.788,-0.009,-0.001,0.006,0.107,-0.012,0.009,-0.091,-0.659,2.02
2024-09-23 11:28:00.686,162013.523,-0.072,0.614,-0.786,-0.006,-0.009,0.022,-0.032,0.035,-0.014,-0.091,-0.661,2.019
2024-09-23 11:28:00.806,162013.643,-0.073,0.611,-0.788,-0.009,-0.022,0.014,-0.232,-0.003,-0.052,-0.092,-0.657,2.014
2024-09-23 11:28:00.926,162013.763,-0.072,0.627,-0.776,0.03,-0.01,-0.009,0.031,-0.003,0.02,-0.093,-0.678,2.01
2024-09-23 11:28:01.045,162013.883,-0.072,0.614,-0.786,0.003,0.02,0.001,0.21,-0.042,0.043,-0.092,-0.661,2.014
2024-09-23 11:28:01.165,162014.002,-0.072,0.612,-0.788,0.017,-0.006,0.006,0.059,-0.049,0.045,-0.091,-0.658,2.022
2024-09-23 11:28:01.285,162014.122,-0.072,0.609,-0.79,0.02,-0.034,0.031,0.063,-0.033,0.013,-0.091,-0.655,2.026
2024-09-23 11:28:01.405,162014.242,-0.075,0.607,-0.791,0.005,-0.017,-0.015,-0.044,-0.001,-0.056,-0.094,-0.652,2.024
2024-09-23 11:28:01.524,162014.362,-0.074,0.617,-0.783,0.006,-0.015,-0.001,-0.021,0.047,-0.02,-0.094,-0.665,2.018
2024-09-23 11:28:01.645,162014.482,-0.074,0.61,-0.789,-0.009,-0.019,0.012,0.086,-0.011,0.02,-0.093,-0.656,2.019
2024-09-23 11:28:01.764,162014.601,-0.076,0.598,-0.798,0.009,-0.01,0.038,0.158,-0.063,-0.008,-0.095,-0.641,2.024
2024-09-23 11:28:01.884,162014.721,-0.075,0.617,-0.784,-0.036,0.015,0.005,-0.299,0.072,-0.008,-0.095,-0.664,2.02
2024-09-23 11:28:02.004,162014.841,-0.074,0.63,-0.773,0.03,0.01,0.013,0.009,-0.017,-0.014,-0.096,-0.681,2.015
2024-09-23 11:28:02.124,162014.961,-0.075,0.628,-0.775,0.003,-0.01,0.0,0.056,0.01,-0.001,-0.096,-0.678,2.015
2024-09-23 11:28:02.243,162015.081,-0.075,0.614,-0.786,0.002,-0.004,-0.007,0.122,-0.013,0.028,-0.095,-0.661,2.019
2024-09-23 11:28:02.363,162015.2,-0.073,0.614,-0.786,0.019,-0.011,0.002,-0.114,0.02,0.026,-0.092,-0.661,2.022
2024-09-23 11:28:02.483,162015.32,-0.076,0.614,-0.786,0.011,-0.02,0.001,-0.22,0.025,-0.061,-0.096,-0.661,2.019
2024-09-23 11:28:02.603,162015.44,-0.077,0.62,-0.781,0.019,-0.009,-0.011,0.025,0.018,-0.015,-0.099,-0.669,2.014
2024-09-23 11:28:02.722,162015.56,-0.077,0.613,-0.786,-0.003,0.002,-0.004,0.212,0.013,-0.008,-0.097,-0.66,2.016
2024-09-23 11:28:02.843,162015.68,-0.076,0.596,-0.8,0.016,-0.001,0.006,0.06,0.013,0.025,-0.094,-0.638,2.023
2024-09-23 11:28:02.963,162015.799,-0.074,0.599,-0.798,-0.034,0.034,-0.03,0.011,0.061,0.038,-0.093,-0.642,2.02
2024-09-23 11:28:03.082,162015.919,-0.033,0.549,-0.835,-0.01,0.095,-0.007,0.727,0.405,0.245,-0.04,-0.581,2.05
2024-09-23 11:28:03.202,162016.039,-0.015,0.521,-0.854,0.011,-0.025,0.018,-0.201,-0.087,0.064,-0.017,-0.548,2.071
2024-09-23 11:28:03.322,162016.159,-0.027,0.593,-0.804,0.065,-0.168,0.006,-0.897,-0.072,-0.307,-0.034,-0.635,2.052
2024-09-23 11:28:03.442,162016.279,-0.042,0.635,-0.771,0.007,-0.013,0.02,-0.416,-0.125,-0.087,-0.055,-0.688,2.035
2024-09-23 11:28:03.562,162016.398,-0.05,0.67,-0.741,0.031,0.081,0.036,0.044,-0.096,0.014,-0.067,-0.734,2.017
2024-09-23 11:28:03.681,162016.518,-0.06,0.656,-0.752,-0.001,-0.037,0.013,0.027,-0.07,-0.037,-0.08,-0.716,2.018
2024-09-23 11:28:03.801,162016.638,-0.064,0.648,-0.759,0.007,0.011,-0.001,0.183,-0.007,0.003,-0.085,-0.704,2.016
2024-09-23 11:28:03.921,162016.758,-0.066,0.629,-0.774,0.005,-0.021,-0.004,0.028,-0.044,0.028,-0.085,-0.681,2.021
2024-09-23 11:28:04.041,162016.878,-0.067,0.637,-0.768,-0.031,0.03,0.046,-0.018,-0.018,-0.039,-0.087,-0.69,2.019
2024-09-23 11:28:04.159,162016.997,-0.067,0.643,-0.763,0.009,-0.009,-0.002,0.045,0.011,-0.01,-0.088,-0.698,2.014
2024-09-23 11:28:04.280,162017.117,-0.067,0.632,-0.772,-0.024,-0.044,-0.024,-0.044,-0.032,0.078,-0.087,-0.684,2.02
2024-09-23 11:28:04.400,162017.237,-0.066,0.628,-0.775,0.027,-0.018,-0.003,0.064,-0.046,0.043,-0.085,-0.679,2.032
2024-09-23 11:28:04.520,162017.357,-0.07,0.625,-0.777,-0.024,-0.029,-0.018,-0.089,0.042,-0.057,-0.09,-0.675,2.03
2024-09-23 11:28:04.640,162017.477,-0.069,0.625,-0.777,0.008,-0.007,-0.011,0.059,0.017,-0.01,-0.088,-0.675,2.025
2024-09-23 11:28:04.759,162017.596,-0.068,0.618,-0.783,0.004,-0.013,-0.005,0.063,-0.034,0.02,-0.087,-0.666,2.029
2024-09-23 11:28:04.879,162017.716,-0.071,0.606,-0.792,-0.008,-0.072,-0.012,-0.193,0.004,0.003,-0.09,-0.652,2.034
2024-09-23 11:28:04.999,162017.836,-0.069,0.619,-0.782,0.016,0.024,-0.003,0.151,0.011,0.053,-0.088,-0.668,2.029
2024-09-23 11:28:05.119,162017.956,-0.066,0.623,-0.78,-0.028,-0.039,0.022,-0.188,0.014,0.001,-0.085,-0.672,2.031
2024-09-23 11:28:05.239,162018.076,-0.071,0.624,-0.778,0.001,-0.02,0.016,-0.084,-0.03,-0.065,-0.091,-0.674,2.022
2024-09-23 11:28:05.359,162018.195,-0.072,0.623,-0.779,0.011,-0.005,-0.015,0.145,-0.004,0.028,-0.092,-0.672,2.021
2024-09-23 11:28:05.478,162018.315,-0.069,0.611,-0.788,-0.011,0.028,-0.005,0.033,0.042,0.024,-0.087,-0.658,2.03
2024-09-23 11:28:05.598,162018.435,-0.068,0.633,-0.771,-0.032,-0.049,-0.081,-0.991,0.053,-0.076,-0.089,-0.686,2.019
2024-09-23 11:28:05.718,162018.555,-0.041,0.784,-0.619,-0.022,-0.145,-0.111,-2.775,0.8,0.016,-0.065,-0.902,1.989
2024-09-23 11:28:05.838,162018.675,0.026,0.929,-0.369,-0.017,0.099,-0.118,-1.058,0.834,0.259,0.071,-1.192,2.027
2024-09-23 11:28:05.958,162018.794,0.076,0.898,-0.433,-0.002,0.006,0.116,1.691,0.658,-0.054,0.175,-1.116,2.032
2024-09-23 11:28:06.077,162018.914,0.09,0.818,-0.569,0.019,-0.082,0.043,0.32,0.15,-0.053,0.156,-0.957,1.958
2024-09-23 11:28:06.197,162019.034,0.095,0.751,-0.653,0.0,-0.013,0.015,0.808,0.286,-0.139,0.145,-0.85,1.91
2024-09-23 11:28:06.317,162019.154,0.105,0.726,-0.68,-0.003,0.012,0.011,0.225,0.207,-0.192,0.153,-0.813,1.871
2024-09-23 11:28:06.436,162019.274,0.095,0.714,-0.694,0.023,-0.011,0.008,0.19,0.011,-0.193,0.136,-0.795,1.835
2024-09-23 11:28:06.556,162019.393,0.086,0.709,-0.7,-0.007,-0.013,0.011,0.027,0.091,-0.092,0.123,-0.788,1.811
2024-09-23 11:28:06.676,162019.513,0.087,0.708,-0.7,0.006,-0.017,0.028,-0.001,-0.07,0.019,0.124,-0.787,1.808
2024-09-23 11:28:06.795,162019.633,0.081,0.707,-0.702,0.006,-0.001,0.014,0.014,-0.192,0.112,0.115,-0.785,1.819
2024-09-23 11:28:06.916,162019.753,0.079,0.697,-0.713,-0.002,0.028,-0.0,0.224,-0.121,0.176,0.111,-0.771,1.839
2024-09-23 11:28:07.036,162019.873,0.079,0.68,-0.729,0.021,0.03,0.014,0.193,-0.387,0.385,0.108,-0.748,1.876
