Date,TimeStamp,GravityX,GravityY,GravityZ,UserAccelerationX,UserAccelerationY,UserAccelerationZ,RotationRateX,RotationRateY,RotationRateZ,AttitudeRoll,AttitudePitch,AttitudeYaw
2024-10-15 13:23:24.979,72555.855,0.125,-0.193,-0.973,0.0,-0.007,0.007,-0.009,-0.007,-0.003,0.128,0.195,1.104
2024-10-15 13:23:25.011,72555.975,0.126,-0.192,-0.973,-0.009,-0.018,0.003,-0.021,0.009,-0.014,0.129,0.194,1.104
2024-10-15 13:23:25.026,72556.095,0.127,-0.19,-0.974,-0.008,0.023,0.003,0.012,0.005,0.008,0.129,0.191,1.102
2024-10-15 13:23:25.048,72556.215,0.129,-0.185,-0.974,-0.001,-0.005,0.026,0.097,-0.02,-0.057,0.131,0.187,1.097
2024-10-15 13:23:25.065,72556.335,0.136,-0.199,-0.97,-0.012,0.012,0.003,0.092,0.086,-0.056,0.139,0.201,1.088
2024-10-15 13:23:25.080,72556.454,0.14,-0.216,-0.966,-0.011,0.042,-0.024,0.269,-0.014,0.05,0.144,0.218,1.087
2024-10-15 13:23:25.126,72556.574,0.129,-0.255,-0.958,-0.039,-0.038,-0.064,0.315,-0.024,0.07,0.133,0.258,1.091
2024-10-15 13:23:25.246,72556.694,0.131,-0.278,-0.952,-0.096,-0.067,-0.03,-0.015,0.203,-0.146,0.137,0.281,1.089
2024-10-15 13:23:25.366,72556.814,0.159,-0.276,-0.948,-0.126,-0.072,0.049,-0.122,0.094,-0.373,0.166,0.28,1.06
2024-10-15 13:23:25.486,72556.934,0.177,-0.235,-0.956,-0.15,0.032,0.023,-0.337,0.047,-0.489,0.184,0.237,1.01
2024-10-15 13:23:25.606,72557.053,0.199,-0.085,-0.976,0.052,0.058,0.007,-2.467,0.098,-0.555,0.201,0.085,0.979
2024-10-15 13:23:25.726,72557.173,0.203,0.323,-0.924,0.068,0.084,0.041,-3.046,-0.053,-0.433,0.216,-0.329,1.004
2024-10-15 13:23:25.846,72557.293,0.166,0.588,-0.792,0.106,-0.154,-0.142,-2.223,0.014,-0.647,0.207,-0.629,1.0
2024-10-15 13:23:25.964,72557.413,0.138,0.716,-0.684,-0.016,0.125,-0.055,0.433,0.503,-0.31,0.199,-0.798,0.954
2024-10-15 13:23:26.085,72557.532,0.137,0.672,-0.728,0.075,0.03,0.117,0.095,0.135,-0.62,0.186,-0.737,0.858
2024-10-15 13:23:26.205,72557.652,0.075,0.663,-0.745,-0.051,0.15,0.157,0.368,-0.392,-0.214,0.1,-0.725,0.782
2024-10-15 13:23:26.325,72557.772,0.083,0.65,-0.755,0.128,0.22,-0.08,0.273,0.354,0.238,0.11,-0.707,0.793
2024-10-15 13:23:26.445,72557.892,0.121,0.579,-0.806,-0.023,0.256,0.042,1.393,-0.064,0.379,0.149,-0.618,0.826
2024-10-15 13:23:26.565,72558.012,0.123,0.445,-0.887,0.081,-0.042,-0.065,1.166,-0.206,0.154,0.138,-0.461,0.86
2024-10-15 13:23:26.684,72558.131,0.131,0.396,-0.909,-0.077,0.013,0.041,0.393,0.102,0.056,0.143,-0.407,0.858
2024-10-15 13:23:26.804,72558.251,0.137,0.35,-0.927,-0.01,-0.076,-0.052,0.162,0.102,-0.048,0.147,-0.357,0.86
2024-10-15 13:23:26.924,72558.371,0.149,0.28,-0.948,-0.003,0.078,-0.039,1.008,-0.086,0.378,0.156,-0.284,0.869
2024-10-15 13:23:27.043,72558.491,0.16,0.237,-0.958,-0.069,0.057,0.099,-0.214,0.058,0.288,0.165,-0.24,0.897
2024-10-15 13:23:27.163,72558.611,0.158,0.205,-0.966,0.012,0.309,0.015,0.812,-0.324,0.095,0.162,-0.206,0.898
2024-10-15 13:23:27.283,72558.73,0.139,0.169,-0.976,-0.007,-0.175,-0.057,-0.404,-0.194,-0.013,0.142,-0.17,0.9
2024-10-15 13:23:27.403,72558.85,0.14,0.17,-0.975,0.101,0.253,-0.069,0.761,-0.044,0.151,0.143,-0.171,0.906
2024-10-15 13:23:27.523,72558.97,0.112,0.129,-0.985,-0.099,-0.075,0.006,0.041,-0.329,-0.005,0.113,-0.129,0.907
2024-10-15 13:23:27.642,72559.09,0.125,0.158,-0.979,0.208,0.197,-0.045,0.207,0.125,0.015,0.127,-0.159,0.9
2024-10-15 13:23:27.762,72559.21,0.113,0.137,-0.984,-0.208,-0.12,0.012,-0.45,0.157,-0.203,0.114,-0.137,0.896
2024-10-15 13:23:27.882,72559.329,0.129,0.175,-0.976,0.177,0.207,-0.037,0.275,-0.017,0.162,0.132,-0.176,0.891
2024-10-15 13:23:28.001,72559.449,0.104,0.125,-0.987,-0.209,-0.237,-0.019,-0.175,-0.162,-0.237,0.105,-0.126,0.897
2024-10-15 13:23:28.121,72559.569,0.128,0.136,-0.982,0.262,0.068,-0.135,0.483,-0.025,0.299,0.13,-0.137,0.887
2024-10-15 13:23:28.241,72559.689,0.114,0.09,-0.989,-0.274,-0.27,0.153,-0.429,0.044,-0.552,0.115,-0.09,0.891
2024-10-15 13:23:28.361,72559.808,0.137,0.108,-0.985,0.398,0.052,-0.114,0.555,-0.309,0.506,0.138,-0.108,0.878
2024-10-15 13:23:28.481,72559.928,0.095,0.085,-0.992,-0.255,-0.006,0.206,-0.503,0.103,-0.548,0.096,-0.085,0.884
2024-10-15 13:23:28.601,72560.048,0.125,0.095,-0.988,0.414,0.015,-0.149,0.293,-0.14,0.202,0.126,-0.095,0.871
2024-10-15 13:23:28.720,72560.168,0.105,0.057,-0.993,-0.203,0.244,0.122,0.294,-0.404,0.038,0.105,-0.057,0.874
2024-10-15 13:23:28.840,72560.288,0.123,0.091,-0.988,0.558,0.213,-0.173,0.181,0.052,0.139,0.123,-0.092,0.866
2024-10-15 13:23:28.960,72560.407,0.097,0.068,-0.993,-0.302,0.359,0.052,0.112,-0.359,0.021,0.097,-0.068,0.861
2024-10-15 13:23:29.080,72560.527,0.119,0.121,-0.985,0.537,-0.11,0.213,-0.142,0.059,-0.085,0.12,-0.121,0.849
2024-10-15 13:23:29.200,72560.647,0.101,0.071,-0.992,-0.523,0.341,0.002,0.346,-0.318,0.204,0.102,-0.071,0.845
2024-10-15 13:23:29.319,72560.767,0.117,0.1,-0.988,0.456,-0.069,-0.011,-0.24,0.129,-0.033,0.118,-0.1,0.83
2024-10-15 13:23:29.439,72560.887,0.102,0.057,-0.993,-0.408,-0.029,-0.006,0.169,-0.259,0.133,0.103,-0.057,0.843
2024-10-15 13:23:29.558,72561.006,0.112,0.107,-0.988,0.387,-0.122,0.148,-0.053,0.141,0.051,0.113,-0.107,0.835
2024-10-15 13:23:29.679,72561.126,0.094,0.056,-0.994,-0.461,-0.196,-0.053,0.222,-0.206,0.057,0.094,-0.056,0.867
2024-10-15 13:23:29.798,72561.246,0.102,0.089,-0.991,0.335,-0.001,0.085,0.015,0.081,0.135,0.102,-0.089,0.861
2024-10-15 13:23:29.918,72561.366,0.088,0.053,-0.995,-0.302,-0.113,0.009,0.22,-0.122,0.109,0.088,-0.053,0.887
2024-10-15 13:23:30.038,72561.486,0.082,0.087,-0.993,0.115,0.019,-0.043,-0.496,0.09,-0.143,0.082,-0.087,0.872
2024-10-15 13:23:30.158,72561.605,0.053,0.141,-0.989,-0.251,0.226,-0.294,-0.668,0.13,0.093,0.053,-0.141,0.864
2024-10-15 13:23:30.279,72561.725,0.067,0.134,-0.989,0.102,-0.084,-0.007,0.382,-0.001,0.054,0.068,-0.135,0.887
2024-10-15 13:23:30.397,72561.845,0.07,0.074,-0.995,-0.059,-0.036,0.012,0.291,0.082,0.119,0.07,-0.074,0.899
2024-10-15 13:23:30.517,72561.965,0.072,0.093,-0.993,0.162,-0.479,-0.006,-0.307,0.066,-0.197,0.072,-0.094,0.925
2024-10-15 13:23:30.637,72562.084,0.064,0.078,-0.995,-0.037,0.046,-0.031,0.089,-0.075,0.041,0.065,-0.078,0.929
2024-10-15 13:23:30.757,72562.204,0.06,0.1,-0.993,0.221,-0.018,0.109,0.023,-0.055,0.027,0.06,-0.1,0.929
2024-10-15 13:23:30.877,72562.324,0.046,0.056,-0.997,-0.217,0.322,0.149,0.411,-0.248,-0.021,0.046,-0.056,0.917
2024-10-15 13:23:30.996,72562.444,0.047,0.112,-0.993,0.264,-0.317,-0.09,-0.324,0.076,-0.14,0.048,-0.112,0.917
2024-10-15 13:23:31.116,72562.564,0.035,0.098,-0.995,-0.164,0.179,0.055,0.389,-0.144,0.098,0.035,-0.098,0.914
2024-10-15 13:23:31.236,72562.683,0.035,0.131,-0.991,0.368,-0.106,0.027,0.012,-0.171,-0.158,0.035,-0.132,0.912
2024-10-15 13:23:31.356,72562.803,0.026,0.092,-0.995,-0.157,-0.088,0.009,0.192,0.024,-0.119,0.026,-0.093,0.903
2024-10-15 13:23:31.475,72562.923,0.04,0.127,-0.991,0.31,-0.123,0.121,-0.034,-0.246,-0.123,0.041,-0.127,0.895
2024-10-15 13:23:31.595,72563.043,0.028,0.094,-0.995,-0.172,-0.177,-0.069,-0.161,0.247,-0.225,0.028,-0.094,0.889
2024-10-15 13:23:31.715,72563.163,0.056,0.139,-0.989,0.116,-0.031,-0.173,0.094,-0.154,0.008,0.057,-0.14,0.884
2024-10-15 13:23:31.835,72563.282,0.05,0.101,-0.994,-0.148,-0.275,0.045,-0.047,0.215,-0.188,0.05,-0.101,0.873
2024-10-15 13:23:31.954,72563.402,0.07,0.146,-0.987,0.213,0.09,-0.048,0.155,-0.363,0.094,0.071,-0.146,0.87
2024-10-15 13:23:32.075,72563.522,0.055,0.103,-0.993,-0.21,-0.239,0.109,0.143,0.041,-0.215,0.055,-0.104,0.868
2024-10-15 13:23:32.194,72563.642,0.081,0.158,-0.984,0.109,0.023,-0.207,-0.109,-0.101,0.052,0.082,-0.159,0.863
2024-10-15 13:23:32.314,72563.762,0.072,0.136,-0.988,-0.103,-0.114,0.056,0.035,0.066,-0.051,0.073,-0.137,0.864
2024-10-15 13:23:32.433,72563.881,0.081,0.123,-0.989,0.052,0.033,0.172,0.297,-0.255,0.283,0.082,-0.123,0.874
2024-10-15 13:23:32.554,72564.001,0.065,0.113,-0.991,-0.006,0.07,0.026,-0.003,0.113,0.062,0.065,-0.113,0.886
2024-10-15 13:23:32.673,72564.121,0.051,0.084,-0.995,-0.152,-0.061,0.017,0.137,-0.266,0.072,0.051,-0.084,0.9
2024-10-15 13:23:32.793,72564.241,0.042,0.14,-0.989,0.285,-0.672,0.082,-0.437,-0.21,-0.421,0.042,-0.14,0.903
2024-10-15 13:23:32.913,72564.361,0.032,0.091,-0.995,-0.233,0.051,0.064,0.307,-0.036,0.025,0.032,-0.091,0.895
2024-10-15 13:23:33.033,72564.48,0.048,0.138,-0.989,0.305,-0.059,0.162,-0.437,0.01,-0.19,0.048,-0.139,0.893
2024-10-15 13:23:33.153,72564.6,0.037,0.105,-0.994,-0.16,-0.119,-0.07,0.171,0.08,-0.039,0.037,-0.105,0.902
2024-10-15 13:23:33.272,72564.72,0.028,0.337,-0.941,0.001,-0.271,0.035,-3.083,-0.347,-0.66,0.03,-0.344,0.878
2024-10-15 13:23:33.392,72564.84,-0.003,0.62,-0.785,-0.009,0.336,-0.065,-0.699,-0.137,-0.142,-0.004,-0.668,0.817
2024-10-15 13:23:33.512,72564.959,-0.006,0.621,-0.784,-0.026,0.142,0.107,0.747,-0.165,0.095,-0.008,-0.67,0.815
2024-10-15 13:23:33.632,72565.079,-0.006,0.54,-0.842,0.119,-0.028,-0.019,1.536,-0.037,0.362,-0.008,-0.571,0.857
2024-10-15 13:23:33.752,72565.199,0.016,0.436,-0.9,0.031,-0.019,-0.018,0.604,0.204,-0.204,0.018,-0.451,0.86
2024-10-15 13:23:33.872,72565.319,0.052,0.34,-0.939,-0.025,0.034,-0.033,0.93,0.136,0.243,0.056,-0.347,0.862
2024-10-15 13:23:33.991,72565.439,0.074,0.275,-0.958,0.012,-0.253,0.065,-0.015,0.106,0.063,0.077,-0.279,0.888
2024-10-15 13:23:34.111,72565.558,0.074,0.215,-0.974,-0.107,0.083,0.025,0.851,-0.315,0.27,0.076,-0.217,0.872
2024-10-15 13:23:34.231,72565.678,0.04,0.17,-0.985,0.26,-0.377,0.117,-0.192,-0.252,-0.267,0.04,-0.17,0.897
2024-10-15 13:23:34.351,72565.798,0.035,0.13,-0.991,-0.162,0.205,-0.012,0.88,-0.442,0.274,0.035,-0.131,0.877
2024-10-15 13:23:34.470,72565.918,0.02,0.124,-0.992,0.307,-0.53,0.096,-0.567,-0.336,-0.33,0.02,-0.124,0.888
2024-10-15 13:23:34.590,72566.038,0.009,0.092,-0.996,-0.2,0.212,0.048,0.43,-0.074,0.127,0.009,-0.092,0.869
2024-10-15 13:23:34.710,72566.157,0.013,0.098,-0.995,0.23,-0.391,0.112,-0.192,-0.128,-0.219,0.013,-0.098,0.877
2024-10-15 13:23:34.830,72566.277,0.003,0.079,-0.997,-0.245,0.03,-0.079,0.165,-0.001,-0.056,0.003,-0.079,0.858
2024-10-15 13:23:34.950,72566.397,0.006,0.073,-0.997,0.235,0.039,0.041,-0.0,-0.041,-0.151,0.006,-0.073,0.852
2024-10-15 13:23:35.069,72566.517,-0.005,0.058,-0.998,-0.123,-0.055,0.054,0.206,-0.059,-0.236,-0.005,-0.058,0.83
2024-10-15 13:23:35.189,72566.637,-0.001,0.061,-0.998,-0.174,0.004,-0.054,-0.793,0.126,-0.064,-0.001,-0.061,0.822
2024-10-15 13:23:35.309,72566.756,-0.004,0.082,-0.997,0.012,0.121,-0.019,0.415,0.169,-0.109,-0.004,-0.082,0.808
2024-10-15 13:23:35.428,72566.876,-0.006,0.059,-0.998,-0.108,-0.047,-0.004,0.146,0.111,0.041,-0.006,-0.059,0.804
2024-10-15 13:23:35.549,72566.996,-0.002,0.084,-0.996,0.318,-0.136,-0.014,-0.194,-0.079,-0.197,-0.002,-0.084,0.802
2024-10-15 13:23:35.668,72567.116,-0.005,0.061,-0.998,-0.3,0.357,-0.007,0.376,-0.056,0.161,-0.005,-0.061,0.791
2024-10-15 13:23:35.788,72567.235,-0.004,0.07,-0.998,0.245,-0.261,0.051,-0.673,0.052,-0.133,-0.004,-0.07,0.797
2024-10-15 13:23:35.908,72567.355,-0.012,0.089,-0.996,-0.321,0.119,-0.031,0.022,-0.061,0.176,-0.012,-0.089,0.794
2024-10-15 13:23:36.028,72567.475,-0.013,0.098,-0.995,0.32,-0.24,0.008,-0.102,-0.033,-0.157,-0.013,-0.098,0.799
2024-10-15 13:23:36.147,72567.595,-0.019,0.072,-0.997,-0.268,0.268,0.006,0.148,-0.09,0.065,-0.02,-0.072,0.778
2024-10-15 13:23:36.267,72567.715,-0.012,0.085,-0.996,0.162,-0.178,0.051,-0.345,0.137,0.119,-0.012,-0.085,0.798
2024-10-15 13:23:36.387,72567.834,-0.011,0.088,-0.996,0.046,-0.29,0.148,0.261,0.025,-0.333,-0.011,-0.088,0.775
2024-10-15 13:23:36.507,72567.954,-0.007,0.07,-0.998,-0.094,-0.161,-0.053,-0.213,0.036,0.058,-0.007,-0.07,0.765
2024-10-15 13:23:36.627,72568.074,-0.005,0.112,-0.994,0.229,-0.059,-0.033,-0.106,-0.163,-0.182,-0.005,-0.112,0.765
2024-10-15 13:23:36.746,72568.194,-0.02,0.052,-0.998,-0.194,-0.178,0.064,0.067,-0.065,0.068,-0.02,-0.052,0.767
2024-10-15 13:23:36.866,72568.314,-0.024,0.103,-0.994,0.405,0.01,-0.152,0.262,-0.105,-0.162,-0.024,-0.104,0.767
2024-10-15 13:23:36.986,72568.433,-0.017,0.05,-0.999,-0.209,0.2,0.006,0.325,-0.03,-0.008,-0.017,-0.05,0.759
2024-10-15 13:23:37.106,72568.553,-0.017,0.086,-0.996,-0.013,0.303,0.125,-0.471,-0.075,0.184,-0.017,-0.086,0.764
2024-10-15 13:23:37.226,72568.673,-0.023,0.145,-0.989,-0.32,-0.055,-0.335,-0.83,0.422,-0.254,-0.023,-0.145,0.746
2024-10-15 13:23:37.345,72568.793,0.005,0.24,-0.971,-0.008,0.129,0.015,0.019,-0.11,0.285,0.005,-0.242,0.752
2024-10-15 13:23:37.464,72568.913,0.027,0.224,-0.974,0.059,-0.154,-0.014,0.342,0.152,-0.018,0.028,-0.226,0.776
2024-10-15 13:23:37.585,72569.032,0.051,0.2,-0.979,0.022,0.124,0.09,0.647,0.203,0.333,0.052,-0.201,0.786
2024-10-15 13:23:37.705,72569.152,0.079,0.123,-0.989,-0.083,0.071,-0.054,0.194,0.166,0.197,0.079,-0.124,0.806
2024-10-15 13:23:37.824,72569.272,0.084,0.116,-0.99,0.026,0.078,-0.013,0.035,-0.013,0.255,0.085,-0.116,0.834
2024-10-15 13:23:37.944,72569.392,0.07,0.106,-0.992,0.078,0.138,-0.046,0.229,-0.039,-0.133,0.071,-0.106,0.828
2024-10-15 13:23:38.064,72569.512,0.061,0.095,-0.994,-0.038,0.003,-0.152,-0.236,0.086,0.177,0.061,-0.095,0.834
2024-10-15 13:23:38.184,72569.631,0.052,0.117,-0.992,0.019,0.222,-0.103,0.213,0.089,-0.166,0.052,-0.117,0.828
2024-10-15 13:23:38.303,72569.751,0.049,0.082,-0.995,-0.108,0.028,-0.034,0.294,0.131,0.16,0.05,-0.082,0.824
2024-10-15 13:23:38.423,72569.871,0.056,0.074,-0.996,0.224,-0.463,0.151,-0.269,-0.27,-0.334,0.056,-0.074,0.838
2024-10-15 13:23:38.543,72569.991,0.043,0.056,-0.998,-0.114,-0.0,0.023,0.03,-0.013,0.084,0.043,-0.056,0.836
2024-10-15 13:23:38.663,72570.11,0.024,0.071,-0.997,0.26,-0.199,0.099,-0.216,-0.474,-0.171,0.024,-0.071,0.845
2024-10-15 13:23:38.783,72570.23,0.011,0.046,-0.999,-0.222,0.281,-0.063,0.309,0.044,0.112,0.011,-0.046,0.833
2024-10-15 13:23:38.902,72570.35,0.013,0.053,-0.999,0.328,-0.41,0.138,-0.261,-0.209,-0.297,0.013,-0.053,0.837
2024-10-15 13:23:39.022,72570.47,0.008,0.025,-1.0,-0.276,0.389,-0.023,0.508,0.003,0.157,0.008,-0.025,0.812
2024-10-15 13:23:39.142,72570.59,0.006,0.032,-0.999,0.212,-0.503,0.084,-0.468,-0.216,-0.314,0.006,-0.032,0.827
2024-10-15 13:23:39.262,72570.709,0.004,0.023,-1.0,-0.265,0.504,0.031,0.059,0.084,0.108,0.004,-0.023,0.787
2024-10-15 13:23:39.381,72570.829,0.019,0.052,-0.998,0.276,-0.727,0.065,-0.462,-0.116,-0.399,0.019,-0.052,0.81
2024-10-15 13:23:39.502,72570.949,0.019,0.071,-0.997,-0.141,-0.002,0.033,-0.858,0.032,-0.482,0.019,-0.071,0.758
2024-10-15 13:23:39.622,72571.069,0.025,0.102,-0.994,-0.047,0.257,-0.062,-0.092,-0.058,0.24,0.025,-0.103,0.76
2024-10-15 13:23:39.741,72571.189,0.01,0.098,-0.995,-0.051,0.47,-0.044,0.477,-0.129,-0.209,0.01,-0.098,0.75
2024-10-15 13:23:39.861,72571.308,0.011,0.058,-0.998,-0.027,-0.002,-0.087,-0.239,0.041,0.338,0.011,-0.058,0.757
2024-10-15 13:23:39.981,72571.428,0.009,0.082,-0.997,-0.002,0.552,-0.126,0.658,0.073,-0.078,0.009,-0.082,0.752
2024-10-15 13:23:40.101,72571.548,0.01,0.031,-0.999,-0.004,-0.145,0.019,0.256,0.061,0.123,0.01,-0.031,0.759
2024-10-15 13:23:40.220,72571.668,0.017,0.031,-0.999,-0.149,-0.301,0.03,-0.321,-0.064,-0.209,0.018,-0.031,0.761
2024-10-15 13:23:40.340,72571.788,0.024,0.059,-0.998,-0.059,0.041,-0.09,-0.114,0.274,-0.006,0.024,-0.059,0.743
2024-10-15 13:23:40.460,72571.907,0.043,0.054,-0.998,0.061,0.158,-0.051,0.572,0.026,0.18,0.044,-0.054,0.749
2024-10-15 13:23:40.580,72572.027,0.02,0.056,-0.998,-0.093,-0.123,-0.181,-0.274,0.126,-0.337,0.02,-0.056,0.729
2024-10-15 13:23:40.699,72572.147,0.034,0.073,-0.997,0.075,0.003,0.053,0.077,0.252,0.069,0.034,-0.073,0.727
2024-10-15 13:23:40.819,72572.267,0.043,0.09,-0.995,-0.16,0.04,0.024,0.011,0.104,-0.017,0.043,-0.09,0.722
2024-10-15 13:23:40.939,72572.387,0.053,0.114,-0.992,0.147,-0.033,0.038,-0.25,-0.079,-0.071,0.053,-0.114,0.711
2024-10-15 13:23:41.059,72572.506,0.056,0.149,-0.987,0.018,0.123,0.216,0.203,-0.136,0.173,0.056,-0.15,0.706
2024-10-15 13:23:41.179,72572.626,0.037,0.09,-0.995,-0.111,0.14,-0.128,0.218,0.089,0.082,0.037,-0.091,0.711
2024-10-15 13:23:41.298,72572.746,0.029,0.095,-0.995,0.389,-0.059,0.178,0.212,-0.266,-0.022,0.029,-0.095,0.725
2024-10-15 13:23:41.418,72572.866,0.014,0.047,-0.999,-0.558,0.276,-0.112,0.231,0.294,0.145,0.014,-0.047,0.718
2024-10-15 13:23:41.538,72572.985,0.026,0.117,-0.993,0.127,-0.011,-0.046,-0.286,-0.039,0.234,0.026,-0.117,0.73
2024-10-15 13:23:41.658,72573.105,0.048,0.119,-0.992,0.021,-0.028,0.262,0.329,-0.112,-0.05,0.048,-0.119,0.727
2024-10-15 13:23:41.778,72573.225,0.054,0.094,-0.994,0.012,0.028,-0.04,0.09,-0.029,0.133,0.055,-0.094,0.732
2024-10-15 13:23:41.897,72573.345,0.056,0.079,-0.995,0.096,-0.235,0.153,-0.228,-0.08,-0.04,0.056,-0.079,0.76
2024-10-15 13:23:42.017,72573.465,0.05,0.05,-0.997,-0.157,-0.221,0.115,0.011,-0.075,0.14,0.05,-0.05,0.782
2024-10-15 13:23:42.137,72573.584,0.048,0.079,-0.996,0.096,-0.114,-0.133,-0.153,0.003,-0.303,0.048,-0.079,0.782
2024-10-15 13:23:42.257,72573.704,0.042,0.037,-0.998,-0.163,-0.206,0.029,0.034,-0.002,0.091,0.042,-0.037,0.777
2024-10-15 13:23:42.376,72573.824,0.038,0.076,-0.996,0.232,-0.828,0.035,-0.797,-0.036,-0.556,0.038,-0.076,0.792
2024-10-15 13:23:42.496,72573.944,0.033,0.06,-0.998,-0.185,0.211,0.033,0.134,0.004,0.059,0.033,-0.06,0.771
2024-10-15 13:23:42.616,72574.064,0.038,0.077,-0.996,0.078,-0.086,0.034,-0.144,-0.022,0.01,0.038,-0.077,0.772
2024-10-15 13:23:42.736,72574.183,0.032,0.07,-0.997,-0.022,-0.197,0.21,0.11,-0.115,-0.334,0.032,-0.07,0.753
2024-10-15 13:23:42.855,72574.303,0.029,0.061,-0.998,-0.027,-0.185,-0.011,-0.442,0.003,0.197,0.029,-0.061,0.751
2024-10-15 13:23:42.975,72574.423,0.034,0.084,-0.996,0.247,-0.295,0.027,-0.333,-0.049,-0.245,0.034,-0.085,0.765
2024-10-15 13:23:43.095,72574.543,0.015,0.051,-0.999,-0.38,0.483,0.052,0.694,-0.273,0.296,0.015,-0.051,0.746
2024-10-15 13:23:43.215,72574.663,-0.008,0.054,-0.998,0.413,-0.298,0.116,-0.203,-0.224,-0.141,-0.008,-0.054,0.763
2024-10-15 13:23:43.335,72574.782,-0.016,0.024,-1.0,-0.455,0.371,-0.019,0.268,0.088,0.071,-0.016,-0.024,0.74
2024-10-15 13:23:43.455,72574.902,-0.01,0.043,-0.999,0.258,-0.151,0.09,-0.028,-0.1,-0.038,-0.01,-0.043,0.747
2024-10-15 13:23:43.574,72575.022,-0.02,0.024,-1.0,-0.315,0.248,0.035,0.251,-0.038,0.005,-0.02,-0.024,0.729
2024-10-15 13:23:43.694,72575.142,-0.017,0.038,-0.999,0.111,0.009,-0.038,-0.177,0.099,0.158,-0.017,-0.038,0.743
2024-10-15 13:23:43.814,72575.261,-0.006,0.038,-0.999,0.03,-0.016,0.137,-0.086,0.126,-0.064,-0.006,-0.038,0.74
2024-10-15 13:23:43.934,72575.381,0.006,0.052,-0.999,-0.017,-0.004,-0.032,-0.331,-0.035,0.054,0.006,-0.052,0.74
2024-10-15 13:23:44.053,72575.501,0.016,0.068,-0.998,0.189,0.018,0.025,0.244,0.096,0.176,0.016,-0.068,0.763
2024-10-15 13:23:44.173,72575.621,0.037,0.068,-0.997,-0.063,-0.052,0.187,-0.427,0.152,-0.068,0.037,-0.068,0.754
2024-10-15 13:23:44.293,72575.741,0.045,0.098,-0.994,0.092,-0.039,-0.242,-0.481,0.017,0.245,0.045,-0.098,0.784
2024-10-15 13:23:44.413,72575.86,0.022,0.081,-0.996,-0.112,-0.031,0.071,0.429,-0.213,-0.055,0.022,-0.081,0.784
2024-10-15 13:23:44.533,72575.98,0.011,0.07,-0.998,-0.21,0.094,-0.097,-0.445,0.174,0.059,0.011,-0.07,0.785
2024-10-15 13:23:44.652,72576.1,0.028,0.082,-0.996,0.031,0.285,-0.186,0.806,0.491,0.108,0.028,-0.082,0.785
2024-10-15 13:23:44.772,72576.22,0.022,0.06,-0.998,-0.327,0.069,0.08,-0.065,-0.146,-0.037,0.022,-0.06,0.779
2024-10-15 13:23:44.892,72576.34,0.029,0.089,-0.996,0.292,-0.108,-0.02,-0.183,0.085,0.001,0.029,-0.089,0.767
2024-10-15 13:23:45.012,72576.459,0.03,0.062,-0.998,-0.238,-0.157,0.176,0.091,-0.163,-0.131,0.03,-0.062,0.764
2024-10-15 13:23:45.132,72576.579,0.022,0.091,-0.996,-0.111,-0.043,-0.153,-0.553,0.095,0.01,0.022,-0.091,0.762
2024-10-15 13:23:45.251,72576.699,0.024,0.088,-0.996,0.015,0.093,0.11,1.114,0.079,-0.235,0.024,-0.088,0.757
2024-10-15 13:23:45.371,72576.819,0.015,0.067,-0.998,-0.122,-0.324,0.078,-0.385,-0.133,-0.056,0.015,-0.067,0.738
2024-10-15 13:23:45.491,72576.939,0.017,0.095,-0.995,0.426,-0.164,-0.01,-0.121,-0.055,-0.04,0.017,-0.095,0.738
2024-10-15 13:23:45.611,72577.058,0.006,0.062,-0.998,-0.456,-0.06,-0.025,-0.168,-0.052,-0.101,0.006,-0.063,0.732
2024-10-15 13:23:45.730,72577.178,0.003,0.078,-0.997,0.258,-0.023,0.009,-0.159,0.054,-0.083,0.003,-0.078,0.719
2024-10-15 13:23:45.851,72577.298,0.008,0.055,-0.998,-0.023,-0.081,0.201,-0.048,-0.211,-0.024,0.008,-0.055,0.724
2024-10-15 13:23:45.970,72577.418,0.009,0.081,-0.997,-0.007,0.074,-0.042,-0.161,0.16,-0.103,0.009,-0.081,0.709
2024-10-15 13:23:46.090,72577.538,0.028,0.065,-0.998,0.407,-0.009,0.4,0.622,-0.165,0.008,0.028,-0.065,0.715
2024-10-15 13:23:46.210,72577.657,0.012,0.063,-0.998,-0.108,-0.198,-0.028,-0.683,-0.185,-0.032,0.012,-0.063,0.727
2024-10-15 13:23:46.329,72577.777,0.003,0.082,-0.997,0.285,0.084,-0.052,0.575,-0.107,-0.076,0.003,-0.082,0.726
2024-10-15 13:23:46.449,72577.897,0.008,0.027,-1.0,-0.461,0.311,-0.154,0.033,0.182,0.364,0.008,-0.027,0.72
2024-10-15 13:23:46.569,72578.017,0.019,0.109,-0.994,0.129,-0.009,0.013,-1.107,0.368,-0.214,0.019,-0.109,0.721
2024-10-15 13:23:46.689,72578.136,0.102,0.202,-0.974,0.114,-0.071,0.074,-0.557,0.596,-0.3,0.105,-0.204,0.688
2024-10-15 13:23:46.809,72578.256,0.111,0.297,-0.948,-0.032,0.035,0.076,-0.865,-0.037,-0.268,0.116,-0.301,0.654
2024-10-15 13:23:46.929,72578.376,0.109,0.326,-0.939,-0.043,0.034,0.029,-0.018,-0.041,0.052,0.116,-0.332,0.656
2024-10-15 13:23:47.049,72578.496,0.095,0.249,-0.964,0.005,0.184,0.066,1.808,-0.183,0.282,0.098,-0.252,0.664
2024-10-15 13:23:47.168,72578.616,0.087,0.153,-0.984,-0.157,0.04,0.076,-0.22,-0.215,0.596,0.088,-0.154,0.696
2024-10-15 13:23:47.288,72578.735,0.069,0.148,-0.987,0.119,-0.031,0.042,0.23,-0.043,-0.0,0.069,-0.148,0.712
2024-10-15 13:23:47.408,72578.855,0.053,0.105,-0.993,-0.046,-0.023,-0.072,-0.449,0.103,0.088,0.054,-0.105,0.721
2024-10-15 13:23:47.528,72578.975,0.046,0.121,-0.992,0.17,-0.064,0.031,0.627,-0.071,-0.136,0.046,-0.121,0.704
2024-10-15 13:23:47.648,72579.095,0.021,0.105,-0.994,0.054,0.027,0.185,-0.545,-0.352,0.267,0.022,-0.105,0.727
2024-10-15 13:23:47.767,72579.215,0.022,0.108,-0.994,0.049,0.208,0.22,0.202,-0.079,-0.049,0.022,-0.109,0.708
2024-10-15 13:23:47.887,72579.334,0.019,0.073,-0.997,-0.18,-0.058,0.011,0.371,0.014,0.085,0.019,-0.073,0.709
2024-10-15 13:23:48.007,72579.454,0.03,0.131,-0.991,0.331,-0.327,0.31,-0.244,-0.313,-0.179,0.03,-0.132,0.73
2024-10-15 13:23:48.126,72579.574,0.019,0.075,-0.997,-0.349,0.079,-0.037,0.653,0.253,0.177,0.019,-0.076,0.719
2024-10-15 13:23:48.246,72579.694,0.02,0.13,-0.991,0.142,-0.421,-0.11,-0.65,-0.117,0.031,0.02,-0.131,0.769
2024-10-15 13:23:48.366,72579.814,0.018,0.199,-0.98,0.004,0.135,-0.1,-0.964,0.661,-0.464,0.019,-0.2,0.725
2024-10-15 13:23:48.486,72579.933,0.053,0.461,-0.886,0.072,-0.28,-0.01,-4.004,-0.173,0.082,0.06,-0.479,0.732
2024-10-15 13:23:48.605,72580.053,-0.004,0.742,-0.67,-0.069,0.039,-0.088,-1.931,-0.497,-0.483,-0.006,-0.837,0.691
2024-10-15 13:23:48.725,72580.173,-0.036,0.779,-0.625,-0.07,-0.108,0.224,-0.074,-0.299,-0.205,-0.058,-0.894,0.664
2024-10-15 13:23:48.845,72580.293,-0.05,0.742,-0.668,0.044,-0.033,-0.038,0.404,-0.052,0.066,-0.075,-0.836,0.66
2024-10-15 13:23:48.966,72580.413,-0.042,0.738,-0.674,-0.001,0.01,-0.023,-0.022,0.09,0.059,-0.063,-0.829,0.669
2024-10-15 13:23:49.085,72580.532,-0.034,0.728,-0.684,0.008,0.013,0.004,0.275,-0.011,-0.004,-0.049,-0.816,0.675
2024-10-15 13:23:49.204,72580.652,-0.04,0.727,-0.685,-0.005,0.012,-0.008,-0.096,-0.057,0.014,-0.058,-0.814,0.673
2024-10-15 13:23:49.324,72580.772,-0.031,0.729,-0.684,-0.036,0.058,0.026,0.321,0.034,0.222,-0.046,-0.816,0.691
2024-10-15 13:23:49.444,72580.892,-0.014,0.654,-0.756,-0.016,0.011,0.027,1.3,0.013,0.199,-0.019,-0.713,0.732
2024-10-15 13:23:49.564,72581.011,0.011,0.546,-0.838,-0.054,-0.075,-0.063,0.568,0.387,0.086,0.013,-0.577,0.743
2024-10-15 13:23:49.684,72581.131,0.043,0.482,-0.875,0.066,-0.04,0.051,0.301,0.064,0.22,0.049,-0.503,0.753
2024-10-15 13:23:49.804,72581.251,0.053,0.381,-0.923,0.047,0.018,0.102,1.237,-0.251,0.479,0.058,-0.391,0.794
2024-10-15 13:23:49.924,72581.371,0.042,0.248,-0.968,-0.046,0.085,0.172,1.106,-0.391,0.459,0.043,-0.25,0.841
2024-10-15 13:23:50.043,72581.491,0.025,0.238,-0.971,-0.111,-0.05,-0.07,-0.517,0.364,-0.273,0.026,-0.24,0.843
2024-10-15 13:23:50.163,72581.61,0.058,0.26,-0.964,0.013,0.363,-0.209,0.949,0.325,0.258,0.06,-0.263,0.845
2024-10-15 13:23:50.282,72581.73,0.047,0.19,-0.981,-0.262,-0.021,0.041,0.635,-0.442,-0.022,0.047,-0.191,0.855
2024-10-15 13:23:50.403,72581.85,0.073,0.239,-0.968,0.462,-0.023,0.012,0.121,0.169,0.052,0.075,-0.242,0.833
2024-10-15 13:23:50.522,72581.97,0.081,0.169,-0.982,-0.253,-0.074,0.013,0.173,-0.229,0.192,0.082,-0.169,0.849
2024-10-15 13:23:50.642,72582.09,0.074,0.182,-0.981,-0.066,0.127,0.004,-0.305,0.228,-0.129,0.075,-0.183,0.844
2024-10-15 13:23:50.762,72582.209,0.084,0.168,-0.982,0.171,0.164,0.197,0.737,-0.389,0.175,0.085,-0.169,0.847
2024-10-15 13:23:50.882,72582.329,0.057,0.135,-0.989,-0.186,-0.086,0.043,-0.118,0.042,-0.128,0.057,-0.136,0.846
2024-10-15 13:23:51.001,72582.449,0.064,0.134,-0.989,0.073,0.209,-0.281,0.629,0.003,0.521,0.064,-0.134,0.852
2024-10-15 13:23:51.121,72582.569,0.041,0.121,-0.992,-0.291,-0.198,0.023,-0.656,0.131,-0.586,0.042,-0.121,0.855
2024-10-15 13:23:51.241,72582.689,0.067,0.151,-0.986,0.313,0.104,-0.248,0.496,0.049,0.308,0.068,-0.152,0.831
2024-10-15 13:23:51.361,72582.808,0.048,0.098,-0.994,-0.41,-0.258,0.22,-0.309,-0.157,-0.333,0.048,-0.099,0.845
2024-10-15 13:23:51.480,72582.928,0.076,0.138,-0.988,0.389,0.033,-0.018,-0.155,0.248,-0.107,0.076,-0.138,0.805
2024-10-15 13:23:51.600,72583.048,0.056,0.083,-0.995,-0.561,-0.316,-0.191,0.149,-0.157,-0.051,0.056,-0.083,0.835
2024-10-15 13:23:51.720,72583.168,0.072,0.133,-0.988,0.287,0.123,0.315,-0.449,0.447,-0.262,0.073,-0.134,0.784
2024-10-15 13:23:51.840,72583.288,0.075,0.091,-0.993,-0.11,-0.249,-0.033,0.419,-0.329,0.209,0.076,-0.091,0.812
2024-10-15 13:23:51.960,72583.407,0.101,0.112,-0.989,-0.002,-0.1,0.002,-0.094,0.889,-0.656,0.102,-0.112,0.778
2024-10-15 13:23:52.079,72583.527,0.157,0.195,-0.968,0.114,0.048,0.26,-0.697,0.141,0.195,0.161,-0.197,0.753
2024-10-15 13:23:52.199,72583.647,0.138,0.209,-0.968,-0.069,0.097,-0.213,0.497,0.094,-0.009,0.141,-0.211,0.767
2024-10-15 13:23:52.319,72583.767,0.128,0.194,-0.973,-0.047,0.108,-0.003,-0.081,-0.262,0.335,0.131,-0.196,0.765
2024-10-15 13:23:52.439,72583.886,0.113,0.186,-0.976,0.074,0.106,-0.017,0.618,-0.261,0.419,0.116,-0.188,0.809
2024-10-15 13:23:52.559,72584.006,0.101,0.144,-0.984,-0.061,-0.055,-0.124,0.203,-0.088,0.045,0.102,-0.145,0.83
2024-10-15 13:23:52.678,72584.126,0.106,0.16,-0.981,0.292,0.186,0.26,-0.069,-0.21,0.163,0.108,-0.161,0.82
2024-10-15 13:23:52.798,72584.246,0.075,0.11,-0.991,-0.366,-0.189,-0.248,0.576,-0.245,0.16,0.075,-0.11,0.861
2024-10-15 13:23:52.918,72584.366,0.095,0.151,-0.984,0.106,-0.043,0.051,-0.48,0.433,-0.191,0.096,-0.152,0.838
2024-10-15 13:23:53.038,72584.485,0.081,0.122,-0.989,-0.009,-0.078,0.065,0.646,-0.524,0.255,0.082,-0.122,0.854
2024-10-15 13:23:53.158,72584.605,0.07,0.131,-0.989,-0.044,0.09,0.085,-0.521,0.436,-0.166,0.071,-0.131,0.838
2024-10-15 13:23:53.277,72584.725,0.081,0.092,-0.992,-0.04,-0.176,0.028,0.607,-0.358,0.3,0.081,-0.093,0.868
2024-10-15 13:23:53.397,72584.845,0.072,0.105,-0.992,-0.286,-0.078,-0.07,-0.732,0.667,-0.488,0.072,-0.105,0.845
2024-10-15 13:23:53.517,72584.965,0.113,0.119,-0.986,0.136,0.108,0.191,0.476,-0.258,0.724,0.114,-0.119,0.856
2024-10-15 13:23:53.637,72585.084,0.073,0.079,-0.994,-0.392,-0.194,0.031,-0.534,0.031,-0.49,0.073,-0.079,0.863
2024-10-15 13:23:53.757,72585.204,0.103,0.13,-0.986,0.486,0.328,-0.261,0.222,0.305,0.163,0.104,-0.131,0.825
2024-10-15 13:23:53.876,72585.324,0.091,0.067,-0.994,-0.428,-0.252,0.105,0.122,-0.468,-0.134,0.092,-0.067,0.855
2024-10-15 13:23:53.996,72585.444,0.09,0.103,-0.991,0.459,0.108,0.313,-0.421,0.114,-0.315,0.091,-0.103,0.801
2024-10-15 13:23:54.116,72585.564,0.099,0.076,-0.992,-0.203,-0.086,-0.04,0.233,-0.145,0.106,0.1,-0.076,0.818
2024-10-15 13:23:54.236,72585.683,0.093,0.081,-0.992,-0.055,0.094,-0.074,-0.263,0.03,-0.03,0.094,-0.081,0.817
2024-10-15 13:23:54.356,72585.803,0.097,0.131,-0.987,0.408,-0.291,-0.02,-0.438,-0.166,-0.145,0.098,-0.132,0.822
2024-10-15 13:23:54.476,72585.923,0.097,0.106,-0.99,-0.232,-0.125,-0.106,-0.119,0.36,-0.22,0.098,-0.106,0.828
2024-10-15 13:23:54.595,72586.043,0.167,0.208,-0.964,0.044,0.115,0.178,-0.729,0.126,-0.114,0.172,-0.21,0.802
2024-10-15 13:23:54.715,72586.163,0.139,0.24,-0.961,-0.067,-0.098,-0.023,-0.361,-0.288,-0.086,0.143,-0.243,0.804
2024-10-15 13:23:54.835,72586.282,0.127,0.289,-0.949,0.048,0.015,-0.034,-0.237,0.19,-0.168,0.133,-0.293,0.788
2024-10-15 13:23:54.955,72586.402,0.15,0.263,-0.953,0.001,-0.068,-0.037,0.362,0.24,0.087,0.156,-0.266,0.787
2024-10-15 13:23:55.074,72586.522,0.165,0.2,-0.966,-0.015,0.044,0.006,0.373,0.196,0.375,0.17,-0.201,0.803
2024-10-15 13:23:55.194,72586.642,0.159,0.139,-0.977,-0.002,-0.017,-0.066,0.412,-0.204,0.205,0.162,-0.139,0.812
2024-10-15 13:23:55.314,72586.761,0.132,0.109,-0.985,-0.136,0.035,0.041,-0.321,-0.17,0.099,0.133,-0.11,0.833
2024-10-15 13:23:55.434,72586.881,0.132,0.107,-0.986,0.049,0.323,-0.219,0.758,0.247,0.054,0.133,-0.107,0.835
2024-10-15 13:23:55.553,72587.001,0.13,0.092,-0.987,-0.115,0.008,-0.082,-0.375,0.11,-0.268,0.131,-0.092,0.818
2024-10-15 13:23:55.673,72587.121,0.148,0.122,-0.981,0.368,0.166,0.003,0.197,0.009,0.121,0.15,-0.123,0.8
2024-10-15 13:23:55.793,72587.241,0.138,0.097,-0.986,-0.364,0.141,-0.172,-0.095,-0.056,-0.128,0.139,-0.097,0.8
2024-10-15 13:23:55.913,72587.36,0.147,0.136,-0.98,0.172,0.117,0.186,-0.302,0.067,-0.089,0.149,-0.136,0.784
2024-10-15 13:23:56.032,72587.48,0.157,0.112,-0.981,-0.057,0.052,-0.015,0.377,0.011,0.252,0.159,-0.112,0.79
2024-10-15 13:23:56.152,72587.6,0.147,0.122,-0.982,0.119,-0.131,0.07,-1.241,-0.275,0.63,0.149,-0.122,0.83
2024-10-15 13:23:56.273,72587.72,0.13,0.129,-0.983,-0.052,0.401,-0.012,0.393,0.084,-0.39,0.131,-0.13,0.836
2024-10-15 13:23:56.392,72587.84,0.132,0.11,-0.985,-0.091,-0.059,0.061,0.072,-0.073,-0.046,0.134,-0.11,0.821
2024-10-15 13:23:56.512,72587.959,0.13,0.118,-0.985,0.235,-0.484,-0.033,-0.501,0.012,-0.139,0.131,-0.118,0.839
2024-10-15 13:23:56.631,72588.079,0.124,0.115,-0.986,-0.185,0.164,0.08,0.041,-0.076,0.055,0.125,-0.115,0.816
2024-10-15 13:23:56.751,72588.199,0.125,0.11,-0.986,0.021,0.402,0.05,-0.074,-0.099,0.414,0.126,-0.11,0.841
2024-10-15 13:23:56.871,72588.319,0.12,0.113,-0.986,-0.076,0.259,0.052,0.271,-0.107,-0.059,0.121,-0.113,0.832
2024-10-15 13:23:56.991,72588.439,0.129,0.125,-0.984,0.241,0.041,0.059,-0.261,0.221,0.003,0.13,-0.125,0.824
2024-10-15 13:23:57.111,72588.558,0.125,0.114,-0.986,-0.236,-0.272,-0.084,0.182,-0.373,-0.124,0.126,-0.114,0.834
2024-10-15 13:23:57.230,72588.678,0.102,0.112,-0.988,0.219,-0.129,0.231,-0.4,-0.092,-0.248,0.103,-0.112,0.812
2024-10-15 13:23:57.350,72588.798,0.103,0.092,-0.99,-0.295,-0.225,-0.139,0.389,-0.111,0.079,0.104,-0.092,0.831
2024-10-15 13:23:57.470,72588.918,0.106,0.104,-0.989,-0.093,-0.024,0.076,-0.285,0.305,-0.49,0.107,-0.104,0.793
2024-10-15 13:23:57.590,72589.038,0.133,0.11,-0.985,0.066,0.051,-0.153,0.878,0.285,0.329,0.134,-0.11,0.784
2024-10-15 13:23:57.710,72589.157,0.116,0.044,-0.992,-0.242,-0.081,0.086,-0.069,-0.215,-0.211,0.117,-0.044,0.787
2024-10-15 13:23:57.829,72589.277,0.119,0.077,-0.99,0.417,0.099,-0.059,-0.112,0.249,-0.062,0.119,-0.077,0.761
2024-10-15 13:23:57.949,72589.397,0.118,0.039,-0.992,-0.282,0.093,-0.017,0.3,-0.096,0.149,0.118,-0.039,0.772
2024-10-15 13:23:58.069,72589.517,0.109,0.047,-0.993,-0.05,0.066,-0.238,-0.258,0.149,-0.022,0.109,-0.047,0.766
2024-10-15 13:23:58.189,72589.636,0.107,0.019,-0.994,0.252,0.145,0.299,0.726,-0.083,-0.164,0.107,-0.019,0.754
2024-10-15 13:23:58.310,72589.756,0.109,0.015,-0.994,-0.197,-0.163,-0.055,-0.449,0.121,-0.052,0.11,-0.015,0.743
2024-10-15 13:23:58.428,72589.876,0.128,0.071,-0.989,0.13,-0.019,-0.102,0.14,0.373,-0.294,0.129,-0.071,0.743
2024-10-15 13:23:58.548,72589.996,0.156,0.071,-0.985,-0.033,0.004,0.114,-0.155,-0.099,-0.04,0.157,-0.071,0.724
2024-10-15 13:23:58.668,72590.116,0.143,0.135,-0.98,0.013,0.005,-0.07,-0.415,0.078,-0.156,0.144,-0.136,0.719
2024-10-15 13:23:58.788,72590.235,0.142,0.19,-0.971,-0.01,-0.041,-0.001,-0.541,-0.169,0.222,0.145,-0.192,0.73
2024-10-15 13:23:58.907,72590.355,0.145,0.163,-0.976,0.069,0.092,0.028,0.676,-0.197,0.156,0.147,-0.164,0.748
2024-10-15 13:23:59.028,72590.475,0.144,0.103,-0.984,0.085,-0.001,0.063,0.327,0.01,0.293,0.145,-0.103,0.77
2024-10-15 13:23:59.147,72590.595,0.137,0.069,-0.988,-0.236,-0.075,-0.148,0.247,-0.17,0.239,0.138,-0.069,0.796
2024-10-15 13:23:59.267,72590.715,0.108,0.091,-0.99,-0.053,0.002,-0.081,-0.542,0.081,-0.175,0.109,-0.091,0.789
2024-10-15 13:23:59.387,72590.834,0.129,0.116,-0.985,0.147,0.223,-0.155,0.539,0.319,0.33,0.13,-0.116,0.789
2024-10-15 13:23:59.507,72590.954,0.116,0.084,-0.99,-0.39,0.004,0.08,0.017,-0.228,-0.142,0.117,-0.084,0.789
2024-10-15 13:23:59.627,72591.074,0.115,0.114,-0.987,0.556,0.216,0.014,0.24,0.126,0.152,0.116,-0.114,0.773
2024-10-15 13:23:59.745,72591.194,0.126,0.051,-0.991,-0.17,-0.105,-0.002,0.34,-0.072,0.264,0.127,-0.051,0.815
2024-10-15 13:23:59.866,72591.314,0.116,0.056,-0.992,-0.066,0.088,-0.103,-0.149,0.097,-0.092,0.116,-0.056,0.807
2024-10-15 13:23:59.987,72591.433,0.121,0.03,-0.992,-0.065,0.034,0.0,0.529,-0.181,0.411,0.121,-0.03,0.826
2024-10-15 13:24:00.106,72591.553,0.093,0.027,-0.995,-0.173,0.098,-0.218,-0.141,0.093,-0.288,0.093,-0.027,0.816
2024-10-15 13:24:00.225,72591.673,0.126,0.051,-0.991,0.135,0.197,-0.078,0.315,0.501,0.234,0.126,-0.052,0.801
2024-10-15 13:24:00.345,72591.793,0.137,0.036,-0.99,-0.371,-0.188,0.102,-0.124,-0.224,-0.187,0.137,-0.036,0.814
2024-10-15 13:24:00.465,72591.913,0.141,0.068,-0.988,0.574,0.13,0.225,-0.23,0.327,-0.205,0.142,-0.068,0.779
2024-10-15 13:24:00.585,72592.032,0.171,0.034,-0.985,-0.337,-0.228,-0.289,0.278,0.078,0.253,0.172,-0.034,0.798
2024-10-15 13:24:00.704,72592.152,0.166,0.098,-0.981,0.054,-0.082,0.04,-1.619,0.35,-0.832,0.167,-0.099,0.769
2024-10-15 13:24:00.824,72592.272,0.21,0.232,-0.95,0.081,0.347,0.092,-0.81,0.517,-0.277,0.218,-0.234,0.683
2024-10-15 13:24:00.944,72592.392,0.235,0.277,-0.932,0.042,-0.045,-0.044,-0.133,-0.021,0.172,0.247,-0.28,0.713
2024-10-15 13:24:01.064,72592.511,0.241,0.289,-0.927,0.015,0.163,0.139,1.241,-0.198,0.106,0.254,-0.294,0.714
2024-10-15 13:24:01.184,72592.631,0.235,0.174,-0.956,-0.151,-0.254,-0.105,0.333,0.103,0.095,0.241,-0.175,0.721
2024-10-15 13:24:01.303,72592.751,0.243,0.141,-0.96,0.353,-0.07,0.295,0.392,-0.301,0.27,0.248,-0.141,0.736
2024-10-15 13:24:01.423,72592.871,0.198,0.08,-0.977,-0.518,0.16,-0.197,0.21,-0.47,0.144,0.2,-0.08,0.74
2024-10-15 13:24:01.543,72592.991,0.169,0.069,-0.983,0.317,-0.092,0.016,0.014,0.002,0.08,0.17,-0.069,0.756
2024-10-15 13:24:01.663,72593.11,0.172,0.065,-0.983,-0.056,-0.111,0.21,-0.662,0.151,-0.364,0.173,-0.065,0.745
2024-10-15 13:24:01.782,72593.23,0.202,0.173,-0.964,-0.012,0.004,0.05,-0.457,0.039,-0.31,0.207,-0.174,0.713
2024-10-15 13:24:01.902,72593.35,0.195,0.21,-0.958,0.114,-0.012,-0.179,-0.188,0.141,-0.035,0.201,-0.212,0.699
2024-10-15 13:24:02.023,72593.47,0.205,0.178,-0.962,0.038,0.01,-0.042,0.32,0.116,0.134,0.21,-0.179,0.704
2024-10-15 13:24:02.142,72593.59,0.202,0.097,-0.974,-0.045,0.01,-0.014,0.591,-0.088,0.28,0.205,-0.098,0.714
2024-10-15 13:24:02.262,72593.709,0.21,0.107,-0.972,0.136,-0.285,0.093,-0.304,0.023,0.016,0.213,-0.107,0.749
2024-10-15 13:24:02.381,72593.829,0.194,0.099,-0.976,-0.287,0.094,-0.075,0.139,-0.119,0.145,0.196,-0.099,0.757
2024-10-15 13:24:02.501,72593.949,0.177,0.128,-0.976,-0.036,0.007,-0.041,-0.576,-0.102,0.192,0.18,-0.128,0.786
2024-10-15 13:24:02.621,72594.069,0.166,0.136,-0.977,0.029,0.495,0.031,0.746,-0.227,-0.129,0.169,-0.136,0.764
2024-10-15 13:24:02.741,72594.189,0.156,0.113,-0.981,-0.161,-0.112,-0.008,0.006,-0.093,0.121,0.158,-0.114,0.761
2024-10-15 13:24:02.861,72594.308,0.154,0.149,-0.977,0.396,-0.264,0.116,0.018,-0.066,-0.155,0.156,-0.149,0.781
2024-10-15 13:24:02.981,72594.428,0.15,0.13,-0.98,-0.397,0.329,-0.093,-0.019,0.081,0.008,0.152,-0.13,0.754
2024-10-15 13:24:03.100,72594.548,0.153,0.16,-0.975,0.035,0.314,-0.097,-0.16,-0.122,0.358,0.156,-0.16,0.782
2024-10-15 13:24:03.220,72594.668,0.143,0.164,-0.976,0.059,0.355,0.126,0.453,-0.23,-0.19,0.146,-0.165,0.772
2024-10-15 13:24:03.340,72594.788,0.135,0.155,-0.979,-0.128,0.077,-0.016,0.171,-0.06,0.255,0.137,-0.155,0.765
2024-10-15 13:24:03.460,72594.907,0.133,0.182,-0.974,0.246,-0.711,-0.107,-0.375,-0.11,-0.326,0.136,-0.183,0.807
2024-10-15 13:24:03.579,72595.027,0.122,0.174,-0.977,-0.221,0.189,0.124,-0.008,-0.075,0.09,0.124,-0.175,0.775
2024-10-15 13:24:03.700,72595.147,0.123,0.188,-0.975,0.08,0.213,-0.01,-0.264,-0.115,0.402,0.125,-0.189,0.81
2024-10-15 13:24:03.819,72595.267,0.122,0.204,-0.971,0.046,0.352,0.098,0.28,0.041,-0.087,0.125,-0.206,0.796
2024-10-15 13:24:03.939,72595.386,0.13,0.177,-0.976,-0.088,-0.054,-0.16,-0.031,0.099,0.268,0.133,-0.178,0.805
2024-10-15 13:24:04.059,72595.506,0.127,0.214,-0.968,0.118,-0.057,-0.048,0.112,0.041,-0.414,0.131,-0.216,0.803
2024-10-15 13:24:04.178,72595.626,0.118,0.172,-0.978,-0.242,0.38,0.008,0.297,-0.126,0.274,0.12,-0.173,0.776
2024-10-15 13:24:04.298,72595.746,0.119,0.193,-0.974,0.208,-0.387,-0.01,-0.067,-0.047,-0.218,0.121,-0.195,0.804
2024-10-15 13:24:04.418,72595.866,0.114,0.191,-0.975,-0.276,0.459,0.092,0.304,-0.024,0.226,0.117,-0.192,0.766
2024-10-15 13:24:04.538,72595.985,0.122,0.18,-0.976,0.015,0.116,-0.069,-0.332,-0.0,0.433,0.124,-0.181,0.788
2024-10-15 13:24:04.658,72596.105,0.129,0.18,-0.975,-0.015,-0.082,-0.152,0.113,0.46,-0.319,0.131,-0.181,0.794
2024-10-15 13:24:04.777,72596.225,0.161,0.179,-0.971,0.032,0.052,0.189,0.471,-0.369,0.135,0.164,-0.18,0.788
2024-10-15 13:24:04.897,72596.345,0.153,0.156,-0.976,-0.042,0.031,0.02,-0.341,-0.142,0.371,0.156,-0.157,0.801
2024-10-15 13:24:05.017,72596.465,0.139,0.192,-0.971,0.087,-0.276,-0.039,-0.55,-0.023,-0.438,0.142,-0.193,0.828
2024-10-15 13:24:05.137,72596.584,0.137,0.164,-0.977,-0.175,0.853,0.059,0.591,-0.148,0.405,0.139,-0.164,0.778
2024-10-15 13:24:05.256,72596.704,0.123,0.165,-0.979,0.202,-0.5,-0.099,0.075,-0.046,-0.134,0.125,-0.166,0.833
2024-10-15 13:24:05.376,72596.824,0.115,0.164,-0.98,-0.13,0.102,0.178,-0.204,0.029,-0.194,0.117,-0.164,0.776
2024-10-15 13:24:05.496,72596.944,0.117,0.168,-0.979,0.151,-0.004,-0.004,-0.248,-0.036,0.368,0.119,-0.169,0.812
2024-10-15 13:24:05.616,72597.064,0.112,0.166,-0.98,-0.098,-0.057,0.097,0.218,0.018,-0.525,0.114,-0.167,0.763
2024-10-15 13:24:05.736,72597.183,0.112,0.162,-0.98,-0.232,0.338,0.147,0.167,-0.235,0.687,0.114,-0.162,0.784
2024-10-15 13:24:05.855,72597.303,0.102,0.176,-0.979,-0.031,0.5,-0.205,0.951,0.096,-0.59,0.104,-0.177,0.773
2024-10-15 13:24:05.975,72597.423,0.101,0.15,-0.984,-0.037,-0.262,-0.062,-0.206,-0.087,0.146,0.102,-0.15,0.755
2024-10-15 13:24:06.095,72597.543,0.086,0.192,-0.978,0.264,-0.657,0.086,-0.202,-0.29,-0.391,0.088,-0.194,0.787
2024-10-15 13:24:06.215,72597.663,0.074,0.151,-0.986,-0.285,0.786,-0.029,0.311,0.049,0.316,0.075,-0.152,0.747
2024-10-15 13:24:06.335,72597.782,0.088,0.169,-0.982,0.245,-0.37,-0.046,0.237,-0.018,0.071,0.089,-0.17,0.799
2024-10-15 13:24:06.455,72597.902,0.086,0.144,-0.986,-0.162,0.329,0.313,-0.177,-0.16,0.057,0.087,-0.144,0.742
2024-10-15 13:24:06.574,72598.022,0.089,0.169,-0.982,0.044,0.144,-0.097,-0.353,0.051,0.497,0.09,-0.17,0.773
2024-10-15 13:24:06.694,72598.142,0.093,0.159,-0.983,0.076,-0.311,-0.022,0.286,0.321,-0.512,0.094,-0.16,0.754
2024-10-15 13:24:06.814,72598.261,0.087,0.147,-0.985,-0.12,-0.262,0.006,-0.71,-0.103,0.112,0.088,-0.148,0.748
2024-10-15 13:24:06.934,72598.381,0.091,0.177,-0.98,0.19,-0.259,0.225,0.361,0.104,-0.199,0.093,-0.178,0.777
2024-10-15 13:24:07.053,72598.501,0.097,0.149,-0.984,-0.091,0.19,0.331,0.2,-0.712,0.449,0.098,-0.149,0.772
2024-10-15 13:24:07.173,72598.621,0.088,0.163,-0.983,0.046,0.021,-0.162,-0.606,-0.021,0.42,0.089,-0.163,0.801
2024-10-15 13:24:07.293,72598.741,0.083,0.164,-0.983,0.134,0.424,0.032,1.093,0.044,-0.442,0.084,-0.164,0.792
2024-10-15 13:24:07.413,72598.86,0.086,0.127,-0.988,-0.618,-0.091,-1.663,-0.334,0.602,-0.037,0.087,-0.127,0.777
2024-10-15 13:24:07.533,72598.98,0.08,0.169,-0.982,0.255,-0.325,-0.106,-0.399,-0.037,0.11,0.081,-0.17,0.818
2024-10-15 13:24:07.653,72599.1,0.087,0.198,-0.976,-0.07,-0.264,-0.013,-0.213,0.741,-0.53,0.089,-0.199,0.786
2024-10-15 13:24:07.772,72599.22,0.09,0.188,-0.978,0.108,0.066,0.073,-0.444,-0.029,0.39,0.092,-0.189,0.773
2024-10-15 13:24:07.892,72599.34,0.074,0.295,-0.953,-0.021,-0.354,0.165,-1.999,-0.118,-0.308,0.078,-0.299,0.803
2024-10-15 13:24:08.011,72599.459,0.096,0.637,-0.765,0.071,-0.082,0.217,-3.672,0.475,-0.579,0.125,-0.691,0.761
2024-10-15 13:24:08.131,72599.579,0.094,0.767,-0.635,0.184,0.083,0.114,0.358,-0.183,-0.183,0.148,-0.874,0.752
2024-10-15 13:24:08.251,72599.699,0.09,0.763,-0.64,-0.004,-0.051,-0.011,-0.326,-0.016,-0.044,0.139,-0.868,0.743
2024-10-15 13:24:08.371,72599.819,0.09,0.776,-0.624,-0.004,0.005,0.036,0.485,-0.023,0.088,0.143,-0.889,0.748
2024-10-15 13:24:08.491,72599.939,0.09,0.731,-0.676,-0.036,-0.062,-0.088,-0.353,0.306,-0.095,0.133,-0.82,0.736
2024-10-15 13:24:08.611,72600.058,0.133,0.704,-0.697,0.076,0.066,0.088,1.533,-0.215,0.223,0.189,-0.782,0.774
2024-10-15 13:24:08.730,72600.178,0.073,0.724,-0.686,-0.137,0.069,-0.177,-1.349,0.297,-0.136,0.106,-0.809,0.695
2024-10-15 13:24:08.850,72600.298,0.051,0.731,-0.68,0.031,0.025,0.052,0.3,-0.254,-0.141,0.075,-0.82,0.669
2024-10-15 13:24:08.969,72600.418,0.027,0.738,-0.674,0.015,-0.016,-0.027,-0.033,-0.065,-0.035,0.04,-0.83,0.648
2024-10-15 13:24:09.090,72600.538,0.022,0.743,-0.669,0.07,-0.058,-0.025,-0.182,-0.083,-0.143,0.033,-0.838,0.643
2024-10-15 13:24:09.210,72600.657,0.004,0.738,-0.674,-0.052,0.037,0.043,0.247,-0.247,0.008,0.005,-0.831,0.632
2024-10-15 13:24:09.329,72600.777,-0.003,0.716,-0.698,0.013,-0.107,-0.021,-0.43,-0.02,0.011,-0.005,-0.798,0.646
2024-10-15 13:24:09.450,72600.897,0.001,0.758,-0.652,-0.007,0.065,0.036,-0.133,0.084,-0.026,0.002,-0.861,0.637
2024-10-15 13:24:09.569,72601.017,0.004,0.76,-0.65,-0.01,0.004,-0.011,-0.071,-0.034,0.05,0.007,-0.863,0.643
2024-10-15 13:24:09.689,72601.137,0.005,0.761,-0.649,-0.007,0.013,0.011,0.081,-0.035,0.104,0.008,-0.865,0.655
2024-10-15 13:24:09.809,72601.256,0.013,0.742,-0.67,-0.002,0.027,-0.003,0.409,0.007,0.13,0.02,-0.836,0.673
2024-10-15 13:24:09.928,72601.376,0.036,0.681,-0.731,-0.007,0.101,-0.063,1.544,0.08,0.305,0.049,-0.75,0.715
2024-10-15 13:24:10.048,72601.496,0.075,0.514,-0.854,0.026,-0.107,0.069,1.164,-0.069,0.491,0.088,-0.54,0.764
2024-10-15 13:24:10.168,72601.616,0.075,0.464,-0.883,-0.016,-0.076,0.033,-0.257,-0.329,0.175,0.084,-0.482,0.812
2024-10-15 13:24:10.288,72601.735,0.06,0.456,-0.888,-0.023,0.03,0.016,0.671,-0.007,0.189,0.068,-0.474,0.824
2024-10-15 13:24:10.408,72601.855,0.071,0.384,-0.921,0.08,0.07,0.02,1.236,-0.291,0.604,0.077,-0.394,0.864
2024-10-15 13:24:10.528,72601.975,0.043,0.243,-0.969,-0.102,0.037,-0.042,1.213,-0.216,0.214,0.045,-0.245,0.918
2024-10-15 13:24:10.648,72602.095,0.046,0.175,-0.984,-0.026,0.105,-0.037,0.272,0.074,0.114,0.047,-0.176,0.923
2024-10-15 13:24:10.767,72602.215,0.047,0.117,-0.992,0.045,0.049,0.016,0.247,-0.149,0.275,0.048,-0.117,0.952
2024-10-15 13:24:10.887,72602.334,0.044,0.102,-0.994,0.065,0.052,-0.022,0.748,-0.143,-0.061,0.044,-0.102,0.941
2024-10-15 13:24:11.007,72602.454,0.021,0.071,-0.997,-0.06,-0.152,0.048,-0.336,-0.238,0.083,0.021,-0.072,0.952
2024-10-15 13:24:11.126,72602.574,0.032,0.102,-0.994,0.051,0.29,-0.207,1.0,0.451,-0.584,0.032,-0.102,0.913
2024-10-15 13:24:11.247,72602.694,0.014,0.052,-0.999,-0.177,-0.123,0.184,-0.199,-0.257,0.277,0.014,-0.052,0.917
2024-10-15 13:24:11.366,72602.814,0.017,0.096,-0.995,0.008,0.172,-0.114,-0.022,0.233,-0.541,0.017,-0.096,0.888
2024-10-15 13:24:11.486,72602.933,-0.0,0.071,-0.997,-0.123,0.023,-0.055,0.09,-0.136,0.129,-0.0,-0.071,0.87
2024-10-15 13:24:11.606,72603.053,-0.003,0.089,-0.996,0.221,-0.04,-0.098,0.341,0.049,-0.285,-0.003,-0.089,0.866
2024-10-15 13:24:11.725,72603.173,-0.001,0.008,-1.0,-0.407,0.811,-0.044,0.613,-0.125,0.366,-0.001,-0.008,0.827
2024-10-15 13:24:11.845,72603.293,-0.01,0.014,-1.0,0.203,-0.158,0.005,-0.005,0.01,0.225,-0.01,-0.014,0.869
2024-10-15 13:24:11.965,72603.413,-0.016,-0.007,-1.0,-0.131,0.111,0.115,0.231,-0.138,-0.353,-0.016,0.007,0.826
2024-10-15 13:24:12.085,72603.532,-0.027,-0.001,-1.0,0.029,0.056,-0.047,-0.208,-0.097,0.281,-0.027,0.001,0.848
2024-10-15 13:24:12.205,72603.652,-0.031,-0.0,-1.0,-0.117,0.253,-0.004,0.475,-0.129,-0.247,-0.031,0.0,0.83
2024-10-15 13:24:12.323,72603.772,-0.037,-0.016,-0.999,-0.058,-0.08,-0.096,-0.263,0.079,0.292,-0.037,0.016,0.832
2024-10-15 13:24:12.444,72603.892,-0.038,0.008,-0.999,0.249,-0.208,-0.007,0.143,-0.136,-0.399,-0.038,-0.008,0.834
2024-10-15 13:24:12.564,72604.012,-0.049,-0.037,-0.998,-0.239,0.384,-0.024,0.129,-0.027,0.191,-0.049,0.037,0.814
2024-10-15 13:24:12.684,72604.131,-0.048,-0.019,-0.999,0.367,-0.624,0.021,-0.378,-0.035,-0.372,-0.048,0.019,0.829
2024-10-15 13:24:12.803,72604.251,-0.058,-0.044,-0.997,-0.3,0.307,0.094,0.142,-0.209,0.083,-0.058,0.044,0.8
2024-10-15 13:24:12.923,72604.371,-0.063,-0.029,-0.998,0.126,-0.191,-0.074,-0.112,0.1,0.158,-0.063,0.029,0.832
2024-10-15 13:24:13.043,72604.491,-0.034,-0.012,-0.999,-0.161,-0.043,-0.124,-0.367,0.738,-0.605,-0.034,0.012,0.803
2024-10-15 13:24:13.167,72604.61,0.019,0.059,-0.998,0.099,0.043,0.153,-0.301,-0.148,0.059,0.019,-0.059,0.768
2024-10-15 13:24:13.283,72604.73,-0.004,0.05,-0.999,-0.04,0.033,-0.02,0.305,0.266,0.026,-0.004,-0.05,0.777
2024-10-15 13:24:13.402,72604.85,-0.01,0.031,-0.999,-0.05,0.172,-0.122,-0.141,-0.174,0.659,-0.01,-0.031,0.821
2024-10-15 13:24:13.522,72604.97,-0.017,0.051,-0.999,-0.048,0.633,-0.318,0.911,0.06,-0.099,-0.017,-0.051,0.818
2024-10-15 13:24:13.642,72605.09,-0.007,0.012,-1.0,-0.208,0.14,0.136,0.216,-0.059,0.203,-0.007,-0.012,0.812
2024-10-15 13:24:13.762,72605.209,-0.005,0.04,-0.999,0.314,-0.747,0.065,-0.687,-0.091,-0.42,-0.005,-0.04,0.838
2024-10-15 13:24:13.882,72605.329,-0.006,0.015,-1.0,-0.16,0.252,0.021,0.311,-0.027,-0.006,-0.006,-0.015,0.813
2024-10-15 13:24:14.002,72605.449,-0.011,0.016,-1.0,0.2,-0.334,-0.18,-0.182,0.105,0.229,-0.011,-0.016,0.855
2024-10-15 13:24:14.121,72605.569,-0.013,0.009,-1.0,0.236,-0.274,0.17,0.267,-0.031,-0.288,-0.013,-0.009,0.832
2024-10-15 13:24:14.241,72605.689,-0.015,-0.001,-1.0,-0.195,0.508,-0.024,-0.166,-0.142,0.758,-0.015,0.001,0.868
2024-10-15 13:24:14.360,72605.808,-0.022,0.016,-1.0,0.126,0.341,0.047,0.331,-0.224,-0.466,-0.022,-0.016,0.846
2024-10-15 13:24:14.481,72605.928,-0.02,-0.024,-1.0,-0.227,-0.206,-0.032,-0.278,0.083,0.304,-0.02,0.024,0.847
2024-10-15 13:24:14.600,72606.048,-0.021,0.02,-1.0,0.178,-0.198,-0.046,-0.306,-0.04,-0.534,-0.021,-0.02,0.85
2024-10-15 13:24:14.720,72606.168,-0.026,-0.03,-0.999,-0.191,0.035,0.004,0.216,0.059,0.339,-0.026,0.03,0.838
2024-10-15 13:24:14.840,72606.288,-0.024,0.024,-0.999,0.29,-1.011,0.024,-0.689,-0.047,-0.714,-0.024,-0.024,0.858
2024-10-15 13:24:14.960,72606.407,-0.014,0.015,-1.0,-0.294,0.211,0.05,-0.698,0.149,-0.05,-0.014,-0.015,0.823
2024-10-15 13:24:15.080,72606.527,0.015,0.125,-0.992,-0.084,0.09,-0.176,-0.716,0.708,-0.681,0.015,-0.125,0.771
2024-10-15 13:24:15.199,72606.647,0.071,0.14,-0.988,0.076,0.066,0.024,0.264,0.201,-0.039,0.072,-0.141,0.737
2024-10-15 13:24:15.319,72606.767,0.079,0.156,-0.985,-0.014,-0.008,-0.002,-0.856,0.095,0.12,0.08,-0.156,0.744
2024-10-15 13:24:15.439,72606.887,0.088,0.238,-0.967,0.012,-0.022,-0.04,-0.127,0.035,0.041,0.091,-0.24,0.763
2024-10-15 13:24:15.559,72607.006,0.091,0.238,-0.967,0.046,0.057,0.001,0.266,-0.029,0.11,0.093,-0.24,0.774
2024-10-15 13:24:15.679,72607.126,0.067,0.186,-0.98,-0.149,-0.04,-0.043,-0.065,-0.418,0.401,0.068,-0.187,0.791
2024-10-15 13:24:15.798,72607.246,0.03,0.201,-0.979,0.211,-0.458,0.055,-0.158,-0.327,-0.065,0.031,-0.202,0.857
2024-10-15 13:24:15.918,72607.366,0.009,0.194,-0.981,-0.157,0.009,0.11,-0.131,-0.044,-0.164,0.009,-0.195,0.827
2024-10-15 13:24:16.038,72607.486,0.001,0.197,-0.98,0.025,-0.01,-0.152,-0.553,-0.107,0.396,0.001,-0.198,0.864
2024-10-15 13:24:16.158,72607.605,-0.01,0.19,-0.982,0.239,-0.175,-0.061,0.663,0.18,-0.549,-0.01,-0.192,0.827
2024-10-15 13:24:16.278,72607.725,-0.014,0.179,-0.984,-0.049,-0.235,0.107,-1.419,-0.131,0.658,-0.014,-0.18,0.843
2024-10-15 13:24:16.397,72607.845,-0.026,0.207,-0.978,0.032,0.636,-0.068,0.977,-0.056,-0.67,-0.026,-0.208,0.828
2024-10-15 13:24:16.517,72607.965,-0.021,0.175,-0.984,-0.141,-0.171,-0.065,0.015,0.081,0.296,-0.021,-0.176,0.822
2024-10-15 13:24:16.636,72608.084,-0.028,0.206,-0.978,0.101,-0.254,-0.016,-0.178,0.012,-0.418,-0.028,-0.207,0.838
2024-10-15 13:24:16.757,72608.204,-0.022,0.157,-0.987,-0.161,0.867,0.117,0.243,-0.01,0.344,-0.023,-0.158,0.782
2024-10-15 13:24:16.877,72608.324,-0.021,0.201,-0.979,0.191,-0.808,-0.131,-0.412,0.077,-0.324,-0.021,-0.203,0.832
2024-10-15 13:24:16.997,72608.444,-0.021,0.172,-0.985,-0.16,0.358,0.154,0.52,-0.04,-0.037,-0.021,-0.172,0.778
2024-10-15 13:24:17.116,72608.564,-0.011,0.111,-0.994,-0.001,0.233,-0.004,-0.186,-0.076,0.622,-0.011,-0.111,0.823
2024-10-15 13:24:17.236,72608.683,-0.011,0.118,-0.993,0.09,-0.136,-0.062,0.225,0.197,-0.492,-0.011,-0.118,0.796
2024-10-15 13:24:17.356,72608.803,-0.011,0.114,-0.993,-0.109,-0.061,-0.026,-0.493,0.014,0.205,-0.011,-0.115,0.794
2024-10-15 13:24:17.475,72608.923,-0.004,0.148,-0.989,0.383,0.013,-0.043,0.093,0.059,-0.041,-0.004,-0.149,0.806
2024-10-15 13:24:17.595,72609.043,-0.008,0.1,-0.995,-0.575,0.389,-0.069,0.551,-0.089,0.156,-0.008,-0.1,0.802
2024-10-15 13:24:17.715,72609.163,-0.012,0.099,-0.995,0.165,-0.012,-0.023,-0.051,0.127,0.095,-0.012,-0.1,0.8
2024-10-15 13:24:17.835,72609.282,-0.004,0.091,-0.996,-0.012,-0.095,0.08,0.102,-0.088,0.05,-0.004,-0.092,0.811
2024-10-15 13:24:17.955,72609.402,-0.016,0.092,-0.996,-0.131,-0.101,0.033,-0.418,-0.09,-0.262,-0.016,-0.092,0.8
2024-10-15 13:24:18.074,72609.522,-0.01,0.117,-0.993,0.379,0.042,-0.101,0.05,0.19,0.121,-0.011,-0.117,0.787
2024-10-15 13:24:18.194,72609.642,-0.007,0.077,-0.997,-0.476,-0.019,0.049,0.297,-0.157,-0.06,-0.007,-0.077,0.803
2024-10-15 13:24:18.314,72609.762,-0.009,0.105,-0.994,0.042,-0.036,-0.065,-0.329,0.12,-0.126,-0.009,-0.105,0.78
2024-10-15 13:24:18.434,72609.881,-0.004,0.158,-0.987,0.077,-0.103,-0.139,-1.598,0.991,-0.336,-0.004,-0.159,0.755
2024-10-15 13:24:18.554,72610.001,0.028,0.226,-0.974,-0.006,0.112,-0.003,0.68,-0.223,-0.001,0.029,-0.228,0.742
2024-10-15 13:24:18.674,72610.121,0.033,0.236,-0.971,-0.019,0.004,0.075,-0.209,-0.005,-0.137,0.034,-0.239,0.737
2024-10-15 13:24:18.793,72610.241,0.021,0.191,-0.981,-0.045,0.01,-0.029,0.702,-0.069,0.21,0.021,-0.192,0.75
2024-10-15 13:24:18.913,72610.361,0.043,0.139,-0.989,0.247,0.056,0.103,0.636,0.157,0.241,0.044,-0.139,0.762
2024-10-15 13:24:19.033,72610.48,0.046,0.095,-0.994,-0.375,0.038,-0.129,0.313,-0.058,0.249,0.046,-0.095,0.79
2024-10-15 13:24:19.152,72610.6,0.036,0.092,-0.995,-0.063,0.022,-0.062,-0.354,0.075,0.119,0.036,-0.092,0.803
2024-10-15 13:24:19.273,72610.72,0.039,0.089,-0.995,0.21,0.003,0.111,0.237,-0.113,0.106,0.039,-0.089,0.818
2024-10-15 13:24:19.392,72610.84,0.02,0.075,-0.997,-0.215,-0.075,-0.095,-0.075,-0.027,-0.32,0.02,-0.075,0.806
2024-10-15 13:24:19.512,72610.96,0.023,0.093,-0.995,0.505,0.189,-0.128,0.262,0.179,0.003,0.023,-0.093,0.776
2024-10-15 13:24:19.632,72611.079,0.038,0.013,-0.999,-0.413,0.061,-0.151,0.706,0.205,0.142,0.038,-0.013,0.795
2024-10-15 13:24:19.751,72611.199,0.043,-0.022,-0.999,0.092,-0.007,-0.052,0.042,-0.009,0.12,0.043,0.022,0.816
2024-10-15 13:24:19.871,72611.319,0.05,-0.019,-0.999,0.086,0.143,0.107,-0.058,0.087,-0.215,0.05,0.019,0.773
2024-10-15 13:24:19.991,72611.439,0.049,-0.019,-0.999,-0.091,0.238,-0.131,-0.592,0.001,0.865,0.049,0.019,0.814
