Date,TimeStamp,GravityX,GravityY,GravityZ,UserAccelerationX,UserAccelerationY,UserAccelerationZ,RotationRateX,RotationRateY,RotationRateZ,AttitudeRoll,AttitudePitch,AttitudeYaw
2024-10-15 13:43:37.748,73769.19,-0.066,-0.35,-0.935,0.023,0.008,0.002,0.016,-0.063,-0.014,-0.07,0.357,1.48
2024-10-15 13:43:37.859,73769.31,-0.067,-0.351,-0.934,-0.004,-0.004,0.008,0.024,0.052,0.009,-0.071,0.358,1.481
2024-10-15 13:43:37.978,73769.43,-0.066,-0.352,-0.934,0.001,-0.005,0.005,-0.019,-0.057,-0.013,-0.071,0.36,1.481
2024-10-15 13:43:38.098,73769.55,-0.058,-0.353,-0.934,-0.027,0.001,0.005,0.014,0.165,-0.001,-0.062,0.361,1.482
2024-10-15 13:43:38.217,73769.669,-0.056,-0.353,-0.934,-0.002,-0.004,0.007,-0.001,0.026,-0.001,-0.06,0.361,1.483
2024-10-15 13:43:38.338,73769.789,-0.054,-0.353,-0.934,0.007,-0.0,0.009,0.006,-0.003,0.003,-0.058,0.36,1.482
2024-10-15 13:43:38.457,73769.909,-0.053,-0.351,-0.935,-0.011,-0.012,0.009,-0.039,0.033,0.002,-0.057,0.359,1.482
2024-10-15 13:43:38.577,73770.029,-0.042,-0.33,-0.943,0.001,-0.004,0.011,-0.279,0.03,0.225,-0.044,0.336,1.492
2024-10-15 13:43:38.697,73770.149,-0.063,-0.293,-0.954,-0.023,0.019,-0.009,-0.266,-0.029,0.335,-0.066,0.297,1.559
2024-10-15 13:43:38.817,73770.268,-0.063,-0.191,-0.979,-0.187,-0.148,0.062,-2.236,0.927,0.316,-0.065,0.193,1.636
2024-10-15 13:43:38.937,73770.388,0.158,0.124,-0.98,-0.229,0.014,0.06,-2.132,3.92,-3.769,0.16,-0.125,1.493
2024-10-15 13:43:39.056,73770.508,0.211,0.216,-0.953,0.266,0.246,0.199,1.056,-1.283,-1.612,0.218,-0.218,1.404
2024-10-15 13:43:39.176,73770.628,0.16,0.206,-0.965,0.387,0.316,0.038,1.098,-0.65,1.308,0.164,-0.208,1.425
2024-10-15 13:43:39.296,73770.748,0.099,-0.033,-0.995,-0.234,-0.301,0.166,1.442,-0.353,0.804,0.099,0.033,1.591
2024-10-15 13:43:39.416,73770.867,0.034,-0.144,-0.989,-0.221,-0.069,0.054,0.07,-0.289,-0.21,0.034,0.144,1.624
2024-10-15 13:43:39.535,73770.987,0.071,-0.039,-0.997,-0.34,-0.239,-0.117,-2.434,0.499,0.058,0.071,0.039,1.571
2024-10-15 13:43:39.655,73771.107,0.164,0.313,-0.935,-0.136,-0.224,0.066,-3.58,0.38,-1.149,0.174,-0.318,1.512
2024-10-15 13:43:39.775,73771.227,0.223,0.6,-0.768,0.049,0.148,0.16,-1.106,1.38,-0.76,0.282,-0.643,1.447
2024-10-15 13:43:39.895,73771.347,0.232,0.654,-0.72,0.139,0.104,0.175,0.073,0.774,-0.916,0.311,-0.713,1.305
2024-10-15 13:43:40.015,73771.466,0.231,0.704,-0.671,0.023,0.034,0.047,-0.621,0.561,-0.782,0.332,-0.782,1.223
2024-10-15 13:43:40.135,73771.586,0.209,0.687,-0.696,-0.01,-0.055,0.095,-0.118,0.047,-0.556,0.292,-0.757,1.113
2024-10-15 13:43:40.254,73771.706,0.185,0.698,-0.692,-0.021,0.007,0.047,-0.264,0.121,0.025,0.261,-0.773,1.056
2024-10-15 13:43:40.374,73771.826,0.174,0.696,-0.697,0.009,-0.028,0.066,0.085,0.339,-0.148,0.245,-0.77,1.023
2024-10-15 13:43:40.494,73771.946,0.164,0.628,-0.761,0.021,0.039,0.085,1.128,-0.192,-0.171,0.213,-0.678,0.969
2024-10-15 13:43:40.613,73772.065,0.146,0.482,-0.864,-0.047,0.052,-0.01,1.239,0.69,0.084,0.167,-0.503,0.919
2024-10-15 13:43:40.733,73772.185,0.161,0.402,-0.901,-0.019,-0.086,-0.01,0.069,-0.111,-0.172,0.177,-0.414,0.915
2024-10-15 13:43:40.853,73772.305,0.147,0.424,-0.894,-0.007,-0.057,-0.007,0.065,-0.405,-0.009,0.162,-0.437,0.89
2024-10-15 13:43:40.973,73772.425,0.113,0.458,-0.882,-0.002,0.015,-0.04,-0.405,0.059,-0.213,0.127,-0.475,0.859
2024-10-15 13:43:41.093,73772.545,0.105,0.455,-0.884,-0.079,0.0,0.067,0.15,-0.046,-0.256,0.118,-0.473,0.859
2024-10-15 13:43:41.213,73772.664,0.09,0.404,-0.91,0.004,0.201,0.052,1.491,-0.284,0.13,0.099,-0.416,0.851
2024-10-15 13:43:41.332,73772.784,0.072,0.271,-0.96,0.145,-0.012,0.34,1.434,-0.209,0.277,0.075,-0.275,0.84
2024-10-15 13:43:41.452,73772.904,0.058,0.164,-0.985,-0.432,-0.086,0.02,-0.649,0.522,-1.56,0.059,-0.164,0.871
2024-10-15 13:43:41.572,73773.024,0.055,0.146,-0.988,0.011,-0.003,-0.063,0.612,0.93,2.939,0.056,-0.147,0.812
2024-10-15 13:43:41.692,73773.144,0.07,0.11,-0.991,-0.053,-0.324,-0.084,-0.527,-0.231,-0.963,0.07,-0.11,0.838
2024-10-15 13:43:41.812,73773.263,0.083,0.12,-0.989,-0.011,-0.039,0.153,-0.053,0.874,1.611,0.084,-0.12,0.82
2024-10-15 13:43:41.932,73773.383,0.09,0.098,-0.991,-0.151,-0.152,-0.067,-0.474,0.122,-0.652,0.09,-0.098,0.818
2024-10-15 13:43:42.051,73773.503,0.086,0.119,-0.989,0.263,-0.024,-0.121,0.746,0.719,1.812,0.086,-0.119,0.774
2024-10-15 13:43:42.171,73773.623,0.095,0.067,-0.993,-0.76,0.125,-0.049,0.04,0.144,-0.318,0.095,-0.067,0.813
2024-10-15 13:43:42.291,73773.742,0.064,0.14,-0.988,0.804,0.154,0.198,0.423,-0.112,0.541,0.064,-0.14,0.726
2024-10-15 13:43:42.410,73773.862,0.096,0.092,-0.991,-0.775,0.257,-0.108,0.055,0.313,-0.246,0.096,-0.092,0.819
2024-10-15 13:43:42.531,73773.982,0.076,0.171,-0.982,0.668,-0.023,0.203,0.359,-0.151,0.536,0.077,-0.172,0.758
2024-10-15 13:43:42.650,73774.102,0.099,0.133,-0.986,-0.686,0.369,-0.009,0.132,-0.2,-0.402,0.1,-0.133,0.824
2024-10-15 13:43:42.770,73774.222,0.088,0.168,-0.982,0.462,-0.243,0.193,0.446,-0.394,0.101,0.089,-0.169,0.805
2024-10-15 13:43:42.890,73774.341,0.086,0.133,-0.987,-0.602,0.398,0.04,-0.21,-0.587,-0.463,0.087,-0.133,0.847
2024-10-15 13:43:43.009,73774.461,0.091,0.199,-0.976,0.471,-0.249,0.083,0.252,-0.203,0.139,0.093,-0.2,0.803
2024-10-15 13:43:43.128,73774.581,0.102,0.168,-0.98,-0.598,0.344,0.042,-0.303,-0.127,-0.708,0.104,-0.169,0.842
2024-10-15 13:43:43.249,73774.701,0.099,0.21,-0.973,0.153,-0.073,-0.023,0.113,0.068,-0.455,0.102,-0.212,0.798
2024-10-15 13:43:43.369,73774.821,0.099,0.168,-0.981,0.047,-0.17,-0.065,0.916,-0.702,0.458,0.101,-0.168,0.819
2024-10-15 13:43:43.489,73774.94,0.098,0.191,-0.977,-0.075,0.308,0.042,0.145,0.76,-0.426,0.1,-0.192,0.807
2024-10-15 13:43:43.608,73775.06,0.091,0.154,-0.984,-0.019,-0.375,0.208,0.224,-0.781,0.859,0.092,-0.154,0.815
2024-10-15 13:43:43.729,73775.18,0.11,0.174,-0.978,0.155,0.359,-0.194,0.388,0.133,-0.796,0.112,-0.175,0.788
2024-10-15 13:43:43.848,73775.3,0.192,0.422,-0.886,0.366,0.466,0.27,-1.398,0.14,1.624,0.213,-0.436,0.777
2024-10-15 13:43:43.967,73775.42,0.188,0.463,-0.866,-0.144,-0.03,-0.034,0.881,-0.515,0.049,0.213,-0.482,0.923
2024-10-15 13:43:44.088,73775.539,0.16,0.397,-0.904,0.138,-0.005,0.223,0.971,-1.002,-0.629,0.175,-0.409,0.868
2024-10-15 13:43:44.208,73775.659,0.164,0.35,-0.922,-0.077,-0.186,-0.057,-0.577,0.386,-0.212,0.176,-0.357,0.859
2024-10-15 13:43:44.327,73775.779,0.185,0.492,-0.851,-0.098,0.027,0.032,-1.736,0.385,0.224,0.214,-0.515,0.886
2024-10-15 13:43:44.447,73775.899,0.197,0.482,-0.854,-0.008,0.034,-0.002,0.883,-0.072,-0.374,0.226,-0.503,0.845
2024-10-15 13:43:44.567,73776.019,0.165,0.408,-0.898,0.151,0.016,0.056,0.679,-0.87,0.052,0.181,-0.421,0.813
2024-10-15 13:43:44.687,73776.138,0.133,0.313,-0.94,0.056,-0.204,0.069,0.643,-0.712,-0.195,0.141,-0.319,0.801
2024-10-15 13:43:44.806,73776.258,0.114,0.296,-0.948,-0.03,0.121,-0.197,0.797,-0.125,-0.302,0.119,-0.301,0.8
2024-10-15 13:43:44.926,73776.378,0.126,0.173,-0.977,-0.129,-0.276,-0.236,0.944,-0.237,1.317,0.128,-0.174,0.852
2024-10-15 13:43:45.046,73776.498,0.072,0.163,-0.984,0.432,-0.022,0.097,-0.402,-0.325,-2.127,0.073,-0.164,0.771
2024-10-15 13:43:45.166,73776.618,0.11,0.097,-0.989,-0.555,-0.356,-0.08,0.359,-0.416,-0.904,0.111,-0.097,0.845
2024-10-15 13:43:45.285,73776.737,0.083,0.142,-0.986,0.18,0.012,0.154,-0.593,-0.032,-1.793,0.084,-0.142,0.777
2024-10-15 13:43:45.405,73776.857,0.13,0.092,-0.987,-0.166,-0.046,0.052,0.475,-0.219,-0.213,0.131,-0.093,0.835
2024-10-15 13:43:45.525,73776.977,0.09,0.116,-0.989,0.155,-0.163,-0.059,-0.989,-0.335,-1.353,0.09,-0.117,0.801
2024-10-15 13:43:45.646,73777.097,0.127,0.083,-0.988,-0.189,-0.015,0.163,0.052,0.104,-0.241,0.128,-0.084,0.841
2024-10-15 13:43:45.765,73777.217,0.098,0.071,-0.993,0.116,-0.262,-0.07,-0.706,-0.439,-0.768,0.098,-0.071,0.819
2024-10-15 13:43:45.885,73777.336,0.113,0.071,-0.991,-0.098,-0.093,0.073,-0.658,0.702,0.623,0.113,-0.071,0.859
2024-10-15 13:43:46.005,73777.456,0.101,0.052,-0.994,-0.001,-0.22,0.021,-0.484,-0.398,-0.545,0.101,-0.052,0.854
2024-10-15 13:43:46.124,73777.576,0.096,0.1,-0.99,0.136,-0.216,-0.067,-0.316,0.803,0.542,0.096,-0.1,0.836
2024-10-15 13:43:46.244,73777.696,0.112,0.086,-0.99,-0.123,-0.127,-0.11,-0.209,-0.053,-0.178,0.113,-0.086,0.847
2024-10-15 13:43:46.364,73777.815,0.083,0.114,-0.99,0.362,-0.454,0.143,-0.567,-0.094,-0.228,0.084,-0.114,0.819
2024-10-15 13:43:46.484,73777.935,0.1,0.118,-0.988,0.02,0.033,0.143,-0.981,0.239,-0.408,0.101,-0.118,0.799
2024-10-15 13:43:46.603,73778.055,0.098,0.106,-0.989,-0.302,-0.187,0.293,-0.104,-0.287,-0.394,0.099,-0.107,0.825
2024-10-15 13:43:46.723,73778.175,0.08,0.129,-0.988,0.234,0.147,0.095,0.287,-0.368,-1.021,0.081,-0.129,0.758
2024-10-15 13:43:46.843,73778.295,0.113,0.121,-0.986,-0.024,-0.174,-0.223,0.156,0.464,0.477,0.114,-0.121,0.803
2024-10-15 13:43:46.963,73778.414,0.094,0.127,-0.987,0.243,0.016,-0.009,-0.388,-0.816,-1.151,0.095,-0.127,0.776
2024-10-15 13:43:47.083,73778.534,0.105,0.103,-0.989,-0.498,-0.172,-0.03,0.327,-0.46,-0.997,0.105,-0.103,0.813
2024-10-15 13:43:47.203,73778.654,0.081,0.123,-0.989,0.142,0.05,0.089,0.159,-0.437,-0.606,0.082,-0.123,0.774
2024-10-15 13:43:47.322,73778.774,0.11,0.096,-0.989,-0.422,-0.085,-0.096,0.588,-0.222,-0.643,0.111,-0.096,0.829
2024-10-15 13:43:47.442,73778.894,0.085,0.11,-0.99,0.11,0.27,0.002,0.489,-0.664,-0.64,0.086,-0.111,0.801
2024-10-15 13:43:47.562,73779.013,0.104,0.1,-0.989,-0.341,-0.106,-0.122,0.447,-0.265,-0.901,0.105,-0.1,0.846
2024-10-15 13:43:47.681,73779.133,0.091,0.178,-0.98,0.059,-0.013,-0.166,-1.584,-0.349,-0.569,0.092,-0.179,0.808
2024-10-15 13:43:47.801,73779.253,0.156,0.422,-0.893,0.194,-0.159,0.226,-0.308,-0.615,-0.175,0.173,-0.436,0.779
2024-10-15 13:43:47.921,73779.373,0.107,0.329,-0.938,-0.139,-0.241,0.274,-0.778,-0.538,0.393,0.114,-0.335,0.831
2024-10-15 13:43:48.041,73779.493,0.096,0.246,-0.965,0.126,0.105,-0.217,1.28,0.272,-1.172,0.099,-0.248,0.76
2024-10-15 13:43:48.161,73779.612,0.09,0.287,-0.954,0.006,-0.469,0.043,-1.034,-0.935,0.97,0.094,-0.291,0.812
2024-10-15 13:43:48.280,73779.732,0.11,0.281,-0.954,-0.099,0.104,0.01,-0.733,1.528,-0.331,0.115,-0.284,0.739
2024-10-15 13:43:48.400,73779.852,0.12,0.347,-0.93,-0.183,-0.055,0.042,-0.815,-0.261,1.068,0.129,-0.354,0.86
2024-10-15 13:43:48.520,73779.972,0.099,0.316,-0.943,0.103,-0.088,-0.097,-0.781,0.883,-1.456,0.105,-0.322,0.747
2024-10-15 13:43:48.640,73780.092,0.152,0.357,-0.922,-0.011,-0.217,0.047,0.193,-0.284,0.724,0.164,-0.365,0.763
2024-10-15 13:43:48.760,73780.211,0.147,0.291,-0.945,-0.068,0.013,-0.113,0.658,-0.024,0.486,0.155,-0.296,0.803
2024-10-15 13:43:48.880,73780.331,0.14,0.254,-0.957,-0.018,-0.022,0.052,0.441,-0.471,0.277,0.145,-0.257,0.829
2024-10-15 13:43:48.999,73780.451,0.105,0.261,-0.96,0.028,-0.017,0.021,-0.081,-0.272,-0.138,0.109,-0.264,0.812
2024-10-15 13:43:49.119,73780.571,0.09,0.287,-0.954,0.033,0.112,-0.004,-0.155,0.12,0.138,0.095,-0.291,0.815
2024-10-15 13:43:49.239,73780.691,0.089,0.257,-0.962,-0.007,0.035,0.069,0.633,-0.385,0.534,0.092,-0.26,0.848
2024-10-15 13:43:49.360,73780.81,0.081,0.238,-0.968,0.186,-0.025,0.074,0.115,-0.042,0.682,0.084,-0.241,0.851
2024-10-15 13:43:49.478,73780.93,0.079,0.214,-0.974,-0.517,-0.01,-0.026,-0.622,0.302,-0.733,0.081,-0.216,0.883
2024-10-15 13:43:49.598,73781.05,0.068,0.236,-0.969,0.349,0.05,-0.03,0.441,0.836,1.909,0.07,-0.239,0.825
2024-10-15 13:43:49.718,73781.17,0.091,0.182,-0.979,-0.672,0.051,-0.051,-0.186,0.078,-0.408,0.093,-0.183,0.878
2024-10-15 13:43:49.838,73781.29,0.07,0.195,-0.978,0.519,-0.113,0.203,0.555,0.28,1.059,0.072,-0.196,0.822
2024-10-15 13:43:49.957,73781.409,0.112,0.179,-0.978,-0.568,0.196,-0.141,0.406,-0.169,-0.34,0.114,-0.18,0.868
2024-10-15 13:43:50.077,73781.529,0.083,0.171,-0.982,0.412,-0.315,0.272,0.039,-0.074,0.015,0.085,-0.172,0.832
2024-10-15 13:43:50.197,73781.649,0.108,0.16,-0.981,-0.662,0.384,-0.07,-0.411,0.099,-0.253,0.11,-0.161,0.87
2024-10-15 13:43:50.317,73781.769,0.086,0.198,-0.976,0.434,-0.212,0.264,0.384,-0.083,0.004,0.088,-0.199,0.826
2024-10-15 13:43:50.437,73781.888,0.116,0.169,-0.979,-0.394,0.298,-0.017,-0.159,-0.102,0.203,0.118,-0.17,0.868
2024-10-15 13:43:50.557,73782.008,0.094,0.209,-0.974,0.166,-0.097,0.062,0.149,-0.354,-0.166,0.096,-0.21,0.845
2024-10-15 13:43:50.676,73782.128,0.093,0.175,-0.98,-0.413,0.172,0.088,1.452,-0.406,-1.604,0.095,-0.176,0.834
2024-10-15 13:43:50.795,73782.248,0.081,0.164,-0.983,0.179,-0.33,-0.015,0.453,-0.505,1.189,0.082,-0.165,0.83
2024-10-15 13:43:50.916,73782.368,0.085,0.185,-0.979,-0.028,0.481,-0.065,0.624,0.03,-0.442,0.086,-0.186,0.809
2024-10-15 13:43:51.035,73782.487,0.074,0.149,-0.986,-0.064,-0.296,-0.131,0.796,-0.94,0.466,0.075,-0.15,0.82
2024-10-15 13:43:51.156,73782.607,0.069,0.177,-0.982,-0.079,0.187,-0.009,0.13,0.476,-0.874,0.071,-0.178,0.797
2024-10-15 13:43:51.275,73782.727,0.081,0.169,-0.982,0.027,-0.226,-0.013,0.121,-0.551,1.141,0.082,-0.17,0.821
2024-10-15 13:43:51.395,73782.847,0.087,0.158,-0.984,0.155,0.466,0.065,1.283,-0.675,-0.496,0.089,-0.158,0.792
2024-10-15 13:43:51.515,73782.967,0.092,0.146,-0.985,-0.363,0.131,-0.272,0.131,0.048,0.505,0.093,-0.147,0.809
2024-10-15 13:43:51.635,73783.086,0.066,0.168,-0.984,0.482,-0.148,0.183,-0.141,0.043,-0.788,0.067,-0.169,0.784
2024-10-15 13:43:51.755,73783.206,0.093,0.119,-0.989,-0.61,0.305,-0.06,0.022,-0.316,-0.087,0.094,-0.119,0.831
2024-10-15 13:43:51.874,73783.326,0.071,0.157,-0.985,0.394,-0.162,0.229,-0.016,-0.152,-0.58,0.072,-0.157,0.794
2024-10-15 13:43:51.994,73783.446,0.099,0.123,-0.987,-0.363,0.269,-0.118,0.373,-0.255,0.471,0.1,-0.124,0.815
2024-10-15 13:43:52.114,73783.566,0.074,0.157,-0.985,0.288,-0.14,0.045,0.059,-0.244,-0.458,0.075,-0.158,0.793
2024-10-15 13:43:52.233,73783.685,0.097,0.103,-0.99,-0.151,-0.075,-0.023,0.451,-0.094,0.391,0.098,-0.104,0.856
2024-10-15 13:43:52.353,73783.805,0.089,0.145,-0.985,0.122,0.192,-0.17,0.169,-0.045,-0.598,0.09,-0.146,0.825
2024-10-15 13:43:52.473,73783.925,0.087,0.119,-0.989,-0.008,-0.236,0.117,-0.163,-0.239,0.569,0.088,-0.12,0.847
2024-10-15 13:43:52.593,73784.045,0.083,0.189,-0.978,0.042,-0.188,0.031,-2.153,0.184,-0.841,0.085,-0.19,0.829
2024-10-15 13:43:52.713,73784.165,0.162,0.456,-0.875,0.146,0.31,0.262,-0.374,-0.504,-0.508,0.183,-0.474,0.793
2024-10-15 13:43:52.832,73784.284,0.117,0.44,-0.89,0.041,0.012,0.018,0.337,-0.318,0.06,0.131,-0.456,0.797
2024-10-15 13:43:52.952,73784.404,0.071,0.358,-0.931,-0.111,-0.149,0.008,1.496,-0.805,-0.679,0.076,-0.366,0.853
2024-10-15 13:43:53.073,73784.524,0.095,0.274,-0.957,0.095,0.138,0.064,0.151,0.706,-0.327,0.099,-0.278,0.719
2024-10-15 13:43:53.192,73784.644,0.087,0.279,-0.956,-0.137,-0.246,0.092,-0.499,-0.98,0.549,0.091,-0.283,0.842
2024-10-15 13:43:53.312,73784.764,0.098,0.266,-0.959,-0.022,-0.202,-0.05,-0.426,1.061,-1.031,0.102,-0.269,0.739
2024-10-15 13:43:53.432,73784.883,0.17,0.379,-0.91,0.033,-0.025,0.153,-1.757,0.572,0.39,0.185,-0.389,0.735
2024-10-15 13:43:53.551,73785.003,0.188,0.38,-0.906,-0.027,0.063,-0.079,1.041,-0.291,0.397,0.205,-0.39,0.765
2024-10-15 13:43:53.671,73785.123,0.155,0.321,-0.934,0.049,0.029,-0.025,0.311,-0.397,0.073,0.164,-0.326,0.779
2024-10-15 13:43:53.791,73785.243,0.122,0.28,-0.952,0.001,-0.003,0.074,0.371,-0.554,-0.081,0.127,-0.284,0.792
2024-10-15 13:43:53.911,73785.363,0.115,0.223,-0.968,-0.019,0.148,0.171,0.972,0.387,1.426,0.118,-0.225,0.794
2024-10-15 13:43:54.030,73785.482,0.083,0.221,-0.972,0.244,-0.031,0.08,-0.07,-0.904,-1.32,0.085,-0.223,0.762
2024-10-15 13:43:54.150,73785.602,0.112,0.178,-0.978,-0.103,0.068,0.072,0.725,0.094,0.807,0.114,-0.179,0.804
2024-10-15 13:43:54.270,73785.722,0.082,0.209,-0.975,0.128,-0.046,-0.134,-0.385,-0.613,-1.024,0.084,-0.21,0.771
2024-10-15 13:43:54.389,73785.842,0.101,0.206,-0.973,-0.001,0.101,-0.017,0.318,0.714,1.561,0.103,-0.208,0.785
2024-10-15 13:43:54.510,73785.961,0.091,0.196,-0.976,0.023,-0.295,-0.028,-1.105,-0.283,-1.226,0.093,-0.197,0.794
2024-10-15 13:43:54.629,73786.081,0.081,0.182,-0.98,0.099,0.219,-0.073,0.6,0.684,1.861,0.082,-0.183,0.79
2024-10-15 13:43:54.749,73786.201,0.077,0.185,-0.98,-0.181,-0.242,-0.03,-0.602,0.275,-0.78,0.078,-0.186,0.823
2024-10-15 13:43:54.869,73786.321,0.073,0.187,-0.98,0.19,0.188,0.064,0.12,0.72,1.249,0.075,-0.188,0.796
2024-10-15 13:43:54.990,73786.441,0.074,0.175,-0.982,-0.022,-0.335,-0.004,-0.726,0.154,-0.883,0.075,-0.176,0.836
2024-10-15 13:43:55.109,73786.56,0.071,0.188,-0.98,0.321,0.151,-0.029,0.313,0.46,1.089,0.072,-0.189,0.793
2024-10-15 13:43:55.228,73786.68,0.07,0.17,-0.983,-0.063,-0.368,-0.037,-0.819,0.152,-0.711,0.071,-0.171,0.847
2024-10-15 13:43:55.348,73786.8,0.07,0.182,-0.981,0.272,0.282,-0.016,-0.029,0.779,1.834,0.072,-0.183,0.799
2024-10-15 13:43:55.468,73786.92,0.064,0.164,-0.984,-0.16,-0.384,-0.015,-1.026,0.135,-0.791,0.065,-0.165,0.855
2024-10-15 13:43:55.588,73787.04,0.057,0.187,-0.981,0.402,0.148,-0.041,0.13,0.654,1.548,0.058,-0.188,0.794
2024-10-15 13:43:55.707,73787.159,0.065,0.165,-0.984,0.034,-0.222,-0.049,-0.472,-0.138,-0.409,0.066,-0.166,0.871
2024-10-15 13:43:55.827,73787.279,0.077,0.154,-0.985,-0.066,-0.171,0.18,0.309,0.167,-0.101,0.078,-0.155,0.877
2024-10-15 13:43:55.947,73787.399,0.072,0.124,-0.99,-0.292,-0.149,-0.048,-0.856,0.091,-0.19,0.073,-0.124,0.88
2024-10-15 13:43:56.067,73787.519,0.054,0.163,-0.985,0.476,-0.048,0.096,0.365,0.776,0.664,0.054,-0.163,0.829
2024-10-15 13:43:56.187,73787.639,0.091,0.127,-0.988,-0.35,0.069,-0.047,-0.134,-0.42,-0.107,0.092,-0.127,0.876
2024-10-15 13:43:56.306,73787.758,0.053,0.164,-0.985,0.476,-0.122,0.225,0.027,0.19,-0.143,0.054,-0.164,0.83
2024-10-15 13:43:56.426,73787.878,0.102,0.137,-0.985,-0.557,0.348,-0.131,-0.004,-0.318,-0.029,0.103,-0.137,0.88
2024-10-15 13:43:56.546,73787.998,0.057,0.175,-0.983,0.464,-0.068,0.204,0.334,-0.137,-0.352,0.058,-0.176,0.825
2024-10-15 13:43:56.666,73788.118,0.1,0.137,-0.986,-0.418,0.383,-0.082,0.081,0.044,0.701,0.101,-0.137,0.876
2024-10-15 13:43:56.786,73788.238,0.065,0.184,-0.981,0.348,-0.152,0.021,0.273,-0.109,-0.197,0.066,-0.185,0.834
2024-10-15 13:43:56.905,73788.357,0.093,0.132,-0.987,-0.31,0.108,0.14,0.186,-0.073,-0.27,0.094,-0.133,0.879
2024-10-15 13:43:57.025,73788.477,0.065,0.199,-0.978,0.241,-0.32,-0.089,-1.361,0.178,-0.249,0.066,-0.2,0.841
2024-10-15 13:43:57.145,73788.597,0.158,0.231,-0.96,-0.077,0.127,-0.078,-0.468,1.288,-0.567,0.164,-0.233,0.792
2024-10-15 13:43:57.265,73788.717,0.138,0.237,-0.962,0.093,-0.136,0.097,0.335,-0.482,0.116,0.142,-0.239,0.803
2024-10-15 13:43:57.384,73788.837,0.104,0.225,-0.969,0.005,0.054,0.023,0.109,-0.52,0.368,0.107,-0.227,0.829
2024-10-15 13:43:57.505,73788.956,0.069,0.206,-0.976,0.079,-0.109,-0.024,-0.215,0.302,-0.138,0.071,-0.207,0.836
2024-10-15 13:43:57.624,73789.076,0.089,0.156,-0.984,-0.543,0.132,-0.165,-0.496,-0.169,-0.039,0.091,-0.157,0.86
2024-10-15 13:43:57.744,73789.196,0.058,0.208,-0.976,0.512,-0.071,0.221,0.323,0.245,0.254,0.06,-0.209,0.785
2024-10-15 13:43:57.864,73789.316,0.113,0.201,-0.973,-0.381,-0.116,-0.324,-1.466,1.812,-0.116,0.116,-0.202,0.813
2024-10-15 13:43:57.983,73789.436,0.137,0.354,-0.925,0.113,0.136,0.255,-1.05,-0.524,0.25,0.147,-0.362,0.806
2024-10-15 13:43:58.104,73789.555,0.053,0.328,-0.943,0.108,-0.129,-0.089,1.819,-1.254,-0.295,0.056,-0.334,0.867
2024-10-15 13:43:58.223,73789.675,0.036,0.214,-0.976,0.087,0.18,0.012,-0.225,1.449,-0.974,0.037,-0.216,0.686
2024-10-15 13:43:58.343,73789.795,0.085,0.268,-0.96,-0.051,-0.3,0.099,-0.758,-0.723,1.233,0.088,-0.271,0.827
2024-10-15 13:43:58.463,73789.915,0.077,0.247,-0.966,-0.039,0.115,-0.251,0.128,0.913,-1.783,0.079,-0.249,0.743
2024-10-15 13:43:58.583,73790.034,0.128,0.315,-0.94,0.099,0.137,0.068,-0.735,0.354,0.374,0.135,-0.321,0.708
2024-10-15 13:43:58.703,73790.154,0.162,0.338,-0.927,-0.079,-0.087,-0.117,0.27,-0.332,0.024,0.174,-0.345,0.746
2024-10-15 13:43:58.822,73790.274,0.117,0.329,-0.937,0.08,0.08,0.013,0.097,-0.216,0.076,0.124,-0.335,0.744
2024-10-15 13:43:58.942,73790.394,0.115,0.306,-0.945,-0.083,0.004,0.019,0.372,-0.327,0.196,0.121,-0.311,0.769
2024-10-15 13:43:59.062,73790.514,0.079,0.313,-0.946,0.065,0.059,-0.031,0.397,-0.286,0.258,0.083,-0.318,0.765
2024-10-15 13:43:59.182,73790.633,0.082,0.231,-0.969,0.039,-0.043,0.204,-0.012,0.353,0.63,0.085,-0.233,0.773
2024-10-15 13:43:59.301,73790.753,0.077,0.186,-0.98,-0.043,-0.391,0.066,-1.026,-0.384,-1.502,0.079,-0.187,0.778
2024-10-15 13:43:59.421,73790.873,0.097,0.178,-0.979,-0.133,-0.027,0.203,0.516,-0.002,0.16,0.099,-0.179,0.792
2024-10-15 13:43:59.541,73790.993,0.083,0.199,-0.977,0.017,-0.396,-0.099,-1.453,-0.419,-0.33,0.085,-0.2,0.784
2024-10-15 13:43:59.661,73791.113,0.074,0.2,-0.977,0.108,-0.092,0.186,0.096,0.677,0.863,0.076,-0.202,0.79
2024-10-15 13:43:59.781,73791.232,0.088,0.164,-0.983,-0.196,-0.193,-0.095,-0.625,-0.174,-0.262,0.09,-0.164,0.81
2024-10-15 13:43:59.901,73791.352,0.054,0.186,-0.981,0.472,-0.041,0.088,0.131,0.619,0.743,0.055,-0.187,0.762
2024-10-15 13:44:00.020,73791.472,0.09,0.141,-0.986,-0.695,0.137,-0.101,-0.041,-0.296,-0.443,0.091,-0.142,0.817
2024-10-15 13:44:00.140,73791.592,0.051,0.181,-0.982,0.416,-0.284,0.184,0.084,-0.206,-0.542,0.051,-0.182,0.787
2024-10-15 13:44:00.260,73791.712,0.091,0.144,-0.985,-0.425,0.235,-0.148,0.269,-0.128,0.323,0.092,-0.144,0.828
2024-10-15 13:44:00.380,73791.831,0.059,0.202,-0.978,0.384,-0.158,0.014,0.21,-0.111,-0.677,0.06,-0.204,0.791
2024-10-15 13:44:00.500,73791.951,0.097,0.137,-0.986,-0.24,0.193,-0.05,0.483,0.039,0.045,0.098,-0.137,0.832
2024-10-15 13:44:00.619,73792.071,0.077,0.188,-0.979,0.083,-0.084,0.006,-0.721,0.061,-0.423,0.078,-0.189,0.812
2024-10-15 13:44:00.739,73792.191,0.106,0.183,-0.977,-0.093,0.183,0.027,0.674,0.358,0.611,0.108,-0.184,0.838
2024-10-15 13:44:00.859,73792.311,0.086,0.198,-0.976,0.058,-0.26,-0.168,-1.325,-0.195,-1.081,0.087,-0.2,0.816
2024-10-15 13:44:00.979,73792.43,0.083,0.211,-0.974,0.123,-0.012,-0.044,0.261,0.781,0.99,0.085,-0.213,0.802
2024-10-15 13:44:01.099,73792.55,0.092,0.192,-0.977,-0.291,-0.068,-0.046,-1.105,0.124,-0.58,0.094,-0.193,0.83
2024-10-15 13:44:01.218,73792.67,0.067,0.229,-0.971,0.291,-0.051,0.08,0.248,0.59,0.944,0.069,-0.231,0.79
2024-10-15 13:44:01.338,73792.79,0.099,0.197,-0.975,-0.632,0.302,-0.039,-0.409,0.143,-0.609,0.101,-0.199,0.843
2024-10-15 13:44:01.458,73792.91,0.062,0.244,-0.968,0.501,-0.114,0.14,0.359,0.165,0.418,0.064,-0.247,0.774
2024-10-15 13:44:01.577,73793.029,0.104,0.188,-0.977,-0.528,0.341,-0.127,0.104,-0.55,0.23,0.106,-0.189,0.846
2024-10-15 13:44:01.697,73793.149,0.062,0.254,-0.965,0.417,-0.236,0.099,-0.056,-0.142,-0.207,0.064,-0.256,0.776
2024-10-15 13:44:01.817,73793.269,0.111,0.204,-0.973,-0.395,0.336,-0.034,-0.013,0.062,0.094,0.114,-0.205,0.83
2024-10-15 13:44:01.937,73793.389,0.086,0.247,-0.965,0.104,-0.17,0.013,0.003,0.097,-0.585,0.088,-0.249,0.786
2024-10-15 13:44:02.057,73793.509,0.075,0.225,-0.972,0.265,0.66,0.103,-0.011,0.42,0.641,0.077,-0.227,0.741
2024-10-15 13:44:02.176,73793.628,0.079,0.21,-0.975,-0.124,-0.338,-0.067,-0.387,-0.344,-0.119,0.08,-0.211,0.809
2024-10-15 13:44:02.296,73793.748,0.071,0.203,-0.977,-0.08,-0.044,0.124,-0.814,0.852,-0.64,0.072,-0.205,0.739
2024-10-15 13:44:02.416,73793.868,0.154,0.33,-0.932,0.095,0.337,0.153,-0.051,-0.6,0.691,0.163,-0.336,0.758
2024-10-15 13:44:02.536,73793.988,0.084,0.346,-0.934,0.062,-0.22,-0.072,0.802,-0.893,0.057,0.09,-0.354,0.845
2024-10-15 13:44:02.655,73794.107,0.033,0.269,-0.963,0.186,-0.222,-0.224,0.534,0.354,-1.429,0.035,-0.272,0.739
2024-10-15 13:44:02.776,73794.227,0.078,0.269,-0.96,-0.069,0.149,0.111,0.309,-0.281,0.879,0.081,-0.273,0.767
2024-10-15 13:44:02.895,73794.347,0.052,0.239,-0.97,-0.057,-0.321,0.034,-0.792,-0.411,-0.427,0.053,-0.242,0.839
2024-10-15 13:44:03.015,73794.467,0.112,0.277,-0.954,-0.009,0.299,0.06,-0.703,1.109,-0.053,0.117,-0.281,0.728
2024-10-15 13:44:03.135,73794.587,0.142,0.295,-0.945,0.037,0.007,0.165,-0.179,-0.012,0.922,0.149,-0.3,0.781
2024-10-15 13:44:03.255,73794.706,0.104,0.2,-0.974,-0.126,0.102,0.12,0.522,-0.414,0.257,0.106,-0.202,0.824
2024-10-15 13:44:03.374,73794.826,0.049,0.179,-0.983,0.276,-0.103,0.113,-0.019,-0.058,-0.99,0.049,-0.18,0.772
2024-10-15 13:44:03.494,73794.946,0.093,0.147,-0.985,-0.202,0.023,0.15,0.419,-0.4,-0.433,0.095,-0.148,0.822
2024-10-15 13:44:03.614,73795.066,0.041,0.211,-0.977,0.269,-0.04,0.056,-0.24,-0.29,-0.73,0.042,-0.212,0.762
2024-10-15 13:44:03.734,73795.186,0.099,0.184,-0.978,-0.088,0.098,-0.054,0.855,0.354,0.485,0.1,-0.185,0.827
2024-10-15 13:44:03.854,73795.305,0.073,0.194,-0.978,0.01,-0.239,-0.166,-1.072,-0.592,-1.222,0.074,-0.195,0.817
2024-10-15 13:44:03.973,73795.425,0.045,0.213,-0.976,0.235,-0.19,0.108,0.09,0.962,0.069,0.046,-0.215,0.801
2024-10-15 13:44:04.093,73795.545,0.085,0.184,-0.979,-0.683,0.177,-0.003,-0.378,-0.295,-0.527,0.087,-0.185,0.843
2024-10-15 13:44:04.213,73795.665,0.037,0.237,-0.971,0.546,-0.225,0.204,0.454,0.072,0.344,0.038,-0.239,0.782
2024-10-15 13:44:04.334,73795.785,0.103,0.184,-0.978,-0.287,0.214,0.014,0.254,0.263,0.398,0.105,-0.185,0.836
2024-10-15 13:44:04.453,73795.904,0.059,0.234,-0.97,0.212,-0.04,-0.022,-0.657,-0.426,-0.728,0.06,-0.236,0.799
2024-10-15 13:44:04.572,73796.024,0.089,0.218,-0.972,-0.026,0.176,0.05,0.611,0.738,0.97,0.091,-0.22,0.825
2024-10-15 13:44:04.692,73796.144,0.092,0.207,-0.974,-0.06,-0.228,-0.211,-0.709,-0.769,-0.655,0.095,-0.208,0.825
2024-10-15 13:44:04.812,73796.264,0.054,0.224,-0.973,0.018,0.052,0.056,0.134,0.519,-0.17,0.055,-0.226,0.771
2024-10-15 13:44:04.932,73796.384,0.072,0.213,-0.974,0.128,-0.239,-0.127,0.432,-0.046,0.515,0.074,-0.215,0.788
2024-10-15 13:44:05.052,73796.503,0.063,0.232,-0.971,-0.016,0.305,-0.002,0.244,0.084,-0.267,0.065,-0.234,0.76
2024-10-15 13:44:05.171,73796.623,0.069,0.213,-0.975,-0.028,-0.255,0.118,0.162,-0.076,0.167,0.07,-0.215,0.802
2024-10-15 13:44:05.291,73796.743,0.077,0.183,-0.98,-0.367,0.152,0.052,-0.271,0.077,-0.307,0.078,-0.184,0.805
2024-10-15 13:44:05.411,73796.863,0.048,0.249,-0.967,0.198,-0.195,-0.022,-0.338,0.185,-0.612,0.05,-0.251,0.758
2024-10-15 13:44:05.531,73796.983,0.083,0.188,-0.979,-0.23,0.033,0.017,0.512,0.088,-0.137,0.085,-0.19,0.79
2024-10-15 13:44:05.651,73797.102,0.06,0.23,-0.971,0.135,0.066,-0.014,-0.2,-0.38,0.161,0.061,-0.232,0.774
2024-10-15 13:44:05.770,73797.222,0.059,0.211,-0.976,0.183,0.377,-0.044,0.958,0.745,2.07,0.06,-0.213,0.775
2024-10-15 13:44:05.890,73797.342,0.074,0.161,-0.984,-0.429,0.019,-0.137,-0.228,-0.15,0.007,0.075,-0.162,0.817
2024-10-15 13:44:06.010,73797.462,0.058,0.197,-0.979,0.262,-0.241,0.129,0.095,0.252,0.366,0.059,-0.199,0.806
2024-10-15 13:44:06.130,73797.582,0.088,0.152,-0.985,-0.598,0.101,-0.075,0.11,-0.383,-0.328,0.089,-0.152,0.856
2024-10-15 13:44:06.249,73797.701,0.045,0.214,-0.976,0.531,-0.16,0.049,0.593,-0.332,0.475,0.046,-0.215,0.817
2024-10-15 13:44:06.369,73797.821,0.087,0.172,-0.981,-0.312,0.157,0.018,-0.117,-0.191,-0.452,0.089,-0.173,0.848
2024-10-15 13:44:06.489,73797.941,0.055,0.3,-0.952,0.246,-0.245,0.095,-1.516,-0.082,0.078,0.057,-0.304,0.77
2024-10-15 13:44:06.609,73798.061,0.134,0.454,-0.881,0.131,0.344,0.298,0.806,-0.377,0.795,0.151,-0.471,0.734
2024-10-15 13:44:06.729,73798.18,0.076,0.394,-0.916,0.115,-0.04,0.123,-0.252,-0.629,0.488,0.082,-0.405,0.809
2024-10-15 13:44:06.848,73798.3,0.01,0.259,-0.966,-0.228,-0.567,-0.301,1.428,-0.062,-0.723,0.01,-0.262,0.869
2024-10-15 13:44:06.968,73798.42,0.024,0.23,-0.973,0.032,0.235,0.16,-0.638,0.311,0.217,0.024,-0.233,0.773
2024-10-15 13:44:07.088,73798.54,0.078,0.282,-0.956,0.005,-0.188,-0.138,-0.016,0.165,0.244,0.081,-0.286,0.805
2024-10-15 13:44:07.208,73798.66,0.077,0.27,-0.96,-0.083,0.035,-0.039,0.669,-0.478,0.336,0.08,-0.273,0.832
2024-10-15 13:44:07.328,73798.779,0.082,0.227,-0.971,0.103,-0.017,0.139,0.105,0.383,0.571,0.084,-0.229,0.821
2024-10-15 13:44:07.447,73798.899,0.078,0.217,-0.973,-0.139,-0.355,-0.142,-1.58,-0.763,-2.038,0.08,-0.219,0.847
2024-10-15 13:44:07.567,73799.019,0.064,0.225,-0.972,0.007,0.026,0.067,0.405,1.057,1.132,0.065,-0.227,0.828
2024-10-15 13:44:07.686,73799.139,0.117,0.195,-0.974,-0.695,-0.162,-0.316,-0.717,-0.012,-1.338,0.12,-0.197,0.881
2024-10-15 13:44:07.806,73799.259,0.129,0.371,-0.92,0.016,0.012,-0.076,0.331,0.897,-0.978,0.14,-0.38,0.814
2024-10-15 13:44:07.927,73799.378,0.139,0.339,-0.93,-0.049,-0.009,0.188,0.147,-0.874,0.922,0.148,-0.346,0.826
2024-10-15 13:44:08.047,73799.498,0.04,0.24,-0.97,-0.142,-0.604,-0.062,2.368,-0.97,-1.601,0.041,-0.242,0.872
2024-10-15 13:44:08.166,73799.618,0.086,0.232,-0.969,-0.027,0.507,0.063,0.091,0.08,-0.435,0.089,-0.234,0.727
2024-10-15 13:44:08.286,73799.738,0.089,0.236,-0.968,-0.116,-0.065,0.169,0.065,-1.008,1.005,0.092,-0.238,0.858
2024-10-15 13:44:08.406,73799.858,0.052,0.23,-0.972,-0.069,-0.034,-0.237,0.177,1.15,-1.548,0.054,-0.232,0.749
2024-10-15 13:44:08.526,73799.977,0.077,0.258,-0.963,0.128,0.37,0.197,0.355,-0.135,2.339,0.079,-0.261,0.736
2024-10-15 13:44:08.646,73800.097,0.011,0.182,-0.983,0.09,-0.65,-0.165,-1.325,-0.787,-0.671,0.012,-0.183,0.791
2024-10-15 13:44:08.765,73800.217,0.078,0.246,-0.966,0.13,0.177,0.131,-0.846,0.707,-0.48,0.081,-0.249,0.642
2024-10-15 13:44:08.885,73800.337,0.186,0.306,-0.934,0.001,-0.059,-0.015,-0.228,0.555,0.404,0.196,-0.311,0.707
2024-10-15 13:44:09.005,73800.457,0.238,0.333,-0.912,-0.04,-0.104,0.219,-0.7,-0.213,0.769,0.255,-0.34,0.814
2024-10-15 13:44:09.125,73800.576,0.246,0.306,-0.92,-0.058,-0.111,0.125,0.689,-0.744,0.563,0.261,-0.311,0.902
2024-10-15 13:44:09.244,73800.696,0.206,0.203,-0.957,-0.112,-0.03,0.171,0.133,-0.855,0.149,0.212,-0.204,0.962
2024-10-15 13:44:09.364,73800.816,0.196,0.365,-0.91,-0.062,-0.012,-0.006,-1.363,0.194,-0.089,0.212,-0.374,0.978
2024-10-15 13:44:09.484,73800.936,0.178,0.318,-0.931,-0.05,-0.141,0.053,1.075,-0.19,0.044,0.189,-0.323,0.961
2024-10-15 13:44:09.604,73801.056,0.153,0.216,-0.964,0.064,0.13,0.008,1.244,-0.596,0.082,0.158,-0.218,0.962
2024-10-15 13:44:09.724,73801.175,0.135,0.154,-0.979,0.047,-0.018,0.145,0.016,-0.424,-0.17,0.137,-0.154,0.957
2024-10-15 13:44:09.844,73801.295,0.106,0.159,-0.982,0.147,-0.094,0.049,-0.151,-0.26,0.248,0.108,-0.16,0.948
2024-10-15 13:44:09.963,73801.415,0.092,0.158,-0.983,-0.053,0.117,-0.073,0.758,-0.464,0.714,0.093,-0.159,1.008
2024-10-15 13:44:10.083,73801.535,0.035,0.08,-0.996,-0.484,0.285,-0.419,0.905,0.374,0.27,0.035,-0.08,1.055
2024-10-15 13:44:10.203,73801.655,-0.031,0.087,-0.996,0.2,0.195,0.038,0.988,0.809,1.31,-0.031,-0.087,0.982
2024-10-15 13:44:10.322,73801.774,-0.017,0.034,-0.999,0.23,-0.461,0.134,-1.465,-0.105,-0.283,-0.017,-0.034,0.998
2024-10-15 13:44:10.442,73801.894,-0.026,0.062,-0.998,0.202,0.116,-0.055,0.066,0.53,1.067,-0.026,-0.062,0.974
2024-10-15 13:44:10.562,73802.014,-0.025,0.011,-1.0,-0.546,0.046,-0.029,-0.331,1.147,-0.561,-0.025,-0.011,0.987
2024-10-15 13:44:10.682,73802.134,-0.034,0.052,-0.998,0.324,-0.245,0.151,0.157,-0.256,0.163,-0.034,-0.052,0.982
2024-10-15 13:44:10.802,73802.253,-0.028,0.037,-0.999,-0.492,0.27,0.042,0.217,-0.721,0.095,-0.028,-0.037,1.015
2024-10-15 13:44:10.921,73802.373,-0.023,0.081,-0.996,0.629,-0.298,0.041,0.998,-0.822,-0.243,-0.023,-0.081,0.977
2024-10-15 13:44:11.041,73802.493,-0.019,0.046,-0.999,-0.321,0.249,-0.067,-0.06,0.232,0.786,-0.019,-0.046,1.011
2024-10-15 13:44:11.161,73802.613,-0.007,0.083,-0.997,0.303,-0.171,-0.002,0.828,-0.282,-0.14,-0.007,-0.083,1.003
2024-10-15 13:44:11.281,73802.733,-0.026,0.036,-0.999,0.034,-0.167,0.116,-0.003,-0.554,-0.448,-0.026,-0.036,1.007
2024-10-15 13:44:11.400,73802.852,-0.013,0.072,-0.997,0.233,-0.082,-0.056,-0.592,0.068,0.032,-0.013,-0.072,1.008
2024-10-15 13:44:11.520,73802.972,-0.012,0.044,-0.999,-0.165,0.152,0.013,1.389,-0.629,-0.749,-0.012,-0.044,1.026
2024-10-15 13:44:11.641,73803.092,-0.014,0.057,-0.998,0.287,-0.252,0.254,-1.581,-0.245,0.112,-0.014,-0.057,1.015
2024-10-15 13:44:11.760,73803.212,-0.007,0.077,-0.997,-0.101,0.481,0.009,0.486,0.511,0.619,-0.007,-0.077,1.047
2024-10-15 13:44:11.880,73803.332,-0.007,0.043,-0.999,0.022,-0.284,-0.028,-1.128,-0.601,-0.325,-0.007,-0.043,1.04
2024-10-15 13:44:11.999,73803.451,-0.017,0.084,-0.996,-0.01,0.38,-0.034,0.278,0.881,0.993,-0.017,-0.084,1.044
2024-10-15 13:44:12.119,73803.571,-0.005,0.039,-0.999,-0.386,0.11,-0.087,0.127,0.337,-0.665,-0.005,-0.039,1.048
2024-10-15 13:44:12.239,73803.691,-0.022,0.083,-0.996,0.342,-0.159,0.108,-0.185,0.173,0.084,-0.022,-0.083,1.028
2024-10-15 13:44:12.359,73803.811,-0.002,0.048,-0.999,-0.65,0.499,-0.059,0.647,-0.753,-0.43,-0.002,-0.048,1.067
2024-10-15 13:44:12.479,73803.931,-0.006,0.081,-0.997,0.456,-0.293,0.086,0.685,-0.817,-0.175,-0.006,-0.081,1.034
2024-10-15 13:44:12.598,73804.05,-0.004,0.05,-0.999,-0.286,0.305,-0.035,-0.35,0.657,0.91,-0.004,-0.05,1.045
2024-10-15 13:44:12.718,73804.17,0.005,0.069,-0.998,0.221,-0.193,0.069,0.729,-0.412,0.103,0.005,-0.069,1.036
2024-10-15 13:44:12.838,73804.29,-0.001,0.048,-0.999,0.038,-0.168,0.145,0.331,-0.744,-0.513,-0.001,-0.048,1.035
2024-10-15 13:44:12.958,73804.41,0.002,0.076,-0.997,0.063,-0.151,-0.206,-0.744,0.548,0.122,0.002,-0.076,1.039
2024-10-15 13:44:13.078,73804.53,0.006,0.064,-0.998,-0.214,0.158,0.038,0.891,-0.187,-0.686,0.006,-0.064,1.054
2024-10-15 13:44:13.197,73804.649,0.006,0.053,-0.999,0.236,-0.36,0.083,-1.048,-0.345,0.111,0.006,-0.053,1.036
2024-10-15 13:44:13.317,73804.769,-0.01,0.076,-0.997,-0.006,-0.184,-0.126,-0.644,0.286,0.416,-0.01,-0.076,1.04
2024-10-15 13:44:13.437,73804.889,0.012,0.062,-0.998,0.126,0.548,-0.018,-0.504,0.737,-0.325,0.012,-0.062,1.017
2024-10-15 13:44:13.557,73805.009,-0.016,0.026,-1.0,-0.406,-0.294,0.038,-0.075,-0.098,-0.176,-0.016,-0.026,1.022
2024-10-15 13:44:13.678,73805.129,-0.003,0.056,-0.998,0.317,0.502,-0.023,-0.19,0.619,0.369,-0.003,-0.057,0.991
2024-10-15 13:44:13.796,73805.248,-0.004,0.045,-0.999,-0.23,-0.241,-0.114,-0.083,-0.195,-0.181,-0.004,-0.045,1.032
2024-10-15 13:44:13.916,73805.368,-0.013,0.058,-0.998,0.328,0.272,0.156,-0.314,-0.024,-0.415,-0.013,-0.058,1.001
2024-10-15 13:44:14.036,73805.488,-0.018,0.025,-1.0,-0.299,-0.456,0.013,0.238,-0.201,-0.014,-0.018,-0.025,1.032
2024-10-15 13:44:14.156,73805.608,-0.027,0.0,-1.0,0.371,0.338,0.089,-0.516,0.338,-0.391,-0.027,-0.0,0.996
2024-10-15 13:44:14.276,73805.728,-0.02,-0.013,-1.0,-0.306,-0.25,0.026,0.71,-0.592,-0.123,-0.02,0.013,1.057
2024-10-15 13:44:14.395,73805.847,-0.032,0.004,-0.999,0.219,0.282,0.082,-0.1,-0.019,-0.532,-0.032,-0.004,1.013
2024-10-15 13:44:14.515,73805.967,-0.018,-0.007,-1.0,-0.427,-0.338,-0.196,0.448,-0.519,-0.574,-0.018,0.007,1.035
2024-10-15 13:44:14.635,73806.087,-0.028,0.038,-0.999,0.039,0.018,-0.082,-1.148,0.355,-0.845,-0.028,-0.038,0.978
2024-10-15 13:44:14.755,73806.207,0.122,0.146,-0.982,0.128,-0.058,0.363,0.049,-0.382,-0.102,0.124,-0.146,0.971
2024-10-15 13:44:14.875,73806.326,0.07,0.117,-0.991,-0.058,0.022,0.126,-0.231,-0.486,0.541,0.07,-0.118,1.031
2024-10-15 13:44:14.994,73806.446,0.026,0.043,-0.999,0.114,0.185,0.34,0.371,-0.022,0.149,0.026,-0.043,1.016
2024-10-15 13:44:15.114,73806.566,0.122,0.23,-0.966,0.032,-0.423,-0.086,-3.097,1.346,-1.528,0.126,-0.232,0.98
2024-10-15 13:44:15.234,73806.686,0.206,0.228,-0.952,-0.059,0.137,0.157,0.657,-0.172,0.338,0.213,-0.23,0.996
2024-10-15 13:44:15.354,73806.806,0.131,0.15,-0.98,0.031,-0.033,0.158,-0.44,-0.138,1.712,0.133,-0.151,1.028
2024-10-15 13:44:15.495,73806.925,0.141,0.047,-0.989,0.096,0.303,-0.175,2.217,0.106,-1.588,0.142,-0.047,0.97
2024-10-15 13:44:15.593,73807.045,0.181,0.033,-0.983,0.14,0.25,0.211,-1.396,0.017,1.425,0.182,-0.033,0.956
2024-10-15 13:44:15.713,73807.165,0.149,0.022,-0.989,-0.055,-0.204,-0.311,0.721,0.484,-1.185,0.149,-0.022,0.99
2024-10-15 13:44:15.833,73807.285,0.184,-0.024,-0.983,0.106,0.406,0.184,-1.475,0.955,1.049,0.185,0.024,0.918
2024-10-15 13:44:15.953,73807.405,0.165,0.063,-0.984,-0.365,0.193,-0.553,2.283,-0.086,-0.999,0.166,-0.063,1.013
2024-10-15 13:44:16.073,73807.524,0.2,-0.007,-0.98,0.06,0.115,0.11,-1.171,0.922,0.02,0.202,0.007,0.915
2024-10-15 13:44:16.192,73807.644,0.285,0.063,-0.957,0.093,-0.122,-0.06,-0.005,0.037,-0.073,0.289,-0.063,0.956
2024-10-15 13:44:16.312,73807.764,0.247,0.091,-0.965,0.081,0.217,-0.217,0.024,-0.797,-0.413,0.251,-0.091,0.892
2024-10-15 13:44:16.432,73807.884,0.21,0.169,-0.963,0.041,-0.152,0.012,-0.352,-0.746,0.657,0.215,-0.17,0.932
2024-10-15 13:44:16.552,73808.004,0.158,0.092,-0.983,-0.091,0.237,0.117,1.069,-0.995,-0.745,0.159,-0.093,0.929
2024-10-15 13:44:16.672,73808.123,0.102,0.015,-0.995,-0.532,-1.057,-0.485,2.607,-1.144,-1.497,0.102,-0.015,0.958
2024-10-15 13:44:16.791,73808.243,0.083,0.032,-0.996,0.511,0.718,0.131,-0.172,-0.696,-0.519,0.083,-0.032,0.875
2024-10-15 13:44:16.911,73808.363,0.092,0.022,-0.996,0.007,-0.422,0.086,-0.474,-0.329,-0.971,0.092,-0.022,0.91
2024-10-15 13:44:17.031,73808.483,0.144,0.015,-0.989,-0.008,0.643,0.017,-0.71,1.548,0.211,0.144,-0.015,0.801
2024-10-15 13:44:17.150,73808.603,0.226,0.067,-0.972,-0.139,0.205,0.023,0.331,0.448,0.784,0.228,-0.068,0.821
2024-10-15 13:44:17.271,73808.722,0.246,0.171,-0.954,0.055,0.024,0.061,-0.761,0.219,0.212,0.252,-0.172,0.866
2024-10-15 13:44:17.390,73808.842,0.228,0.235,-0.945,0.026,-0.172,0.053,-0.286,-0.701,-0.108,0.237,-0.237,0.947
2024-10-15 13:44:17.510,73808.962,0.225,0.285,-0.932,0.081,-0.111,0.065,0.091,-0.005,-0.304,0.237,-0.289,0.962
2024-10-15 13:44:17.630,73809.082,0.204,0.277,-0.939,0.127,-0.062,0.107,-0.465,-0.327,0.095,0.214,-0.281,0.941
2024-10-15 13:44:17.749,73809.202,0.177,0.213,-0.961,-0.227,0.024,-0.033,0.38,-0.273,0.535,0.182,-0.215,1.0
2024-10-15 13:44:17.869,73809.321,0.129,0.195,-0.972,-0.005,0.072,-0.031,0.244,-0.176,0.087,0.132,-0.196,0.983
2024-10-15 13:44:17.989,73809.441,0.135,0.175,-0.975,-0.001,0.064,-0.041,0.476,-0.61,0.274,0.138,-0.176,1.013
2024-10-15 13:44:18.109,73809.561,0.097,0.169,-0.981,-0.153,0.17,-0.003,-0.355,0.092,-0.065,0.098,-0.17,1.022
2024-10-15 13:44:18.229,73809.681,0.136,0.373,-0.918,-0.173,0.037,-0.307,-1.848,2.056,-1.014,0.148,-0.382,1.003
2024-10-15 13:44:18.349,73809.801,0.21,0.552,-0.807,0.029,-0.091,0.067,-0.349,0.286,-0.404,0.255,-0.585,0.983
2024-10-15 13:44:18.469,73809.92,0.155,0.471,-0.868,0.179,0.016,0.064,0.774,-0.272,-0.021,0.177,-0.491,0.902
2024-10-15 13:44:18.588,73810.04,0.124,0.273,-0.954,-0.017,0.045,-0.106,1.146,0.083,0.427,0.129,-0.276,0.936
2024-10-15 13:44:18.707,73810.16,0.114,0.18,-0.977,-0.093,-0.118,0.063,0.462,-0.24,0.321,0.116,-0.181,0.977
2024-10-15 13:44:18.828,73810.28,0.103,0.083,-0.991,-0.445,0.291,-0.302,1.687,-0.393,0.339,0.103,-0.083,1.028
2024-10-15 13:44:18.947,73810.399,-0.002,0.159,-0.987,0.766,-0.27,0.063,0.518,-0.352,0.844,-0.002,-0.159,0.959
2024-10-15 13:44:19.067,73810.519,0.052,0.055,-0.997,-0.642,0.196,-0.078,-0.415,0.329,-0.598,0.052,-0.055,1.04
2024-10-15 13:44:19.187,73810.639,0.035,0.165,-0.986,0.481,0.142,0.082,0.343,-0.83,-0.463,0.035,-0.166,0.937
2024-10-15 13:44:19.307,73810.759,0.078,0.066,-0.995,-0.276,-0.028,-0.019,0.569,-1.098,0.427,0.078,-0.066,1.022
2024-10-15 13:44:19.427,73810.879,0.045,0.145,-0.988,0.007,0.161,-0.233,-0.687,0.447,-0.552,0.045,-0.145,0.941
2024-10-15 13:44:19.547,73810.998,0.068,0.096,-0.993,-0.091,0.172,0.039,0.748,0.782,0.996,0.068,-0.096,0.997
2024-10-15 13:44:19.667,73811.118,0.061,0.089,-0.994,0.14,-0.294,0.004,-1.187,-0.961,-0.957,0.061,-0.089,0.975
2024-10-15 13:44:19.786,73811.238,0.024,0.11,-0.994,0.051,-0.018,-0.18,0.959,1.125,0.296,0.024,-0.11,0.972
2024-10-15 13:44:19.906,73811.358,0.07,0.063,-0.996,-0.519,0.196,-0.058,0.843,0.0,-0.129,0.07,-0.063,1.032
2024-10-15 13:44:20.026,73811.478,0.031,0.083,-0.996,0.333,-0.768,0.062,0.964,-0.785,0.253,0.031,-0.083,1.004
2024-10-15 13:44:20.146,73811.597,0.069,0.044,-0.997,-0.462,0.594,-0.161,-0.345,0.286,0.206,0.069,-0.044,1.044
2024-10-15 13:44:20.265,73811.717,0.046,0.127,-0.991,0.322,-0.453,0.075,1.039,-0.422,-0.111,0.047,-0.127,1.023
2024-10-15 13:44:20.385,73811.837,0.068,0.068,-0.995,-0.279,-0.312,0.121,0.163,0.071,-1.506,0.068,-0.068,1.025
2024-10-15 13:44:20.505,73811.957,0.038,0.122,-0.992,0.022,-0.158,-0.144,-0.395,-0.218,0.417,0.039,-0.122,1.043
2024-10-15 13:44:20.625,73812.077,0.064,0.055,-0.996,-0.128,-0.509,0.159,0.433,-0.27,-2.06,0.064,-0.055,1.05
2024-10-15 13:44:20.745,73812.196,0.04,0.082,-0.996,0.004,-0.133,-0.283,-0.817,-0.46,0.762,0.04,-0.082,1.062
2024-10-15 13:44:20.863,73812.316,0.064,0.067,-0.996,-0.229,0.494,0.069,0.496,0.661,0.6,0.064,-0.067,1.081
2024-10-15 13:44:20.984,73812.436,0.062,0.081,-0.995,0.197,-0.3,0.349,-1.084,-0.468,0.364,0.062,-0.081,1.066
2024-10-15 13:44:21.104,73812.556,0.046,0.081,-0.996,-0.213,0.493,-0.098,0.075,1.118,0.711,0.046,-0.081,1.069
2024-10-15 13:44:21.224,73812.676,0.073,0.086,-0.994,0.129,-0.365,0.067,-0.3,-0.693,-0.038,0.073,-0.086,1.062
2024-10-15 13:44:21.344,73812.795,0.036,0.101,-0.994,-0.0,-0.026,-0.122,0.564,0.53,-0.062,0.037,-0.101,1.066
2024-10-15 13:44:21.463,73812.915,0.076,0.09,-0.993,-0.107,0.271,-0.096,0.071,0.156,0.747,0.076,-0.09,1.078
2024-10-15 13:44:21.583,73813.035,0.042,0.076,-0.996,0.046,0.362,0.087,0.259,-0.101,0.149,0.042,-0.076,1.068
2024-10-15 13:44:21.703,73813.155,0.077,0.039,-0.996,-0.231,0.99,-0.228,-0.436,0.604,1.019,0.077,-0.039,1.073
2024-10-15 13:44:21.823,73813.275,0.051,0.123,-0.991,0.075,-0.291,0.019,-1.435,0.589,-0.764,0.052,-0.124,1.051
2024-10-15 13:44:21.943,73813.394,0.224,0.318,-0.921,-0.199,0.293,0.186,-0.683,1.043,-0.762,0.239,-0.323,0.954
2024-10-15 13:44:22.063,73813.514,0.188,0.35,-0.917,0.198,-0.11,0.096,-0.632,-0.582,0.464,0.202,-0.358,0.966
2024-10-15 13:44:22.182,73813.634,0.146,0.273,-0.951,-0.092,-0.312,-0.271,1.09,0.849,-0.504,0.153,-0.276,0.976
2024-10-15 13:44:22.302,73813.754,0.207,0.098,-0.973,0.082,0.001,0.058,0.768,0.341,-0.955,0.209,-0.098,0.794
2024-10-15 13:44:22.422,73813.874,0.285,0.16,-0.945,0.233,0.017,0.242,-0.486,-0.537,1.118,0.293,-0.16,0.838
2024-10-15 13:44:22.541,73813.993,0.281,0.214,-0.936,-0.218,-0.138,-0.16,3.656,-0.168,-1.986,0.292,-0.215,0.925
2024-10-15 13:44:22.661,73814.113,0.34,0.216,-0.915,0.167,0.076,0.287,-1.639,-0.327,-0.615,0.356,-0.218,0.821
2024-10-15 13:44:22.781,73814.233,0.268,0.265,-0.926,-0.008,-0.031,-0.164,1.076,0.147,-0.725,0.282,-0.268,0.865
2024-10-15 13:44:22.901,73814.353,0.218,0.187,-0.958,-0.227,0.187,-0.169,0.764,-0.552,0.0,0.224,-0.188,0.912
2024-10-15 13:44:23.022,73814.472,0.142,0.117,-0.983,-0.012,0.01,0.1,1.11,-0.224,0.195,0.143,-0.117,0.881
2024-10-15 13:44:23.140,73814.592,0.067,0.065,-0.996,0.116,-0.48,0.13,-0.663,-1.053,1.256,0.067,-0.065,0.95
2024-10-15 13:44:23.260,73814.712,0.111,0.053,-0.992,-0.164,0.303,0.008,-0.106,-0.373,-0.511,0.111,-0.053,0.958
2024-10-15 13:44:23.380,73814.832,0.068,0.067,-0.995,-0.052,-0.799,-0.03,0.705,-0.219,-0.038,0.068,-0.068,0.978
2024-10-15 13:44:23.500,73814.952,0.097,0.063,-0.993,0.006,0.136,0.058,-0.512,-0.581,0.267,0.097,-0.063,0.94
2024-10-15 13:44:23.619,73815.071,0.052,0.075,-0.996,-0.119,-0.716,0.031,0.893,-0.035,0.082,0.052,-0.075,1.019
2024-10-15 13:44:23.739,73815.191,0.097,0.045,-0.994,0.029,-0.111,0.157,0.558,-1.5,-1.081,0.097,-0.045,0.953
2024-10-15 13:44:23.859,73815.311,0.066,0.067,-0.996,-0.146,-0.266,-0.393,0.028,-1.05,0.926,0.066,-0.067,1.026
2024-10-15 13:44:23.979,73815.431,0.108,0.045,-0.993,-0.15,-0.089,0.033,0.204,-0.01,-2.067,0.108,-0.045,0.998
2024-10-15 13:44:24.099,73815.551,0.07,0.062,-0.996,-0.046,-0.683,-0.054,0.482,-0.45,0.195,0.071,-0.062,1.028
2024-10-15 13:44:24.218,73815.67,0.11,0.08,-0.991,-0.057,0.081,-0.009,-0.205,-0.001,0.199,0.111,-0.08,1.012
2024-10-15 13:44:24.338,73815.79,0.088,0.076,-0.993,0.018,-0.187,0.067,-0.351,0.106,-0.246,0.088,-0.076,1.02
2024-10-15 13:44:24.458,73815.91,0.113,0.052,-0.992,-0.181,0.162,-0.175,0.534,0.678,1.752,0.113,-0.052,1.004
2024-10-15 13:44:24.578,73816.03,0.05,0.109,-0.993,0.319,0.039,0.006,-0.129,-0.04,0.469,0.05,-0.109,0.992
2024-10-15 13:44:24.698,73816.15,0.124,0.043,-0.991,-0.275,-0.097,0.19,0.356,-0.113,-1.182,0.125,-0.043,1.026
2024-10-15 13:44:24.818,73816.269,0.065,0.04,-0.997,0.237,-0.334,0.062,-1.285,-1.374,0.506,0.065,-0.04,1.006
2024-10-15 13:44:24.937,73816.389,0.113,0.034,-0.993,-0.121,0.29,0.053,0.673,1.066,0.428,0.113,-0.034,1.01
2024-10-15 13:44:25.057,73816.509,0.068,0.024,-0.997,0.318,-0.367,0.083,-1.011,-1.361,0.777,0.068,-0.024,1.003
2024-10-15 13:44:25.177,73816.629,0.108,0.006,-0.994,-0.145,0.239,-0.041,0.834,1.153,0.243,0.108,-0.006,1.011
2024-10-15 13:44:25.297,73816.749,0.076,-0.019,-0.997,0.323,-0.268,0.15,-0.807,-2.429,0.723,0.076,0.019,1.002
2024-10-15 13:44:25.417,73816.868,0.095,-0.03,-0.995,-0.08,0.365,0.101,1.102,0.461,0.225,0.095,0.03,1.045
2024-10-15 13:44:25.536,73816.988,0.078,-0.034,-0.996,0.278,-0.303,0.248,-1.492,-2.219,0.653,0.078,0.034,1.009
2024-10-15 13:44:25.656,73817.108,0.089,-0.008,-0.996,-0.055,0.547,-0.05,-0.071,1.505,1.128,0.089,0.008,1.027
2024-10-15 13:44:25.776,73817.228,0.091,-0.03,-0.995,0.197,-0.442,0.066,-0.403,-1.907,0.793,0.091,0.03,1.0
2024-10-15 13:44:25.896,73817.348,0.088,-0.026,-0.996,0.105,0.293,0.133,-0.211,0.176,0.849,0.088,0.026,0.983
2024-10-15 13:44:26.015,73817.467,0.073,-0.067,-0.995,-0.302,-0.434,-0.125,-0.128,-0.445,0.064,0.073,0.067,1.032
2024-10-15 13:44:26.135,73817.587,0.047,-0.036,-0.998,0.343,0.142,0.163,0.437,-1.271,-0.605,0.047,0.036,0.934
2024-10-15 13:44:26.255,73817.707,0.076,-0.081,-0.994,-0.054,-0.558,0.147,-0.371,-0.714,0.984,0.077,0.081,1.011
2024-10-15 13:44:26.375,73817.827,0.067,-0.034,-0.997,0.335,0.252,0.183,0.027,-1.238,-0.925,0.067,0.034,0.929
2024-10-15 13:44:26.494,73817.947,0.071,-0.084,-0.994,-0.14,-0.563,0.304,-0.67,-0.997,0.907,0.072,0.084,1.014
2024-10-15 13:44:26.615,73818.066,0.079,-0.022,-0.997,0.186,0.051,0.107,0.822,-1.175,-0.668,0.079,0.022,0.929
2024-10-15 13:44:26.734,73818.186,0.102,-0.034,-0.994,-0.057,-0.397,0.213,-0.208,-1.289,0.449,0.102,0.034,0.964
2024-10-15 13:44:26.854,73818.306,0.091,0.064,-0.994,-0.233,-0.332,-0.203,-1.648,1.02,-2.763,0.092,-0.064,0.9
2024-10-15 13:44:26.974,73818.426,0.18,0.37,-0.911,0.006,0.024,0.261,-2.373,-0.452,-1.651,0.195,-0.379,0.818
2024-10-15 13:44:27.094,73818.545,0.179,0.607,-0.774,-0.04,-0.031,-0.035,-3.403,0.123,-0.078,0.227,-0.653,0.877
2024-10-15 13:44:27.213,73818.665,0.247,0.767,-0.592,0.029,-0.101,0.131,-1.681,0.181,0.41,0.396,-0.875,1.073
2024-10-15 13:44:27.333,73818.785,0.25,0.547,-0.799,0.018,0.208,0.211,6.015,-0.901,0.502,0.304,-0.579,1.022
2024-10-15 13:44:27.453,73818.905,0.182,0.314,-0.932,-0.09,-0.171,-0.126,1.526,0.179,-0.693,0.193,-0.319,0.975
2024-10-15 13:44:27.573,73819.025,0.185,0.144,-0.972,-0.121,-0.069,-0.059,-0.972,1.164,-1.31,0.189,-0.144,0.775
2024-10-15 13:44:27.693,73819.144,0.254,0.207,-0.945,0.099,0.232,0.033,1.008,0.238,0.126,0.263,-0.209,0.734
2024-10-15 13:44:27.812,73819.264,0.259,0.201,-0.945,0.131,0.095,0.122,0.127,-0.382,0.222,0.267,-0.202,0.756
2024-10-15 13:44:27.932,73819.384,0.223,0.138,-0.965,0.022,0.014,-0.017,0.351,-0.396,0.777,0.227,-0.138,0.812
2024-10-15 13:44:28.052,73819.504,0.184,0.057,-0.981,-0.108,-0.084,-0.113,0.312,-0.317,-0.038,0.186,-0.057,0.834
2024-10-15 13:44:28.172,73819.624,0.168,0.092,-0.981,0.206,-0.007,0.085,0.176,-0.058,-0.328,0.169,-0.092,0.803
2024-10-15 13:44:28.291,73819.743,0.155,0.037,-0.987,-0.689,0.202,-0.363,0.235,-0.472,-0.283,0.156,-0.037,0.839
2024-10-15 13:44:28.411,73819.863,0.119,0.113,-0.986,0.4,-0.206,0.137,-0.431,-0.391,-0.371,0.12,-0.113,0.794
2024-10-15 13:44:28.532,73819.983,0.148,0.1,-0.984,-0.13,0.063,0.095,0.519,-0.018,-0.224,0.149,-0.1,0.815
2024-10-15 13:44:28.651,73820.103,0.132,0.133,-0.982,0.273,-0.278,-0.08,-0.641,-0.322,-0.274,0.134,-0.133,0.812
2024-10-15 13:44:28.771,73820.223,0.151,0.146,-0.978,0.03,0.12,-0.025,0.237,0.289,0.94,0.153,-0.146,0.83
2024-10-15 13:44:28.890,73820.342,0.149,0.151,-0.977,-0.188,-0.067,-0.11,-0.608,0.17,-0.265,0.151,-0.151,0.826
2024-10-15 13:44:29.010,73820.462,0.128,0.209,-0.969,0.449,0.12,0.171,0.28,0.032,0.652,0.131,-0.211,0.804
2024-10-15 13:44:29.129,73820.582,0.14,0.183,-0.973,-0.496,-0.125,-0.255,-0.193,-0.334,-0.025,0.143,-0.184,0.859
2024-10-15 13:44:29.250,73820.702,0.122,0.242,-0.962,0.321,0.093,0.214,-0.336,-0.099,-0.099,0.126,-0.245,0.818
2024-10-15 13:44:29.369,73820.822,0.165,0.223,-0.961,-0.236,-0.043,-0.003,0.287,-0.31,-0.063,0.17,-0.224,0.886
2024-10-15 13:44:29.489,73820.941,0.143,0.22,-0.965,0.231,-0.093,-0.078,0.104,-0.431,-0.435,0.147,-0.222,0.864
2024-10-15 13:44:29.609,73821.061,0.169,0.206,-0.964,-0.046,0.119,0.102,0.16,0.192,0.701,0.173,-0.207,0.902
2024-10-15 13:44:29.729,73821.181,0.145,0.174,-0.974,-0.256,-0.156,-0.093,-0.497,0.439,0.071,0.148,-0.175,0.89
2024-10-15 13:44:29.849,73821.301,0.138,0.2,-0.97,0.539,0.127,0.112,0.172,0.211,0.756,0.141,-0.202,0.864
2024-10-15 13:44:29.969,73821.421,0.148,0.155,-0.977,-0.507,-0.11,-0.228,0.021,-0.295,-0.216,0.15,-0.156,0.894
2024-10-15 13:44:30.088,73821.54,0.132,0.183,-0.974,0.243,0.102,0.287,0.04,-0.014,-0.472,0.134,-0.184,0.887
2024-10-15 13:44:30.208,73821.66,0.16,0.172,-0.972,-0.017,0.021,0.019,0.268,-0.08,-0.095,0.163,-0.173,0.901
2024-10-15 13:44:30.328,73821.78,0.136,0.161,-0.978,0.215,-0.128,-0.136,0.051,-0.157,-0.201,0.138,-0.161,0.895
2024-10-15 13:44:30.448,73821.9,0.147,0.168,-0.975,-0.093,-0.079,-0.041,-0.142,0.466,0.412,0.15,-0.169,0.893
2024-10-15 13:44:30.567,73822.02,0.147,0.155,-0.977,-0.393,-0.036,-0.097,-0.041,-0.0,0.038,0.15,-0.155,0.892
2024-10-15 13:44:30.687,73822.139,0.133,0.166,-0.977,0.412,0.02,0.293,0.171,-0.131,-0.279,0.135,-0.166,0.879
2024-10-15 13:44:30.807,73822.259,0.156,0.162,-0.974,-0.063,0.048,-0.137,0.428,-0.309,-0.061,0.159,-0.163,0.896
2024-10-15 13:44:30.927,73822.379,0.134,0.125,-0.983,0.122,-0.151,-0.102,0.06,-0.266,0.012,0.136,-0.125,0.907
2024-10-15 13:44:31.047,73822.499,0.14,0.141,-0.98,-0.082,-0.074,-0.096,-0.332,0.349,0.317,0.142,-0.141,0.903
2024-10-15 13:44:31.167,73822.618,0.141,0.123,-0.982,-0.339,0.029,-0.15,0.531,-0.213,0.15,0.142,-0.124,0.9
2024-10-15 13:44:31.286,73822.738,0.13,0.126,-0.984,0.398,-0.186,0.14,0.131,0.059,0.151,0.131,-0.126,0.892
2024-10-15 13:44:31.406,73822.858,0.147,0.13,-0.98,-0.373,0.206,0.033,-0.018,-0.258,-0.332,0.149,-0.131,0.9
2024-10-15 13:44:31.526,73822.978,0.132,0.155,-0.979,0.001,-0.179,0.048,0.139,-0.027,-0.453,0.134,-0.156,0.882
2024-10-15 13:44:31.646,73823.098,0.123,0.146,-0.982,0.198,0.33,0.221,0.16,-0.115,0.137,0.125,-0.147,0.846
2024-10-15 13:44:31.766,73823.217,0.131,0.139,-0.982,-0.163,-0.244,-0.182,0.16,-0.185,-0.046,0.133,-0.139,0.891
2024-10-15 13:44:31.885,73823.337,0.116,0.146,-0.983,-0.034,0.14,-0.085,0.224,0.156,-0.107,0.117,-0.146,0.867
2024-10-15 13:44:32.005,73823.457,0.129,0.15,-0.98,-0.304,-0.232,-0.061,-0.281,0.073,-0.039,0.131,-0.151,0.893
2024-10-15 13:44:32.125,73823.577,0.103,0.145,-0.984,-0.001,0.118,-0.108,0.441,-0.218,-0.561,0.104,-0.145,0.854
2024-10-15 13:44:32.244,73823.697,0.119,0.13,-0.984,0.087,-0.018,0.263,-0.484,-0.035,1.047,0.12,-0.13,0.874
2024-10-15 13:44:32.366,73823.816,0.103,0.127,-0.987,-0.114,-0.275,0.146,-0.865,0.114,-0.468,0.104,-0.127,0.88
2024-10-15 13:44:32.484,73823.936,0.109,0.134,-0.985,0.294,0.52,0.264,-1.081,0.79,0.517,0.11,-0.135,0.827
2024-10-15 13:44:32.604,73824.056,0.093,0.082,-0.992,-0.302,-0.54,-0.261,-0.026,-0.854,-0.059,0.094,-0.082,0.869
2024-10-15 13:44:32.724,73824.176,0.1,0.108,-0.989,0.221,0.141,0.273,-0.636,0.304,0.287,0.101,-0.108,0.826
2024-10-15 13:44:32.844,73824.296,0.119,0.093,-0.988,-0.199,-0.292,-0.105,0.22,-0.566,0.028,0.12,-0.094,0.886
2024-10-15 13:44:32.963,73824.415,0.085,0.092,-0.992,0.087,-0.147,-0.108,0.217,-0.284,-1.109,0.085,-0.092,0.814
2024-10-15 13:44:33.083,73824.535,0.178,0.293,-0.939,-0.035,0.681,0.258,-1.755,1.242,0.109,0.187,-0.297,0.75
2024-10-15 13:44:33.203,73824.655,0.179,0.383,-0.906,-0.027,0.014,0.153,-0.846,-0.959,1.119,0.195,-0.393,0.889
2024-10-15 13:44:33.323,73824.775,0.11,0.279,-0.954,-0.267,-0.254,-0.139,1.724,-0.319,-0.954,0.115,-0.283,0.936
2024-10-15 13:44:33.443,73824.895,0.156,0.191,-0.969,0.295,0.126,-0.062,-0.44,0.8,-0.31,0.16,-0.193,0.775
2024-10-15 13:44:33.562,73825.014,0.193,0.207,-0.959,0.026,-0.277,0.104,-0.989,-0.538,1.143,0.198,-0.208,0.927
2024-10-15 13:44:33.682,73825.134,0.247,0.249,-0.937,0.023,0.023,-0.336,0.575,1.473,-1.96,0.258,-0.252,0.855
2024-10-15 13:44:33.802,73825.254,0.295,0.205,-0.933,0.105,0.214,0.234,-0.649,-0.538,1.28,0.306,-0.206,0.825
2024-10-15 13:44:33.922,73825.374,0.294,0.289,-0.911,-0.338,-0.176,-0.097,0.175,1.049,-1.2,0.313,-0.293,0.948
2024-10-15 13:44:34.042,73825.494,0.347,0.268,-0.899,-0.07,0.498,0.272,-0.822,0.724,1.205,0.368,-0.272,0.845
2024-10-15 13:44:34.162,73825.613,0.319,0.331,-0.888,-0.113,-0.084,-0.176,-0.197,0.643,-0.271,0.345,-0.337,0.969
2024-10-15 13:44:34.281,73825.733,0.343,0.291,-0.893,-0.053,0.318,0.112,-1.199,0.374,-0.457,0.367,-0.295,0.807
2024-10-15 13:44:34.401,73825.853,0.299,0.396,-0.868,0.022,-0.116,0.021,-0.196,-0.023,0.122,0.331,-0.408,0.907
2024-10-15 13:44:34.521,73825.973,0.308,0.395,-0.865,-0.008,0.039,0.094,-0.786,-0.103,0.097,0.342,-0.406,0.921
2024-10-15 13:44:34.641,73826.093,0.309,0.418,-0.854,-0.036,-0.067,-0.033,0.024,-0.068,0.191,0.347,-0.431,0.968
2024-10-15 13:44:34.760,73826.212,0.316,0.368,-0.875,-0.012,0.011,-0.019,0.443,0.042,-0.092,0.346,-0.376,0.957
2024-10-15 13:44:34.880,73826.332,0.312,0.346,-0.885,-0.004,-0.092,0.044,0.357,-0.12,-0.215,0.339,-0.353,0.932
2024-10-15 13:44:35.000,73826.452,0.335,0.341,-0.878,-0.096,0.123,-0.096,0.262,0.305,0.088,0.364,-0.348,0.929
2024-10-15 13:44:35.120,73826.572,0.329,0.352,-0.876,-0.01,-0.201,0.028,-0.279,-0.01,-0.597,0.359,-0.36,0.908
2024-10-15 13:44:35.240,73826.691,0.287,0.359,-0.888,0.064,0.067,0.01,-0.062,-0.696,-0.001,0.312,-0.367,0.906
2024-10-15 13:44:35.359,73826.811,0.306,0.293,-0.906,-0.022,0.021,0.035,1.529,-0.427,-0.455,0.326,-0.297,0.874
2024-10-15 13:44:35.479,73826.931,0.254,0.293,-0.922,-0.002,-0.115,0.001,-0.07,-0.606,0.126,0.269,-0.297,0.893
2024-10-15 13:44:35.599,73827.051,0.247,0.272,-0.93,0.006,-0.001,0.067,-0.905,0.155,-0.164,0.26,-0.276,0.868
2024-10-15 13:44:35.719,73827.171,0.227,0.269,-0.936,0.014,-0.185,0.082,-0.166,-0.449,-0.411,0.238,-0.272,0.886
2024-10-15 13:44:35.838,73827.29,0.212,0.223,-0.952,0.001,0.141,0.159,0.219,0.223,0.631,0.219,-0.225,0.866
2024-10-15 13:44:35.958,73827.41,0.157,0.152,-0.976,0.317,-0.538,0.12,-2.356,-1.63,-1.897,0.159,-0.153,0.854
2024-10-15 13:44:36.078,73827.53,0.175,0.103,-0.979,-0.293,0.225,0.014,0.709,0.152,0.306,0.177,-0.104,0.88
2024-10-15 13:44:36.198,73827.65,0.146,0.171,-0.974,0.37,-0.159,-0.119,-0.639,-0.132,-0.345,0.149,-0.172,0.849
2024-10-15 13:44:36.318,73827.77,0.187,0.143,-0.972,-0.306,0.1,-0.018,0.556,0.385,0.197,0.19,-0.143,0.866
2024-10-15 13:44:36.437,73827.889,0.167,0.184,-0.969,0.319,-0.15,-0.023,-0.851,-0.321,-0.358,0.171,-0.185,0.842
2024-10-15 13:44:36.557,73828.009,0.2,0.171,-0.965,-0.122,0.105,-0.182,0.383,0.227,0.243,0.204,-0.171,0.873
2024-10-15 13:44:36.677,73828.129,0.172,0.196,-0.965,0.297,-0.254,-0.033,-1.563,-0.479,-1.302,0.176,-0.197,0.846
2024-10-15 13:44:36.797,73828.249,0.184,0.173,-0.968,-0.013,0.138,0.042,0.025,0.376,0.7,0.187,-0.174,0.874
2024-10-15 13:44:36.916,73828.369,0.179,0.146,-0.973,-0.254,-0.072,-0.049,-1.112,0.129,-0.847,0.182,-0.146,0.873
2024-10-15 13:44:37.037,73828.488,0.178,0.17,-0.969,0.052,0.011,-0.138,0.162,0.697,0.59,0.182,-0.171,0.862
2024-10-15 13:44:37.157,73828.608,0.176,0.112,-0.978,-0.784,0.103,0.05,-0.366,-0.067,-0.482,0.178,-0.112,0.882
2024-10-15 13:44:37.276,73828.728,0.161,0.138,-0.977,0.519,-0.345,0.158,-0.184,0.229,0.052,0.164,-0.139,0.864
2024-10-15 13:44:37.396,73828.848,0.175,0.074,-0.982,-0.797,0.266,-0.066,-0.342,-0.249,-0.094,0.177,-0.074,0.892
2024-10-15 13:44:37.516,73828.968,0.162,0.135,-0.978,0.45,-0.16,0.244,0.403,-0.038,0.026,0.164,-0.136,0.864
2024-10-15 13:44:37.636,73829.087,0.189,0.089,-0.978,-0.563,0.426,0.002,0.338,-0.765,0.227,0.191,-0.089,0.894
2024-10-15 13:44:37.755,73829.207,0.166,0.141,-0.976,0.665,-0.35,0.281,0.274,-0.069,-0.118,0.169,-0.141,0.87
2024-10-15 13:44:37.876,73829.327,0.198,0.102,-0.975,-0.571,0.351,-0.122,0.255,-0.205,0.547,0.2,-0.102,0.893
2024-10-15 13:44:37.995,73829.447,0.16,0.146,-0.976,0.57,-0.375,0.15,0.87,-0.182,0.246,0.162,-0.146,0.876
2024-10-15 13:44:38.115,73829.567,0.18,0.097,-0.979,-0.318,0.154,-0.041,0.944,-0.168,0.278,0.182,-0.097,0.891
2024-10-15 13:44:38.234,73829.686,0.16,0.154,-0.975,0.451,-0.232,-0.016,0.348,-0.143,0.954,0.163,-0.155,0.868
2024-10-15 13:44:38.354,73829.806,0.183,0.104,-0.978,-0.176,0.207,0.026,1.36,-0.56,0.251,0.185,-0.104,0.891
2024-10-15 13:44:38.474,73829.926,0.168,0.127,-0.978,0.205,-0.1,-0.086,-0.432,-0.501,-0.089,0.17,-0.127,0.867
2024-10-15 13:44:38.594,73830.046,0.18,0.115,-0.977,-0.069,0.308,0.054,0.863,-0.147,0.248,0.182,-0.115,0.88
2024-10-15 13:44:38.713,73830.166,0.178,0.078,-0.981,-0.136,-0.125,-0.093,-0.762,-0.168,-0.915,0.179,-0.078,0.877
2024-10-15 13:44:38.833,73830.285,0.141,0.105,-0.984,0.212,-0.417,-0.088,-1.337,0.589,-0.37,0.142,-0.105,0.873
2024-10-15 13:44:38.953,73830.405,0.149,0.093,-0.984,0.188,0.326,0.113,-1.153,0.522,-0.96,0.15,-0.093,0.818
2024-10-15 13:44:39.073,73830.525,0.15,0.022,-0.988,-0.457,-0.625,-0.257,0.475,-0.176,-0.859,0.15,-0.022,0.861
2024-10-15 13:44:39.193,73830.645,0.127,0.053,-0.99,0.19,0.005,0.198,-0.575,0.696,-0.914,0.128,-0.053,0.798
2024-10-15 13:44:39.312,73830.764,0.151,0.015,-0.988,-0.452,-1.033,-0.216,0.084,-0.671,-0.956,0.151,-0.015,0.858
2024-10-15 13:44:39.433,73830.884,0.135,0.051,-0.989,-0.209,-0.444,0.022,-1.548,1.071,-1.063,0.136,-0.051,0.773
2024-10-15 13:44:39.552,73831.004,0.213,0.171,-0.962,0.054,0.107,0.327,-1.124,-0.066,1.167,0.217,-0.172,0.757
2024-10-15 13:44:39.672,73831.124,0.165,0.198,-0.966,-0.015,-0.535,-0.249,0.999,-0.716,0.157,0.17,-0.199,0.923
2024-10-15 13:44:39.792,73831.244,0.15,0.104,-0.983,0.011,-0.023,-0.115,1.003,0.251,-1.61,0.152,-0.104,0.763
2024-10-15 13:44:39.911,73831.363,0.181,0.116,-0.977,0.217,0.283,0.089,0.276,-0.206,1.279,0.184,-0.116,0.728
2024-10-15 13:44:40.031,73831.483,0.153,0.114,-0.982,-0.142,-0.412,-0.103,-0.356,-0.954,0.079,0.154,-0.114,0.884
2024-10-15 13:44:40.151,73831.603,0.187,0.195,-0.963,-0.044,0.045,0.012,-0.962,1.235,-1.442,0.192,-0.197,0.744
2024-10-15 13:44:40.271,73831.723,0.241,0.3,-0.923,0.123,-0.028,0.111,-0.291,-0.315,0.357,0.256,-0.305,0.69
2024-10-15 13:44:40.391,73831.843,0.232,0.328,-0.916,-0.11,-0.018,-0.104,-0.664,0.544,0.879,0.248,-0.335,0.771
2024-10-15 13:44:40.511,73831.962,0.224,0.254,-0.941,-0.096,0.01,-0.034,0.308,-0.34,0.41,0.234,-0.256,0.815
2024-10-15 13:44:40.631,73832.082,0.176,0.217,-0.96,0.146,-0.037,0.095,0.119,-0.288,0.003,0.182,-0.219,0.822
2024-10-15 13:44:40.750,73832.202,0.195,0.116,-0.974,-0.13,0.02,0.071,1.054,0.199,1.118,0.198,-0.116,0.844
2024-10-15 13:44:40.869,73832.322,0.15,0.047,-0.988,0.295,-0.384,0.081,-0.905,-0.484,-0.94,0.15,-0.047,0.832
2024-10-15 13:44:40.989,73832.442,0.177,0.069,-0.982,-0.141,0.085,0.149,-0.434,-0.239,0.009,0.178,-0.069,0.869
2024-10-15 13:44:41.109,73832.561,0.149,0.13,-0.98,0.215,-0.339,-0.123,-0.965,-0.503,-1.024,0.151,-0.13,0.821
2024-10-15 13:44:41.229,73832.681,0.171,0.173,-0.97,-0.092,-0.001,0.009,-0.494,0.656,1.184,0.174,-0.174,0.851
2024-10-15 13:44:41.349,73832.801,0.163,0.18,-0.97,-0.371,-0.096,-0.063,-1.404,0.576,-0.703,0.166,-0.181,0.855
2024-10-15 13:44:41.469,73832.921,0.148,0.224,-0.963,0.4,0.107,0.068,0.168,0.699,1.143,0.152,-0.226,0.802
2024-10-15 13:44:41.589,73833.041,0.164,0.177,-0.97,-0.658,0.13,-0.146,-0.185,0.044,0.106,0.167,-0.178,0.85
2024-10-15 13:44:41.708,73833.16,0.136,0.201,-0.97,0.573,0.02,0.253,0.556,0.389,1.041,0.139,-0.203,0.8
2024-10-15 13:44:41.828,73833.28,0.173,0.157,-0.972,-0.502,0.242,-0.126,0.367,-0.509,0.18,0.176,-0.158,0.868
2024-10-15 13:44:41.948,73833.4,0.138,0.186,-0.973,0.6,-0.094,0.131,0.429,0.009,-0.38,0.14,-0.187,0.802
2024-10-15 13:44:42.067,73833.52,0.177,0.145,-0.974,-0.344,0.221,-0.146,0.32,-0.06,0.405,0.179,-0.146,0.856
2024-10-15 13:44:42.187,73833.64,0.147,0.182,-0.972,0.203,-0.114,0.065,-0.145,-0.124,-0.571,0.15,-0.183,0.825
2024-10-15 13:44:42.307,73833.759,0.181,0.151,-0.972,-0.258,0.059,0.027,0.666,-0.207,-0.527,0.184,-0.152,0.86
2024-10-15 13:44:42.427,73833.879,0.165,0.144,-0.976,0.014,-0.082,-0.093,-0.627,-0.3,-0.513,0.167,-0.144,0.848
2024-10-15 13:44:42.547,73833.999,0.145,0.154,-0.977,0.373,-0.101,0.076,-0.5,0.578,0.804,0.147,-0.154,0.822
2024-10-15 13:44:42.666,73834.119,0.166,0.126,-0.978,-0.615,0.319,-0.026,-0.297,-0.121,-0.268,0.168,-0.126,0.859
2024-10-15 13:44:42.786,73834.239,0.143,0.151,-0.978,0.233,-0.34,0.176,0.046,-0.179,-0.642,0.145,-0.152,0.814
2024-10-15 13:44:42.906,73834.358,0.146,0.14,-0.979,0.145,0.355,0.161,-0.107,0.264,0.443,0.148,-0.141,0.789
2024-10-15 13:44:43.026,73834.478,0.135,0.093,-0.987,-0.169,-0.511,-0.034,-0.81,-0.227,-0.077,0.136,-0.093,0.828
2024-10-15 13:44:43.146,73834.598,0.149,0.131,-0.98,-0.003,0.186,0.231,-1.12,0.637,0.034,0.15,-0.131,0.781
2024-10-15 13:44:43.265,73834.718,0.155,0.154,-0.976,-0.237,-0.135,-0.091,-0.628,-0.216,-1.247,0.158,-0.155,0.733
2024-10-15 13:44:43.385,73834.837,0.209,0.343,-0.916,0.208,0.263,0.301,1.015,-0.988,0.76,0.225,-0.35,0.727
2024-10-15 13:44:43.506,73834.957,0.16,0.286,-0.945,-0.224,-0.338,-0.152,2.369,-1.512,-0.056,0.168,-0.29,0.903
2024-10-15 13:44:43.625,73835.077,0.171,0.164,-0.972,0.188,0.618,-0.078,-0.177,0.654,-0.38,0.174,-0.164,0.758
2024-10-15 13:44:43.745,73835.197,0.158,0.182,-0.971,-0.183,-0.65,0.133,-1.123,-0.978,0.894,0.161,-0.183,0.927
2024-10-15 13:44:43.864,73835.317,0.204,0.197,-0.959,-0.057,0.137,-0.213,-0.293,1.563,-1.864,0.21,-0.198,0.761
2024-10-15 13:44:43.984,73835.436,0.252,0.228,-0.94,0.221,-0.042,0.044,-0.426,-0.013,1.084,0.262,-0.23,0.745
2024-10-15 13:44:44.104,73835.556,0.294,0.169,-0.941,-0.098,0.057,0.064,0.66,-0.176,0.957,0.303,-0.17,0.812
2024-10-15 13:44:44.224,73835.676,0.238,0.116,-0.964,0.021,0.047,0.096,0.436,-0.229,0.178,0.242,-0.116,0.86
2024-10-15 13:44:44.344,73835.796,0.213,0.027,-0.977,-0.333,0.185,0.002,0.2,-0.577,-0.561,0.215,-0.027,0.877
2024-10-15 13:44:44.463,73835.916,0.2,0.117,-0.973,-0.157,0.32,-0.052,0.013,0.854,0.231,0.203,-0.117,0.839
2024-10-15 13:44:44.583,73836.035,0.176,-0.009,-0.984,-0.04,-0.542,-0.138,0.518,-0.495,0.104,0.177,0.009,0.844
2024-10-15 13:44:44.703,73836.155,0.141,0.023,-0.99,0.333,0.555,0.222,-0.149,0.326,-0.02,0.142,-0.023,0.804
2024-10-15 13:44:44.823,73836.275,0.141,-0.061,-0.988,-0.217,-0.718,-0.162,0.004,-0.563,0.047,0.141,0.061,0.855
2024-10-15 13:44:44.943,73836.395,0.135,0.003,-0.991,0.274,0.445,0.286,-0.623,0.976,0.041,0.136,-0.003,0.808
2024-10-15 13:44:45.063,73836.515,0.134,-0.03,-0.991,-0.211,-0.817,-0.144,-1.59,-0.431,-0.089,0.134,0.03,0.855
2024-10-15 13:44:45.182,73836.634,0.141,0.031,-0.989,0.242,0.411,0.295,-0.794,1.16,-0.253,0.142,-0.031,0.797
2024-10-15 13:44:45.303,73836.754,0.151,0.022,-0.988,-0.082,-0.562,-0.149,-1.146,-0.478,-0.095,0.152,-0.022,0.864
2024-10-15 13:44:45.423,73836.874,0.193,0.154,-0.969,-0.237,-0.247,-0.165,-2.891,1.61,-1.237,0.197,-0.155,0.781
2024-10-15 13:44:45.541,73836.994,0.2,0.229,-0.953,0.047,0.113,0.381,-0.988,-0.849,0.529,0.207,-0.231,0.724
2024-10-15 13:44:45.661,73837.114,0.126,0.223,-0.967,-0.041,-0.234,-0.07,1.446,-1.137,1.057,0.129,-0.225,0.893
2024-10-15 13:44:45.781,73837.233,0.05,0.123,-0.991,-0.045,-0.304,-0.414,-0.436,0.906,-1.794,0.051,-0.123,0.814
2024-10-15 13:44:45.901,73837.353,0.106,0.158,-0.982,0.062,0.171,0.325,0.508,-0.547,1.292,0.107,-0.158,0.776
2024-10-15 13:44:46.021,73837.473,0.005,0.081,-0.997,-0.251,-0.499,0.05,0.273,-1.073,-0.924,0.005,-0.081,0.91
2024-10-15 13:44:46.141,73837.593,0.013,0.147,-0.989,0.053,0.414,0.094,-1.499,0.591,-0.108,0.013,-0.148,0.764
2024-10-15 13:44:46.261,73837.713,-0.022,0.056,-0.998,-0.061,-0.407,0.086,-0.023,-0.944,0.846,-0.023,-0.056,0.881
2024-10-15 13:44:46.380,73837.832,0.078,0.169,-0.983,0.014,0.269,-0.075,-0.485,1.262,-0.67,0.079,-0.17,0.747
2024-10-15 13:44:46.500,73837.952,0.166,0.191,-0.968,0.105,-0.07,0.012,-0.832,0.62,0.861,0.17,-0.192,0.738
2024-10-15 13:44:46.620,73838.072,0.245,0.273,-0.93,0.035,0.039,-0.02,-0.986,0.77,0.806,0.258,-0.277,0.845
2024-10-15 13:44:46.739,73838.192,0.263,0.313,-0.912,-0.181,0.056,0.025,-0.83,0.301,0.769,0.281,-0.318,0.965
2024-10-15 13:44:46.860,73838.312,0.256,0.263,-0.93,-0.119,0.112,-0.013,0.718,-0.434,0.419,0.269,-0.266,1.029
2024-10-15 13:44:46.979,73838.431,0.235,0.25,-0.939,-0.14,-0.002,-0.062,-0.152,-0.189,-0.127,0.245,-0.253,1.059
2024-10-15 13:44:47.100,73838.551,0.195,0.285,-0.938,-0.087,0.015,-0.13,0.098,-0.041,-0.443,0.205,-0.289,1.046
2024-10-15 13:44:47.219,73838.671,0.101,0.166,-0.981,-0.068,0.031,-0.026,0.678,-0.539,-0.117,0.103,-0.167,1.04
2024-10-15 13:44:47.339,73838.791,0.102,0.139,-0.985,-0.018,0.169,0.027,0.406,-0.304,0.487,0.103,-0.14,1.014
2024-10-15 13:44:47.459,73838.91,0.075,0.162,-0.984,-0.026,-0.124,-0.012,-0.226,0.288,-0.051,0.076,-0.163,1.026
2024-10-15 13:44:47.579,73839.03,0.048,0.105,-0.993,-0.051,0.134,0.078,0.967,-0.113,0.124,0.049,-0.105,1.023
2024-10-15 13:44:47.698,73839.15,-0.022,0.057,-0.998,0.401,-0.456,0.128,-0.69,-1.412,-0.935,-0.022,-0.057,1.024
2024-10-15 13:44:47.817,73839.27,-0.012,-0.029,-1.0,-0.278,0.082,-0.056,0.442,-0.299,-0.923,-0.012,0.029,1.067
2024-10-15 13:44:47.938,73839.39,-0.038,-0.005,-0.999,0.126,-0.199,-0.032,-0.901,-0.101,-0.684,-0.038,0.005,1.056
2024-10-15 13:44:48.057,73839.509,-0.034,-0.031,-0.999,-0.422,-0.161,0.119,0.269,-0.074,-1.484,-0.034,0.031,1.045
2024-10-15 13:44:48.177,73839.629,-0.043,-0.015,-0.999,-0.042,0.104,0.0,0.11,-0.24,0.74,-0.043,0.015,1.076
2024-10-15 13:44:48.297,73839.749,-0.035,-0.039,-0.999,-0.272,0.429,0.073,1.156,0.101,-0.551,-0.035,0.039,1.067
2024-10-15 13:44:48.417,73839.869,-0.036,-0.043,-0.998,-0.017,-0.373,-0.058,-0.06,-0.065,-0.126,-0.036,0.043,1.077
2024-10-15 13:44:48.537,73839.989,-0.037,-0.036,-0.999,-0.108,0.076,0.037,0.082,0.032,-0.06,-0.037,0.036,1.056
2024-10-15 13:44:48.656,73840.108,-0.027,-0.031,-0.999,0.032,-0.398,0.012,-0.038,-0.091,-0.152,-0.027,0.031,1.072
2024-10-15 13:44:48.775,73840.228,-0.02,-0.005,-1.0,0.219,0.264,0.056,-0.373,0.364,-0.409,-0.02,0.005,1.05
2024-10-15 13:44:48.896,73840.348,-0.021,-0.026,-0.999,-0.316,0.103,0.009,0.34,0.518,-0.168,-0.021,0.026,1.04
2024-10-15 13:44:49.016,73840.468,0.003,-0.011,-1.0,0.325,0.404,-0.16,-0.208,0.207,0.567,0.003,0.011,1.016
2024-10-15 13:44:49.136,73840.588,-0.024,-0.026,-0.999,-0.233,-0.366,0.001,0.307,-0.23,-0.122,-0.024,0.026,1.057
2024-10-15 13:44:49.256,73840.707,-0.019,-0.003,-1.0,0.389,0.433,0.059,-0.473,0.346,-0.116,-0.019,0.003,1.009
2024-10-15 13:44:49.375,73840.827,-0.026,-0.032,-0.999,-0.415,-0.331,0.029,0.043,-0.152,-0.118,-0.026,0.032,1.047
2024-10-15 13:44:49.494,73840.947,-0.029,-0.049,-0.998,0.322,0.552,0.104,-0.368,0.432,0.366,-0.029,0.049,1.013
2024-10-15 13:44:49.615,73841.067,-0.024,-0.025,-0.999,-0.399,-0.225,-0.038,0.137,-0.091,-0.372,-0.024,0.025,1.076
2024-10-15 13:44:49.734,73841.187,-0.025,-0.024,-0.999,0.235,0.246,0.042,0.237,0.036,-0.684,-0.025,0.024,1.024
2024-10-15 13:44:49.854,73841.306,-0.02,-0.027,-0.999,-0.001,-0.408,0.152,-0.79,0.003,0.548,-0.02,0.027,1.083
2024-10-15 13:44:49.974,73841.426,-0.026,-0.032,-0.999,0.036,-0.001,0.044,0.487,0.237,-1.083,-0.026,0.032,1.061
2024-10-15 13:44:50.094,73841.546,-0.029,-0.086,-0.996,-0.489,-0.134,-0.028,0.14,0.33,-0.793,-0.029,0.086,1.084
2024-10-15 13:44:50.214,73841.666,-0.049,-0.042,-0.998,0.412,-0.612,0.207,-1.098,-1.313,0.018,-0.049,0.042,1.08
2024-10-15 13:44:50.333,73841.786,-0.024,-0.034,-0.999,-0.424,1.108,-0.185,-0.226,1.362,1.485,-0.024,0.034,1.083
2024-10-15 13:44:50.453,73841.905,-0.04,-0.048,-0.998,0.422,-0.45,0.194,-0.567,-0.775,-0.054,-0.04,0.048,1.094
2024-10-15 13:44:50.573,73842.025,-0.022,-0.028,-0.999,-0.226,0.354,-0.031,-0.279,0.404,1.299,-0.022,0.028,1.085
2024-10-15 13:44:50.693,73842.145,-0.036,-0.032,-0.999,0.574,-0.448,-0.047,0.668,-0.313,0.096,-0.036,0.032,1.104
2024-10-15 13:44:50.813,73842.265,-0.023,-0.036,-0.999,-0.288,0.297,-0.026,-0.637,0.458,1.108,-0.023,0.036,1.108
2024-10-15 13:44:50.932,73842.385,-0.026,-0.016,-1.0,0.381,-0.216,0.019,1.653,-0.143,0.278,-0.026,0.016,1.09
2024-10-15 13:44:51.053,73842.504,-0.028,-0.05,-0.998,0.026,0.004,0.112,0.009,-0.213,-0.196,-0.028,0.05,1.09
2024-10-15 13:44:51.172,73842.624,-0.003,0.061,-0.998,-0.242,-0.128,-0.265,-1.721,1.279,-1.207,-0.003,-0.061,1.084
2024-10-15 13:44:51.292,73842.744,0.189,0.112,-0.976,-0.15,0.377,0.279,-0.252,1.386,-0.074,0.191,-0.113,0.986
2024-10-15 13:44:51.412,73842.864,0.176,0.125,-0.976,0.271,-0.015,0.105,-0.547,-0.959,0.979,0.179,-0.126,0.979
2024-10-15 13:44:51.532,73842.984,0.168,0.228,-0.959,0.166,0.25,0.039,0.051,0.619,1.84,0.173,-0.23,1.1
2024-10-15 13:44:51.651,73843.103,0.168,0.118,-0.979,-0.31,0.164,-0.241,0.868,0.164,-1.3,0.17,-0.118,1.053
2024-10-15 13:44:51.771,73843.223,0.196,0.076,-0.978,0.043,0.284,0.119,-1.176,1.326,0.865,0.198,-0.076,0.977
2024-10-15 13:44:51.891,73843.343,0.221,0.193,-0.956,-0.159,-0.058,-0.171,-0.422,-0.387,0.008,0.228,-0.194,1.12
2024-10-15 13:44:52.011,73843.463,0.184,0.043,-0.982,0.108,-0.203,0.135,0.741,-0.128,-0.767,0.186,-0.043,0.957
2024-10-15 13:44:52.131,73843.582,0.245,0.083,-0.966,0.02,0.065,0.298,-0.607,-0.651,1.103,0.248,-0.083,1.035
2024-10-15 13:44:52.250,73843.702,0.18,0.099,-0.979,-0.251,-0.115,-0.396,1.213,0.018,-2.4,0.182,-0.1,1.024
2024-10-15 13:44:52.370,73843.822,0.171,0.075,-0.982,0.139,0.287,0.11,-0.556,1.168,0.399,0.172,-0.075,0.918
2024-10-15 13:44:52.490,73843.942,0.218,0.114,-0.969,-0.039,-0.284,0.078,-1.312,-1.073,0.788,0.222,-0.115,1.029
2024-10-15 13:44:52.609,73844.062,0.182,0.078,-0.98,-0.1,-0.013,0.062,1.25,-0.329,-1.54,0.184,-0.078,0.921
2024-10-15 13:44:52.730,73844.181,0.224,0.062,-0.973,0.134,0.334,0.062,-0.461,1.116,1.059,0.227,-0.062,0.859
2024-10-15 13:44:52.850,73844.301,0.198,0.164,-0.966,-0.216,0.381,-0.354,2.246,-0.538,-0.333,0.203,-0.165,0.982
2024-10-15 13:44:52.969,73844.421,0.218,0.03,-0.976,-0.009,0.33,0.208,0.101,0.783,-0.038,0.22,-0.03,0.843
2024-10-15 13:44:53.088,73844.541,0.26,0.111,-0.959,0.015,-0.265,0.132,-2.339,-0.263,1.105,0.265,-0.112,0.969
2024-10-15 13:44:53.209,73844.661,0.221,0.066,-0.973,0.167,0.139,-0.224,2.225,-0.878,-1.218,0.223,-0.067,0.889
2024-10-15 13:44:53.329,73844.78,0.25,0.095,-0.964,0.191,0.321,0.2,-0.861,-0.18,0.94,0.254,-0.095,0.897
2024-10-15 13:44:53.448,73844.9,0.194,0.071,-0.978,-0.506,-0.057,-0.415,1.181,0.895,-1.351,0.196,-0.071,0.916
2024-10-15 13:44:53.568,73845.02,0.231,0.076,-0.97,0.072,0.318,-0.044,-0.861,0.875,0.555,0.233,-0.076,0.891
2024-10-15 13:44:53.688,73845.14,0.193,0.098,-0.976,-0.17,-0.388,-0.314,0.242,0.593,-0.302,0.195,-0.099,0.932
2024-10-15 13:44:53.808,73845.26,0.207,0.092,-0.974,-0.111,0.024,-0.081,-1.475,0.819,-0.274,0.209,-0.093,0.85
2024-10-15 13:44:53.927,73845.379,0.321,0.219,-0.921,0.101,0.016,0.11,-0.619,0.927,0.281,0.335,-0.221,0.858
2024-10-15 13:44:54.047,73845.499,0.295,0.238,-0.925,-0.035,0.019,0.09,-1.0,-0.711,1.132,0.309,-0.241,0.952
2024-10-15 13:44:54.167,73845.619,0.302,0.225,-0.926,-0.11,-0.123,-0.062,1.02,0.338,-0.464,0.315,-0.227,0.981
2024-10-15 13:44:54.287,73845.739,0.334,0.103,-0.937,0.021,-0.026,-0.003,1.119,0.485,-1.15,0.342,-0.103,0.839
2024-10-15 13:44:54.406,73845.859,0.31,0.082,-0.947,0.134,0.018,0.145,-1.088,-0.321,0.025,0.316,-0.082,0.757
2024-10-15 13:44:54.526,73845.978,0.28,0.063,-0.958,-0.064,0.002,0.029,-0.792,-0.291,0.252,0.284,-0.063,0.766
2024-10-15 13:44:54.646,73846.098,0.216,0.099,-0.971,-0.318,0.369,-0.259,0.433,0.222,0.274,0.218,-0.099,0.809
2024-10-15 13:44:54.767,73846.218,0.287,0.045,-0.957,0.163,0.019,0.331,0.591,0.768,-0.137,0.291,-0.045,0.793
2024-10-15 13:44:54.886,73846.338,0.255,0.026,-0.967,-0.113,0.062,0.13,-1.259,-0.557,0.767,0.258,-0.026,0.784
2024-10-15 13:44:55.005,73846.458,0.265,0.002,-0.964,-0.05,-0.206,-0.135,0.338,0.768,-0.441,0.268,-0.002,0.794
2024-10-15 13:44:55.125,73846.577,0.29,0.001,-0.957,0.066,-0.126,0.151,0.604,-0.817,0.444,0.294,-0.001,0.837
2024-10-15 13:44:55.245,73846.697,0.237,-0.033,-0.971,-0.126,-0.15,-0.381,1.303,0.612,-0.67,0.239,0.033,0.859
2024-10-15 13:44:55.365,73846.817,0.302,-0.01,-0.953,0.16,0.209,0.172,0.158,0.264,0.123,0.307,0.01,0.838
2024-10-15 13:44:55.485,73846.937,0.225,0.015,-0.974,-0.198,0.202,-0.159,0.141,-0.502,-0.003,0.227,-0.015,0.873
2024-10-15 13:44:55.604,73847.057,0.275,-0.03,-0.961,-0.341,0.042,-0.057,-0.752,1.107,-0.424,0.279,0.03,0.801
2024-10-15 13:44:55.725,73847.176,0.301,0.082,-0.95,-0.008,-0.06,0.18,-1.595,-0.138,0.047,0.307,-0.082,0.82
2024-10-15 13:44:55.844,73847.296,0.261,0.158,-0.952,0.043,0.063,0.014,0.655,0.151,-0.2,0.267,-0.159,0.832
2024-10-15 13:44:55.964,73847.416,0.213,0.104,-0.971,0.093,-0.063,0.125,-0.203,-0.571,0.071,0.216,-0.104,0.783
2024-10-15 13:44:56.085,73847.536,0.151,0.06,-0.987,-0.066,-0.232,-0.124,1.372,0.326,-1.279,0.152,-0.06,0.738
2024-10-15 13:44:56.203,73847.655,0.15,-0.044,-0.988,-0.196,0.124,-0.21,-1.322,0.301,-0.322,0.151,0.044,0.607
2024-10-15 13:44:56.323,73847.775,0.206,0.015,-0.979,0.145,-0.177,0.255,0.47,-0.327,-0.217,0.207,-0.015,0.61
2024-10-15 13:44:56.443,73847.895,0.186,-0.004,-0.983,0.213,0.003,-0.228,-0.308,0.68,0.78,0.187,0.004,0.603
2024-10-15 13:44:56.563,73848.015,0.194,-0.088,-0.977,0.045,-0.124,0.05,0.362,-0.09,0.433,0.196,0.088,0.634
2024-10-15 13:44:56.683,73848.135,0.218,-0.107,-0.97,-0.57,0.017,-0.275,-0.598,0.908,-0.031,0.221,0.107,0.636
2024-10-15 13:44:56.802,73848.254,0.257,-0.101,-0.961,-0.002,0.029,0.212,0.027,-0.236,-0.391,0.261,0.102,0.592
2024-10-15 13:44:56.922,73848.374,0.213,-0.079,-0.974,0.321,0.006,0.236,0.043,-0.309,0.054,0.216,0.079,0.578
2024-10-15 13:44:57.042,73848.494,0.22,-0.069,-0.973,0.185,0.055,-0.047,-0.2,0.115,0.41,0.223,0.069,0.608
2024-10-15 13:44:57.162,73848.614,0.238,-0.104,-0.966,-0.474,0.052,-0.299,0.376,0.259,-0.211,0.242,0.105,0.613
2024-10-15 13:44:57.282,73848.734,0.256,-0.053,-0.965,0.117,-0.014,0.255,-0.464,-0.384,0.016,0.259,0.053,0.633
2024-10-15 13:44:57.402,73848.853,0.231,-0.022,-0.973,0.329,-0.035,0.123,-0.38,0.095,0.44,0.233,0.022,0.645
2024-10-15 13:44:57.521,73848.973,0.221,-0.101,-0.97,-0.436,0.147,-0.454,0.851,0.077,-0.254,0.224,0.101,0.621
2024-10-15 13:44:57.641,73849.093,0.288,-0.076,-0.955,-0.013,0.063,0.195,0.415,0.187,-0.264,0.293,0.076,0.603
2024-10-15 13:44:57.761,73849.213,0.239,-0.041,-0.97,0.326,0.013,0.275,-0.907,-0.327,0.675,0.241,0.041,0.611
2024-10-15 13:44:57.881,73849.333,0.231,-0.071,-0.97,-0.342,0.012,-0.37,0.252,0.255,0.14,0.233,0.071,0.628
2024-10-15 13:44:58.000,73849.452,0.28,-0.071,-0.957,-0.139,0.077,0.155,-0.72,0.154,0.563,0.285,0.071,0.65
2024-10-15 13:44:58.120,73849.572,0.221,-0.017,-0.975,0.346,0.04,0.217,0.687,-0.117,-0.174,0.223,0.017,0.7
2024-10-15 13:44:58.240,73849.692,0.225,-0.093,-0.97,-0.312,0.059,-0.335,0.542,0.274,0.051,0.228,0.093,0.661
2024-10-15 13:44:58.360,73849.812,0.271,-0.048,-0.961,-0.076,0.095,0.07,-0.877,0.001,0.241,0.274,0.048,0.681
2024-10-15 13:44:58.480,73849.932,0.224,-0.009,-0.975,0.231,0.143,0.118,2.094,-0.222,-0.596,0.226,0.009,0.721
2024-10-15 13:44:58.599,73850.051,0.211,-0.133,-0.968,-0.364,0.188,-0.303,0.38,0.17,-0.096,0.215,0.133,0.654
2024-10-15 13:44:58.719,73850.171,0.234,-0.014,-0.972,0.176,-0.029,0.255,-0.21,-0.6,0.425,0.237,0.014,0.736
2024-10-15 13:44:58.839,73850.291,0.217,-0.13,-0.967,-0.098,0.121,-0.133,1.523,-0.355,-0.784,0.221,0.131,0.659
2024-10-15 13:44:58.959,73850.411,0.24,0.014,-0.971,0.095,-0.068,0.186,-0.82,-0.443,0.576,0.242,-0.014,0.732
2024-10-15 13:44:59.079,73850.531,0.259,-0.06,-0.964,0.264,0.319,-0.137,1.014,0.507,-0.153,0.262,0.06,0.692
2024-10-15 13:44:59.198,73850.65,0.315,0.148,-0.937,0.117,0.097,0.183,-2.921,-0.331,0.98,0.324,-0.149,0.776
2024-10-15 13:44:59.318,73850.77,0.282,0.234,-0.93,-0.101,0.009,0.09,0.186,-0.576,0.667,0.295,-0.236,0.914
2024-10-15 13:44:59.438,73850.89,0.217,0.217,-0.952,-0.146,-0.116,-0.003,-0.569,-1.285,0.544,0.225,-0.218,0.995
2024-10-15 13:44:59.558,73851.01,0.131,0.197,-0.972,-0.03,-0.149,-0.045,-0.069,-0.777,0.144,0.134,-0.198,1.009
2024-10-15 13:44:59.678,73851.13,0.099,0.148,-0.984,-0.173,0.089,0.016,0.026,-0.056,0.062,0.101,-0.148,1.026
2024-10-15 13:44:59.797,73851.249,0.038,0.083,-0.996,-0.09,-0.052,-0.221,0.756,0.043,-0.125,0.038,-0.083,1.014
2024-10-15 13:44:59.917,73851.369,0.003,-0.015,-1.0,0.25,-0.43,0.238,0.728,-1.199,0.748,0.003,0.015,1.066
2024-10-15 13:45:00.037,73851.489,0.021,-0.005,-1.0,0.058,0.604,0.031,-0.234,-0.106,1.76,0.021,0.005,1.028
2024-10-15 13:45:00.157,73851.609,-0.043,-0.058,-0.997,0.21,-0.632,0.018,-0.112,0.096,-0.937,-0.043,0.058,1.094
2024-10-15 13:45:00.277,73851.728,0.01,-0.007,-1.0,-0.021,0.765,-0.174,-1.266,0.651,1.214,0.01,0.007,1.057
2024-10-15 13:45:00.398,73851.848,-0.032,-0.002,-0.999,0.23,-0.327,0.136,0.211,-0.029,-1.062,-0.032,0.002,1.079
2024-10-15 13:45:00.516,73851.968,0.025,0.005,-1.0,-0.255,0.823,-0.28,-0.302,0.799,1.292,0.025,-0.005,1.087
2024-10-15 13:45:00.636,73852.088,-0.033,0.018,-0.999,0.322,-0.133,0.217,0.272,-0.091,-0.872,-0.033,-0.018,1.09
2024-10-15 13:45:00.756,73852.208,0.035,0.001,-0.999,-0.546,0.409,-0.252,0.788,0.259,-1.055,0.035,-0.001,1.092
2024-10-15 13:45:00.875,73852.327,-0.024,0.003,-1.0,0.463,-0.356,0.2,0.452,-0.698,-0.254,-0.024,-0.003,1.085
2024-10-15 13:45:00.995,73852.447,0.032,0.012,-0.999,-0.413,0.669,-0.253,0.561,0.211,-0.307,0.032,-0.012,1.087
2024-10-15 13:45:01.115,73852.567,-0.023,-0.001,-1.0,0.336,-0.407,0.102,1.189,-0.21,-0.236,-0.023,0.001,1.102
2024-10-15 13:45:01.235,73852.687,0.035,-0.008,-0.999,-0.081,-0.266,0.079,-0.115,-1.309,-0.394,0.035,0.008,1.045
2024-10-15 13:45:01.355,73852.807,-0.027,0.004,-1.0,0.109,-0.151,-0.143,-0.143,-0.384,1.234,-0.027,-0.004,1.1
2024-10-15 13:45:01.475,73852.926,0.044,-0.002,-0.999,-0.152,0.373,0.057,0.924,0.012,0.171,0.044,0.002,1.102
2024-10-15 13:45:01.594,73853.046,0.0,0.003,-1.0,0.148,-0.169,-0.095,-0.629,-0.616,0.907,0.0,-0.003,1.089
2024-10-15 13:45:01.714,73853.166,0.014,-0.007,-1.0,-0.085,0.292,0.079,0.094,0.289,-0.15,0.014,0.007,1.046
2024-10-15 13:45:01.834,73853.286,-0.001,-0.035,-0.999,0.018,-0.191,0.067,1.266,-0.923,0.747,-0.001,0.035,1.085
2024-10-15 13:45:01.953,73853.406,-0.0,-0.028,-1.0,0.051,-0.053,0.141,-0.774,-0.96,-0.44,-0.0,0.028,1.035
2024-10-15 13:45:02.073,73853.525,-0.002,-0.024,-1.0,-0.05,-0.123,0.079,-0.372,0.641,0.316,-0.002,0.024,1.083
2024-10-15 13:45:02.194,73853.645,-0.023,-0.018,-1.0,0.182,0.107,0.111,-0.04,-0.595,-0.832,-0.023,0.018,1.014
2024-10-15 13:45:02.313,73853.765,0.01,-0.021,-1.0,-0.072,-0.109,0.01,-0.251,0.378,0.551,0.01,0.021,1.064
2024-10-15 13:45:02.433,73853.885,-0.011,-0.006,-1.0,0.034,0.026,0.059,-0.273,-0.32,-0.711,-0.011,0.006,1.025
2024-10-15 13:45:02.553,73854.005,-0.002,0.002,-1.0,0.073,0.013,0.024,-0.372,0.982,1.35,-0.002,-0.002,1.036
2024-10-15 13:45:02.672,73854.124,-0.015,-0.006,-1.0,-0.428,-0.095,0.066,-0.586,0.244,-0.643,-0.015,0.006,1.029
2024-10-15 13:45:02.793,73854.244,-0.022,0.004,-1.0,0.183,0.033,-0.093,0.051,1.231,1.719,-0.022,-0.004,1.007
2024-10-15 13:45:02.912,73854.364,-0.009,-0.006,-1.0,-0.27,-0.264,0.077,-0.114,-0.308,0.243,-0.009,0.006,1.027
2024-10-15 13:45:03.032,73854.484,-0.027,0.01,-1.0,0.382,0.173,-0.153,0.31,0.557,1.579,-0.027,-0.01,0.98
2024-10-15 13:45:03.152,73854.604,0.015,0.015,-1.0,-0.329,-0.365,0.065,0.127,-0.488,-0.161,0.015,-0.015,1.043
2024-10-15 13:45:03.272,73854.723,-0.036,0.015,-0.999,0.401,0.331,0.07,-0.361,0.369,0.068,-0.036,-0.015,0.978
2024-10-15 13:45:03.391,73854.843,0.016,0.015,-1.0,-0.315,-0.316,0.029,-0.135,-0.078,0.15,0.016,-0.015,1.052
2024-10-15 13:45:03.511,73854.963,-0.027,0.014,-1.0,0.335,0.187,0.21,-0.046,-0.992,-0.677,-0.027,-0.014,0.976
2024-10-15 13:45:03.631,73855.083,-0.0,-0.011,-1.0,-0.128,-0.205,-0.056,0.268,0.215,-0.237,-0.0,0.011,1.03
2024-10-15 13:45:03.751,73855.203,0.043,-0.037,-0.998,-0.495,0.469,-0.232,1.256,-0.452,0.269,0.043,0.037,1.071
2024-10-15 13:45:03.870,73855.322,-0.049,-0.028,-0.998,0.522,-0.592,0.107,1.19,-0.587,-0.675,-0.049,0.028,1.08
2024-10-15 13:45:03.990,73855.442,0.025,-0.016,-1.0,-0.5,0.259,-0.414,-0.005,-0.033,-0.589,0.025,0.016,1.085
2024-10-15 13:45:04.110,73855.562,0.082,0.206,-0.975,-0.443,0.044,-0.349,-1.204,2.597,-2.014,0.084,-0.207,1.023
2024-10-15 13:45:04.230,73855.682,0.244,0.288,-0.926,-0.058,0.185,0.445,-0.152,0.922,-0.491,0.258,-0.292,0.921
2024-10-15 13:45:04.349,73855.802,0.18,0.24,-0.954,0.362,-0.062,0.095,0.723,-1.235,1.293,0.186,-0.242,0.973
2024-10-15 13:45:04.469,73855.921,0.219,0.16,-0.963,-0.072,-0.267,-0.2,0.676,-0.361,0.621,0.224,-0.161,1.103
2024-10-15 13:45:04.589,73856.041,0.228,0.067,-0.971,-0.196,-0.044,-0.044,0.884,0.126,-1.37,0.23,-0.067,0.969
2024-10-15 13:45:04.709,73856.161,0.261,0.1,-0.96,0.177,0.369,0.248,0.108,1.06,0.488,0.265,-0.1,0.886
2024-10-15 13:45:04.829,73856.281,0.3,0.116,-0.947,-0.164,-0.16,0.001,-1.217,-0.884,0.904,0.306,-0.116,1.052
2024-10-15 13:45:04.948,73856.4,0.256,0.062,-0.965,-0.151,-0.003,-0.1,1.102,-0.186,-1.493,0.26,-0.062,0.939
2024-10-15 13:45:05.068,73856.52,0.289,0.086,-0.953,0.236,0.714,0.178,-0.274,1.11,0.827,0.294,-0.086,0.838
2024-10-15 13:45:05.188,73856.64,0.283,0.179,-0.942,-0.337,-0.009,-0.208,1.105,-1.014,-0.085,0.292,-0.18,1.003
2024-10-15 13:45:05.307,73856.76,0.279,0.08,-0.957,0.137,0.109,0.024,1.202,-0.149,-1.831,0.283,-0.08,0.819
2024-10-15 13:45:05.428,73856.88,0.353,0.085,-0.932,0.228,0.147,0.212,-0.353,0.05,1.173,0.363,-0.085,0.841
2024-10-15 13:45:05.547,73856.999,0.285,0.128,-0.95,-0.524,-0.262,-0.411,1.003,0.931,-0.394,0.292,-0.128,0.95
2024-10-15 13:45:05.668,73857.119,0.298,0.075,-0.952,0.116,0.146,0.133,-0.478,0.914,-0.341,0.304,-0.075,0.781
2024-10-15 13:45:05.787,73857.239,0.341,0.104,-0.934,0.021,-0.119,0.179,-1.091,-1.066,1.395,0.35,-0.104,0.878
2024-10-15 13:45:05.907,73857.359,0.295,0.081,-0.952,0.024,-0.214,-0.204,0.845,0.021,-1.455,0.301,-0.081,0.841
2024-10-15 13:45:06.026,73857.479,0.34,0.109,-0.934,0.178,0.382,0.104,-0.663,0.446,0.647,0.349,-0.11,0.792
2024-10-15 13:45:06.146,73857.598,0.306,0.137,-0.942,-0.201,-0.124,-0.363,0.854,-0.71,-0.121,0.314,-0.137,0.894
2024-10-15 13:45:06.266,73857.718,0.325,0.091,-0.941,-0.183,-0.068,0.058,-1.306,1.037,-0.301,0.332,-0.091,0.795
2024-10-15 13:45:06.386,73857.838,0.391,0.232,-0.891,0.029,-0.03,0.117,-0.856,0.342,-0.189,0.414,-0.235,0.82
2024-10-15 13:45:06.506,73857.958,0.429,0.239,-0.871,-0.026,0.057,0.068,0.417,0.365,-0.217,0.457,-0.241,0.792
2024-10-15 13:45:06.626,73858.078,0.44,0.254,-0.862,-0.002,0.016,0.031,0.007,0.055,-0.168,0.472,-0.256,0.767
2024-10-15 13:45:06.745,73858.197,0.43,0.276,-0.86,0.015,0.028,-0.034,-0.342,-0.131,-0.187,0.464,-0.279,0.76
2024-10-15 13:45:06.865,73858.317,0.428,0.279,-0.859,0.024,0.073,-0.026,0.233,0.086,0.153,0.462,-0.283,0.765
2024-10-15 13:45:06.985,73858.437,0.429,0.284,-0.858,0.044,0.087,-0.121,0.086,0.112,-0.057,0.464,-0.288,0.774
2024-10-15 13:45:07.105,73858.557,0.419,0.306,-0.855,0.003,-0.019,0.02,-0.959,-0.016,-0.023,0.456,-0.311,0.778
2024-10-15 13:45:07.224,73858.677,0.389,0.362,-0.847,0.1,-0.074,0.001,-0.833,-0.439,0.446,0.43,-0.37,0.823
2024-10-15 13:45:07.344,73858.796,0.372,0.388,-0.844,0.018,0.023,0.049,-0.117,-0.482,0.437,0.415,-0.398,0.899
2024-10-15 13:45:07.464,73858.916,0.359,0.351,-0.865,-0.003,-0.007,0.117,0.768,-0.569,0.453,0.394,-0.359,0.949
2024-10-15 13:45:07.584,73859.036,0.327,0.203,-0.923,-0.005,0.09,-0.056,1.556,-0.253,0.203,0.34,-0.204,0.927
2024-10-15 13:45:07.704,73859.156,0.291,0.005,-0.957,-0.074,-0.09,-0.037,0.635,-0.64,0.061,0.295,-0.005,0.873
2024-10-15 13:45:07.824,73859.276,0.278,0.11,-0.954,0.113,-0.169,0.098,-1.324,-0.609,-0.545,0.284,-0.111,0.865
2024-10-15 13:45:07.943,73859.395,0.211,0.154,-0.965,0.07,0.347,0.085,1.828,-1.812,0.459,0.215,-0.155,0.947
2024-10-15 13:45:08.063,73859.515,0.135,0.026,-0.99,-0.065,-0.424,-0.238,0.09,0.669,-0.343,0.136,-0.026,0.941
2024-10-15 13:45:08.183,73859.635,0.213,0.039,-0.976,-0.089,0.191,-0.106,-0.018,1.204,-1.156,0.215,-0.039,0.808
2024-10-15 13:45:08.303,73859.755,0.272,0.004,-0.962,0.335,0.234,0.196,0.497,-0.219,0.961,0.275,-0.004,0.765
2024-10-15 13:45:08.423,73859.875,0.222,0.045,-0.974,-0.345,-0.131,-0.269,0.282,-0.296,-0.437,0.224,-0.045,0.893
2024-10-15 13:45:08.542,73859.994,0.255,0.015,-0.967,-0.093,-0.23,0.096,-0.192,0.12,-1.245,0.257,-0.015,0.759
2024-10-15 13:45:08.662,73860.114,0.279,0.228,-0.933,0.086,0.017,0.014,-2.581,0.321,-0.684,0.29,-0.23,0.673
2024-10-15 13:45:08.782,73860.234,0.306,0.49,-0.816,0.005,0.096,0.105,-1.457,0.01,-0.039,0.358,-0.512,0.755
2024-10-15 13:45:08.902,73860.354,0.307,0.548,-0.778,-0.036,-0.012,0.058,-0.174,-0.068,0.039,0.376,-0.58,0.788
2024-10-15 13:45:09.021,73860.473,0.304,0.561,-0.77,0.024,-0.138,0.067,-0.28,-0.134,0.053,0.376,-0.596,0.796
2024-10-15 13:45:09.141,73860.593,0.307,0.61,-0.73,0.048,-0.049,0.082,-1.591,0.285,-0.11,0.397,-0.656,0.815
2024-10-15 13:45:09.261,73860.713,0.298,0.657,-0.692,0.003,0.011,-0.053,0.027,-0.253,0.107,0.407,-0.717,0.844
2024-10-15 13:45:09.381,73860.833,0.315,0.659,-0.684,-0.045,-0.026,-0.003,0.3,0.263,-0.408,0.431,-0.719,0.819
2024-10-15 13:45:09.500,73860.953,0.285,0.637,-0.717,0.069,0.095,0.05,1.178,-0.147,-0.096,0.378,-0.69,0.752
2024-10-15 13:45:09.621,73861.072,0.271,0.447,-0.853,0.046,0.081,0.071,2.724,-0.239,0.356,0.307,-0.463,0.653
2024-10-15 13:45:09.741,73861.192,0.269,0.415,-0.869,-0.084,-0.079,0.019,-0.349,0.127,-0.107,0.301,-0.428,0.678
2024-10-15 13:45:09.860,73861.312,0.282,0.42,-0.862,-0.059,-0.029,-0.055,0.12,0.087,-0.235,0.317,-0.433,0.67
2024-10-15 13:45:09.979,73861.432,0.281,0.525,-0.803,0.002,-0.072,0.062,-1.662,0.014,0.137,0.336,-0.553,0.697
2024-10-15 13:45:10.100,73861.552,0.286,0.485,-0.826,0.032,-0.241,0.034,0.29,0.059,0.067,0.333,-0.507,0.662
2024-10-15 13:45:10.219,73861.671,0.266,0.435,-0.86,-0.026,0.012,0.061,-0.349,-0.086,0.144,0.3,-0.45,0.633
2024-10-15 13:45:10.339,73861.791,0.261,0.431,-0.864,-0.081,0.094,-0.078,0.065,0.443,0.018,0.293,-0.445,0.66
2024-10-15 13:45:10.459,73861.911,0.283,0.441,-0.852,0.033,0.012,-0.028,-0.13,0.113,0.236,0.32,-0.457,0.658
2024-10-15 13:45:10.579,73862.031,0.289,0.443,-0.849,0.085,0.062,0.179,-0.761,-0.607,0.697,0.328,-0.459,0.722
2024-10-15 13:45:10.698,73862.151,0.286,0.467,-0.837,-0.011,-0.02,0.0,-1.021,0.033,0.361,0.329,-0.486,0.796
2024-10-15 13:45:10.819,73862.27,0.292,0.48,-0.827,-0.036,-0.027,0.028,0.763,-0.843,0.419,0.339,-0.5,0.874
2024-10-15 13:45:10.938,73862.39,0.268,0.419,-0.868,0.022,-0.013,-0.014,1.001,-0.441,0.507,0.299,-0.432,0.914
2024-10-15 13:45:11.058,73862.51,0.251,0.311,-0.917,-0.048,-0.079,0.017,0.326,-0.322,0.09,0.267,-0.317,0.915
2024-10-15 13:45:11.178,73862.63,0.225,0.307,-0.925,0.022,-0.027,-0.017,0.498,-0.463,0.087,0.239,-0.312,0.944
2024-10-15 13:45:11.297,73862.75,0.201,0.275,-0.94,0.01,-0.005,0.092,0.307,-0.477,0.291,0.211,-0.278,0.965
2024-10-15 13:45:11.417,73862.869,0.177,0.155,-0.972,-0.355,-0.157,-0.671,0.512,0.22,0.684,0.18,-0.156,0.967
2024-10-15 13:45:11.537,73862.989,0.132,0.168,-0.977,0.283,-0.228,0.326,0.806,0.282,0.433,0.134,-0.169,0.995
2024-10-15 13:45:11.657,73863.109,0.15,0.11,-0.983,-0.236,0.278,-0.27,1.108,-0.188,0.693,0.151,-0.11,1.0
2024-10-15 13:45:11.777,73863.229,0.108,0.144,-0.984,0.467,-0.175,-0.378,-0.137,-0.103,0.8,0.11,-0.145,0.966
2024-10-15 13:45:11.896,73863.349,0.237,0.329,-0.914,-0.064,0.051,-0.234,-1.034,1.656,-2.067,0.254,-0.335,0.965
2024-10-15 13:45:12.016,73863.468,0.263,0.335,-0.905,0.038,-0.057,0.245,-0.081,-1.06,-0.207,0.283,-0.342,0.901
2024-10-15 13:45:12.136,73863.588,0.212,0.268,-0.94,0.069,0.112,0.039,1.8,-0.569,0.026,0.222,-0.271,0.892
2024-10-15 13:45:12.256,73863.708,0.189,0.244,-0.951,0.018,-0.028,-0.022,-0.022,-0.31,0.017,0.196,-0.247,0.896
2024-10-15 13:45:12.376,73863.828,0.177,0.288,-0.941,0.114,-0.037,-0.073,0.087,0.391,-0.276,0.186,-0.292,0.887
2024-10-15 13:45:12.496,73863.948,0.207,0.227,-0.952,-0.086,-0.085,0.044,0.61,-0.145,-0.058,0.214,-0.229,0.926
2024-10-15 13:45:12.615,73864.067,0.126,0.134,-0.983,-0.155,-0.076,0.016,0.649,-0.719,-0.153,0.128,-0.134,0.972
2024-10-15 13:45:12.735,73864.187,0.16,0.027,-0.987,0.288,0.168,0.106,1.568,0.065,-0.537,0.16,-0.027,0.878
2024-10-15 13:45:12.855,73864.307,0.189,0.097,-0.977,0.198,-0.019,0.245,-0.585,-0.709,0.966,0.191,-0.097,0.94
2024-10-15 13:45:12.975,73864.427,0.178,0.091,-0.98,-0.111,0.059,-0.476,1.016,1.313,-2.111,0.179,-0.092,0.909
2024-10-15 13:45:13.094,73864.546,0.271,0.113,-0.956,0.315,0.636,0.248,-0.915,0.379,0.597,0.276,-0.113,0.773
2024-10-15 13:45:13.214,73864.666,0.25,0.203,-0.947,-0.507,-0.162,-0.028,-0.067,-0.544,-0.412,0.258,-0.204,0.952
2024-10-15 13:45:13.334,73864.786,0.281,0.11,-0.953,0.06,0.22,0.116,0.364,0.999,-1.883,0.287,-0.111,0.721
2024-10-15 13:45:13.454,73864.906,0.327,0.115,-0.938,0.266,0.186,0.323,-0.664,-0.432,1.574,0.335,-0.115,0.718
2024-10-15 13:45:13.574,73865.026,0.278,0.16,-0.947,-0.388,-0.287,-0.514,2.015,0.379,-1.386,0.285,-0.16,0.828
2024-10-15 13:45:13.694,73865.145,0.325,0.172,-0.93,0.055,0.118,0.065,-0.763,0.436,-0.821,0.336,-0.173,0.66
2024-10-15 13:45:13.813,73865.265,0.357,0.262,-0.897,0.098,-0.051,0.113,-0.07,-0.233,0.699,0.379,-0.265,0.695
2024-10-15 13:45:13.933,73865.385,0.346,0.286,-0.894,-0.072,0.095,0.101,-0.736,-0.608,0.943,0.369,-0.29,0.815
2024-10-15 13:45:14.053,73865.505,0.308,0.256,-0.916,-0.123,-0.04,-0.07,0.428,-0.065,-0.07,0.324,-0.259,0.876
2024-10-15 13:45:14.173,73865.625,0.269,0.2,-0.942,0.06,0.038,0.071,1.006,-0.357,0.35,0.278,-0.201,0.88
2024-10-15 13:45:14.292,73865.744,0.217,0.057,-0.974,-0.329,0.122,-0.138,0.943,-0.768,0.131,0.219,-0.057,0.901
2024-10-15 13:45:14.412,73865.864,0.194,0.125,-0.973,0.074,0.116,0.013,0.49,0.172,0.271,0.197,-0.126,0.876
2024-10-15 13:45:14.532,73865.984,0.18,0.04,-0.983,-0.547,0.146,0.008,0.26,0.585,-0.218,0.181,-0.04,0.857
2024-10-15 13:45:14.651,73866.104,0.18,0.064,-0.982,0.44,-0.045,0.103,-0.409,0.013,0.339,0.182,-0.064,0.847
2024-10-15 13:45:14.771,73866.224,0.16,0.02,-0.987,-0.865,0.433,-0.125,0.312,-0.464,-0.318,0.161,-0.02,0.843
2024-10-15 13:45:14.891,73866.343,0.176,0.07,-0.982,0.532,-0.037,0.349,0.271,-0.056,-0.059,0.177,-0.07,0.817
2024-10-15 13:45:15.011,73866.463,0.189,0.055,-0.981,-0.393,0.136,-0.277,0.852,-0.448,0.148,0.19,-0.055,0.815
2024-10-15 13:45:15.131,73866.583,0.169,0.088,-0.982,0.472,-0.061,0.022,-0.533,0.224,-0.194,0.17,-0.088,0.8
2024-10-15 13:45:15.251,73866.703,0.192,0.041,-0.981,-0.1,0.034,0.1,0.705,0.441,0.234,0.193,-0.041,0.826
2024-10-15 13:45:15.371,73866.823,0.168,-0.017,-0.986,0.381,-0.32,-0.158,-0.528,-0.155,-0.004,0.169,0.017,0.825
2024-10-15 13:45:15.490,73866.942,0.177,0.022,-0.984,-0.21,0.104,-0.006,-0.464,0.168,-0.104,0.178,-0.022,0.832
2024-10-15 13:45:15.610,73867.062,0.172,0.027,-0.985,-0.06,-0.227,0.031,-0.425,-0.055,-0.148,0.173,-0.027,0.831
2024-10-15 13:45:15.730,73867.182,0.175,0.06,-0.983,0.069,0.026,-0.137,-0.109,0.484,0.219,0.176,-0.06,0.84
2024-10-15 13:45:15.850,73867.302,0.159,0.006,-0.987,-0.802,0.309,-0.025,0.229,0.274,0.355,0.16,-0.006,0.841
2024-10-15 13:45:15.969,73867.422,0.16,-0.016,-0.987,0.619,-0.331,0.229,-0.109,-0.172,0.136,0.161,0.016,0.847
2024-10-15 13:45:16.089,73867.541,0.155,-0.027,-0.988,-0.838,0.376,-0.186,-0.003,-0.04,-0.046,0.156,0.027,0.837
2024-10-15 13:45:16.209,73867.661,0.164,0.016,-0.986,0.523,-0.333,0.242,-0.031,0.115,-0.235,0.165,-0.016,0.842
2024-10-15 13:45:16.329,73867.781,0.166,0.024,-0.986,-0.401,0.133,-0.057,0.087,-0.441,-0.251,0.167,-0.024,0.851
2024-10-15 13:45:16.449,73867.901,0.165,0.049,-0.985,0.364,-0.313,0.064,-0.517,0.251,-0.082,0.166,-0.049,0.853
2024-10-15 13:45:16.568,73868.021,0.173,0.032,-0.984,-0.208,0.198,0.101,0.54,-0.227,-0.022,0.174,-0.032,0.862
2024-10-15 13:45:16.688,73868.14,0.166,0.032,-0.986,0.417,-0.341,-0.006,-0.693,0.117,0.079,0.167,-0.032,0.854
2024-10-15 13:45:16.808,73868.26,0.18,0.049,-0.982,-0.266,0.298,0.184,0.035,0.174,-0.068,0.181,-0.049,0.852
2024-10-15 13:45:16.928,73868.38,0.171,0.029,-0.985,0.345,-0.49,0.14,-0.897,-0.116,-0.182,0.172,-0.029,0.85
2024-10-15 13:45:17.048,73868.5,0.17,0.048,-0.984,-0.299,0.044,0.18,0.118,-0.087,-0.354,0.171,-0.048,0.85
2024-10-15 13:45:17.168,73868.62,0.167,0.047,-0.985,0.315,-0.857,0.071,-1.156,-0.275,-0.39,0.168,-0.047,0.846
2024-10-15 13:45:17.287,73868.739,0.157,0.052,-0.986,-0.115,-0.161,0.287,-0.649,0.105,-0.554,0.158,-0.053,0.794
2024-10-15 13:45:17.407,73868.859,0.175,0.031,-0.984,-0.282,-0.162,0.321,0.961,0.686,-0.273,0.176,-0.031,0.848
2024-10-15 13:45:17.527,73868.979,0.165,0.058,-0.985,0.161,0.11,-0.119,0.445,-0.808,-0.36,0.166,-0.058,0.792
2024-10-15 13:45:17.646,73869.099,0.18,0.046,-0.983,0.051,-0.191,0.248,-0.296,-0.233,0.332,0.181,-0.046,0.796
2024-10-15 13:45:17.768,73869.218,0.176,0.069,-0.982,0.057,-0.069,0.015,-0.135,-0.092,-0.622,0.177,-0.069,0.783
2024-10-15 13:45:17.886,73869.338,0.182,0.023,-0.983,-0.039,-0.313,0.3,0.558,-0.681,0.608,0.183,-0.023,0.811
2024-10-15 13:45:18.006,73869.458,0.18,0.083,-0.98,-0.101,0.499,0.07,-0.418,0.166,-0.317,0.182,-0.083,0.793
2024-10-15 13:45:18.126,73869.578,0.251,0.226,-0.941,-0.216,1.147,0.044,-1.288,1.494,0.481,0.261,-0.228,0.733
2024-10-15 13:45:18.246,73869.698,0.261,0.29,-0.921,-0.039,0.095,0.326,-0.437,-1.447,1.338,0.276,-0.294,0.846
2024-10-15 13:45:18.365,73869.817,0.191,0.305,-0.933,-0.179,-0.768,-0.073,1.308,0.325,-1.585,0.202,-0.31,0.866
2024-10-15 13:45:18.485,73869.937,0.235,0.255,-0.938,0.088,0.241,0.202,-0.826,1.016,-0.502,0.246,-0.258,0.674
2024-10-15 13:45:18.605,73870.057,0.259,0.239,-0.936,0.015,-0.238,0.155,-1.619,-0.963,1.922,0.27,-0.242,0.803
2024-10-15 13:45:18.725,73870.177,0.234,0.214,-0.948,0.004,-0.293,-0.162,0.074,0.871,-1.643,0.242,-0.215,0.765
2024-10-15 13:45:18.845,73870.297,0.301,0.208,-0.931,-0.043,0.558,0.373,-1.2,0.111,1.223,0.313,-0.209,0.708
2024-10-15 13:45:18.964,73870.416,0.259,0.356,-0.898,-0.351,-0.586,-0.232,1.76,0.866,-1.926,0.281,-0.364,0.908
2024-10-15 13:45:19.085,73870.536,0.314,0.257,-0.914,-0.106,0.433,0.059,0.439,0.405,-0.591,0.33,-0.26,0.699
2024-10-15 13:45:19.204,73870.656,0.313,0.243,-0.918,0.156,-0.106,0.086,0.145,0.1,1.078,0.329,-0.245,0.701
2024-10-15 13:45:19.324,73870.776,0.311,0.134,-0.941,-0.059,0.199,-0.013,0.454,-0.233,0.613,0.319,-0.135,0.741
2024-10-15 13:45:19.444,73870.896,0.272,0.049,-0.961,0.002,-0.085,0.113,-0.135,-0.365,0.492,0.276,-0.049,0.787
2024-10-15 13:45:19.564,73871.015,0.249,0.007,-0.969,-0.153,-0.168,0.125,-0.463,-0.105,0.407,0.251,-0.007,0.798
2024-10-15 13:45:19.683,73871.135,0.21,-0.002,-0.978,0.443,0.024,0.203,-0.515,-0.137,-0.286,0.212,0.002,0.78
2024-10-15 13:45:19.803,73871.255,0.195,-0.051,-0.979,-0.202,-0.011,0.181,0.093,-0.205,-0.185,0.197,0.051,0.793
2024-10-15 13:45:19.923,73871.375,0.16,-0.07,-0.985,0.294,-0.261,0.004,-0.213,-0.365,-0.181,0.161,0.07,0.79
2024-10-15 13:45:20.043,73871.495,0.173,-0.048,-0.984,-0.129,0.096,0.039,0.638,-0.156,-0.243,0.175,0.048,0.787
2024-10-15 13:45:20.162,73871.614,0.159,-0.068,-0.985,0.198,-0.332,-0.018,-0.464,-0.513,-0.096,0.16,0.068,0.779
2024-10-15 13:45:20.282,73871.734,0.167,-0.009,-0.986,0.014,0.005,-0.143,-0.294,0.73,0.305,0.168,0.009,0.775
2024-10-15 13:45:20.402,73871.854,0.166,-0.032,-0.986,-0.65,0.044,-0.106,-0.195,0.239,-0.087,0.167,0.032,0.77
2024-10-15 13:45:20.521,73871.974,0.152,0.01,-0.988,0.683,-0.239,0.28,-0.077,-0.091,0.215,0.153,-0.01,0.749
2024-10-15 13:45:20.642,73872.094,0.169,0.002,-0.986,-0.475,0.011,-0.183,-0.01,-0.248,-0.18,0.17,-0.002,0.766
2024-10-15 13:45:20.761,73872.213,0.142,0.065,-0.988,0.488,-0.012,-0.096,0.321,0.048,0.15,0.143,-0.065,0.738
2024-10-15 13:45:20.881,73872.333,0.165,0.007,-0.986,-0.082,0.147,0.222,0.805,0.055,0.123,0.165,-0.007,0.782
2024-10-15 13:45:21.001,73872.453,0.154,-0.03,-0.988,0.276,-0.427,-0.071,-0.948,-0.67,-0.004,0.155,0.03,0.784
2024-10-15 13:45:21.121,73872.573,0.157,0.022,-0.987,-0.031,0.077,-0.249,0.211,0.626,0.735,0.158,-0.022,0.788
2024-10-15 13:45:21.240,73872.693,0.164,0.012,-0.986,-0.631,0.123,-0.029,-0.237,0.49,-0.401,0.164,-0.012,0.779
2024-10-15 13:45:21.360,73872.812,0.163,0.057,-0.985,0.448,-0.145,0.241,0.45,-0.115,0.372,0.164,-0.057,0.765
2024-10-15 13:45:21.480,73872.932,0.169,0.032,-0.985,-0.789,0.511,-0.144,0.456,-0.678,-0.458,0.17,-0.032,0.788
2024-10-15 13:45:21.600,73873.052,0.158,0.093,-0.983,0.676,-0.197,0.221,0.502,-0.324,0.095,0.159,-0.093,0.767
2024-10-15 13:45:21.720,73873.172,0.178,0.052,-0.983,-0.265,0.159,-0.004,0.539,0.217,0.408,0.179,-0.052,0.792
2024-10-15 13:45:21.839,73873.291,0.154,0.078,-0.985,0.293,-0.333,-0.054,-0.579,0.164,0.199,0.155,-0.078,0.795
2024-10-15 13:45:21.959,73873.411,0.178,0.078,-0.981,-0.228,0.025,0.095,0.342,0.023,-0.278,0.179,-0.078,0.801
2024-10-15 13:45:22.079,73873.531,0.175,0.073,-0.982,0.258,-0.416,-0.032,-0.965,-0.491,-0.291,0.176,-0.073,0.789
2024-10-15 13:45:22.199,73873.651,0.181,0.126,-0.975,0.038,0.068,-0.148,0.001,0.419,0.278,0.184,-0.126,0.797
2024-10-15 13:45:22.319,73873.771,0.176,0.075,-0.982,0.058,-0.422,-0.07,-0.277,-0.238,-0.177,0.177,-0.075,0.803
2024-10-15 13:45:22.439,73873.89,0.181,0.118,-0.976,0.068,0.077,-0.071,0.441,0.084,0.666,0.183,-0.118,0.8
2024-10-15 13:45:22.558,73874.01,0.18,0.083,-0.98,-0.402,-0.164,-0.054,-0.107,0.188,-0.382,0.182,-0.083,0.802
2024-10-15 13:45:22.678,73874.13,0.15,0.137,-0.979,0.401,-0.248,0.156,-0.589,0.101,-0.319,0.152,-0.138,0.782
2024-10-15 13:45:22.798,73874.25,0.174,0.075,-0.982,-0.359,-0.307,-0.164,0.125,-0.033,0.283,0.175,-0.075,0.818
2024-10-15 13:45:22.917,73874.37,0.136,0.116,-0.984,0.443,0.464,0.129,0.791,-0.948,-0.215,0.138,-0.116,0.769
2024-10-15 13:45:23.037,73874.489,0.145,0.068,-0.987,-0.259,-0.763,-0.215,0.137,-0.189,-0.367,0.146,-0.068,0.822
2024-10-15 13:45:23.157,73874.609,0.134,0.089,-0.987,0.035,-0.165,0.267,-0.504,0.189,-0.772,0.135,-0.089,0.784
2024-10-15 13:45:23.277,73874.729,0.147,0.082,-0.986,-0.303,-0.914,-0.154,-0.795,-0.236,-0.835,0.148,-0.082,0.813
2024-10-15 13:45:23.397,73874.849,0.137,0.101,-0.985,-0.259,-0.517,-0.046,-0.783,1.435,-1.192,0.138,-0.101,0.738
2024-10-15 13:45:23.517,73874.969,0.178,0.181,-0.967,0.01,0.032,0.209,-0.563,-0.915,1.136,0.182,-0.182,0.737
2024-10-15 13:45:23.637,73875.088,0.059,0.25,-0.967,-0.023,-0.492,-0.273,1.249,-1.444,0.865,0.061,-0.252,0.932
2024-10-15 13:45:23.756,73875.208,0.038,0.154,-0.987,-0.099,-0.104,-0.131,0.319,1.204,-2.071,0.039,-0.155,0.796
2024-10-15 13:45:23.876,73875.328,0.111,0.142,-0.984,0.131,0.745,0.238,0.256,-0.269,0.768,0.112,-0.142,0.697
2024-10-15 13:45:23.996,73875.448,0.043,0.115,-0.992,0.03,-0.708,-0.039,0.148,-0.484,-0.578,0.044,-0.116,0.869
2024-10-15 13:45:24.115,73875.568,0.135,0.116,-0.984,-0.29,0.476,0.07,0.164,1.663,-0.427,0.136,-0.116,0.677
2024-10-15 13:45:24.235,73875.687,0.098,0.108,-0.989,-0.146,-0.187,0.117,0.09,-1.162,1.614,0.099,-0.108,0.824
2024-10-15 13:45:24.355,73875.807,0.078,0.094,-0.993,-0.101,-0.201,-0.231,-0.424,1.222,-2.648,0.078,-0.094,0.688
2024-10-15 13:45:24.475,73875.927,0.126,0.104,-0.987,0.145,0.332,0.24,-0.208,-0.293,1.268,0.127,-0.105,0.639
2024-10-15 13:45:24.595,73876.047,0.119,0.069,-0.991,-0.019,-0.305,-0.125,-0.099,0.216,-0.534,0.119,-0.069,0.743
2024-10-15 13:45:24.714,73876.167,0.238,0.116,-0.964,-0.081,0.437,0.001,1.083,0.011,-1.105,0.242,-0.116,0.64
2024-10-15 13:45:24.834,73876.286,0.245,0.149,-0.958,-0.021,-0.05,0.062,-0.231,-0.204,0.121,0.25,-0.149,0.635
2024-10-15 13:45:24.954,73876.406,0.258,0.167,-0.952,-0.027,0.003,-0.042,-0.187,0.209,-0.075,0.265,-0.168,0.63
2024-10-15 13:45:25.074,73876.526,0.264,0.194,-0.945,0.004,-0.018,0.025,-0.233,0.015,0.071,0.272,-0.195,0.63
2024-10-15 13:45:25.194,73876.646,0.266,0.19,-0.945,-0.0,0.002,0.042,-0.196,-0.006,0.011,0.274,-0.192,0.633
2024-10-15 13:45:25.313,73876.766,0.266,0.195,-0.944,-0.005,-0.02,0.012,-0.052,-0.002,0.191,0.275,-0.197,0.648
2024-10-15 13:45:25.434,73876.885,0.276,0.196,-0.941,-0.049,-0.019,-0.017,-0.068,0.114,-0.027,0.285,-0.197,0.657
2024-10-15 13:45:25.553,73877.005,0.272,0.237,-0.932,-0.004,-0.028,0.009,-1.752,-0.548,0.18,0.284,-0.24,0.67
2024-10-15 13:45:25.673,73877.125,0.285,0.593,-0.753,0.061,0.034,0.002,-1.923,-0.393,0.435,0.361,-0.634,0.853
2024-10-15 13:45:25.793,73877.245,0.286,0.661,-0.694,0.039,-0.061,0.049,-0.077,-0.3,0.339,0.391,-0.722,0.936
2024-10-15 13:45:25.912,73877.365,0.288,0.581,-0.761,-0.045,-0.001,-0.175,2.205,0.552,0.332,0.362,-0.62,0.916
2024-10-15 13:45:26.032,73877.484,0.287,0.449,-0.846,-0.017,-0.042,-0.004,0.379,-0.25,0.022,0.326,-0.466,0.874
2024-10-15 13:45:26.152,73877.604,0.229,0.339,-0.913,0.05,-0.093,0.008,0.572,-0.316,0.003,0.245,-0.346,0.81
2024-10-15 13:45:26.271,73877.724,0.198,0.268,-0.943,0.114,-0.061,0.005,0.423,0.136,0.217,0.207,-0.271,0.807
2024-10-15 13:45:26.392,73877.844,0.2,0.114,-0.973,-0.548,-0.068,-0.195,-0.362,0.337,0.003,0.203,-0.115,0.848
2024-10-15 13:45:26.512,73877.963,0.19,0.12,-0.975,0.432,0.172,0.329,-0.759,0.061,0.709,0.192,-0.12,0.788
2024-10-15 13:45:26.631,73878.083,0.18,0.08,-0.98,-0.475,-0.269,-0.231,0.088,-0.396,-0.261,0.181,-0.08,0.853
2024-10-15 13:45:26.751,73878.203,0.165,0.109,-0.98,0.365,0.291,0.415,-1.29,0.113,0.267,0.167,-0.109,0.792
2024-10-15 13:45:26.871,73878.323,0.166,0.1,-0.981,-0.263,-0.186,-0.178,0.537,-0.828,0.246,0.168,-0.1,0.866
2024-10-15 13:45:26.990,73878.443,0.13,0.09,-0.987,0.283,0.2,0.291,0.344,-0.129,-0.802,0.131,-0.09,0.817
2024-10-15 13:45:27.110,73878.562,0.159,0.108,-0.981,-0.284,-0.102,-0.248,0.244,-0.335,-0.208,0.16,-0.108,0.877
2024-10-15 13:45:27.230,73878.682,0.133,0.099,-0.986,0.133,0.124,0.142,0.452,-0.302,-0.863,0.134,-0.099,0.836
2024-10-15 13:45:27.350,73878.802,0.172,0.113,-0.979,-0.066,-0.077,0.131,-0.632,0.447,-0.231,0.174,-0.113,0.87
2024-10-15 13:45:27.470,73878.922,0.158,0.109,-0.981,0.018,0.027,-0.091,0.599,-0.176,-0.522,0.16,-0.109,0.866
2024-10-15 13:45:27.590,73879.042,0.162,0.091,-0.983,0.08,-0.047,0.014,0.284,0.11,1.7,0.164,-0.091,0.864
2024-10-15 13:45:27.709,73879.161,0.154,0.067,-0.986,-0.699,-0.207,-0.137,-0.154,-0.122,0.09,0.155,-0.067,0.892
2024-10-15 13:45:27.829,73879.281,0.142,0.11,-0.984,0.618,0.307,0.29,-0.059,0.174,0.263,0.143,-0.11,0.839
2024-10-15 13:45:27.949,73879.401,0.17,0.07,-0.983,-0.249,0.049,-0.294,0.478,-0.616,0.416,0.171,-0.07,0.894
2024-10-15 13:45:28.069,73879.521,0.143,0.081,-0.986,0.266,-0.106,0.138,-0.075,-0.068,-0.601,0.144,-0.081,0.863
2024-10-15 13:45:28.189,73879.641,0.166,0.088,-0.982,-0.111,0.129,0.018,0.483,-0.187,-0.375,0.168,-0.088,0.875
2024-10-15 13:45:28.309,73879.76,0.14,0.071,-0.988,0.162,-0.204,0.117,-0.626,-0.238,-0.03,0.141,-0.072,0.877
2024-10-15 13:45:28.429,73879.88,0.147,0.084,-0.986,-0.195,-0.016,0.014,-0.469,0.624,-0.002,0.148,-0.084,0.878
2024-10-15 13:45:28.548,73880.0,0.156,0.062,-0.986,-0.008,-0.267,-0.117,-0.252,-0.229,0.029,0.157,-0.062,0.874
2024-10-15 13:45:28.668,73880.12,0.14,0.073,-0.987,0.199,-0.216,0.17,-0.844,0.515,0.272,0.141,-0.073,0.86
2024-10-15 13:45:28.787,73880.24,0.166,0.062,-0.984,-0.489,0.25,-0.101,0.435,-0.473,-0.217,0.167,-0.062,0.869
2024-10-15 13:45:28.907,73880.359,0.154,0.047,-0.987,0.322,-0.267,0.208,0.357,-0.228,-0.215,0.155,-0.047,0.869
2024-10-15 13:45:29.027,73880.479,0.164,0.055,-0.985,-0.156,0.111,0.055,-0.305,0.165,0.264,0.165,-0.055,0.865
2024-10-15 13:45:29.147,73880.599,0.156,0.074,-0.985,0.067,-0.247,0.074,-0.149,-0.042,-0.598,0.157,-0.074,0.839
2024-10-15 13:45:29.267,73880.719,0.171,0.044,-0.984,0.029,0.229,-0.247,1.605,0.146,0.199,0.172,-0.044,0.819
2024-10-15 13:45:29.386,73880.839,0.144,0.045,-0.989,-0.017,-0.277,0.289,-1.673,0.595,-0.498,0.144,-0.045,0.833
2024-10-15 13:45:29.507,73880.958,0.164,0.04,-0.986,0.132,0.124,-0.231,0.929,0.497,0.404,0.165,-0.04,0.817
2024-10-15 13:45:29.626,73881.078,0.152,0.046,-0.987,-0.014,-0.12,0.217,-0.959,0.385,-0.431,0.153,-0.046,0.822
2024-10-15 13:45:29.746,73881.198,0.165,0.03,-0.986,0.172,0.43,-0.298,1.087,0.393,0.402,0.166,-0.03,0.802
2024-10-15 13:45:29.866,73881.318,0.138,0.028,-0.99,-0.035,-0.518,0.202,-1.843,0.398,-0.62,0.139,-0.028,0.818
2024-10-15 13:45:29.986,73881.438,0.16,0.063,-0.985,0.215,0.845,0.113,-0.548,0.712,1.453,0.161,-0.063,0.781
2024-10-15 13:45:30.105,73881.557,0.131,0.094,-0.987,-0.167,-0.159,0.074,-0.768,0.245,-1.199,0.132,-0.094,0.812
2024-10-15 13:45:30.225,73881.677,0.232,0.401,-0.886,-0.018,0.241,0.244,-4.261,0.609,-0.945,0.256,-0.412,0.708
2024-10-15 13:45:30.345,73881.797,0.293,0.848,-0.442,0.025,-0.178,0.047,-6.253,-1.918,1.355,0.585,-1.012,1.283
2024-10-15 13:45:30.465,73881.917,0.326,0.94,0.102,-0.073,0.91,-0.176,-1.998,1.708,-0.042,1.874,-1.222,2.702
2024-10-15 13:45:30.585,73882.036,0.361,0.843,-0.399,-0.162,0.27,0.409,-1.117,0.663,0.263,0.735,-1.003,1.3
2024-10-15 13:45:30.704,73882.156,0.315,0.939,-0.138,0.204,-0.179,-0.056,-3.018,-2.271,-0.193,1.158,-1.22,1.799
2024-10-15 13:45:30.825,73882.276,0.319,0.938,0.135,0.005,0.637,0.067,0.573,1.572,0.099,1.971,-1.217,2.757
2024-10-15 13:45:30.944,73882.396,0.34,0.911,-0.235,-0.174,-0.151,0.204,2.324,1.142,0.442,0.965,-1.145,1.552
2024-10-15 13:45:31.064,73882.516,0.386,0.903,-0.187,0.035,-0.046,0.121,-0.511,0.333,0.456,1.119,-1.127,1.66
2024-10-15 13:45:31.183,73882.635,0.415,0.876,-0.247,-0.012,-0.133,0.023,0.703,0.252,-0.058,1.033,-1.067,1.509
2024-10-15 13:45:31.303,73882.755,0.387,0.853,-0.35,0.043,0.051,0.115,1.991,-0.478,-0.379,0.834,-1.022,1.278
2024-10-15 13:45:31.423,73882.875,0.352,0.661,-0.663,0.065,-0.0,0.145,3.451,-0.913,0.517,0.488,-0.722,0.941
2024-10-15 13:45:31.543,73882.995,0.315,0.528,-0.789,0.076,-0.157,0.051,0.139,-0.686,0.272,0.38,-0.556,0.919
2024-10-15 13:45:31.663,73883.115,0.305,0.403,-0.863,-0.018,0.036,-0.014,1.491,-0.415,0.285,0.34,-0.414,0.902
2024-10-15 13:45:31.782,73883.234,0.307,0.267,-0.913,-0.015,-0.035,0.025,0.62,-0.133,0.048,0.324,-0.271,0.898
2024-10-15 13:45:31.901,73883.354,0.293,0.193,-0.937,-0.102,-0.053,0.169,-0.496,-0.227,0.345,0.303,-0.194,0.892
2024-10-15 13:45:32.022,73883.474,0.245,0.096,-0.965,-0.035,0.112,-0.075,0.232,-1.128,0.447,0.249,-0.096,0.918
2024-10-15 13:45:32.142,73883.594,0.205,0.223,-0.953,0.031,0.198,0.284,-1.014,1.213,-0.014,0.212,-0.225,0.948
2024-10-15 13:45:32.261,73883.714,0.227,0.154,-0.962,0.253,-0.1,-0.155,1.425,-2.015,0.806,0.232,-0.155,0.988
2024-10-15 13:45:32.381,73883.833,0.204,0.209,-0.956,-0.23,0.603,0.171,-1.144,1.864,0.822,0.21,-0.211,0.984
