Date,TimeStamp,GravityX,GravityY,GravityZ,UserAccelerationX,UserAccelerationY,UserAccelerationZ,RotationRateX,RotationRateY,RotationRateZ,AttitudeRoll,AttitudePitch,AttitudeYaw
2024-10-01 08:19:29.947,22782.563,0.027,-0.396,-0.918,0.006,-0.04,0.031,-0.067,-0.012,-0.019,0.029,0.407,1.43
2024-10-01 08:19:29.974,22782.683,0.026,-0.395,-0.918,0.002,0.002,0.006,-0.011,-0.008,0.001,0.028,0.406,1.431
2024-10-01 08:19:29.986,22782.803,0.026,-0.396,-0.918,-0.002,0.004,0.008,0.003,-0.007,0.0,0.028,0.407,1.431
2024-10-01 08:19:30.000,22782.922,0.026,-0.398,-0.917,0.001,-0.002,0.008,0.026,-0.01,-0.001,0.029,0.41,1.43
2024-10-01 08:19:30.018,22783.042,0.026,-0.4,-0.916,-0.003,0.007,0.006,0.009,0.013,-0.005,0.028,0.412,1.43
2024-10-01 08:19:30.033,22783.162,0.028,-0.402,-0.915,0.002,0.003,0.008,0.016,-0.004,-0.001,0.03,0.413,1.429
2024-10-01 08:19:30.047,22783.282,0.028,-0.405,-0.914,0.001,-0.02,0.012,-0.033,-0.008,-0.001,0.031,0.417,1.429
2024-10-01 08:19:30.062,22783.402,0.03,-0.406,-0.913,-0.003,-0.008,0.013,-0.001,0.012,-0.006,0.033,0.418,1.428
2024-10-01 08:19:30.075,22783.521,0.03,-0.405,-0.914,-0.004,0.0,0.005,-0.016,0.01,-0.005,0.033,0.417,1.428
2024-10-01 08:19:30.090,22783.641,0.031,-0.405,-0.914,-0.001,0.005,0.008,0.002,-0.013,0.003,0.033,0.417,1.428
2024-10-01 08:19:30.105,22783.761,0.031,-0.406,-0.913,0.001,-0.006,0.01,-0.025,0.001,-0.001,0.034,0.418,1.428
2024-10-01 08:19:30.117,22783.881,0.031,-0.405,-0.914,-0.002,0.006,0.007,-0.007,0.005,-0.004,0.034,0.417,1.428
2024-10-01 08:19:30.130,22784.001,0.031,-0.406,-0.913,-0.006,-0.004,0.01,-0.011,0.014,-0.003,0.034,0.418,1.428
2024-10-01 08:19:30.143,22784.12,0.031,-0.405,-0.914,-0.001,-0.001,0.005,-0.006,0.008,-0.001,0.034,0.417,1.428
2024-10-01 08:19:30.155,22784.24,0.031,-0.406,-0.914,0.002,0.01,0.003,0.015,-0.008,0.002,0.034,0.418,1.428
2024-10-01 08:19:30.168,22784.36,0.031,-0.406,-0.913,-0.003,0.005,0.009,0.001,0.004,-0.004,0.034,0.418,1.428
2024-10-01 08:19:30.181,22784.48,0.031,-0.405,-0.914,-0.001,0.001,0.005,0.006,0.002,0.001,0.033,0.417,1.428
2024-10-01 08:19:30.193,22784.599,0.031,-0.406,-0.913,0.002,-0.001,0.006,-0.004,-0.009,0.007,0.034,0.418,1.428
2024-10-01 08:19:30.206,22784.719,0.031,-0.406,-0.913,0.001,0.002,0.011,-0.009,-0.012,-0.0,0.034,0.418,1.428
2024-10-01 08:19:30.219,22784.839,0.031,-0.406,-0.914,-0.004,-0.003,0.01,-0.011,0.006,-0.003,0.034,0.418,1.428
2024-10-01 08:19:30.232,22784.959,0.031,-0.405,-0.914,-0.004,0.005,0.005,0.007,0.016,0.001,0.034,0.417,1.428
2024-10-01 08:19:30.245,22785.079,0.031,-0.405,-0.914,-0.002,0.007,-0.001,0.01,0.01,-0.002,0.034,0.417,1.428
2024-10-01 08:19:30.269,22785.198,0.031,-0.405,-0.914,0.004,0.01,0.006,0.009,-0.012,0.006,0.034,0.417,1.429
2024-10-01 08:19:30.389,22785.318,0.03,-0.404,-0.914,-0.002,0.004,0.008,0.004,0.004,0.001,0.033,0.416,1.429
2024-10-01 08:19:30.508,22785.438,0.03,-0.404,-0.914,0.002,0.002,0.006,-0.005,-0.008,0.003,0.033,0.416,1.429
2024-10-01 08:19:30.629,22785.558,0.03,-0.403,-0.914,-0.002,0.008,0.002,0.006,0.003,0.002,0.033,0.415,1.429
2024-10-01 08:19:30.748,22785.678,0.03,-0.404,-0.914,-0.001,0.003,0.01,-0.0,0.009,-0.001,0.033,0.416,1.429
2024-10-01 08:19:30.869,22785.797,0.031,-0.403,-0.915,-0.005,0.007,0.006,0.009,0.016,-0.005,0.033,0.415,1.429
2024-10-01 08:19:30.989,22785.917,0.031,-0.404,-0.914,-0.0,0.002,-0.002,0.011,-0.001,0.002,0.034,0.416,1.429
2024-10-01 08:19:31.108,22786.037,0.031,-0.405,-0.914,0.005,0.016,0.006,0.032,-0.028,0.007,0.034,0.417,1.429
2024-10-01 08:19:31.228,22786.157,0.03,-0.406,-0.914,-0.002,-0.015,0.012,-0.097,0.021,-0.002,0.033,0.418,1.429
2024-10-01 08:19:31.348,22786.277,0.104,-0.327,-0.939,-0.326,-0.373,-0.305,-0.664,1.752,-0.593,0.111,0.333,1.405
2024-10-01 08:19:31.468,22786.396,0.345,-0.017,-0.939,-0.007,-0.181,0.098,-2.346,1.466,-1.295,0.352,0.017,1.347
2024-10-01 08:19:31.588,22786.516,0.426,0.264,-0.866,-0.049,-0.138,0.172,-2.77,0.432,-1.056,0.457,-0.267,1.332
2024-10-01 08:19:31.707,22786.636,0.388,0.469,-0.793,-0.07,-0.092,0.157,-1.667,-0.051,-0.863,0.455,-0.488,1.324
2024-10-01 08:19:31.827,22786.756,0.326,0.639,-0.697,0.034,-0.021,0.172,-1.804,-0.056,-0.957,0.438,-0.693,1.325
2024-10-01 08:19:31.947,22786.876,0.243,0.745,-0.621,0.077,0.009,0.082,-1.261,-0.185,-0.872,0.373,-0.84,1.282
2024-10-01 08:19:32.067,22786.995,0.104,0.842,-0.53,-0.031,0.048,-0.085,-0.076,-0.569,-0.696,0.193,-1.0,1.161
2024-10-01 08:19:32.186,22787.115,-0.008,0.863,-0.505,-0.007,-0.02,-0.083,-0.818,-0.433,-0.445,-0.016,-1.041,1.018
2024-10-01 08:19:32.306,22787.235,-0.02,0.921,-0.389,-0.025,-0.044,-0.058,-0.045,0.35,-0.095,-0.052,-1.17,0.953
2024-10-01 08:19:32.426,22787.355,-0.014,0.914,-0.406,0.027,-0.0,0.024,0.382,0.092,-0.046,-0.034,-1.152,0.948
2024-10-01 08:19:32.546,22787.474,-0.013,0.911,-0.413,0.003,0.019,0.041,0.14,0.036,0.004,-0.032,-1.145,0.938
2024-10-01 08:19:32.666,22787.594,-0.004,0.908,-0.42,-0.008,0.025,0.072,0.115,-0.107,0.1,-0.01,-1.138,0.966
2024-10-01 08:19:32.786,22787.714,-0.005,0.902,-0.433,0.004,0.038,0.017,0.5,-0.306,0.028,-0.012,-1.123,0.984
2024-10-01 08:19:32.906,22787.834,-0.016,0.897,-0.441,-0.002,0.023,0.037,0.218,-0.015,-0.012,-0.037,-1.114,0.967
2024-10-01 08:19:33.026,22787.954,-0.02,0.892,-0.452,-0.018,-0.011,-0.006,0.058,-0.001,0.025,-0.044,-1.101,0.963
2024-10-01 08:19:33.144,22788.073,-0.021,0.885,-0.464,0.011,0.023,0.015,0.303,-0.078,-0.098,-0.046,-1.088,0.962
2024-10-01 08:19:33.265,22788.193,-0.024,0.879,-0.476,-0.001,0.001,0.008,0.002,0.002,0.028,-0.05,-1.073,0.957
2024-10-01 08:19:33.384,22788.313,-0.023,0.88,-0.475,0.001,-0.0,0.005,0.068,0.014,-0.017,-0.049,-1.075,0.957
2024-10-01 08:19:33.504,22788.433,-0.023,0.878,-0.479,-0.004,0.0,0.006,0.0,-0.0,0.019,-0.049,-1.071,0.957
2024-10-01 08:19:33.623,22788.553,-0.023,0.877,-0.48,-0.002,0.005,0.008,0.016,-0.004,0.003,-0.049,-1.07,0.957
2024-10-01 08:19:33.744,22788.672,-0.023,0.876,-0.483,-0.002,0.001,0.005,0.044,0.011,-0.002,-0.048,-1.067,0.957
2024-10-01 08:19:33.864,22788.792,-0.027,0.871,-0.491,0.019,-0.081,0.01,0.018,-0.004,-0.012,-0.054,-1.057,0.952
2024-10-01 08:19:33.984,22788.912,-0.028,0.876,-0.482,-0.004,0.024,0.017,0.009,-0.003,0.017,-0.058,-1.067,0.949
2024-10-01 08:19:34.103,22789.032,-0.028,0.885,-0.465,-0.005,-0.056,-0.039,-0.489,0.032,-0.049,-0.061,-1.087,0.946
2024-10-01 08:19:34.223,22789.152,-0.028,0.883,-0.469,0.0,-0.014,0.004,0.049,0.013,0.005,-0.059,-1.082,0.946
2024-10-01 08:19:34.342,22789.271,-0.026,0.874,-0.485,-0.013,-0.001,-0.021,-0.249,0.006,-0.027,-0.054,-1.063,0.952
2024-10-01 08:19:34.462,22789.391,-0.026,0.875,-0.484,-0.001,-0.014,-0.003,0.001,-0.002,0.002,-0.053,-1.065,0.952
2024-10-01 08:19:34.583,22789.511,-0.031,0.912,-0.408,-0.023,-0.089,-0.059,-2.12,0.521,-0.309,-0.075,-1.149,0.913
2024-10-01 08:19:34.703,22789.631,-0.027,0.924,-0.382,0.012,0.014,-0.001,0.115,-0.036,-0.068,-0.07,-1.178,0.898
2024-10-01 08:19:34.822,22789.751,-0.028,0.918,-0.396,-0.002,-0.004,-0.006,0.012,0.003,-0.016,-0.07,-1.162,0.898
2024-10-01 08:19:34.942,22789.87,-0.028,0.918,-0.396,0.001,-0.02,-0.008,-0.04,0.002,-0.011,-0.07,-1.162,0.898
2024-10-01 08:19:35.062,22789.99,-0.028,0.917,-0.397,-0.002,-0.004,0.001,-0.02,0.007,-0.005,-0.07,-1.162,0.898
2024-10-01 08:19:35.181,22790.11,-0.028,0.917,-0.398,-0.004,0.011,0.007,0.072,-0.006,0.001,-0.071,-1.16,0.897
2024-10-01 08:19:35.301,22790.23,-0.032,0.905,-0.424,-0.006,0.018,0.012,-0.227,0.018,0.001,-0.075,-1.132,0.897
2024-10-01 08:19:35.420,22790.35,-0.034,0.907,-0.42,-0.001,0.007,0.006,0.014,0.009,-0.037,-0.081,-1.136,0.891
2024-10-01 08:19:35.541,22790.469,-0.037,0.902,-0.43,-0.006,0.012,0.001,0.033,-0.009,0.006,-0.085,-1.125,0.888
2024-10-01 08:19:35.661,22790.589,-0.038,0.906,-0.421,-0.001,0.003,0.003,-0.06,0.003,-0.011,-0.089,-1.135,0.883
2024-10-01 08:19:35.780,22790.709,-0.039,0.904,-0.426,0.001,-0.101,-0.04,-0.046,-0.002,-0.023,-0.09,-1.128,0.882
2024-10-01 08:19:35.900,22790.829,-0.04,0.911,-0.41,0.009,-0.009,0.02,0.256,-0.017,-0.001,-0.097,-1.146,0.873
2024-10-01 08:19:36.020,22790.948,-0.039,0.902,-0.429,0.006,-0.097,-0.022,-0.335,0.011,-0.032,-0.09,-1.125,0.883
2024-10-01 08:19:36.140,22791.068,-0.04,0.917,-0.396,-0.007,0.041,0.036,0.288,0.005,0.04,-0.101,-1.162,0.87
2024-10-01 08:19:36.259,22791.188,-0.037,0.907,-0.418,-0.034,0.167,0.04,0.098,-0.002,-0.016,-0.087,-1.137,0.885
2024-10-01 08:19:36.379,22791.308,-0.037,0.905,-0.424,-0.005,0.021,0.013,-0.077,-0.0,0.013,-0.086,-1.131,0.887
2024-10-01 08:19:36.499,22791.428,-0.038,0.908,-0.417,0.0,-0.008,-0.002,-0.363,-0.008,-0.052,-0.091,-1.138,0.882
2024-10-01 08:19:36.620,22791.547,-0.04,0.911,-0.411,-0.0,-0.028,0.005,0.073,0.0,0.025,-0.098,-1.145,0.873
2024-10-01 08:19:36.739,22791.667,-0.04,0.912,-0.409,-0.001,0.004,0.008,0.046,-0.001,-0.001,-0.098,-1.148,0.874
2024-10-01 08:19:36.858,22791.787,-0.041,0.9,-0.433,-0.017,-0.133,-0.086,0.211,0.009,-0.083,-0.093,-1.121,0.879
2024-10-01 08:19:36.979,22791.907,-0.042,0.914,-0.404,-0.016,0.029,-0.041,-1.424,0.082,0.1,-0.105,-1.153,0.867
2024-10-01 08:19:37.098,22792.027,-0.017,0.922,-0.386,-0.082,-0.054,-0.004,0.757,0.236,0.436,-0.043,-1.174,0.913
2024-10-01 08:19:37.218,22792.146,0.008,0.858,-0.513,-0.05,-0.023,0.037,1.038,-0.107,0.146,0.015,-1.032,1.005
2024-10-01 08:19:37.337,22792.266,0.018,0.824,-0.566,0.007,0.061,-0.014,0.295,0.194,0.127,0.032,-0.969,1.035
2024-10-01 08:19:37.458,22792.386,0.024,0.829,-0.559,0.038,-0.042,-0.015,-0.251,-0.036,-0.101,0.042,-0.978,1.042
2024-10-01 08:19:37.577,22792.506,0.007,0.858,-0.514,-0.009,0.161,0.061,-0.006,0.01,0.039,0.013,-1.031,1.016
2024-10-01 08:19:37.696,22792.626,0.008,0.852,-0.524,-0.002,-0.02,-0.009,0.013,-0.045,-0.046,0.016,-1.02,1.026
2024-10-01 08:19:37.817,22792.745,0.007,0.847,-0.531,-0.008,-0.001,0.001,0.066,0.009,0.008,0.012,-1.011,1.029
2024-10-01 08:19:37.936,22792.865,0.007,0.844,-0.536,-0.004,0.008,0.006,0.079,-0.003,0.011,0.013,-1.006,1.032
2024-10-01 08:19:38.056,22792.985,0.007,0.843,-0.538,-0.004,0.002,0.004,0.055,0.003,0.001,0.014,-1.003,1.035
2024-10-01 08:19:38.176,22793.105,0.006,0.837,-0.547,0.001,0.031,-0.005,-0.294,0.041,0.009,0.011,-0.993,1.037
2024-10-01 08:19:38.296,22793.225,0.007,0.843,-0.537,0.002,-0.064,-0.024,-0.294,0.017,-0.068,0.013,-1.004,1.039
2024-10-01 08:19:38.416,22793.344,0.004,0.85,-0.527,-0.004,0.062,0.037,0.216,-0.017,0.042,0.008,-1.015,1.034
2024-10-01 08:19:38.535,22793.464,0.006,0.846,-0.533,-0.001,-0.012,0.003,0.006,0.0,0.001,0.012,-1.009,1.039
2024-10-01 08:19:38.656,22793.584,0.006,0.846,-0.532,-0.002,0.004,0.009,0.097,-0.001,0.014,0.011,-1.009,1.039
2024-10-01 08:19:38.775,22793.704,0.005,0.841,-0.541,-0.013,0.02,-0.006,0.011,0.011,0.001,0.01,-1.0,1.04
2024-10-01 08:19:38.895,22793.823,0.004,0.844,-0.537,-0.002,-0.035,-0.017,-0.424,0.013,-0.078,0.007,-1.004,1.038
2024-10-01 08:19:39.015,22793.943,0.016,0.929,-0.371,-0.021,0.289,0.081,0.158,0.063,0.086,0.042,-1.19,1.029
2024-10-01 08:19:39.135,22794.063,0.012,0.907,-0.421,-0.009,0.023,0.01,-0.031,-0.002,-0.016,0.029,-1.136,1.03
2024-10-01 08:19:39.254,22794.183,0.009,0.899,-0.438,0.001,-0.004,0.002,0.088,-0.033,-0.053,0.021,-1.117,1.025
2024-10-01 08:19:39.374,22794.303,0.009,0.898,-0.439,-0.002,0.006,0.01,0.075,0.005,0.012,0.02,-1.116,1.024
2024-10-01 08:19:39.494,22794.422,0.008,0.896,-0.444,-0.003,0.003,0.01,0.271,0.01,0.01,0.019,-1.11,1.023
2024-10-01 08:19:39.614,22794.542,0.007,0.893,-0.45,-0.0,-0.017,-0.0,-0.106,-0.003,-0.007,0.015,-1.104,1.019
2024-10-01 08:19:39.733,22794.662,0.004,0.893,-0.449,-0.002,0.003,0.003,0.161,-0.008,0.005,0.009,-1.105,1.014
2024-10-01 08:19:39.853,22794.782,0.004,0.888,-0.459,-0.009,0.005,-0.013,-0.145,0.023,0.01,0.009,-1.094,1.016
2024-10-01 08:19:39.972,22794.902,0.002,0.893,-0.45,0.0,-0.01,-0.012,-0.262,0.009,-0.049,0.005,-1.104,1.011
2024-10-01 08:19:40.092,22795.021,0.002,0.889,-0.458,-0.016,-0.115,-0.07,-0.007,0.025,-0.043,0.004,-1.095,1.009
2024-10-01 08:19:40.213,22795.141,-0.0,0.896,-0.445,0.003,-0.049,-0.014,-0.066,0.007,-0.042,-0.0,-1.11,1.004
2024-10-01 08:19:40.333,22795.261,0.001,0.886,-0.464,-0.001,0.024,0.0,0.003,-0.002,0.013,0.003,-1.088,1.009
2024-10-01 08:19:40.453,22795.381,0.002,0.906,-0.422,0.006,0.146,0.057,0.318,-0.042,0.079,0.006,-1.135,1.009
2024-10-01 08:19:40.572,22795.501,0.005,0.901,-0.434,-0.002,-0.005,0.0,0.076,-0.005,0.026,0.011,-1.122,1.016
2024-10-01 08:19:40.692,22795.62,0.004,0.892,-0.451,0.009,0.058,0.04,0.319,-0.035,-0.026,0.009,-1.103,1.017
2024-10-01 08:19:40.811,22795.74,0.004,0.894,-0.449,-0.001,-0.006,0.011,0.025,-0.014,0.001,0.008,-1.105,1.016
2024-10-01 08:19:40.931,22795.86,0.003,0.896,-0.445,-0.004,0.005,-0.003,-0.086,0.025,0.02,0.007,-1.11,1.014
2024-10-01 08:19:41.051,22795.98,-0.0,0.902,-0.432,-0.001,-0.069,-0.035,-0.345,0.037,-0.092,-0.0,-1.124,1.006
2024-10-01 08:19:41.171,22796.1,0.0,0.899,-0.437,-0.005,0.002,-0.005,0.003,-0.003,0.014,0.0,-1.118,1.006
2024-10-01 08:19:41.291,22796.219,0.0,0.895,-0.446,0.0,0.026,0.024,0.444,-0.068,0.007,0.001,-1.108,1.008
2024-10-01 08:19:41.410,22796.339,-0.001,0.889,-0.458,-0.011,-0.001,-0.011,-0.44,-0.02,-0.04,-0.003,-1.095,1.005
2024-10-01 08:19:41.530,22796.459,0.023,0.924,-0.382,-0.038,0.066,0.058,0.496,0.106,0.453,0.06,-1.178,1.052
2024-10-01 08:19:41.650,22796.579,0.042,0.881,-0.471,0.001,0.009,0.024,0.702,-0.11,-0.017,0.089,-1.078,1.092
2024-10-01 08:19:41.770,22796.699,0.035,0.841,-0.541,0.014,0.017,-0.015,0.549,-0.114,0.07,0.064,-0.998,1.075
2024-10-01 08:19:41.890,22796.818,0.036,0.837,-0.546,0.035,-0.026,-0.007,-0.354,0.149,-0.089,0.066,-0.992,1.066
2024-10-01 08:19:42.009,22796.938,0.031,0.85,-0.526,0.002,-0.029,-0.003,-0.136,-0.024,-0.016,0.059,-1.015,1.058
2024-10-01 08:19:42.129,22797.058,0.03,0.84,-0.542,0.004,0.014,0.003,0.211,-0.112,-0.003,0.055,-0.998,1.061
2024-10-01 08:19:42.249,22797.178,0.028,0.836,-0.548,-0.005,0.005,0.004,0.103,0.011,0.033,0.052,-0.99,1.058
2024-10-01 08:19:42.369,22797.297,0.029,0.836,-0.548,-0.006,-0.022,-0.009,-0.054,0.006,-0.015,0.053,-0.99,1.057
2024-10-01 08:19:42.489,22797.417,0.029,0.835,-0.55,-0.003,0.016,0.01,0.201,-0.036,0.029,0.052,-0.987,1.055
2024-10-01 08:19:42.608,22797.537,0.029,0.831,-0.555,-0.008,-0.01,0.002,-0.026,0.023,0.024,0.052,-0.981,1.053
2024-10-01 08:19:42.728,22797.657,0.029,0.84,-0.542,-0.001,-0.036,-0.002,-0.403,0.022,-0.059,0.053,-0.997,1.052
2024-10-01 08:19:42.848,22797.777,0.027,0.833,-0.552,-0.009,0.014,0.009,0.617,-0.034,-0.01,0.049,-0.985,1.052
2024-10-01 08:19:42.968,22797.896,0.027,0.829,-0.559,-0.009,0.0,-0.005,-0.032,0.007,-0.004,0.048,-0.977,1.051
2024-10-01 08:19:43.088,22798.016,0.031,0.846,-0.533,-0.015,0.008,-0.035,-1.392,0.301,-0.035,0.057,-1.008,1.051
2024-10-01 08:19:43.207,22798.136,0.04,0.912,-0.408,-0.015,-0.023,-0.017,0.438,-0.024,-0.009,0.098,-1.148,1.057
2024-10-01 08:19:43.327,22798.256,0.034,0.901,-0.433,-0.01,0.018,0.001,0.094,-0.024,-0.007,0.078,-1.122,1.046
2024-10-01 08:19:43.447,22798.376,0.032,0.898,-0.439,-0.005,-0.005,0.002,0.02,0.002,0.004,0.074,-1.115,1.044
2024-10-01 08:19:43.567,22798.495,0.03,0.894,-0.447,0.01,0.004,0.007,0.088,-0.033,-0.04,0.067,-1.107,1.04
2024-10-01 08:19:43.687,22798.615,0.026,0.886,-0.463,-0.019,0.04,0.005,-0.045,0.001,-0.015,0.057,-1.089,1.031
2024-10-01 08:19:43.806,22798.735,0.023,0.887,-0.461,-0.003,0.031,0.012,0.24,-0.044,0.002,0.049,-1.092,1.023
2024-10-01 08:19:43.926,22798.855,0.023,0.883,-0.469,-0.008,-0.004,-0.015,-0.196,0.037,-0.011,0.049,-1.082,1.023
2024-10-01 08:19:44.046,22798.975,0.022,0.886,-0.464,-0.001,-0.005,-0.004,-0.13,0.014,-0.049,0.047,-1.088,1.02
2024-10-01 08:19:44.166,22799.094,0.022,0.882,-0.471,0.015,-0.013,0.013,-0.118,0.006,0.027,0.046,-1.08,1.02
2024-10-01 08:19:44.286,22799.214,0.021,0.891,-0.454,0.006,0.094,0.046,0.382,-0.06,0.039,0.045,-1.099,1.018
2024-10-01 08:19:44.405,22799.334,0.021,0.883,-0.469,-0.01,-0.097,-0.031,-0.254,0.048,-0.004,0.044,-1.082,1.02
2024-10-01 08:19:44.525,22799.454,0.027,0.893,-0.45,0.008,0.002,-0.002,0.088,0.038,-0.047,0.061,-1.103,1.033
2024-10-01 08:19:44.645,22799.574,0.027,0.891,-0.452,-0.001,0.015,0.012,0.261,-0.02,0.019,0.06,-1.101,1.031
2024-10-01 08:19:44.765,22799.693,0.027,0.888,-0.459,0.007,-0.04,0.005,0.135,-0.018,0.019,0.059,-1.093,1.031
2024-10-01 08:19:44.884,22799.813,0.026,0.887,-0.462,-0.007,-0.014,-0.011,-0.164,0.022,-0.009,0.057,-1.09,1.03
2024-10-01 08:19:45.004,22799.933,0.026,0.889,-0.458,-0.0,0.019,0.004,-0.201,0.004,-0.05,0.056,-1.095,1.029
2024-10-01 08:19:45.124,22800.053,0.025,0.892,-0.452,-0.003,-0.018,-0.006,-0.043,0.008,0.005,0.054,-1.101,1.025
2024-10-01 08:19:45.244,22800.172,0.024,0.887,-0.461,0.001,0.019,0.014,0.396,-0.081,-0.024,0.052,-1.091,1.024
2024-10-01 08:19:45.364,22800.292,0.023,0.883,-0.469,-0.012,-0.024,-0.011,-0.289,0.037,-0.026,0.048,-1.082,1.021
2024-10-01 08:19:45.483,22800.412,0.039,0.918,-0.395,-0.05,0.043,0.047,0.375,0.06,0.189,0.098,-1.163,1.062
2024-10-01 08:19:45.603,22800.532,0.044,0.888,-0.457,-0.012,0.004,0.041,0.548,-0.009,-0.045,0.096,-1.094,1.068
2024-10-01 08:19:45.722,22800.652,0.04,0.867,-0.496,0.035,-0.036,-0.017,0.256,-0.0,-0.04,0.081,-1.05,1.05
2024-10-01 08:19:45.843,22800.771,0.036,0.848,-0.528,-0.011,0.045,0.003,0.367,0.08,0.016,0.068,-1.013,1.036
2024-10-01 08:19:45.963,22800.891,0.044,0.849,-0.527,0.004,-0.01,0.01,-0.059,-0.036,0.063,0.083,-1.014,1.046
2024-10-01 08:19:46.082,22801.011,0.038,0.863,-0.504,0.001,-0.031,0.002,-0.554,-0.003,-0.092,0.076,-1.041,1.049
2024-10-01 08:19:46.202,22801.131,0.035,0.868,-0.495,-0.004,0.011,0.002,0.125,-0.047,0.039,0.072,-1.052,1.053
2024-10-01 08:19:46.322,22801.251,0.033,0.864,-0.502,-0.002,0.002,0.003,0.049,-0.005,0.005,0.066,-1.044,1.054
2024-10-01 08:19:46.442,22801.37,0.033,0.857,-0.514,0.007,-0.023,0.002,0.011,0.011,-0.012,0.063,-1.03,1.054
2024-10-01 08:19:46.561,22801.49,0.029,0.849,-0.528,-0.007,0.021,-0.005,0.049,-0.004,0.003,0.055,-1.014,1.047
2024-10-01 08:19:46.681,22801.61,0.032,0.853,-0.521,0.009,-0.019,0.007,-0.062,0.02,-0.01,0.061,-1.021,1.049
2024-10-01 08:19:46.801,22801.73,0.029,0.861,-0.508,0.01,0.013,0.021,0.292,-0.093,0.014,0.057,-1.037,1.044
2024-10-01 08:19:46.921,22801.85,0.029,0.851,-0.524,-0.006,-0.082,0.001,0.056,0.045,-0.006,0.056,-1.018,1.045
2024-10-01 08:19:47.041,22801.969,0.032,0.864,-0.503,-0.009,-0.05,-0.04,-0.754,0.218,-0.053,0.064,-1.043,1.046
2024-10-01 08:19:47.160,22802.089,0.061,0.908,-0.414,0.075,0.034,0.027,0.748,-0.286,0.008,0.147,-1.139,1.083
2024-10-01 08:19:47.280,22802.209,0.043,0.896,-0.443,-0.005,0.064,0.035,0.468,-0.09,0.01,0.098,-1.11,1.046
2024-10-01 08:19:47.400,22802.329,0.044,0.891,-0.452,-0.005,-0.018,-0.001,0.006,0.006,0.008,0.097,-1.099,1.045
2024-10-01 08:19:47.520,22802.449,0.044,0.892,-0.45,0.0,0.0,0.002,0.001,0.001,-0.01,0.097,-1.102,1.045
2024-10-01 08:19:47.640,22802.568,0.042,0.884,-0.465,0.012,-0.098,-0.002,-0.13,0.008,0.034,0.09,-1.085,1.039
2024-10-01 08:19:47.760,22802.688,0.041,0.888,-0.459,0.004,-0.028,-0.011,-0.11,-0.006,-0.046,0.088,-1.092,1.035
2024-10-01 08:19:47.879,22802.808,0.039,0.882,-0.47,-0.008,-0.022,-0.016,-0.156,0.054,-0.002,0.082,-1.079,1.032
2024-10-01 08:19:47.999,22802.928,0.039,0.89,-0.455,0.002,0.03,-0.0,-0.241,0.015,-0.012,0.086,-1.097,1.033
2024-10-01 08:19:48.119,22803.048,0.039,0.886,-0.463,-0.012,-0.044,-0.038,0.014,-0.017,-0.025,0.083,-1.088,1.032
2024-10-01 08:19:48.239,22803.167,0.039,0.894,-0.447,0.0,-0.053,-0.009,0.014,-0.015,-0.028,0.088,-1.106,1.033
2024-10-01 08:19:48.358,22803.287,0.038,0.881,-0.471,-0.027,0.055,-0.012,-0.052,0.06,-0.02,0.08,-1.079,1.03
2024-10-01 08:19:48.478,22803.407,0.041,0.901,-0.431,0.008,0.079,0.036,0.204,-0.047,0.032,0.095,-1.123,1.039
2024-10-01 08:19:48.598,22803.527,0.04,0.891,-0.453,0.034,0.005,0.045,0.206,-0.029,0.074,0.088,-1.099,1.036
2024-10-01 08:19:48.718,22803.646,0.04,0.889,-0.457,-0.006,0.001,-0.007,-0.024,-0.001,0.0,0.088,-1.094,1.036
2024-10-01 08:19:48.838,22803.766,0.042,0.89,-0.454,0.002,-0.02,0.005,0.057,-0.008,-0.018,0.092,-1.097,1.04
2024-10-01 08:19:48.957,22803.886,0.038,0.894,-0.446,-0.01,0.017,0.013,0.279,-0.012,0.004,0.085,-1.107,1.031
2024-10-01 08:19:49.077,22804.006,0.035,0.884,-0.465,-0.002,-0.224,-0.023,0.03,-0.018,-0.025,0.074,-1.085,1.022
2024-10-01 08:19:49.197,22804.126,0.04,0.916,-0.4,-0.004,0.072,-0.007,-1.138,0.066,0.134,0.099,-1.157,1.041
2024-10-01 08:19:49.317,22804.245,0.068,0.902,-0.427,-0.115,0.049,0.061,0.901,-0.043,0.036,0.158,-1.124,1.094
2024-10-01 08:19:49.436,22804.365,0.048,0.862,-0.505,0.02,0.01,0.006,0.496,0.07,-0.184,0.094,-1.039,1.036
2024-10-01 08:19:49.557,22804.485,0.036,0.838,-0.544,0.047,-0.085,-0.023,0.175,0.003,-0.05,0.066,-0.994,1.005
2024-10-01 08:19:49.676,22804.605,0.022,0.86,-0.51,-0.007,-0.023,-0.013,-0.625,-0.022,-0.179,0.042,-1.035,0.976
2024-10-01 08:19:49.796,22804.725,0.021,0.867,-0.498,0.018,-0.008,0.033,0.14,-0.054,0.156,0.042,-1.05,0.981
2024-10-01 08:19:49.916,22804.844,0.022,0.87,-0.492,0.005,0.011,0.021,0.166,-0.06,0.046,0.045,-1.056,0.986
2024-10-01 08:19:50.035,22804.964,0.017,0.866,-0.499,-0.007,0.028,0.003,-0.056,0.026,-0.018,0.034,-1.048,0.978
2024-10-01 08:19:50.155,22805.084,0.015,0.862,-0.506,-0.002,-0.031,0.001,-0.042,0.039,-0.01,0.03,-1.04,0.974
2024-10-01 08:19:50.275,22805.204,0.013,0.852,-0.524,-0.001,0.091,0.035,-0.103,-0.079,0.13,0.025,-1.019,0.968
2024-10-01 08:19:50.395,22805.324,0.018,0.862,-0.507,0.002,0.025,-0.008,-0.087,0.039,-0.019,0.036,-1.038,0.975
2024-10-01 08:19:50.515,22805.443,0.013,0.858,-0.513,0.002,0.046,0.03,0.462,-0.112,0.018,0.025,-1.032,0.965
2024-10-01 08:19:50.635,22805.563,0.016,0.857,-0.515,-0.004,0.0,-0.007,-0.072,0.035,0.022,0.031,-1.03,0.972
2024-10-01 08:19:50.754,22805.683,0.027,0.908,-0.418,-0.058,-0.115,-0.102,-2.515,0.502,0.074,0.063,-1.139,0.983
2024-10-01 08:19:50.874,22805.803,0.036,0.918,-0.396,0.005,-0.013,-0.02,-0.087,-0.066,-0.05,0.09,-1.162,0.993
2024-10-01 08:19:50.994,22805.923,0.029,0.91,-0.414,-0.009,-0.042,-0.019,-0.003,0.024,-0.001,0.069,-1.143,0.977
2024-10-01 08:19:51.114,22806.042,0.028,0.907,-0.421,0.004,-0.008,0.005,0.081,-0.001,0.016,0.066,-1.135,0.975
2024-10-01 08:19:51.234,22806.162,0.025,0.899,-0.436,0.006,0.053,0.035,0.71,-0.114,-0.066,0.056,-1.119,0.964
2024-10-01 08:19:51.353,22806.282,0.022,0.898,-0.439,-0.004,0.008,0.003,0.122,-0.018,-0.023,0.05,-1.116,0.96
2024-10-01 08:19:51.473,22806.402,0.017,0.893,-0.449,-0.003,0.016,0.013,0.204,-0.036,-0.009,0.037,-1.105,0.95
2024-10-01 08:19:51.593,22806.522,0.018,0.895,-0.445,0.001,-0.006,0.008,0.006,-0.004,-0.022,0.041,-1.109,0.952
2024-10-01 08:19:51.713,22806.641,0.017,0.895,-0.447,0.004,0.03,0.022,0.55,-0.083,0.002,0.038,-1.107,0.949
2024-10-01 08:19:51.833,22806.761,0.017,0.899,-0.437,0.003,0.029,0.023,-0.139,0.012,0.043,0.04,-1.118,0.951
2024-10-01 08:19:51.953,22806.881,0.016,0.892,-0.452,-0.009,0.109,0.037,0.362,-0.013,0.032,0.036,-1.101,0.951
2024-10-01 08:19:52.072,22807.001,0.022,0.905,-0.424,-0.011,-0.068,-0.036,-0.495,0.056,-0.004,0.051,-1.132,0.96
2024-10-01 08:19:52.192,22807.12,0.021,0.899,-0.438,-0.035,-0.161,-0.098,-0.133,0.031,-0.09,0.048,-1.117,0.959
2024-10-01 08:19:52.312,22807.24,0.022,0.897,-0.442,-0.006,-0.005,-0.006,0.038,-0.003,-0.009,0.049,-1.112,0.962
2024-10-01 08:19:52.432,22807.36,0.023,0.899,-0.437,-0.004,0.018,0.021,-0.047,0.013,0.039,0.052,-1.117,0.965
2024-10-01 08:19:52.550,22807.48,0.019,0.904,-0.428,0.002,0.068,0.03,0.126,-0.015,-0.011,0.044,-1.128,0.956
2024-10-01 08:19:52.671,22807.6,0.016,0.895,-0.446,-0.042,-0.154,-0.097,-0.192,0.04,-0.088,0.035,-1.108,0.949
2024-10-01 08:19:52.791,22807.719,0.022,0.907,-0.42,-0.012,-0.101,-0.04,-0.63,0.072,0.053,0.051,-1.137,0.964
2024-10-01 08:19:52.910,22807.839,0.055,0.906,-0.42,-0.088,0.029,0.054,0.743,0.014,0.171,0.129,-1.133,1.031
2024-10-01 08:19:53.030,22807.959,0.049,0.862,-0.504,-0.028,0.0,0.006,0.511,-0.539,-0.275,0.098,-1.04,1.009
2024-10-01 08:19:53.150,22808.079,0.039,0.843,-0.536,-0.035,0.033,-0.011,0.481,0.049,-0.128,0.072,-1.004,0.981
2024-10-01 08:19:53.270,22808.199,0.026,0.848,-0.529,-0.013,0.003,-0.006,-0.357,0.033,-0.031,0.049,-1.012,0.956
2024-10-01 08:19:53.390,22808.318,0.028,0.86,-0.509,0.007,0.021,0.031,0.114,-0.003,0.003,0.056,-1.036,0.958
2024-10-01 08:19:53.510,22808.438,0.025,0.865,-0.501,-0.016,-0.014,-0.008,-0.051,-0.03,0.035,0.051,-1.045,0.956
2024-10-01 08:19:53.629,22808.558,0.022,0.858,-0.513,-0.029,-0.043,-0.017,-0.042,-0.019,-0.043,0.042,-1.032,0.957
2024-10-01 08:19:53.749,22808.678,0.022,0.852,-0.523,-0.005,0.01,0.003,0.105,-0.008,0.015,0.041,-1.019,0.957
2024-10-01 08:19:53.869,22808.798,0.021,0.855,-0.519,0.0,-0.017,0.001,-0.045,0.007,-0.042,0.04,-1.025,0.955
2024-10-01 08:19:53.989,22808.917,0.019,0.851,-0.526,0.029,0.06,0.031,-0.009,0.011,0.059,0.035,-1.017,0.95
2024-10-01 08:19:54.108,22809.037,0.022,0.856,-0.516,-0.001,-0.024,-0.008,-0.171,0.007,-0.026,0.042,-1.028,0.956
2024-10-01 08:19:54.229,22809.157,0.015,0.85,-0.527,-0.015,0.038,-0.025,-0.309,0.097,0.013,0.029,-1.016,0.948
2024-10-01 08:19:54.348,22809.277,0.018,0.853,-0.521,0.003,-0.025,0.01,-0.078,-0.012,-0.023,0.034,-1.022,0.954
2024-10-01 08:19:54.468,22809.397,0.024,0.896,-0.444,-0.042,-0.018,-0.054,-1.691,0.419,0.089,0.054,-1.11,0.96
2024-10-01 08:19:54.588,22809.516,0.032,0.916,-0.399,0.001,-0.041,0.008,-0.169,0.024,-0.096,0.081,-1.159,0.962
2024-10-01 08:19:54.708,22809.636,0.026,0.908,-0.419,-0.008,-0.035,-0.017,-0.027,-0.006,-0.031,0.063,-1.138,0.949
2024-10-01 08:19:54.827,22809.756,0.025,0.907,-0.421,-0.004,0.016,0.006,0.073,-0.051,0.002,0.058,-1.135,0.947
2024-10-01 08:19:54.947,22809.876,0.021,0.892,-0.451,-0.012,-0.151,-0.07,-0.242,0.032,-0.046,0.047,-1.102,0.937
2024-10-01 08:19:55.067,22809.996,0.02,0.895,-0.447,-0.002,0.007,0.006,0.024,-0.014,-0.041,0.044,-1.107,0.934
2024-10-01 08:19:55.187,22810.115,0.017,0.888,-0.46,-0.007,-0.001,-0.018,-0.136,0.034,-0.001,0.036,-1.093,0.929
2024-10-01 08:19:55.307,22810.235,0.018,0.895,-0.446,0.001,-0.052,-0.028,-0.525,-0.007,-0.013,0.041,-1.108,0.93
2024-10-01 08:19:55.426,22810.355,0.014,0.889,-0.457,-0.001,-0.209,-0.031,0.028,-0.005,-0.006,0.031,-1.096,0.924
2024-10-01 08:19:55.546,22810.475,0.015,0.897,-0.442,0.007,0.046,0.041,0.391,-0.078,0.041,0.034,-1.112,0.927
2024-10-01 08:19:55.666,22810.594,0.014,0.888,-0.46,-0.011,-0.067,-0.027,-0.336,0.074,0.005,0.031,-1.092,0.926
2024-10-01 08:19:55.786,22810.714,0.017,0.896,-0.444,-0.005,-0.001,0.017,0.402,-0.041,0.061,0.039,-1.11,0.934
2024-10-01 08:19:55.905,22810.834,0.02,0.895,-0.445,-0.001,0.01,0.001,0.073,-0.022,-0.02,0.045,-1.109,0.94
2024-10-01 08:19:56.025,22810.954,0.019,0.895,-0.445,-0.011,-0.033,-0.015,-0.143,0.025,0.008,0.044,-1.109,0.938
2024-10-01 08:19:56.145,22811.074,0.018,0.899,-0.437,-0.006,-0.038,-0.034,-0.243,-0.005,-0.05,0.041,-1.118,0.935
2024-10-01 08:19:56.265,22811.193,0.014,0.888,-0.46,0.005,0.058,0.042,0.801,-0.046,-0.055,0.03,-1.093,0.928
2024-10-01 08:19:56.384,22811.313,0.016,0.888,-0.46,0.01,0.029,0.01,-0.192,-0.009,-0.006,0.035,-1.093,0.93
2024-10-01 08:19:56.504,22811.433,0.023,0.923,-0.384,0.007,0.049,0.023,-0.242,0.076,0.097,0.059,-1.176,0.949
2024-10-01 08:19:56.624,22811.553,0.036,0.929,-0.369,-0.004,0.003,-0.001,-0.227,-0.079,0.061,0.097,-1.191,0.984
2024-10-01 08:19:56.744,22811.673,0.039,0.925,-0.377,-0.002,-0.012,-0.002,-0.03,0.011,0.008,0.104,-1.182,0.992
2024-10-01 08:19:56.864,22811.792,0.032,0.936,-0.35,-0.002,0.001,-0.047,-0.743,0.145,-0.31,0.091,-1.212,0.973
2024-10-01 08:19:56.984,22811.912,0.083,0.946,-0.312,-0.017,0.054,0.144,-0.165,0.159,0.405,0.259,-1.242,1.114
2024-10-01 08:19:57.104,22812.032,0.123,0.915,-0.384,-0.15,-0.213,0.099,0.78,-0.84,-0.095,0.309,-1.155,1.212
2024-10-01 08:19:57.223,22812.152,0.118,0.876,-0.468,-0.014,-0.089,0.091,0.313,-0.238,0.078,0.247,-1.067,1.189
2024-10-01 08:19:57.343,22812.272,0.1,0.868,-0.487,-0.065,0.002,-0.013,0.241,-0.13,-0.088,0.202,-1.051,1.162
2024-10-01 08:19:57.463,22812.391,0.094,0.862,-0.499,-0.009,-0.063,0.039,-0.138,0.085,0.001,0.186,-1.038,1.151
2024-10-01 08:19:57.582,22812.511,0.076,0.855,-0.514,-0.01,0.11,0.039,0.084,-0.311,-0.181,0.147,-1.025,1.119
2024-10-01 08:19:57.702,22812.631,0.041,0.845,-0.533,-0.01,0.002,0.029,0.507,-0.108,0.019,0.076,-1.007,1.092
2024-10-01 08:19:57.822,22812.751,0.043,0.816,-0.576,-0.004,0.009,0.006,0.227,-0.138,-0.124,0.075,-0.954,1.112
2024-10-01 08:19:57.942,22812.871,0.012,0.845,-0.534,-0.004,0.064,0.057,-0.312,0.015,-0.112,0.023,-1.007,1.049
2024-10-01 08:19:58.062,22812.99,0.006,0.856,-0.517,0.009,0.002,0.004,-0.054,0.007,-0.047,0.011,-1.027,1.028
2024-10-01 08:19:58.182,22813.11,0.029,0.823,-0.567,-0.004,0.003,0.14,-1.358,-0.463,0.13,0.051,-0.967,1.103
2024-10-01 08:19:58.301,22813.23,-0.005,0.847,-0.531,-0.022,-0.038,-0.089,-0.372,0.008,-0.214,-0.01,-1.011,1.068
2024-10-01 08:19:58.421,22813.35,-0.009,0.832,-0.555,0.005,-0.044,-0.004,0.132,-0.002,-0.031,-0.016,-0.983,1.069
2024-10-01 08:19:58.541,22813.47,-0.012,0.814,-0.58,-0.01,0.013,0.01,0.352,-0.009,-0.015,-0.021,-0.952,1.061
2024-10-01 08:19:58.661,22813.589,-0.012,0.814,-0.581,-0.009,0.016,0.009,0.03,0.021,0.002,-0.02,-0.951,1.06
2024-10-01 08:19:58.780,22813.709,-0.013,0.814,-0.581,-0.006,-0.004,0.001,0.016,0.015,-0.049,-0.022,-0.95,1.056
2024-10-01 08:19:58.900,22813.829,-0.016,0.802,-0.597,0.004,-0.093,-0.002,-0.413,0.061,-0.046,-0.026,-0.931,1.053
2024-10-01 08:19:59.020,22813.949,-0.014,0.811,-0.585,-0.004,0.061,0.02,0.56,-0.216,0.133,-0.024,-0.946,1.056
2024-10-01 08:19:59.140,22814.068,-0.015,0.811,-0.585,-0.011,-0.017,-0.009,-0.121,0.018,-0.004,-0.025,-0.945,1.056
2024-10-01 08:19:59.260,22814.188,-0.014,0.811,-0.585,-0.003,-0.024,-0.007,0.038,-0.003,-0.018,-0.023,-0.946,1.057
2024-10-01 08:19:59.379,22814.308,-0.012,0.811,-0.585,-0.002,0.052,0.01,0.024,0.003,0.046,-0.021,-0.945,1.06
2024-10-01 08:19:59.499,22814.428,-0.011,0.818,-0.575,-0.014,-0.083,-0.012,-0.404,0.041,-0.0,-0.019,-0.958,1.056
2024-10-01 08:19:59.619,22814.548,0.021,0.897,-0.441,-0.004,0.057,-0.035,-1.454,0.89,0.193,0.047,-1.114,1.075
2024-10-01 08:19:59.739,22814.667,0.064,0.897,-0.438,0.048,0.028,0.055,0.593,0.22,0.169,0.144,-1.112,1.121
2024-10-01 08:19:59.859,22814.787,0.062,0.881,-0.469,0.015,0.012,0.016,0.332,-0.1,-0.08,0.133,-1.078,1.105
2024-10-01 08:19:59.978,22814.907,0.046,0.881,-0.471,0.023,0.055,0.031,0.338,-0.28,-0.126,0.098,-1.078,1.075
2024-10-01 08:20:00.097,22815.027,0.03,0.885,-0.464,-0.004,0.004,0.003,-0.206,-0.012,-0.042,0.065,-1.087,1.053
2024-10-01 08:20:00.218,22815.147,0.028,0.877,-0.48,-0.02,-0.051,-0.028,-0.195,0.017,-0.02,0.059,-1.069,1.053
2024-10-01 08:20:00.338,22815.266,0.022,0.876,-0.483,0.008,-0.003,0.003,0.05,-0.047,-0.007,0.046,-1.066,1.045
2024-10-01 08:20:00.457,22815.386,0.019,0.87,-0.492,-0.001,-0.0,-0.006,0.108,-0.059,-0.016,0.039,-1.056,1.041
2024-10-01 08:20:00.577,22815.506,0.017,0.87,-0.492,-0.002,0.016,0.017,0.04,-0.004,0.021,0.035,-1.056,1.041
2024-10-01 08:20:00.697,22815.626,0.016,0.871,-0.491,-0.004,0.007,0.014,0.229,-0.012,0.008,0.033,-1.058,1.039
2024-10-01 08:20:00.817,22815.746,0.016,0.866,-0.499,0.0,-0.017,0.014,0.095,0.008,-0.012,0.031,-1.048,1.041
2024-10-01 08:20:00.937,22815.865,0.014,0.863,-0.506,-0.012,-0.023,-0.004,-0.003,0.011,0.007,0.027,-1.041,1.04
2024-10-01 08:20:01.057,22815.985,0.012,0.867,-0.498,0.006,0.048,0.032,0.283,-0.072,0.056,0.025,-1.05,1.037
2024-10-01 08:20:01.176,22816.105,0.014,0.867,-0.498,-0.003,-0.089,-0.004,-0.074,0.029,-0.0,0.027,-1.05,1.039
2024-10-01 08:20:01.296,22816.225,0.012,0.864,-0.503,0.001,0.023,0.016,-0.026,-0.009,0.043,0.024,-1.043,1.039
2024-10-01 08:20:01.416,22816.345,0.014,0.872,-0.49,-0.0,0.017,0.005,-0.265,0.023,-0.021,0.029,-1.059,1.041
2024-10-01 08:20:01.536,22816.464,0.014,0.87,-0.492,-0.018,-0.051,-0.047,-0.047,0.023,-0.06,0.029,-1.056,1.044
2024-10-01 08:20:01.655,22816.584,0.013,0.865,-0.501,-0.002,0.009,0.009,0.105,-0.067,-0.017,0.026,-1.046,1.042
2024-10-01 08:20:01.775,22816.704,0.014,0.878,-0.478,-0.021,-0.047,-0.041,-0.712,0.208,-0.014,0.029,-1.072,1.042
2024-10-01 08:20:01.895,22816.824,0.017,0.885,-0.465,-0.005,-0.009,-0.005,0.075,-0.012,0.007,0.036,-1.087,1.043
2024-10-01 08:20:02.015,22816.944,0.018,0.881,-0.473,-0.004,0.006,0.009,0.089,-0.004,0.021,0.039,-1.078,1.047
2024-10-01 08:20:02.135,22817.063,0.019,0.878,-0.479,-0.005,0.008,0.008,0.05,-0.001,0.016,0.04,-1.071,1.049
2024-10-01 08:20:02.254,22817.183,0.019,0.878,-0.479,-0.004,-0.005,-0.002,-0.011,0.001,0.0,0.04,-1.071,1.05
2024-10-01 08:20:02.373,22817.303,0.02,0.879,-0.476,-0.003,-0.008,0.002,-0.021,0.009,-0.002,0.042,-1.074,1.05
2024-10-01 08:20:02.494,22817.423,0.019,0.883,-0.469,-0.001,-0.023,-0.008,-0.145,0.056,-0.024,0.042,-1.082,1.049
2024-10-01 08:20:02.614,22817.542,0.025,0.884,-0.467,-0.001,-0.011,-0.003,0.045,-0.023,0.037,0.053,-1.084,1.06
2024-10-01 08:20:02.734,22817.662,0.03,0.878,-0.477,-0.003,-0.017,-0.005,0.042,0.024,0.018,0.063,-1.072,1.072
2024-10-01 08:20:02.854,22817.782,0.038,0.876,-0.481,-0.004,0.058,0.024,0.24,-0.044,0.175,0.079,-1.067,1.088
2024-10-01 08:20:02.972,22817.902,0.054,0.868,-0.494,-0.004,-0.003,0.001,0.102,-0.043,0.147,0.11,-1.05,1.128
2024-10-01 08:20:03.093,22818.022,0.063,0.866,-0.497,-0.011,-0.0,0.02,-0.075,-0.074,0.092,0.126,-1.046,1.154
2024-10-01 08:20:03.213,22818.141,0.07,0.861,-0.504,-0.011,-0.024,-0.017,0.117,0.027,-0.017,0.139,-1.037,1.166
2024-10-01 08:20:03.333,22818.261,0.068,0.863,-0.501,-0.004,0.011,0.013,-0.008,0.03,-0.033,0.134,-1.04,1.158
2024-10-01 08:20:03.452,22818.381,0.071,0.859,-0.507,-0.001,-0.018,-0.001,-0.018,0.001,0.022,0.139,-1.033,1.161
2024-10-01 08:20:03.572,22818.501,0.071,0.858,-0.508,-0.002,-0.003,-0.005,0.052,0.089,-0.022,0.14,-1.032,1.16
2024-10-01 08:20:03.692,22818.621,0.081,0.854,-0.514,-0.006,-0.004,-0.003,0.099,0.127,0.045,0.156,-1.024,1.161
2024-10-01 08:20:03.812,22818.74,0.091,0.848,-0.522,0.001,-0.013,0.002,0.032,0.126,-0.005,0.173,-1.012,1.167
2024-10-01 08:20:03.932,22818.86,0.093,0.847,-0.524,-0.001,0.003,0.007,0.041,0.017,0.022,0.176,-1.01,1.164
2024-10-01 08:20:04.051,22818.98,0.096,0.845,-0.526,0.0,-0.009,-0.001,0.005,0.005,0.005,0.181,-1.007,1.167
2024-10-01 08:20:04.171,22819.1,0.095,0.848,-0.521,0.003,0.003,0.003,-0.151,0.003,0.019,0.181,-1.013,1.173
2024-10-01 08:20:04.291,22819.22,0.131,0.858,-0.497,-0.021,0.102,0.023,-0.372,0.075,0.408,0.258,-1.031,1.216
2024-10-01 08:20:04.411,22819.339,0.206,0.83,-0.519,-0.329,0.202,0.02,0.474,-0.046,0.679,0.378,-0.978,1.383
2024-10-01 08:20:04.530,22819.459,0.261,0.796,-0.546,-0.32,-0.043,0.028,0.292,0.602,-0.125,0.447,-0.921,1.409
2024-10-01 08:20:04.651,22819.579,0.28,0.791,-0.544,-0.065,-0.096,0.003,0.288,0.915,-0.684,0.476,-0.912,1.33
2024-10-01 08:20:04.770,22819.699,0.261,0.806,-0.531,0.028,-0.056,0.047,0.435,1.143,-0.961,0.457,-0.937,1.151
2024-10-01 08:20:04.890,22819.819,0.252,0.823,-0.51,0.102,-0.09,0.021,0.005,1.372,-0.882,0.459,-0.966,0.965
2024-10-01 08:20:05.010,22819.938,0.236,0.851,-0.469,0.163,-0.078,-0.007,0.008,1.13,-0.899,0.467,-1.018,0.787
2024-10-01 08:20:05.129,22820.058,0.204,0.861,-0.465,0.055,-0.107,-0.032,0.352,1.05,-0.931,0.414,-1.038,0.585
2024-10-01 08:20:05.249,22820.178,0.157,0.869,-0.47,0.093,0.046,-0.062,0.366,0.963,-1.064,0.322,-1.053,0.33
2024-10-01 08:20:05.369,22820.298,0.108,0.865,-0.49,-0.039,0.212,-0.02,0.273,0.759,-0.813,0.218,-1.045,0.093
2024-10-01 08:20:05.489,22820.417,0.084,0.869,-0.487,-0.108,0.248,-0.128,-0.192,0.952,-0.601,0.172,-1.054,-0.072
2024-10-01 08:20:05.609,22820.537,0.092,0.878,-0.471,0.039,0.034,-0.062,-0.073,1.162,-0.34,0.193,-1.071,-0.192
2024-10-01 08:20:05.728,22820.657,0.136,0.886,-0.443,0.041,0.005,-0.003,-0.102,0.644,0.103,0.298,-1.089,-0.203
2024-10-01 08:20:05.848,22820.777,0.173,0.893,-0.416,0.012,-0.108,-0.112,-0.228,0.022,0.201,0.394,-1.104,-0.134
2024-10-01 08:20:05.968,22820.897,0.168,0.901,-0.4,0.077,-0.161,0.157,-0.039,-0.083,-0.228,0.398,-1.122,-0.103
2024-10-01 08:20:06.088,22821.016,0.137,0.921,-0.365,0.095,-0.088,0.119,-0.15,0.064,-0.278,0.36,-1.17,-0.136
2024-10-01 08:20:06.208,22821.136,0.108,0.929,-0.354,0.188,-0.01,-0.027,-0.157,-0.093,-0.025,0.297,-1.191,-0.2
2024-10-01 08:20:06.328,22821.256,0.114,0.916,-0.383,0.054,0.003,-0.068,0.485,-0.07,0.141,0.289,-1.159,-0.184
2024-10-01 08:20:06.448,22821.376,0.119,0.892,-0.435,-0.087,0.007,0.032,0.365,0.576,-0.064,0.267,-1.103,-0.227
2024-10-01 08:20:06.567,22821.496,0.182,0.861,-0.475,-0.012,-0.164,-0.05,1.108,0.331,0.08,0.366,-1.037,-0.182
2024-10-01 08:20:06.687,22821.615,0.183,0.851,-0.492,0.159,-0.052,0.007,-0.192,0.299,0.05,0.356,-1.018,-0.215
2024-10-01 08:20:06.807,22821.735,0.234,0.851,-0.47,0.263,-0.208,0.046,-0.023,-0.782,1.244,0.463,-1.018,-0.066
2024-10-01 08:20:06.926,22821.855,0.247,0.828,-0.504,-0.002,0.119,0.171,-0.785,-0.13,0.236,0.455,-0.975,0.024
2024-10-01 08:20:07.046,22821.975,0.253,0.85,-0.462,-0.071,0.177,-0.077,0.494,-0.023,0.112,0.502,-1.016,0.117
2024-10-01 08:20:07.166,22822.095,0.288,0.816,-0.502,-0.219,-0.082,0.083,1.091,0.183,-0.033,0.521,-0.954,0.132
2024-10-01 08:20:07.286,22822.214,0.262,0.824,-0.503,-0.001,0.079,-0.071,-0.039,0.486,-0.72,0.481,-0.968,0.028
2024-10-01 08:20:07.406,22822.334,0.28,0.816,-0.506,0.185,-0.061,-0.02,0.693,0.462,0.324,0.506,-0.954,-0.024
2024-10-01 08:20:07.525,22822.454,0.325,0.77,-0.549,0.008,0.082,0.146,0.761,0.036,0.016,0.535,-0.879,-0.02
2024-10-01 08:20:07.645,22822.574,0.315,0.767,-0.56,-0.128,0.113,0.021,0.47,0.309,-0.366,0.512,-0.874,-0.072
2024-10-01 08:20:07.765,22822.694,0.299,0.759,-0.578,-0.259,0.054,0.027,0.798,1.236,-1.358,0.476,-0.862,-0.242
2024-10-01 08:20:07.885,22822.813,0.208,0.756,-0.621,-0.206,0.123,0.084,0.845,1.425,-2.818,0.324,-0.857,-0.674
2024-10-01 08:20:08.005,22822.933,0.058,0.784,-0.619,-0.173,0.153,-0.057,-0.155,1.147,-2.165,0.093,-0.9,-1.183
2024-10-01 08:20:08.124,22823.053,-0.034,0.757,-0.653,-0.03,-0.059,-0.125,0.269,0.998,-1.373,-0.052,-0.858,-1.515
2024-10-01 08:20:08.244,22823.173,-0.041,0.759,-0.65,-0.114,-0.203,0.053,-0.381,0.899,-0.63,-0.064,-0.861,-1.69
2024-10-01 08:20:08.364,22823.293,-0.026,0.781,-0.624,-0.218,-0.049,-0.181,-0.301,1.09,-0.46,-0.041,-0.897,-1.794
2024-10-01 08:20:08.484,22823.412,0.043,0.796,-0.604,-0.115,-0.229,-0.14,-0.018,1.619,-0.386,0.071,-0.921,-1.873
2024-10-01 08:20:08.604,22823.532,0.116,0.825,-0.553,-0.106,-0.063,-0.057,-0.391,1.413,-0.059,0.206,-0.97,-1.924
2024-10-01 08:20:08.723,22823.652,0.249,0.834,-0.492,-0.104,-0.026,-0.266,0.401,2.202,0.295,0.468,-0.986,-1.871
2024-10-01 08:20:08.843,22823.772,0.33,0.819,-0.469,-0.101,0.018,-0.031,-0.368,1.192,-0.869,0.613,-0.96,-1.962
2024-10-01 08:20:08.963,22823.891,0.293,0.829,-0.477,-0.003,0.097,0.262,0.578,0.869,-0.98,0.551,-0.977,-2.167
2024-10-01 08:20:09.083,22824.011,0.281,0.829,-0.483,-0.107,0.111,0.101,0.581,1.35,-0.623,0.527,-0.977,-2.354
2024-10-01 08:20:09.202,22824.131,0.274,0.831,-0.483,-0.029,-0.14,-0.005,0.303,1.199,-1.055,0.516,-0.981,-2.558
2024-10-01 08:20:09.322,22824.251,0.233,0.826,-0.514,0.028,0.04,-0.003,0.959,1.198,-1.008,0.425,-0.971,-2.833
2024-10-01 08:20:09.442,22824.371,0.203,0.827,-0.524,-0.036,-0.042,0.089,0.106,1.384,-1.277,0.37,-0.974,-3.101
2024-10-01 08:20:09.562,22824.49,0.154,0.852,-0.501,0.002,0.08,-0.089,0.082,0.957,-0.889,0.299,-1.019,2.93
2024-10-01 08:20:09.681,22824.61,0.149,0.877,-0.457,0.073,-0.212,-0.007,-0.186,1.079,-0.222,0.316,-1.069,2.802
2024-10-01 08:20:09.802,22824.73,0.167,0.89,-0.424,0.155,0.142,0.104,0.144,0.04,-0.277,0.375,-1.098,2.777
2024-10-01 08:20:09.921,22824.85,0.132,0.9,-0.416,0.002,0.207,-0.213,-0.057,-0.447,-0.01,0.307,-1.119,2.74
2024-10-01 08:20:10.041,22824.97,0.101,0.896,-0.433,-0.285,-0.045,-0.116,1.627,0.153,-0.381,0.229,-1.11,2.673
2024-10-01 08:20:10.161,22825.089,0.091,0.889,-0.449,-0.266,0.307,0.01,-0.032,1.259,-1.128,0.2,-1.095,2.499
2024-10-01 08:20:10.280,22825.209,0.024,0.929,-0.369,0.029,-0.002,-0.13,0.019,0.985,-0.821,0.066,-1.192,2.195
2024-10-01 08:20:10.401,22825.329,0.033,0.953,-0.3,0.183,-0.245,0.072,-1.215,0.433,0.373,0.11,-1.264,2.126
2024-10-01 08:20:10.520,22825.449,0.09,0.98,-0.179,-0.206,0.63,-0.065,-0.761,0.81,0.137,0.467,-1.369,2.441
2024-10-01 08:20:10.640,22825.569,0.133,0.976,-0.174,-0.293,-0.153,-0.169,-0.582,2.721,0.001,0.652,-1.35,2.412
2024-10-01 08:20:10.760,22825.688,0.186,0.968,-0.168,-0.174,-0.089,0.112,1.028,2.398,0.103,0.837,-1.317,2.28
2024-10-01 08:20:10.879,22825.808,0.258,0.93,-0.263,-0.142,-0.126,0.264,1.25,2.282,0.071,0.775,-1.193,1.904
2024-10-01 08:20:10.999,22825.928,0.308,0.902,-0.302,-0.113,-0.071,0.132,1.396,1.813,-0.264,0.795,-1.124,1.656
2024-10-01 08:20:11.119,22826.048,0.355,0.876,-0.328,-0.029,-0.002,-0.066,0.693,1.045,0.167,0.825,-1.067,1.496
2024-10-01 08:20:11.239,22826.168,0.416,0.806,-0.421,0.103,0.163,0.031,1.151,0.608,0.434,0.78,-0.938,1.349
2024-10-01 08:20:11.359,22826.287,0.503,0.672,-0.544,0.08,0.121,0.078,1.282,-0.112,1.026,0.746,-0.737,1.273
2024-10-01 08:20:11.479,22826.407,0.564,0.554,-0.612,0.023,0.259,0.215,1.135,-0.301,0.962,0.745,-0.587,1.313
2024-10-01 08:20:11.598,22826.527,0.596,0.42,-0.685,0.188,-0.127,0.069,-0.892,-0.279,0.318,0.716,-0.433,1.333
2024-10-01 08:20:11.718,22826.647,0.518,0.474,-0.712,0.111,-0.147,0.004,0.223,-1.801,0.21,0.629,-0.494,1.403
2024-10-01 08:20:11.838,22826.767,0.395,0.402,-0.826,-0.185,-0.111,0.091,-0.027,-0.711,0.2,0.446,-0.413,1.412
2024-10-01 08:20:11.957,22826.886,0.367,0.434,-0.823,-0.191,0.05,-0.043,0.419,-0.592,-0.185,0.42,-0.449,1.422
2024-10-01 08:20:12.078,22827.006,0.309,0.461,-0.832,-0.058,-0.124,-0.075,-0.158,-0.378,-0.653,0.355,-0.479,1.373
2024-10-01 08:20:12.197,22827.126,0.227,0.505,-0.833,0.025,-0.053,0.002,-0.388,-0.497,-0.692,0.266,-0.53,1.275
2024-10-01 08:20:12.317,22827.246,0.16,0.53,-0.833,-0.005,-0.015,-0.065,0.025,-0.109,-0.31,0.189,-0.559,1.206
2024-10-01 08:20:12.437,22827.365,0.146,0.497,-0.855,-0.056,-0.004,-0.064,0.039,-0.122,-0.115,0.169,-0.52,1.167
2024-10-01 08:20:12.557,22827.485,0.113,0.499,-0.859,0.019,-0.129,0.067,-0.249,0.363,-0.238,0.13,-0.523,1.139
2024-10-01 08:20:12.676,22827.605,0.117,0.508,-0.853,0.067,-0.064,0.111,-0.114,-0.118,0.076,0.137,-0.533,1.14
2024-10-01 08:20:12.796,22827.725,0.094,0.487,-0.869,-0.108,-0.048,-0.071,-0.649,0.02,0.165,0.108,-0.508,1.115
2024-10-01 08:20:12.916,22827.845,0.115,0.486,-0.866,0.01,0.217,-0.125,0.479,-0.103,0.471,0.132,-0.508,1.151
2024-10-01 08:20:13.036,22827.964,0.115,0.43,-0.895,-0.122,-0.155,0.049,-0.284,0.177,-0.261,0.128,-0.445,1.156
2024-10-01 08:20:13.156,22828.084,0.137,0.458,-0.878,0.309,0.008,-0.204,-0.109,0.495,0.262,0.154,-0.476,1.14
2024-10-01 08:20:13.275,22828.204,0.134,0.398,-0.907,-0.506,0.007,0.122,-0.069,-0.299,-0.315,0.147,-0.41,1.124
2024-10-01 08:20:13.395,22828.324,0.137,0.429,-0.893,0.42,-0.174,0.102,-0.138,0.272,0.281,0.153,-0.444,1.13
2024-10-01 08:20:13.515,22828.444,0.14,0.394,-0.908,-0.746,0.155,-0.102,-0.299,-0.388,-0.363,0.153,-0.405,1.112
2024-10-01 08:20:13.635,22828.563,0.126,0.406,-0.905,0.608,-0.348,0.278,0.145,-0.133,-0.139,0.139,-0.418,1.097
2024-10-01 08:20:13.755,22828.683,0.164,0.38,-0.911,-0.644,0.279,-0.177,0.516,-0.247,-0.229,0.178,-0.389,1.121
2024-10-01 08:20:13.874,22828.803,0.128,0.38,-0.916,0.623,-0.147,-0.121,0.597,-0.08,0.292,0.139,-0.389,1.106
2024-10-01 08:20:13.995,22828.923,0.155,0.355,-0.922,-0.195,-0.191,0.089,0.068,0.673,-0.558,0.166,-0.363,1.11
2024-10-01 08:20:14.114,22829.043,0.23,0.412,-0.882,0.104,0.092,0.132,0.041,0.142,-0.54,0.256,-0.425,1.036
2024-10-01 08:20:14.234,22829.162,0.177,0.403,-0.898,-0.124,0.235,-0.12,0.354,0.051,-0.147,0.195,-0.414,0.983
2024-10-01 08:20:14.353,22829.282,0.224,0.366,-0.903,0.004,-0.219,0.085,-0.357,0.37,0.001,0.243,-0.374,0.972
2024-10-01 08:20:14.473,22829.402,0.283,0.648,-0.707,0.001,-0.033,0.095,-4.864,0.09,0.429,0.381,-0.705,1.156
2024-10-01 08:20:14.593,22829.522,0.234,0.848,-0.474,0.16,-0.122,-0.02,-1.186,-1.192,-0.134,0.459,-1.013,1.351
2024-10-01 08:20:14.713,22829.642,0.122,0.88,-0.46,0.02,0.137,-0.163,1.51,-0.857,-0.962,0.26,-1.075,1.259
2024-10-01 08:20:14.833,22829.761,0.008,0.894,-0.448,0.034,-0.004,0.064,-0.136,-0.795,-0.663,0.019,-1.106,1.067
2024-10-01 08:20:14.953,22829.881,-0.097,0.891,-0.443,0.044,-0.12,-0.018,-0.719,-0.743,-0.494,-0.215,-1.101,0.905
2024-10-01 08:20:15.073,22830.001,-0.126,0.867,-0.482,-0.015,-0.005,0.033,0.936,0.143,0.101,-0.256,-1.05,0.87
2024-10-01 08:20:15.192,22830.121,-0.098,0.806,-0.584,-0.07,-0.138,-0.114,0.06,0.26,0.106,-0.167,-0.937,0.943
2024-10-01 08:20:15.311,22830.241,-0.098,0.821,-0.563,0.029,-0.06,-0.035,-0.666,-0.1,0.011,-0.172,-0.963,0.942
2024-10-01 08:20:15.432,22830.36,-0.11,0.828,-0.55,-0.012,0.033,-0.008,-0.088,0.041,-0.014,-0.197,-0.975,0.92
2024-10-01 08:20:15.552,22830.48,-0.11,0.82,-0.561,0.004,0.01,0.013,0.125,0.008,0.05,-0.193,-0.962,0.926
2024-10-01 08:20:15.671,22830.6,-0.111,0.816,-0.567,0.006,-0.022,-0.005,-0.195,-0.044,-0.088,-0.193,-0.955,0.927
2024-10-01 08:20:15.791,22830.72,-0.116,0.819,-0.562,-0.001,-0.041,-0.004,-0.061,0.001,-0.033,-0.204,-0.96,0.916
2024-10-01 08:20:15.911,22830.839,-0.117,0.817,-0.564,0.007,-0.039,-0.007,0.002,0.003,-0.001,-0.204,-0.957,0.916
2024-10-01 08:20:16.031,22830.959,-0.118,0.815,-0.568,-0.002,0.01,0.003,0.167,-0.018,-0.029,-0.204,-0.952,0.916
2024-10-01 08:20:16.151,22831.079,-0.119,0.814,-0.568,-0.009,0.015,0.0,0.058,0.003,-0.0,-0.207,-0.951,0.913
2024-10-01 08:20:16.270,22831.199,-0.12,0.812,-0.571,-0.001,-0.006,0.004,0.0,0.006,-0.008,-0.208,-0.948,0.913
2024-10-01 08:20:16.390,22831.319,-0.119,0.814,-0.568,-0.001,0.005,0.009,0.056,-0.009,0.022,-0.206,-0.951,0.914
2024-10-01 08:20:16.510,22831.438,-0.122,0.818,-0.562,-0.007,0.06,0.026,0.158,0.008,-0.047,-0.213,-0.958,0.909
2024-10-01 08:20:16.630,22831.558,-0.119,0.82,-0.56,-0.018,-0.045,-0.009,0.137,-0.021,0.034,-0.209,-0.961,0.913
2024-10-01 08:20:16.749,22831.678,-0.12,0.82,-0.559,-0.003,0.019,0.033,0.529,0.042,-0.069,-0.211,-0.962,0.91
2024-10-01 08:20:16.869,22831.798,-0.12,0.823,-0.556,-0.01,-0.068,-0.036,-0.674,-0.053,0.061,-0.212,-0.966,0.91
2024-10-01 08:20:16.989,22831.918,-0.099,0.871,-0.481,-0.025,0.096,0.063,0.49,0.207,0.215,-0.203,-1.058,0.919
2024-10-01 08:20:17.109,22832.037,0.004,0.832,-0.555,-0.06,-0.107,0.116,-0.23,0.292,0.414,0.008,-0.982,1.084
2024-10-01 08:20:17.229,22832.157,-0.004,0.828,-0.561,0.102,0.049,-0.057,0.959,-0.15,-0.182,-0.006,-0.975,1.091
2024-10-01 08:20:17.349,22832.277,-0.08,0.816,-0.572,-0.034,-0.022,-0.009,-0.268,-0.429,-0.457,-0.139,-0.955,0.983
2024-10-01 08:20:17.468,22832.397,-0.116,0.822,-0.557,0.001,0.007,0.022,0.332,-0.098,-0.125,-0.204,-0.965,0.933
2024-10-01 08:20:17.588,22832.517,-0.118,0.808,-0.577,0.003,0.027,0.025,0.446,0.042,-0.023,-0.202,-0.941,0.937
2024-10-01 08:20:17.707,22832.636,-0.119,0.8,-0.588,-0.005,-0.01,0.002,0.073,0.011,0.013,-0.199,-0.927,0.94
2024-10-01 08:20:17.828,22832.756,-0.12,0.79,-0.602,0.001,0.042,0.024,0.391,0.008,-0.085,-0.197,-0.91,0.941
2024-10-01 08:20:17.947,22832.876,-0.12,0.804,-0.583,-0.008,0.078,0.037,-0.264,0.05,0.075,-0.203,-0.934,0.935
2024-10-01 08:20:18.067,22832.996,-0.124,0.796,-0.593,-0.005,0.009,-0.015,-0.206,-0.059,-0.017,-0.206,-0.92,0.932
2024-10-01 08:20:18.187,22833.116,-0.122,0.791,-0.599,-0.009,-0.001,-0.01,-0.18,0.021,0.08,-0.2,-0.913,0.938
2024-10-01 08:20:18.307,22833.235,-0.124,0.806,-0.579,-0.003,0.027,0.013,0.174,-0.001,-0.059,-0.211,-0.937,0.93
2024-10-01 08:20:18.427,22833.355,-0.124,0.803,-0.583,-0.006,-0.021,-0.007,-0.016,0.009,0.022,-0.209,-0.932,0.93
2024-10-01 08:20:18.546,22833.475,-0.124,0.803,-0.583,0.001,-0.009,0.0,-0.061,0.0,-0.007,-0.21,-0.932,0.93
2024-10-01 08:20:18.666,22833.595,-0.124,0.792,-0.598,-0.001,0.041,0.016,0.15,0.031,-0.013,-0.205,-0.914,0.934
2024-10-01 08:20:18.786,22833.715,-0.121,0.8,-0.588,-0.002,0.034,0.004,0.039,-0.004,0.017,-0.203,-0.926,0.936
2024-10-01 08:20:18.906,22833.834,-0.122,0.799,-0.589,0.003,0.007,0.009,0.036,-0.008,0.002,-0.204,-0.925,0.936
2024-10-01 08:20:19.026,22833.954,-0.121,0.799,-0.589,0.002,0.006,0.016,0.052,0.018,0.026,-0.203,-0.925,0.938
2024-10-01 08:20:19.145,22834.074,-0.119,0.794,-0.596,-0.002,-0.018,-0.004,0.038,-0.0,-0.003,-0.197,-0.917,0.944
2024-10-01 08:20:19.264,22834.194,-0.117,0.799,-0.589,-0.001,-0.015,-0.016,-0.492,-0.031,0.089,-0.196,-0.926,0.946
2024-10-01 08:20:19.385,22834.313,-0.091,0.846,-0.526,0.001,0.026,0.049,-0.299,0.109,0.033,-0.171,-1.008,0.952
2024-10-01 08:20:19.505,22834.433,-0.083,0.855,-0.512,0.023,0.048,0.056,1.057,-0.127,-0.227,-0.161,-1.025,0.94
2024-10-01 08:20:19.624,22834.553,-0.091,0.843,-0.53,0.004,-0.027,-0.001,-0.098,0.007,-0.053,-0.17,-1.002,0.927
2024-10-01 08:20:19.744,22834.673,-0.093,0.85,-0.518,0.001,-0.006,-0.006,-0.087,-0.036,-0.018,-0.178,-1.016,0.922
2024-10-01 08:20:19.864,22834.793,-0.095,0.832,-0.546,0.002,0.031,0.016,-0.14,0.051,-0.023,-0.172,-0.983,0.924
2024-10-01 08:20:19.984,22834.912,-0.096,0.832,-0.547,-0.013,0.018,0.0,0.04,-0.008,0.012,-0.173,-0.982,0.923
2024-10-01 08:20:20.104,22835.032,-0.097,0.836,-0.54,0.007,0.024,0.011,-0.055,0.009,-0.01,-0.177,-0.991,0.922
2024-10-01 08:20:20.223,22835.152,-0.097,0.834,-0.542,-0.006,0.062,0.03,-0.024,-0.032,0.029,-0.177,-0.987,0.92
2024-10-01 08:20:20.343,22835.272,-0.098,0.834,-0.544,-0.005,0.024,0.021,0.467,0.093,-0.027,-0.178,-0.986,0.92
2024-10-01 08:20:20.463,22835.392,-0.097,0.841,-0.533,0.005,-0.056,-0.011,-0.058,-0.045,0.067,-0.179,-0.999,0.92
2024-10-01 08:20:20.582,22835.511,-0.097,0.835,-0.542,-0.001,-0.083,-0.055,-0.007,-0.075,-0.062,-0.178,-0.987,0.92
2024-10-01 08:20:20.703,22835.631,-0.097,0.851,-0.517,0.004,-0.0,-0.033,-1.431,0.027,0.154,-0.185,-1.017,0.915
2024-10-01 08:20:20.823,22835.751,-0.041,0.908,-0.418,-0.089,0.043,0.075,0.512,0.472,0.538,-0.097,-1.138,0.969
2024-10-01 08:20:20.942,22835.871,-0.03,0.906,-0.422,-0.049,-0.102,0.05,-0.267,0.45,-0.408,-0.071,-1.134,0.965
2024-10-01 08:20:21.062,22835.991,0.03,0.862,-0.505,0.096,-0.103,0.025,0.833,-0.404,-0.204,0.059,-1.04,1.041
2024-10-01 08:20:21.182,22836.11,0.002,0.839,-0.544,0.009,-0.008,0.028,0.057,0.206,0.007,0.004,-0.996,0.998
2024-10-01 08:20:21.302,22836.23,0.009,0.833,-0.553,0.006,-0.012,-0.01,0.019,-0.0,-0.027,0.016,-0.985,1.005
2024-10-01 08:20:21.421,22836.35,0.01,0.824,-0.567,-0.005,0.019,0.014,0.28,0.111,0.107,0.018,-0.968,1.011
2024-10-01 08:20:21.541,22836.47,0.013,0.821,-0.571,0.002,0.009,0.013,0.178,0.019,-0.079,0.023,-0.963,1.011
2024-10-01 08:20:21.661,22836.59,0.011,0.812,-0.584,0.003,-0.012,-0.003,-0.022,-0.004,-0.038,0.019,-0.948,1.007
2024-10-01 08:20:21.781,22836.709,0.009,0.809,-0.588,-0.004,0.009,0.009,0.132,0.004,-0.01,0.016,-0.942,1.003
2024-10-01 08:20:21.901,22836.829,0.006,0.803,-0.595,0.003,-0.003,-0.0,0.228,-0.013,-0.108,0.01,-0.933,0.995
2024-10-01 08:20:22.020,22836.949,0.003,0.801,-0.599,-0.011,-0.076,-0.025,-0.432,-0.144,0.155,0.005,-0.928,0.99
2024-10-01 08:20:22.140,22837.069,0.002,0.809,-0.588,-0.009,0.044,0.031,0.375,0.104,-0.029,0.003,-0.943,0.994
2024-10-01 08:20:22.259,22837.189,0.003,0.8,-0.601,-0.01,-0.031,0.009,0.007,0.063,0.05,0.004,-0.927,0.992
2024-10-01 08:20:22.380,22837.308,0.006,0.8,-0.6,0.001,0.011,0.009,0.017,-0.03,0.012,0.009,-0.927,0.997
2024-10-01 08:20:22.500,22837.428,0.006,0.802,-0.597,-0.003,0.017,0.008,0.116,0.008,0.024,0.011,-0.93,1.0
2024-10-01 08:20:22.619,22837.548,0.012,0.798,-0.603,0.006,-0.001,-0.002,0.015,-0.028,-0.013,0.021,-0.923,1.008
2024-10-01 08:20:22.739,22837.668,0.015,0.797,-0.603,-0.001,-0.003,-0.002,0.036,0.027,0.025,0.024,-0.923,1.011
2024-10-01 08:20:22.859,22837.788,0.015,0.803,-0.595,0.002,0.013,0.004,-0.291,-0.129,-0.012,0.025,-0.933,1.016
2024-10-01 08:20:22.979,22837.907,-0.01,0.887,-0.461,-0.048,0.075,-0.037,-1.522,0.844,-0.276,-0.021,-1.091,0.957
2024-10-01 08:20:23.098,22838.027,-0.006,0.89,-0.457,-0.004,0.034,0.021,0.458,0.008,0.049,-0.013,-1.096,0.943
2024-10-01 08:20:23.218,22838.147,-0.016,0.879,-0.476,-0.005,0.027,0.019,0.08,0.021,0.003,-0.033,-1.074,0.924
2024-10-01 08:20:23.338,22838.267,-0.016,0.882,-0.471,-0.005,0.009,0.007,0.073,0.036,0.008,-0.034,-1.08,0.921
2024-10-01 08:20:23.457,22838.386,-0.014,0.874,-0.485,-0.005,0.008,0.006,0.108,0.025,0.026,-0.028,-1.064,0.923
2024-10-01 08:20:23.578,22838.506,-0.013,0.872,-0.489,0.001,-0.015,-0.008,-0.237,-0.04,-0.007,-0.027,-1.06,0.925
2024-10-01 08:20:23.698,22838.626,-0.013,0.87,-0.493,-0.02,0.03,0.007,-0.241,0.069,0.048,-0.027,-1.055,0.924
2024-10-01 08:20:23.818,22838.746,-0.011,0.876,-0.482,-0.005,0.025,0.003,-0.183,-0.043,-0.013,-0.024,-1.068,0.93
2024-10-01 08:20:23.937,22838.866,-0.016,0.876,-0.482,-0.002,-0.082,-0.042,-0.122,0.007,-0.018,-0.033,-1.068,0.922
2024-10-01 08:20:24.057,22838.985,-0.014,0.882,-0.47,0.007,-0.057,-0.034,-0.271,-0.063,-0.062,-0.03,-1.081,0.928
2024-10-01 08:20:24.176,22839.105,-0.014,0.872,-0.489,-0.019,0.05,0.013,0.118,0.126,0.101,-0.029,-1.06,0.925
2024-10-01 08:20:24.297,22839.225,-0.019,0.894,-0.447,0.002,-0.086,-0.06,-1.119,-0.066,-0.151,-0.042,-1.106,0.922
2024-10-01 08:20:24.416,22839.345,-0.059,0.933,-0.354,0.099,0.007,-0.078,-0.105,-0.106,-0.229,-0.164,-1.204,0.788
2024-10-01 08:20:24.536,22839.465,-0.041,0.934,-0.354,-0.01,0.008,0.073,-0.057,-0.075,0.118,-0.117,-1.206,0.836
2024-10-01 08:20:24.655,22839.584,-0.003,0.945,-0.328,-0.064,0.021,0.028,0.034,0.252,0.277,-0.01,-1.237,0.92
2024-10-01 08:20:24.776,22839.704,0.063,0.911,-0.407,-0.003,0.044,0.03,1.003,-0.123,0.703,0.154,-1.147,1.081
2024-10-01 08:20:24.895,22839.824,0.058,0.899,-0.434,0.012,-0.011,-0.013,-0.367,-0.093,-0.341,0.134,-1.118,1.083
2024-10-01 08:20:25.015,22839.944,0.041,0.901,-0.432,-0.011,0.017,0.003,0.221,0.021,0.026,0.094,-1.122,1.049
2024-10-01 08:20:25.135,22840.064,0.048,0.869,-0.492,-0.012,0.025,0.011,0.727,0.016,0.156,0.097,-1.053,1.052
2024-10-01 08:20:25.255,22840.183,0.045,0.867,-0.496,0.004,0.027,0.017,-0.152,-0.047,-0.104,0.09,-1.05,1.045
2024-10-01 08:20:25.375,22840.303,0.041,0.867,-0.496,-0.003,-0.009,0.004,0.086,0.021,0.02,0.082,-1.05,1.037
2024-10-01 08:20:25.495,22840.423,0.043,0.866,-0.499,-0.001,-0.011,-0.003,-0.02,-0.009,0.012,0.085,-1.047,1.04
2024-10-01 08:20:25.614,22840.543,0.04,0.862,-0.506,-0.001,0.023,0.003,0.046,-0.017,-0.034,0.08,-1.038,1.034
2024-10-01 08:20:25.734,22840.663,0.038,0.857,-0.514,0.004,0.009,0.011,0.389,-0.031,-0.048,0.074,-1.029,1.027
2024-10-01 08:20:25.854,22840.782,0.033,0.853,-0.521,-0.004,-0.046,-0.006,-0.303,-0.011,-0.007,0.063,-1.021,1.015
2024-10-01 08:20:25.974,22840.902,0.031,0.855,-0.518,-0.0,0.049,0.027,0.476,-0.035,-0.005,0.06,-1.025,1.012
2024-10-01 08:20:26.094,22841.022,0.03,0.852,-0.523,-0.007,0.026,0.004,0.077,0.034,0.061,0.057,-1.019,1.009
2024-10-01 08:20:26.213,22841.142,0.033,0.854,-0.52,0.001,0.011,0.008,0.08,-0.024,0.006,0.063,-1.023,1.014
2024-10-01 08:20:26.333,22841.262,0.033,0.854,-0.519,-0.005,0.015,0.005,0.08,0.015,0.034,0.063,-1.023,1.013
2024-10-01 08:20:26.453,22841.381,0.036,0.851,-0.523,-0.001,-0.012,0.001,-0.064,0.008,0.012,0.068,-1.019,1.018
2024-10-01 08:20:26.572,22841.501,0.04,0.85,-0.525,-0.007,-0.021,-0.006,-0.039,0.051,0.055,0.076,-1.016,1.024
2024-10-01 08:20:26.693,22841.621,0.046,0.873,-0.485,-0.003,-0.07,-0.02,-0.756,0.112,0.03,0.094,-1.062,1.039
2024-10-01 08:20:26.812,22841.741,0.061,0.906,-0.419,0.016,-0.035,0.013,0.331,-0.017,-0.086,0.145,-1.134,1.052
2024-10-01 08:20:26.932,22841.86,0.048,0.902,-0.43,0.0,0.019,0.013,0.234,-0.025,-0.069,0.111,-1.123,1.02
2024-10-01 08:20:27.053,22841.98,0.044,0.902,-0.43,-0.002,-0.015,-0.006,-0.02,0.011,-0.015,0.102,-1.124,1.011
2024-10-01 08:20:27.171,22842.1,0.044,0.896,-0.441,-0.005,-0.037,-0.014,0.08,0.009,-0.016,0.099,-1.111,1.006
2024-10-01 08:20:27.291,22842.22,0.046,0.891,-0.451,-0.0,-0.021,-0.008,-0.029,-0.009,-0.018,0.102,-1.1,1.008
2024-10-01 08:20:27.411,22842.34,0.042,0.898,-0.437,-0.003,0.01,0.006,-0.057,0.009,-0.009,0.096,-1.116,1.004
2024-10-01 08:20:27.531,22842.459,0.043,0.895,-0.444,-0.007,0.012,0.002,-0.015,0.021,0.016,0.096,-1.108,1.004
2024-10-01 08:20:27.651,22842.579,0.042,0.897,-0.44,0.004,0.028,0.01,0.053,-0.014,-0.046,0.096,-1.113,1.004
2024-10-01 08:20:27.770,22842.699,0.038,0.897,-0.441,-0.007,0.021,-0.004,-0.296,0.001,-0.023,0.085,-1.112,0.996
2024-10-01 08:20:27.890,22842.819,0.04,0.903,-0.428,0.002,0.028,0.008,-0.045,-0.006,-0.016,0.093,-1.126,1.003
2024-10-01 08:20:28.010,22842.939,0.037,0.893,-0.448,-0.009,-0.133,-0.043,0.23,0.011,0.003,0.083,-1.105,0.994
2024-10-01 08:20:28.130,22843.058,0.04,0.897,-0.439,0.012,-0.042,-0.013,-0.365,-0.058,-0.045,0.092,-1.114,0.999
2024-10-01 08:20:28.249,22843.178,0.04,0.925,-0.378,-0.019,0.06,0.024,-0.069,0.142,0.181,0.107,-1.181,1.013
2024-10-01 08:20:28.369,22843.298,0.084,0.903,-0.42,-0.071,-0.025,0.043,0.724,0.025,0.357,0.197,-1.128,1.08
2024-10-01 08:20:28.489,22843.418,0.087,0.877,-0.473,0.106,0.108,0.046,0.791,-0.369,-0.175,0.183,-1.069,1.087
2024-10-01 08:20:28.609,22843.538,0.068,0.85,-0.523,0.024,-0.069,0.016,0.643,-0.456,-0.194,0.13,-1.016,1.046
2024-10-01 08:20:28.729,22843.657,0.055,0.852,-0.52,0.005,0.057,0.002,0.076,-0.02,-0.052,0.105,-1.02,1.029
2024-10-01 08:20:28.849,22843.777,0.047,0.825,-0.564,0.002,0.085,0.03,0.505,-0.006,-0.002,0.084,-0.97,1.008
2024-10-01 08:20:28.968,22843.897,0.043,0.816,-0.577,-0.009,0.006,-0.014,-0.342,-0.031,-0.051,0.075,-0.954,0.999
2024-10-01 08:20:29.088,22844.017,0.036,0.818,-0.575,-0.003,-0.035,-0.014,-0.167,0.006,-0.035,0.063,-0.957,0.987
2024-10-01 08:20:29.208,22844.137,0.035,0.818,-0.574,-0.002,0.008,0.003,0.2,0.013,-0.021,0.06,-0.958,0.982
2024-10-01 08:20:29.328,22844.256,0.03,0.818,-0.575,0.003,0.021,-0.009,-0.146,0.01,0.025,0.052,-0.957,0.973
2024-10-01 08:20:29.448,22844.376,0.029,0.832,-0.554,0.004,0.061,0.027,0.112,-0.018,-0.032,0.053,-0.983,0.973
2024-10-01 08:20:29.568,22844.496,0.024,0.813,-0.581,-0.014,-0.017,0.047,-0.104,0.03,0.04,0.042,-0.95,0.962
2024-10-01 08:20:29.688,22844.616,0.028,0.814,-0.58,-0.003,-0.001,-0.005,-0.082,-0.014,0.008,0.048,-0.951,0.968
2024-10-01 08:20:29.807,22844.736,0.027,0.819,-0.573,-0.012,-0.002,-0.019,-0.069,0.014,0.025,0.047,-0.96,0.967
2024-10-01 08:20:29.926,22844.855,0.027,0.819,-0.574,-0.001,0.014,0.009,0.01,-0.013,0.013,0.046,-0.959,0.967
2024-10-01 08:20:30.047,22844.975,0.028,0.821,-0.57,-0.004,-0.014,-0.003,-0.155,0.027,0.011,0.048,-0.964,0.969
2024-10-01 08:20:30.167,22845.095,0.03,0.818,-0.574,0.001,0.008,0.015,0.051,0.022,0.014,0.051,-0.959,0.969
2024-10-01 08:20:30.285,22845.215,0.026,0.849,-0.528,-0.002,0.024,-0.027,-0.899,0.078,-0.062,0.049,-1.014,0.969
2024-10-01 08:20:30.405,22845.335,0.041,0.944,-0.328,-0.023,0.164,-0.065,-0.031,0.026,-0.06,0.124,-1.234,1.005
2024-10-01 08:20:30.525,22845.454,0.053,0.939,-0.34,0.043,0.011,0.134,0.228,-0.068,0.165,0.154,-1.22,1.011
2024-10-01 08:20:30.646,22845.574,0.038,0.909,-0.415,-0.012,-0.023,-0.005,0.276,-0.035,-0.121,0.091,-1.141,0.957
2024-10-01 08:20:30.766,22845.694,0.033,0.927,-0.375,0.004,-0.029,-0.027,-0.939,0.036,-0.068,0.087,-1.185,0.956
2024-10-01 08:20:30.885,22845.814,0.036,0.945,-0.324,0.057,0.047,0.15,0.544,-0.11,0.043,0.111,-1.239,0.975
2024-10-01 08:20:31.005,22845.933,0.032,0.912,-0.41,-0.011,-0.036,-0.011,0.257,0.003,0.036,0.078,-1.147,0.948
2024-10-01 08:20:31.125,22846.053,0.032,0.901,-0.432,-0.002,-0.033,-0.016,-0.011,-0.022,-0.017,0.075,-1.123,0.945
2024-10-01 08:20:31.245,22846.173,0.028,0.893,-0.449,0.004,0.055,0.05,0.72,0.028,-0.147,0.062,-1.105,0.932
2024-10-01 08:20:31.365,22846.293,0.02,0.884,-0.468,-0.003,0.002,-0.009,-0.086,-0.045,-0.017,0.043,-1.083,0.915
2024-10-01 08:20:31.483,22846.413,0.014,0.872,-0.489,0.003,-0.135,-0.047,-0.266,-0.038,-0.085,0.029,-1.06,0.905
2024-10-01 08:20:31.604,22846.532,0.011,0.876,-0.482,-0.0,0.0,0.003,-0.019,0.003,0.033,0.024,-1.068,0.9
2024-10-01 08:20:31.724,22846.652,0.012,0.88,-0.476,-0.008,0.009,-0.002,-0.118,0.012,0.011,0.025,-1.075,0.903
2024-10-01 08:20:31.843,22846.772,0.013,0.879,-0.476,-0.003,-0.014,-0.007,-0.082,0.001,0.001,0.027,-1.074,0.905
2024-10-01 08:20:31.964,22846.892,0.01,0.878,-0.478,0.001,0.012,0.012,0.276,-0.035,-0.038,0.02,-1.072,0.899
2024-10-01 08:20:32.083,22847.012,0.005,0.877,-0.481,0.001,0.0,0.012,0.099,0.01,0.013,0.009,-1.07,0.889
2024-10-01 08:20:32.203,22847.131,0.006,0.872,-0.489,0.0,0.006,0.0,-0.066,-0.033,-0.029,0.011,-1.06,0.891
2024-10-01 08:20:32.323,22847.251,0.003,0.875,-0.484,-0.004,-0.009,0.001,0.083,0.011,0.011,0.005,-1.066,0.885
2024-10-01 08:20:32.442,22847.371,0.005,0.877,-0.481,-0.004,-0.012,-0.002,0.029,-0.003,0.03,0.01,-1.069,0.889
2024-10-01 08:20:32.562,22847.491,0.002,0.874,-0.487,-0.002,0.029,0.015,-0.086,-0.012,-0.019,0.005,-1.062,0.885
2024-10-01 08:20:32.682,22847.611,0.005,0.884,-0.468,0.003,0.005,-0.0,-0.189,0.011,0.03,0.01,-1.084,0.89
2024-10-01 08:20:32.802,22847.73,0.005,0.876,-0.482,-0.007,0.081,0.052,0.174,-0.01,0.064,0.009,-1.068,0.891
2024-10-01 08:20:32.922,22847.85,0.005,0.9,-0.436,0.007,-0.078,-0.063,-1.812,-0.02,-0.01,0.012,-1.12,0.894
2024-10-01 08:20:33.042,22847.97,0.054,0.906,-0.419,-0.247,-0.074,0.1,0.172,1.1,0.048,0.129,-1.134,1.04
2024-10-01 08:20:33.161,22848.09,0.099,0.892,-0.44,-0.05,-0.018,0.06,1.034,-0.048,0.641,0.22,-1.103,1.092
2024-10-01 08:20:33.281,22848.21,0.127,0.83,-0.544,-0.067,-0.087,-0.043,-0.006,0.471,0.562,0.229,-0.979,1.157
2024-10-01 08:20:33.401,22848.329,0.134,0.807,-0.575,-0.006,0.008,0.015,0.307,-0.16,-0.001,0.229,-0.939,1.159
2024-10-01 08:20:33.521,22848.449,0.131,0.802,-0.583,-0.01,0.028,0.015,0.165,-0.025,0.004,0.222,-0.93,1.152
2024-10-01 08:20:33.640,22848.569,0.128,0.8,-0.586,-0.001,0.002,0.005,0.046,-0.069,-0.018,0.215,-0.928,1.149
2024-10-01 08:20:33.760,22848.689,0.114,0.775,-0.621,-0.003,-0.191,-0.068,-0.348,0.214,0.027,0.182,-0.887,1.118
2024-10-01 08:20:33.880,22848.809,0.129,0.793,-0.595,-0.004,-0.047,-0.018,-0.189,0.049,0.016,0.213,-0.916,1.148
2024-10-01 08:20:33.999,22848.928,0.117,0.782,-0.613,0.038,0.069,-0.003,0.049,0.064,0.015,0.188,-0.897,1.13
2024-10-01 08:20:34.119,22849.048,0.122,0.78,-0.614,0.0,-0.023,-0.007,-0.074,-0.002,0.0,0.196,-0.894,1.131
2024-10-01 08:20:34.239,22849.168,0.123,0.784,-0.608,-0.013,-0.012,0.009,-0.056,-0.003,0.092,0.199,-0.902,1.137
2024-10-01 08:20:34.359,22849.288,0.121,0.783,-0.61,-0.012,0.007,0.005,0.041,0.009,0.048,0.195,-0.899,1.135
2024-10-01 08:20:34.480,22849.407,0.135,0.784,-0.605,-0.01,0.013,0.007,0.056,0.086,0.116,0.22,-0.902,1.156
2024-10-01 08:20:34.599,22849.527,0.144,0.791,-0.595,0.009,0.074,0.024,0.043,-0.03,0.116,0.237,-0.912,1.169
2024-10-01 08:20:34.718,22849.647,0.118,0.855,-0.505,-0.043,0.228,0.085,0.277,-0.151,-0.575,0.23,-1.026,1.159
2024-10-01 08:20:34.838,22849.767,0.133,0.837,-0.531,-0.022,0.169,0.128,2.574,0.255,0.352,0.246,-0.991,1.147
2024-10-01 08:20:34.958,22849.887,0.139,0.812,-0.567,-0.009,0.016,-0.014,-0.392,0.026,-0.107,0.239,-0.947,1.148
2024-10-01 08:20:35.078,22850.006,0.128,0.811,-0.571,-0.002,0.024,0.016,0.137,0.059,0.045,0.22,-0.946,1.134
2024-10-01 08:20:35.198,22850.126,0.114,0.799,-0.591,0.002,0.042,0.023,0.23,-0.156,-0.127,0.191,-0.925,1.106
2024-10-01 08:20:35.317,22850.246,0.113,0.795,-0.596,-0.007,-0.043,-0.01,0.134,0.083,-0.017,0.187,-0.919,1.101
2024-10-01 08:20:35.437,22850.366,0.115,0.798,-0.592,-0.003,-0.043,-0.022,-0.336,-0.004,0.093,0.192,-0.924,1.105
2024-10-01 08:20:35.557,22850.486,0.113,0.796,-0.594,-0.01,0.008,0.014,0.18,-0.027,-0.014,0.188,-0.921,1.103
2024-10-01 08:20:35.677,22850.605,0.122,0.799,-0.589,-0.009,0.002,-0.003,-0.138,0.026,0.06,0.204,-0.926,1.114
2024-10-01 08:20:35.796,22850.725,0.108,0.794,-0.598,0.012,0.021,-0.007,-0.325,-0.059,0.014,0.179,-0.918,1.096
2024-10-01 08:20:35.917,22850.845,0.124,0.805,-0.58,0.004,0.007,0.003,-0.258,0.098,0.168,0.211,-0.936,1.125
2024-10-01 08:20:36.036,22850.965,0.109,0.8,-0.591,-0.011,-0.195,-0.083,0.131,0.045,-0.04,0.182,-0.927,1.106
2024-10-01 08:20:36.156,22851.085,0.125,0.804,-0.582,-0.025,-0.051,-0.014,-0.558,0.131,0.223,0.211,-0.934,1.122
2024-10-01 08:20:36.276,22851.204,0.166,0.859,-0.484,0.02,0.02,0.009,-0.411,-0.017,0.163,0.331,-1.034,1.217
2024-10-01 08:20:36.396,22851.324,0.175,0.895,-0.411,-0.012,0.032,-0.013,-0.984,-0.028,0.031,0.402,-1.108,1.319
2024-10-01 08:20:36.516,22851.444,0.278,0.865,-0.418,0.03,-0.034,-0.006,-0.075,0.017,1.264,0.587,-1.045,1.509
2024-10-01 08:20:36.635,22851.564,0.389,0.804,-0.45,0.081,-0.027,-0.006,0.246,-0.467,1.215,0.712,-0.934,1.695
2024-10-01 08:20:36.755,22851.684,0.457,0.745,-0.485,0.07,-0.049,-0.035,-0.1,0.239,1.145,0.756,-0.841,1.807
2024-10-01 08:20:36.875,22851.803,0.529,0.735,-0.424,-0.107,-0.034,0.021,-0.709,0.145,0.388,0.895,-0.826,1.964
2024-10-01 08:20:36.995,22851.923,0.519,0.738,-0.43,-0.219,0.069,0.08,0.442,-0.361,-0.628,0.879,-0.83,1.942
2024-10-01 08:20:37.115,22852.043,0.49,0.754,-0.437,0.044,0.051,0.017,0.715,-0.181,0.0,0.843,-0.854,1.944
2024-10-01 08:20:37.234,22852.163,0.487,0.752,-0.444,-0.014,-0.009,0.023,0.245,0.001,-0.174,0.832,-0.852,1.924
2024-10-01 08:20:37.354,22852.283,0.463,0.755,-0.464,0.033,0.003,0.001,0.012,-0.16,-0.176,0.784,-0.855,1.883
2024-10-01 08:20:37.474,22852.402,0.454,0.756,-0.472,0.007,-0.037,0.008,-0.159,0.015,-0.14,0.766,-0.857,1.863
2024-10-01 08:20:37.593,22852.522,0.431,0.771,-0.469,-0.004,-0.02,-0.005,0.085,0.085,-0.33,0.743,-0.88,1.831
2024-10-01 08:20:37.713,22852.642,0.382,0.793,-0.475,-0.009,-0.017,0.022,-0.104,-0.09,-0.486,0.677,-0.915,1.76
2024-10-01 08:20:37.833,22852.762,0.315,0.82,-0.478,0.011,-0.022,0.004,0.016,-0.644,-0.539,0.582,-0.962,1.702
2024-10-01 08:20:37.953,22852.882,0.249,0.839,-0.483,0.052,0.018,0.031,-0.105,-0.457,-0.375,0.477,-0.996,1.648
2024-10-01 08:20:38.073,22853.001,0.194,0.824,-0.532,0.01,0.075,0.038,0.454,-0.602,-0.186,0.349,-0.969,1.567
2024-10-01 08:20:38.193,22853.121,0.184,0.762,-0.621,-0.075,0.045,0.028,1.435,-0.285,0.085,0.288,-0.866,1.54
2024-10-01 08:20:38.312,22853.241,0.189,0.592,-0.783,-0.056,0.053,-0.017,2.805,0.126,-0.208,0.237,-0.634,1.471
2024-10-01 08:20:38.432,22853.361,0.176,0.613,-0.771,0.007,-0.023,0.139,-2.614,-0.555,-0.216,0.225,-0.659,1.455
2024-10-01 08:20:38.552,22853.48,0.181,0.813,-0.554,-0.053,0.033,-0.069,-1.205,0.143,0.322,0.316,-0.949,1.616
2024-10-01 08:20:38.672,22853.6,0.199,0.838,-0.508,0.016,-0.054,-0.092,-0.811,0.092,0.268,0.373,-0.994,1.681
2024-10-01 08:20:38.792,22853.72,0.167,0.871,-0.462,-0.053,-0.191,0.035,-0.553,-0.18,-0.731,0.346,-1.057,1.677
2024-10-01 08:20:38.912,22853.84,0.039,0.891,-0.452,-0.133,0.206,-0.052,0.049,0.265,0.027,0.087,-1.1,1.493
2024-10-01 08:20:39.031,22853.96,0.045,0.898,-0.438,-0.034,-0.05,-0.036,-0.734,0.375,0.068,0.102,-1.115,1.488
2024-10-01 08:20:39.151,22854.079,0.069,0.925,-0.373,0.027,0.141,-0.095,1.564,0.609,0.119,0.184,-1.182,1.484
2024-10-01 08:20:39.271,22854.199,0.117,0.781,-0.614,-0.028,0.132,0.028,1.893,0.667,0.163,0.189,-0.896,1.417
2024-10-01 08:20:39.390,22854.319,0.247,0.721,-0.647,-0.136,0.039,-0.009,0.412,1.442,0.138,0.365,-0.806,1.437
2024-10-01 08:20:39.510,22854.439,0.379,0.716,-0.587,-0.087,0.027,0.06,0.255,0.959,0.275,0.573,-0.798,1.502
2024-10-01 08:20:39.630,22854.559,0.441,0.822,-0.361,0.058,-0.059,0.001,-2.734,-0.218,0.427,0.885,-0.965,1.83
2024-10-01 08:20:39.749,22854.678,0.419,0.885,-0.205,0.022,-0.036,0.012,-0.351,-0.614,-0.526,1.117,-1.086,2.158
2024-10-01 08:20:39.869,22854.798,0.398,0.88,-0.261,0.148,0.317,0.024,-0.064,0.025,0.611,0.99,-1.075,2.047
2024-10-01 08:20:39.989,22854.918,0.49,0.846,-0.212,0.15,0.093,-0.191,0.36,-0.107,0.815,1.163,-1.008,2.26
2024-10-01 08:20:40.109,22855.038,0.57,0.821,-0.029,0.033,-0.166,-0.114,-3.56,1.155,0.613,1.519,-0.963,2.599
2024-10-01 08:20:40.229,22855.158,0.523,0.833,0.182,-0.257,-0.231,-0.114,1.227,2.646,-0.937,1.905,-0.984,2.781
2024-10-01 08:20:40.349,22855.277,0.395,0.907,0.147,-0.22,0.081,-0.029,0.751,1.974,-0.129,1.927,-1.136,2.487
2024-10-01 08:20:40.469,22855.397,0.361,0.916,0.176,0.026,0.014,0.059,-0.016,0.737,0.03,2.025,-1.157,2.421
2024-10-01 08:20:40.588,22855.517,0.365,0.903,0.225,-0.077,-0.28,0.049,-0.39,0.584,0.096,2.124,-1.127,2.423
2024-10-01 08:20:40.709,22855.637,0.455,0.888,0.064,-0.402,0.027,0.325,1.125,-3.245,0.478,1.71,-1.093,2.207
2024-10-01 08:20:40.828,22855.757,0.43,0.829,-0.357,-0.22,-0.102,0.108,2.954,-2.787,-0.16,0.878,-0.978,1.694
2024-10-01 08:20:40.948,22855.876,0.284,0.736,-0.615,0.258,-0.172,-0.105,1.303,-1.717,-0.387,0.433,-0.827,1.464
2024-10-01 08:20:41.068,22855.996,0.128,0.668,-0.733,0.183,-0.025,-0.244,0.891,-1.013,-0.361,0.173,-0.732,1.35
2024-10-01 08:20:41.187,22856.116,0.071,0.684,-0.726,-0.054,0.07,-0.101,-2.412,0.176,-0.142,0.098,-0.753,1.299
2024-10-01 08:20:41.307,22856.236,0.032,0.791,-0.611,-0.059,0.093,0.005,-0.298,0.027,0.079,0.053,-0.913,1.286
2024-10-01 08:20:41.427,22856.356,0.021,0.84,-0.543,-0.052,0.005,-0.015,-0.72,-0.046,0.002,0.038,-0.997,1.283
2024-10-01 08:20:41.547,22856.475,0.023,0.885,-0.464,-0.024,0.005,-0.05,-0.944,0.059,0.136,0.048,-1.088,1.291
2024-10-01 08:20:41.667,22856.595,0.08,0.904,-0.42,-0.137,0.287,0.009,0.303,1.295,0.689,0.189,-1.129,1.38
2024-10-01 08:20:41.786,22856.715,0.166,0.77,-0.616,0.083,0.114,0.108,3.778,-0.049,0.494,0.264,-0.879,1.391
2024-10-01 08:20:41.906,22856.835,0.24,0.61,-0.755,0.072,-0.013,0.05,1.024,-0.186,0.659,0.308,-0.656,1.416
2024-10-01 08:20:42.027,22856.954,0.274,0.486,-0.83,-0.048,0.084,0.038,0.943,-0.173,0.776,0.319,-0.508,1.466
2024-10-01 08:20:42.146,22857.074,0.328,0.538,-0.776,-0.005,-0.024,-0.009,-2.064,-0.089,1.139,0.4,-0.569,1.638
2024-10-01 08:20:42.266,22857.194,0.379,0.609,-0.697,-0.03,-0.107,0.008,-1.445,-0.377,0.853,0.498,-0.655,1.856
2024-10-01 08:20:42.385,22857.314,0.411,0.699,-0.585,-0.027,-0.102,0.053,-1.046,0.011,0.234,0.613,-0.774,2.052
2024-10-01 08:20:42.505,22857.434,0.373,0.719,-0.586,-0.037,0.064,-0.142,0.676,-0.98,-0.873,0.567,-0.803,2.053
2024-10-01 08:20:42.625,22857.553,0.381,0.709,-0.594,0.262,-0.089,0.011,-0.476,0.08,-0.245,0.57,-0.787,2.048
2024-10-01 08:20:42.745,22857.673,0.384,0.723,-0.574,-0.13,-0.023,0.017,-0.295,0.083,-0.574,0.59,-0.808,2.061
2024-10-01 08:20:42.864,22857.793,0.315,0.733,-0.603,-0.029,0.107,-0.0,0.564,-0.134,-0.037,0.481,-0.823,1.96
2024-10-01 08:20:42.984,22857.913,0.388,0.735,-0.556,-0.087,-0.097,-0.162,-1.926,2.001,0.51,0.609,-0.826,2.01
2024-10-01 08:20:43.104,22858.033,0.381,0.836,-0.396,-0.1,-0.109,-0.088,1.418,0.56,-0.445,0.766,-0.989,2.091
2024-10-01 08:20:43.224,22858.152,0.311,0.772,-0.555,-0.024,-0.072,-0.044,0.725,1.314,-0.665,0.511,-0.882,1.749
2024-10-01 08:20:43.343,22858.272,0.264,0.77,-0.581,0.07,-0.012,0.072,0.377,0.575,-1.166,0.427,-0.879,1.519
2024-10-01 08:20:43.463,22858.392,0.211,0.793,-0.572,0.084,0.093,0.174,0.151,0.188,-0.471,0.354,-0.915,1.366
2024-10-01 08:20:43.583,22858.512,0.191,0.805,-0.562,0.019,0.042,0.044,-0.041,-0.125,-0.162,0.328,-0.936,1.331
2024-10-01 08:20:43.703,22858.632,0.148,0.806,-0.573,0.003,0.034,-0.011,0.231,-0.393,-0.396,0.253,-0.937,1.287
2024-10-01 08:20:43.823,22858.751,0.103,0.805,-0.584,-0.006,0.034,0.033,-0.006,-0.416,-0.195,0.175,-0.936,1.248
2024-10-01 08:20:43.942,22858.871,0.064,0.824,-0.563,0.016,-0.004,0.041,-0.53,-0.555,0.023,0.114,-0.968,1.248
2024-10-01 08:20:44.062,22858.991,0.038,0.856,-0.515,0.013,-0.057,0.008,-0.348,-0.516,0.011,0.074,-1.028,1.279
2024-10-01 08:20:44.182,22859.111,-0.007,0.837,-0.547,-0.104,0.006,-0.059,0.189,0.234,-0.046,-0.012,-0.992,1.235
2024-10-01 08:20:44.302,22859.231,0.022,0.874,-0.485,0.005,0.033,0.002,-0.4,-0.003,-0.008,0.045,-1.064,1.279
2024-10-01 08:20:44.422,22859.35,0.014,0.867,-0.498,-0.01,-0.082,-0.017,-0.121,-0.032,-0.087,0.028,-1.05,1.268
2024-10-01 08:20:44.542,22859.47,0.008,0.863,-0.505,0.005,0.024,0.012,0.287,-0.026,-0.1,0.017,-1.041,1.259
2024-10-01 08:20:44.661,22859.59,0.001,0.85,-0.527,-0.004,-0.043,-0.013,-0.172,-0.031,-0.125,0.002,-1.015,1.245
2024-10-01 08:20:44.781,22859.71,-0.006,0.88,-0.476,-0.017,-0.026,-0.019,-0.489,0.052,-0.013,-0.013,-1.075,1.227
2024-10-01 08:20:44.901,22859.83,-0.003,0.873,-0.487,-0.01,-0.028,-0.015,-0.122,0.009,0.063,-0.006,-1.062,1.237
2024-10-01 08:20:45.021,22859.949,0.0,0.879,-0.477,-0.005,-0.012,0.002,-0.046,0.0,0.042,0.001,-1.074,1.246
2024-10-01 08:20:45.141,22860.069,0.005,0.883,-0.469,-0.006,0.0,0.006,-0.001,0.002,0.062,0.011,-1.082,1.259
2024-10-01 08:20:45.260,22860.189,0.011,0.879,-0.476,-0.007,-0.003,0.004,0.137,0.002,0.075,0.023,-1.075,1.273
2024-10-01 08:20:45.380,22860.309,0.016,0.872,-0.49,-0.007,0.013,0.002,0.121,0.019,0.058,0.033,-1.059,1.286
2024-10-01 08:20:45.499,22860.429,0.041,0.872,-0.488,-0.022,0.044,-0.003,-0.335,0.193,0.746,0.083,-1.059,1.339
2024-10-01 08:20:45.620,22860.548,0.138,0.767,-0.627,-0.051,0.021,0.008,2.063,0.53,0.486,0.216,-0.874,1.432
2024-10-01 08:20:45.740,22860.668,0.208,0.581,-0.787,0.003,-0.025,0.078,2.707,0.287,0.021,0.258,-0.62,1.391
2024-10-01 08:20:45.859,22860.788,0.189,0.543,-0.818,0.039,-0.028,0.027,-0.939,-0.286,-0.253,0.227,-0.574,1.346
2024-10-01 08:20:45.979,22860.908,0.127,0.719,-0.683,0.049,0.004,0.034,-2.186,-0.517,-0.194,0.184,-0.802,1.362
2024-10-01 08:20:46.099,22861.027,0.009,0.747,-0.664,-0.068,0.133,-0.026,0.935,-0.344,-0.547,0.014,-0.844,1.306
2024-10-01 08:20:46.219,22861.147,-0.005,0.727,-0.686,-0.118,0.04,-0.024,0.14,0.283,-0.185,-0.008,-0.814,1.266
2024-10-01 08:20:46.339,22861.267,-0.02,0.746,-0.666,-0.003,0.028,-0.005,-0.101,0.059,-0.06,-0.03,-0.842,1.222
2024-10-01 08:20:46.458,22861.387,-0.018,0.707,-0.707,0.02,-0.029,0.027,0.325,-0.153,0.053,-0.025,-0.785,1.229
2024-10-01 08:20:46.578,22861.507,-0.017,0.702,-0.712,0.007,-0.076,0.019,0.08,0.045,-0.03,-0.023,-0.778,1.231
2024-10-01 08:20:46.698,22861.626,-0.017,0.685,-0.729,-0.062,-0.122,-0.067,-0.302,0.131,0.023,-0.023,-0.754,1.235
2024-10-01 08:20:46.818,22861.746,-0.019,0.688,-0.726,0.011,0.079,0.027,0.055,-0.017,-0.114,-0.026,-0.758,1.23
2024-10-01 08:20:46.937,22861.866,-0.019,0.699,-0.715,-0.029,-0.017,-0.046,-0.11,0.059,0.049,-0.027,-0.774,1.218
2024-10-01 08:20:47.057,22861.986,-0.023,0.705,-0.709,0.006,-0.053,-0.009,-0.441,0.022,-0.061,-0.032,-0.782,1.213
2024-10-01 08:20:47.177,22862.106,0.019,0.79,-0.613,0.081,0.096,0.153,-3.535,-0.504,1.317,0.031,-0.91,1.299
2024-10-01 08:20:47.297,22862.225,0.034,0.804,-0.594,0.111,-0.238,0.092,0.306,-0.458,-0.579,0.057,-0.934,1.34
2024-10-01 08:20:47.417,22862.345,-0.002,0.836,-0.549,0.001,0.057,0.029,0.13,-0.097,-0.127,-0.003,-0.989,1.287
2024-10-01 08:20:47.537,22862.465,-0.013,0.845,-0.534,-0.021,-0.072,-0.017,-0.797,0.058,-0.008,-0.024,-1.007,1.266
2024-10-01 08:20:47.656,22862.585,-0.013,0.857,-0.515,-0.011,-0.028,-0.009,0.053,0.008,0.033,-0.026,-1.029,1.264
2024-10-01 08:20:47.776,22862.705,-0.015,0.853,-0.522,-0.006,0.006,0.004,0.009,0.015,0.001,-0.029,-1.021,1.262
2024-10-01 08:20:47.896,22862.824,-0.015,0.853,-0.522,-0.002,0.004,0.001,-0.049,0.001,0.0,-0.03,-1.022,1.26
2024-10-01 08:20:48.015,22862.944,-0.015,0.852,-0.523,-0.011,-0.006,-0.001,0.002,0.016,0.011,-0.029,-1.02,1.26
2024-10-01 08:20:48.136,22863.064,-0.015,0.85,-0.527,0.003,-0.021,-0.007,0.015,-0.009,-0.035,-0.029,-1.016,1.261
2024-10-01 08:20:48.255,22863.184,-0.017,0.848,-0.53,-0.007,0.015,0.013,0.077,0.002,0.008,-0.033,-1.011,1.258
2024-10-01 08:20:48.375,22863.304,-0.018,0.846,-0.532,-0.005,-0.007,0.002,-0.032,0.003,0.019,-0.033,-1.009,1.257
2024-10-01 08:20:48.495,22863.423,-0.018,0.849,-0.528,0.004,0.026,0.009,-0.006,-0.004,-0.032,-0.034,-1.014,1.257
2024-10-01 08:20:48.614,22863.543,-0.017,0.829,-0.558,-0.005,-0.002,-0.012,-0.412,0.037,0.062,-0.031,-0.978,1.258
2024-10-01 08:20:48.735,22863.663,-0.018,0.856,-0.517,0.012,-0.002,-0.01,-0.031,-0.014,-0.026,-0.034,-1.027,1.257
2024-10-01 08:20:48.854,22863.783,-0.019,0.84,-0.542,0.01,0.172,0.016,0.122,0.032,0.032,-0.035,-0.998,1.256
2024-10-01 08:20:48.973,22863.903,-0.016,0.846,-0.533,-0.003,0.026,0.016,0.015,-0.002,0.02,-0.03,-1.009,1.262
2024-10-01 08:20:49.094,22864.022,-0.015,0.855,-0.518,-0.003,-0.059,-0.01,-0.48,0.003,0.001,-0.029,-1.026,1.264
2024-10-01 08:20:49.213,22864.142,-0.015,0.853,-0.522,-0.002,-0.096,-0.024,-0.087,-0.003,0.003,-0.028,-1.022,1.264
2024-10-01 08:20:49.334,22864.262,-0.015,0.857,-0.516,0.004,-0.008,-0.0,0.001,-0.012,-0.03,-0.029,-1.029,1.264
2024-10-01 08:20:49.453,22864.382,-0.016,0.843,-0.538,-0.004,-0.039,-0.031,-0.45,0.01,0.011,-0.031,-1.003,1.261
2024-10-01 08:20:49.573,22864.502,-0.014,0.853,-0.521,0.0,-0.017,0.005,-0.006,-0.019,-0.045,-0.028,-1.022,1.264
2024-10-01 08:20:49.693,22864.621,-0.017,0.861,-0.507,-0.013,0.068,0.033,0.423,0.029,0.005,-0.033,-1.038,1.259
2024-10-01 08:20:49.812,22864.741,-0.018,0.857,-0.515,-0.005,0.003,0.002,0.133,0.009,-0.003,-0.034,-1.029,1.257
2024-10-01 08:20:49.932,22864.861,-0.018,0.848,-0.529,0.002,0.196,0.068,0.254,0.031,-0.026,-0.034,-1.012,1.258
2024-10-01 08:20:50.052,22864.981,-0.016,0.848,-0.53,0.013,-0.088,-0.017,-0.337,-0.082,-0.012,-0.031,-1.012,1.263
2024-10-01 08:20:50.172,22865.1,-0.015,0.853,-0.521,-0.003,0.062,0.013,-0.046,0.042,-0.035,-0.03,-1.022,1.262
2024-10-01 08:20:50.292,22865.22,-0.013,0.872,-0.49,0.001,-0.051,-0.011,-0.16,0.001,0.022,-0.026,-1.058,1.264
2024-10-01 08:20:50.412,22865.34,-0.016,0.863,-0.504,-0.005,0.002,0.007,0.273,-0.001,-0.007,-0.031,-1.042,1.259
2024-10-01 08:20:50.531,22865.46,-0.016,0.862,-0.506,-0.005,-0.008,-0.001,-0.058,0.009,0.023,-0.031,-1.04,1.26
2024-10-01 08:20:50.651,22865.58,-0.016,0.862,-0.507,-0.006,0.002,0.004,0.01,0.012,0.02,-0.031,-1.038,1.26
2024-10-01 08:20:50.771,22865.699,-0.015,0.865,-0.502,-0.001,-0.007,-0.001,-0.009,-0.008,-0.01,-0.03,-1.045,1.261
2024-10-01 08:20:50.891,22865.819,-0.018,0.847,-0.531,0.009,-0.146,-0.019,-0.276,-0.066,-0.099,-0.034,-1.011,1.255
2024-10-01 08:20:51.011,22865.939,-0.016,0.856,-0.517,0.004,0.044,0.028,0.087,-0.032,-0.059,-0.03,-1.027,1.261
2024-10-01 08:20:51.131,22866.059,-0.018,0.855,-0.518,-0.004,0.054,0.032,0.382,0.017,-0.026,-0.034,-1.027,1.256
2024-10-01 08:20:51.250,22866.179,-0.014,0.859,-0.512,0.006,-0.049,0.015,-0.055,-0.08,-0.029,-0.026,-1.033,1.264
2024-10-01 08:20:51.371,22866.298,-0.004,0.9,-0.435,-0.03,-0.013,-0.069,-1.874,0.778,-0.057,-0.009,-1.121,1.274
2024-10-01 08:20:51.489,22866.418,0.043,0.871,-0.489,0.096,-0.231,0.266,-0.635,-0.153,0.251,0.088,-1.057,1.278
2024-10-01 08:20:51.609,22866.538,0.025,0.83,-0.557,-0.024,0.055,0.019,0.875,-0.13,0.073,0.044,-0.979,1.264
2024-10-01 08:20:51.729,22866.658,0.01,0.83,-0.558,-0.009,-0.005,-0.043,-0.784,-0.016,-0.134,0.018,-0.978,1.247
2024-10-01 08:20:51.849,22866.778,0.006,0.811,-0.585,-0.006,-0.032,-0.005,-0.09,-0.006,-0.009,0.01,-0.945,1.24
2024-10-01 08:20:51.969,22866.897,0.004,0.807,-0.59,-0.002,-0.038,-0.02,-0.092,-0.002,-0.007,0.007,-0.94,1.235
2024-10-01 08:20:52.089,22867.017,0.004,0.805,-0.593,0.0,-0.025,-0.002,-0.129,-0.005,-0.003,0.007,-0.936,1.233
2024-10-01 08:20:52.208,22867.137,0.005,0.79,-0.613,-0.007,0.057,0.032,0.738,0.009,0.01,0.008,-0.911,1.234
2024-10-01 08:20:52.328,22867.257,0.005,0.807,-0.59,-0.006,-0.095,0.008,-0.281,-0.015,-0.006,0.008,-0.94,1.235
2024-10-01 08:20:52.448,22867.377,0.004,0.79,-0.613,-0.008,-0.074,-0.034,-0.339,-0.006,0.052,0.006,-0.91,1.232
2024-10-01 08:20:52.568,22867.496,0.003,0.808,-0.589,0.008,0.101,0.027,0.099,-0.04,-0.075,0.005,-0.941,1.233
2024-10-01 08:20:52.688,22867.616,0.003,0.804,-0.595,0.003,-0.049,-0.035,-0.401,-0.001,-0.004,0.004,-0.934,1.233
2024-10-01 08:20:52.808,22867.736,0.002,0.822,-0.57,0.003,0.072,0.021,0.342,-0.007,-0.033,0.003,-0.964,1.234
2024-10-01 08:20:52.927,22867.856,0.003,0.807,-0.591,0.0,0.009,0.006,-0.529,-0.041,-0.024,0.006,-0.939,1.236
2024-10-01 08:20:53.047,22867.976,0.002,0.82,-0.573,-0.002,-0.065,-0.004,0.25,-0.027,-0.031,0.003,-0.961,1.234
2024-10-01 08:20:53.167,22868.095,0.004,0.817,-0.577,-0.009,-0.057,-0.02,-0.508,0.015,0.175,0.007,-0.956,1.238
2024-10-01 08:20:53.287,22868.215,0.065,0.925,-0.375,-0.157,0.13,-0.037,-1.752,0.801,0.609,0.172,-1.181,1.396
2024-10-01 08:20:53.407,22868.335,0.156,0.857,-0.491,-0.077,-0.087,0.154,0.9,0.363,0.455,0.308,-1.029,1.461
2024-10-01 08:20:53.526,22868.455,0.125,0.847,-0.516,0.023,-0.069,-0.012,0.553,-0.608,-0.485,0.238,-1.011,1.426
2024-10-01 08:20:53.646,22868.574,-0.014,0.843,-0.538,-0.059,0.064,-0.036,-0.226,-0.351,-0.408,-0.026,-1.002,1.244
2024-10-01 08:20:53.766,22868.694,-0.019,0.869,-0.494,-0.078,0.026,-0.003,-0.257,0.244,-0.167,-0.039,-1.054,1.206
2024-10-01 08:20:53.886,22868.814,-0.028,0.87,-0.493,-0.013,0.001,0.016,0.177,-0.064,-0.074,-0.057,-1.054,1.188
2024-10-01 08:20:54.005,22868.934,-0.034,0.872,-0.489,-0.022,-0.055,0.013,0.003,0.034,0.05,-0.07,-1.058,1.174
2024-10-01 08:20:54.126,22869.054,-0.028,0.835,-0.55,-0.002,-0.117,-0.037,0.007,0.007,0.049,-0.051,-0.987,1.193
2024-10-01 08:20:54.245,22869.173,-0.03,0.835,-0.549,-0.004,-0.042,-0.018,-0.125,-0.004,-0.017,-0.055,-0.989,1.189
2024-10-01 08:20:54.364,22869.293,-0.031,0.838,-0.545,-0.002,-0.01,0.0,-0.071,0.001,-0.005,-0.057,-0.994,1.186
2024-10-01 08:20:54.485,22869.413,-0.032,0.812,-0.582,-0.017,-0.056,-0.033,-0.185,0.071,0.068,-0.055,-0.948,1.187
2024-10-01 08:20:54.604,22869.533,-0.031,0.837,-0.546,0.003,-0.039,-0.032,-0.553,-0.02,0.004,-0.057,-0.992,1.188
2024-10-01 08:20:54.724,22869.653,-0.03,0.818,-0.575,-0.001,0.014,0.003,-0.138,-0.007,0.008,-0.052,-0.957,1.192
2024-10-01 08:20:54.843,22869.772,-0.032,0.82,-0.572,-0.004,-0.031,-0.01,-0.095,-0.001,-0.011,-0.055,-0.961,1.188
2024-10-01 08:20:54.964,22869.892,-0.031,0.82,-0.571,-0.005,-0.001,0.005,0.088,0.012,0.02,-0.055,-0.962,1.189
2024-10-01 08:20:55.084,22870.012,-0.031,0.82,-0.572,-0.002,0.024,0.002,0.004,0.002,-0.013,-0.054,-0.961,1.19
2024-10-01 08:20:55.203,22870.132,-0.03,0.823,-0.567,-0.011,0.022,0.009,-0.082,0.045,0.034,-0.053,-0.967,1.193
2024-10-01 08:20:55.323,22870.252,-0.028,0.838,-0.545,0.009,0.055,0.011,-0.114,-0.011,-0.019,-0.052,-0.994,1.195
2024-10-01 08:20:55.442,22870.371,-0.03,0.834,-0.551,0.009,-0.077,-0.008,0.017,-0.006,-0.02,-0.054,-0.986,1.193
2024-10-01 08:20:55.563,22870.491,-0.03,0.838,-0.545,0.004,0.045,0.02,0.335,0.013,-0.048,-0.055,-0.993,1.19
2024-10-01 08:20:55.682,22870.611,-0.029,0.838,-0.545,-0.017,0.051,0.001,-0.086,0.065,0.128,-0.053,-0.993,1.191
2024-10-01 08:20:55.802,22870.731,-0.029,0.846,-0.533,0.014,0.029,0.017,0.032,-0.014,-0.022,-0.054,-1.008,1.193
2024-10-01 08:20:55.922,22870.851,-0.029,0.843,-0.537,0.005,0.019,0.003,-0.062,-0.023,-0.016,-0.054,-1.003,1.19
2024-10-01 08:20:56.042,22870.97,-0.03,0.83,-0.558,-0.005,0.074,0.044,1.072,0.035,-0.021,-0.053,-0.978,1.19
2024-10-01 08:20:56.161,22871.09,-0.027,0.832,-0.554,-0.005,-0.118,0.015,-0.212,-0.04,-0.025,-0.049,-0.983,1.194
2024-10-01 08:20:56.281,22871.21,-0.027,0.836,-0.549,-0.01,0.042,-0.006,-0.119,0.055,0.048,-0.049,-0.989,1.197
2024-10-01 08:20:56.400,22871.33,-0.016,0.881,-0.472,-0.001,0.001,-0.053,-0.973,0.111,0.032,-0.034,-1.079,1.207
2024-10-01 08:20:56.520,22871.45,-0.019,0.874,-0.485,0.007,0.023,0.015,0.203,-0.024,-0.06,-0.039,-1.064,1.199
2024-10-01 08:20:56.640,22871.569,-0.018,0.874,-0.485,-0.005,-0.018,-0.009,-0.012,0.001,0.013,-0.038,-1.064,1.201
2024-10-01 08:20:56.760,22871.689,-0.018,0.873,-0.487,0.0,0.015,0.008,0.041,0.001,-0.004,-0.037,-1.061,1.201
2024-10-01 08:20:56.880,22871.809,-0.018,0.876,-0.482,-0.003,-0.001,-0.001,0.197,0.005,0.017,-0.037,-1.068,1.202
2024-10-01 08:20:56.999,22871.929,-0.021,0.859,-0.512,0.007,0.097,0.013,0.08,-0.051,-0.079,-0.04,-1.033,1.198
2024-10-01 08:20:57.119,22872.049,-0.019,0.864,-0.504,0.013,-0.003,0.01,-0.059,-0.017,-0.059,-0.037,-1.042,1.202
2024-10-01 08:20:57.239,22872.168,-0.019,0.879,-0.476,-0.001,0.014,0.003,0.036,0.01,-0.023,-0.039,-1.074,1.2
2024-10-01 08:20:57.358,22872.288,-0.02,0.866,-0.501,-0.003,-0.219,-0.081,-0.484,-0.029,0.1,-0.039,-1.046,1.2
2024-10-01 08:20:57.478,22872.408,-0.011,0.898,-0.44,-0.008,-0.267,-0.115,-2.258,0.151,0.191,-0.025,-1.115,1.215
2024-10-01 08:20:57.598,22872.528,0.051,0.857,-0.513,0.036,-0.167,0.329,-0.2,0.352,-0.37,0.098,-1.03,1.243
2024-10-01 08:20:57.718,22872.647,0.004,0.831,-0.556,-0.023,0.102,0.041,1.485,-0.192,-0.026,0.008,-0.981,1.192
2024-10-01 08:20:57.837,22872.767,-0.003,0.79,-0.614,0.027,-0.081,-0.065,-0.699,-0.094,-0.195,-0.004,-0.91,1.193
2024-10-01 08:20:57.956,22872.887,-0.005,0.772,-0.636,0.01,0.05,0.033,0.43,-0.047,-0.065,-0.008,-0.881,1.19
2024-10-01 08:20:58.076,22873.007,-0.005,0.773,-0.635,-0.01,-0.056,-0.011,-0.11,0.021,0.02,-0.008,-0.883,1.19
2024-10-01 08:20:58.196,22873.127,-0.007,0.747,-0.665,0.008,0.059,0.018,0.103,-0.047,-0.026,-0.01,-0.844,1.187
2024-10-01 08:20:58.316,22873.246,-0.007,0.776,-0.63,-0.0,0.021,-0.013,-0.471,-0.007,-0.04,-0.011,-0.889,1.187
2024-10-01 08:20:58.435,22873.366,-0.006,0.754,-0.657,0.011,-0.341,-0.101,-0.504,0.006,0.001,-0.01,-0.854,1.189
2024-10-01 08:20:58.555,22873.486,-0.007,0.775,-0.632,0.003,0.132,0.019,0.146,-0.008,-0.045,-0.012,-0.886,1.188
2024-10-01 08:20:58.675,22873.606,-0.008,0.77,-0.638,0.003,-0.082,-0.017,-0.476,-0.034,-0.011,-0.012,-0.879,1.186
2024-10-01 08:20:58.795,22873.726,-0.007,0.794,-0.608,-0.003,-0.011,0.011,0.133,-0.014,-0.016,-0.012,-0.917,1.187
2024-10-01 08:20:58.915,22873.845,-0.006,0.776,-0.631,-0.006,0.008,0.035,-0.41,0.007,-0.001,-0.01,-0.888,1.189
2024-10-01 08:20:59.034,22873.965,-0.008,0.785,-0.619,-0.003,-0.025,0.038,0.552,-0.01,-0.025,-0.013,-0.903,1.187
2024-10-01 08:20:59.154,22874.085,-0.006,0.783,-0.622,-0.008,0.014,0.032,-0.237,0.003,0.067,-0.01,-0.899,1.19
2024-10-01 08:20:59.273,22874.205,0.008,0.878,-0.479,-0.002,0.093,-0.007,-0.943,-0.134,0.426,0.016,-1.071,1.218
2024-10-01 08:20:59.393,22874.325,0.085,0.88,-0.468,0.363,0.06,0.07,1.639,-0.829,0.461,0.179,-1.075,1.342
2024-10-01 08:20:59.513,22874.444,0.09,0.859,-0.504,-0.023,0.055,-0.025,1.092,-0.107,-0.065,0.177,-1.034,1.361
2024-10-01 08:20:59.633,22874.564,0.084,0.803,-0.589,-0.019,-0.005,-0.02,0.82,0.01,0.031,0.141,-0.933,1.333
2024-10-01 08:20:59.752,22874.684,0.047,0.769,-0.637,-0.022,0.025,-0.017,0.112,-0.451,-0.379,0.074,-0.877,1.302
2024-10-01 08:20:59.872,22874.804,-0.004,0.791,-0.612,-0.029,-0.029,-0.015,-0.491,0.072,-0.269,-0.006,-0.913,1.241
2024-10-01 08:20:59.992,22874.924,-0.024,0.808,-0.588,-0.006,-0.04,-0.005,-0.116,-0.053,-0.026,-0.041,-0.942,1.203
2024-10-01 08:21:00.111,22875.043,-0.016,0.813,-0.582,0.031,0.013,0.015,0.142,-0.082,-0.064,-0.027,-0.95,1.214
2024-10-01 08:21:00.231,22875.163,-0.016,0.8,-0.6,-0.011,-0.029,-0.01,-0.086,0.027,0.019,-0.027,-0.927,1.216
2024-10-01 08:21:00.351,22875.283,-0.016,0.79,-0.613,-0.003,-0.031,-0.014,-0.055,0.003,0.006,-0.026,-0.91,1.215
2024-10-01 08:21:00.471,22875.403,-0.016,0.789,-0.614,-0.001,0.014,0.009,0.058,-0.004,-0.016,-0.026,-0.909,1.215
2024-10-01 08:21:00.591,22875.523,-0.016,0.77,-0.638,-0.005,0.084,0.021,0.258,0.018,-0.006,-0.024,-0.879,1.214
2024-10-01 08:21:00.711,22875.642,-0.017,0.797,-0.604,0.002,0.111,0.015,-0.132,-0.037,-0.047,-0.028,-0.922,1.212
2024-10-01 08:21:00.830,22875.762,-0.018,0.8,-0.6,-0.012,0.026,0.023,0.815,0.053,0.065,-0.029,-0.927,1.21
2024-10-01 08:21:00.950,22875.882,-0.018,0.787,-0.616,0.002,0.064,0.042,0.116,-0.015,-0.019,-0.028,-0.906,1.211
2024-10-01 08:21:01.069,22876.002,-0.017,0.796,-0.605,-0.005,-0.03,-0.007,-0.096,0.01,0.027,-0.028,-0.92,1.211
2024-10-01 08:21:01.189,22876.122,-0.017,0.803,-0.596,0.002,-0.067,-0.025,-0.326,-0.03,-0.001,-0.028,-0.932,1.213
2024-10-01 08:21:01.309,22876.241,-0.018,0.801,-0.599,-0.008,0.033,-0.015,-0.284,0.019,-0.004,-0.03,-0.928,1.21
2024-10-01 08:21:01.428,22876.361,-0.019,0.816,-0.578,-0.0,-0.025,-0.017,-0.274,-0.009,-0.034,-0.033,-0.954,1.209
2024-10-01 08:21:01.548,22876.481,-0.019,0.797,-0.604,0.007,-0.054,0.005,-0.401,-0.055,-0.053,-0.031,-0.922,1.21
2024-10-01 08:21:01.668,22876.601,-0.019,0.802,-0.597,-0.007,-0.071,0.002,-0.078,0.015,0.033,-0.032,-0.93,1.21
2024-10-01 08:21:01.788,22876.72,-0.023,0.823,-0.568,-0.006,0.068,-0.023,-0.318,-0.023,-0.007,-0.041,-0.966,1.204
2024-10-01 08:21:01.908,22876.84,-0.024,0.811,-0.585,-0.001,-0.057,-0.002,-0.128,0.006,-0.02,-0.041,-0.945,1.2
2024-10-01 08:21:02.027,22876.96,-0.022,0.812,-0.584,-0.002,-0.08,-0.011,-0.148,0.003,0.007,-0.038,-0.947,1.202
2024-10-01 08:21:02.147,22877.08,-0.021,0.82,-0.572,-0.005,0.024,0.007,-0.112,-0.005,-0.003,-0.037,-0.961,1.202
2024-10-01 08:21:02.267,22877.2,-0.02,0.802,-0.597,-0.004,0.018,0.011,-0.017,-0.025,-0.009,-0.033,-0.93,1.205
2024-10-01 08:21:02.386,22877.319,-0.022,0.81,-0.587,-0.007,-0.093,-0.03,-0.445,0.018,-0.007,-0.038,-0.943,1.198
2024-10-01 08:21:02.507,22877.439,-0.022,0.819,-0.573,0.007,-0.027,0.009,0.041,-0.017,-0.041,-0.038,-0.96,1.198
2024-10-01 08:21:02.626,22877.559,-0.025,0.832,-0.555,-0.001,-0.005,-0.009,-0.511,-0.022,-0.033,-0.045,-0.982,1.193
2024-10-01 08:21:02.745,22877.679,-0.023,0.825,-0.565,0.002,-0.074,-0.024,-0.286,-0.004,-0.02,-0.042,-0.97,1.196
2024-10-01 08:21:02.865,22877.799,-0.021,0.821,-0.571,-0.001,-0.256,-0.09,-0.595,0.003,0.058,-0.037,-0.962,1.197
2024-10-01 08:21:02.985,22877.918,-0.025,0.864,-0.502,-0.028,-0.126,-0.077,-1.867,0.13,0.031,-0.049,-1.044,1.188
2024-10-01 08:21:03.105,22878.038,0.016,0.921,-0.389,0.229,0.135,0.199,0.841,-0.662,-0.555,0.042,-1.171,1.193
2024-10-01 08:21:03.224,22878.158,-0.019,0.878,-0.479,-0.015,-0.099,-0.022,0.116,-0.085,-0.081,-0.04,-1.071,1.144
2024-10-01 08:21:03.344,22878.278,-0.023,0.876,-0.483,-0.003,0.025,0.036,0.143,-0.003,-0.026,-0.049,-1.067,1.135
2024-10-01 08:21:03.464,22878.398,-0.024,0.876,-0.482,-0.01,0.005,0.009,0.03,0.015,0.025,-0.05,-1.068,1.134
2024-10-01 08:21:03.584,22878.517,-0.022,0.857,-0.516,-0.009,-0.261,-0.062,-0.431,-0.002,0.062,-0.042,-1.029,1.142
2024-10-01 08:21:03.704,22878.637,-0.025,0.87,-0.492,0.004,-0.091,-0.03,0.006,-0.032,0.001,-0.05,-1.056,1.137
2024-10-01 08:21:03.823,22878.757,-0.022,0.861,-0.509,0.017,0.081,0.024,-0.15,-0.041,-0.071,-0.043,-1.037,1.143
2024-10-01 08:21:03.943,22878.877,-0.024,0.866,-0.5,-0.007,-0.028,0.005,0.388,-0.01,0.005,-0.048,-1.047,1.139
2024-10-01 08:21:04.063,22878.997,-0.022,0.874,-0.486,-0.001,-0.086,-0.02,-0.319,-0.056,0.036,-0.045,-1.062,1.144
2024-10-01 08:21:04.182,22879.116,-0.024,0.868,-0.496,-0.002,-0.041,0.016,0.824,0.01,-0.014,-0.047,-1.051,1.142
2024-10-01 08:21:04.302,22879.236,-0.022,0.874,-0.485,0.002,-0.205,-0.043,-0.59,-0.028,0.035,-0.045,-1.064,1.144
2024-10-01 08:21:04.423,22879.356,-0.024,0.864,-0.503,-0.007,0.053,0.003,-0.184,-0.03,0.042,-0.049,-1.043,1.14
2024-10-01 08:21:04.542,22879.476,-0.016,0.891,-0.455,-0.022,0.005,-0.05,-1.489,-0.024,0.132,-0.035,-1.099,1.154
2024-10-01 08:21:04.661,22879.596,0.044,0.933,-0.358,-0.139,-0.012,0.152,-1.675,1.237,0.717,0.121,-1.201,1.296
2024-10-01 08:21:04.781,22879.715,0.088,0.893,-0.441,-0.118,-0.153,0.071,0.311,0.049,0.099,0.198,-1.105,1.365
2024-10-01 08:21:04.900,22879.835,0.073,0.865,-0.496,0.034,0.011,-0.025,0.682,-0.302,-0.119,0.146,-1.046,1.327
2024-10-01 08:21:05.021,22879.955,0.026,0.858,-0.512,-0.008,-0.012,-0.016,-0.226,-0.135,-0.362,0.052,-1.032,1.261
2024-10-01 08:21:05.140,22880.075,0.002,0.862,-0.507,0.001,0.019,0.023,0.158,-0.051,-0.11,0.003,-1.039,1.218
2024-10-01 08:21:05.260,22880.194,-0.005,0.855,-0.519,-0.012,0.006,0.005,0.133,0.006,0.033,-0.01,-1.025,1.208
2024-10-01 08:21:05.380,22880.314,-0.006,0.85,-0.527,0.003,0.081,0.034,0.281,-0.021,-0.071,-0.011,-1.015,1.205
2024-10-01 08:21:05.500,22880.434,-0.008,0.84,-0.542,-0.009,-0.057,-0.015,0.162,0.025,0.068,-0.014,-0.998,1.202
2024-10-01 08:21:05.619,22880.554,-0.008,0.844,-0.536,0.008,0.003,0.003,-0.001,-0.012,-0.043,-0.015,-1.005,1.2
2024-10-01 08:21:05.739,22880.674,-0.007,0.839,-0.544,-0.008,-0.048,-0.018,-0.425,-0.014,-0.024,-0.012,-0.996,1.201
2024-10-01 08:21:05.858,22880.793,-0.008,0.864,-0.504,-0.015,0.137,0.044,0.529,0.03,0.017,-0.017,-1.043,1.199
2024-10-01 08:21:05.979,22880.913,-0.009,0.839,-0.544,0.009,-0.228,-0.069,-0.135,0.026,0.07,-0.016,-0.995,1.199
2024-10-01 08:21:06.099,22881.033,-0.009,0.842,-0.539,-0.0,-0.075,-0.017,-0.19,-0.006,0.017,-0.016,-1.001,1.2
2024-10-01 08:21:06.218,22881.153,-0.006,0.848,-0.53,-0.015,0.06,0.034,0.15,0.029,0.044,-0.011,-1.012,1.205
2024-10-01 08:21:06.337,22881.273,-0.007,0.855,-0.518,-0.007,0.053,0.004,-0.253,-0.012,-0.039,-0.013,-1.026,1.205
2024-10-01 08:21:06.457,22881.392,-0.008,0.852,-0.524,-0.013,-0.088,-0.02,-0.211,0.051,0.026,-0.015,-1.02,1.202
2024-10-01 08:21:06.577,22881.512,-0.008,0.858,-0.514,0.006,0.009,0.004,-0.03,-0.028,-0.034,-0.015,-1.031,1.203
2024-10-01 08:21:06.697,22881.632,-0.009,0.871,-0.492,0.0,0.046,0.035,0.431,-0.012,-0.039,-0.017,-1.057,1.2
2024-10-01 08:21:06.816,22881.752,-0.009,0.85,-0.526,0.005,-0.204,-0.085,-0.701,-0.05,0.074,-0.018,-1.016,1.2
2024-10-01 08:21:06.936,22881.872,-0.006,0.854,-0.521,-0.0,0.064,0.025,0.095,-0.019,-0.01,-0.012,-1.023,1.206
2024-10-01 08:21:07.056,22881.991,-0.006,0.878,-0.479,0.001,0.0,0.0,-0.166,-0.015,0.021,-0.012,-1.071,1.209
2024-10-01 08:21:07.176,22882.111,0.022,0.905,-0.426,-0.006,-0.006,0.01,-0.411,0.51,-0.015,0.051,-1.131,1.254
2024-10-01 08:21:07.296,22882.231,0.01,0.888,-0.459,0.019,-0.034,-0.027,-0.137,-0.04,-0.076,0.021,-1.094,1.222
2024-10-01 08:21:07.415,22882.351,0.008,0.886,-0.463,-0.009,-0.023,0.0,-0.079,0.007,0.029,0.018,-1.09,1.22
2024-10-01 08:21:07.535,22882.471,0.008,0.884,-0.468,0.001,-0.017,-0.006,-0.001,0.002,0.009,0.017,-1.084,1.219
2024-10-01 08:21:07.655,22882.59,0.008,0.878,-0.478,-0.002,0.102,0.059,0.988,-0.031,-0.03,0.018,-1.073,1.22
2024-10-01 08:21:07.775,22882.71,0.006,0.881,-0.474,-0.024,0.116,0.032,0.028,0.029,-0.025,0.013,-1.077,1.215
2024-10-01 08:21:07.894,22882.83,0.011,0.888,-0.46,0.0,-0.037,-0.0,-0.134,-0.005,-0.021,0.023,-1.092,1.225
2024-10-01 08:21:08.014,22882.95,0.008,0.898,-0.439,-0.006,-0.068,-0.017,-0.485,0.002,0.062,0.018,-1.116,1.221
2024-10-01 08:21:08.134,22883.07,0.008,0.897,-0.443,0.001,0.003,-0.002,0.027,-0.005,-0.009,0.017,-1.112,1.221
2024-10-01 08:21:08.254,22883.189,0.007,0.886,-0.463,-0.006,0.074,0.032,0.125,0.063,-0.023,0.014,-1.09,1.217
2024-10-01 08:21:08.373,22883.309,0.009,0.891,-0.454,-0.002,0.035,0.004,-0.252,0.026,0.019,0.02,-1.1,1.226
2024-10-01 08:21:08.494,22883.429,0.085,0.942,-0.325,-0.124,0.328,-0.007,2.984,0.833,-0.132,0.255,-1.228,1.379
2024-10-01 08:21:08.613,22883.549,0.02,0.908,-0.419,-0.081,0.056,0.06,1.11,-0.377,-0.394,0.048,-1.138,1.186
2024-10-01 08:21:08.733,22883.669,0.003,0.851,-0.525,-0.023,-0.081,-0.036,-0.105,-0.022,0.002,0.006,-1.018,1.168
2024-10-01 08:21:08.852,22883.788,-0.002,0.849,-0.528,-0.011,0.036,0.007,0.421,0.006,0.017,-0.004,-1.014,1.159
2024-10-01 08:21:08.972,22883.908,-0.005,0.843,-0.538,-0.001,0.011,0.004,0.17,0.005,-0.013,-0.009,-1.002,1.154
2024-10-01 08:21:09.092,22884.028,-0.004,0.837,-0.548,0.003,0.061,0.022,0.174,-0.007,-0.031,-0.007,-0.991,1.156
2024-10-01 08:21:09.212,22884.148,-0.005,0.838,-0.546,-0.009,0.025,0.015,0.316,0.01,-0.017,-0.009,-0.993,1.154
2024-10-01 08:21:09.331,22884.267,-0.002,0.823,-0.568,0.006,0.086,-0.008,-0.178,-0.016,-0.028,-0.004,-0.967,1.158
2024-10-01 08:21:09.450,22884.387,-0.005,0.827,-0.561,-0.018,0.039,0.036,0.822,0.049,0.058,-0.009,-0.975,1.156
2024-10-01 08:21:09.571,22884.507,-0.004,0.827,-0.562,0.002,-0.152,-0.055,-0.713,-0.014,0.038,-0.007,-0.974,1.159
2024-10-01 08:21:09.691,22884.627,-0.003,0.827,-0.562,-0.001,0.041,0.011,0.167,-0.005,-0.021,-0.006,-0.974,1.159
2024-10-01 08:21:09.810,22884.747,-0.003,0.849,-0.529,-0.004,0.059,-0.008,-0.478,-0.01,-0.013,-0.006,-1.014,1.162
2024-10-01 08:21:09.930,22884.866,-0.004,0.832,-0.555,-0.006,-0.117,-0.054,-0.6,-0.021,0.041,-0.006,-0.983,1.162
2024-10-01 08:21:10.050,22884.986,-0.003,0.842,-0.539,-0.004,0.167,0.048,0.461,-0.005,-0.057,-0.005,-1.001,1.164
2024-10-01 08:21:10.170,22885.106,-0.001,0.845,-0.534,-0.007,-0.04,-0.009,-0.311,-0.015,0.058,-0.002,-1.007,1.167
2024-10-01 08:21:10.289,22885.226,0.01,0.883,-0.469,-0.034,0.17,-0.057,-1.106,0.402,0.353,0.02,-1.083,1.19
2024-10-01 08:21:10.409,22885.346,0.115,0.865,-0.488,-0.057,-0.174,0.083,0.707,0.101,0.037,0.232,-1.045,1.335
2024-10-01 08:21:10.529,22885.465,0.115,0.868,-0.482,-0.057,-0.042,0.017,0.262,-0.105,-0.063,0.234,-1.052,1.351
2024-10-01 08:21:10.648,22885.585,0.106,0.849,-0.518,-0.006,0.033,-0.027,0.294,-0.162,-0.059,0.201,-1.014,1.327
2024-10-01 08:21:10.768,22885.705,0.066,0.837,-0.543,0.088,0.044,-0.091,0.392,-0.991,-0.453,0.12,-0.992,1.282
2024-10-01 08:21:10.888,22885.825,0.018,0.825,-0.565,0.027,-0.047,-0.001,-0.198,-0.072,-0.091,0.032,-0.971,1.225
2024-10-01 08:21:11.008,22885.945,0.012,0.818,-0.575,-0.003,0.044,0.046,0.755,-0.108,-0.086,0.02,-0.959,1.216
2024-10-01 08:21:11.128,22886.064,0.007,0.814,-0.581,0.007,-0.058,-0.014,-0.274,-0.02,-0.017,0.013,-0.95,1.212
2024-10-01 08:21:11.247,22886.184,0.004,0.814,-0.581,0.004,-0.012,0.007,-0.005,-0.042,-0.049,0.007,-0.951,1.207
2024-10-01 08:21:11.367,22886.304,0.001,0.817,-0.577,-0.008,-0.0,-0.011,0.019,0.017,0.003,0.001,-0.956,1.203
2024-10-01 08:21:11.487,22886.424,0.0,0.812,-0.584,-0.004,0.002,0.01,0.115,0.003,-0.002,0.0,-0.948,1.201
2024-10-01 08:21:11.607,22886.544,-0.001,0.811,-0.586,-0.003,-0.01,0.007,0.018,0.004,-0.012,-0.001,-0.945,1.2
2024-10-01 08:21:11.726,22886.663,-0.0,0.799,-0.601,-0.011,-0.239,-0.05,-0.447,0.041,0.058,-0.0,-0.926,1.201
2024-10-01 08:21:11.847,22886.783,-0.002,0.806,-0.592,-0.003,0.035,0.022,0.665,0.0,-0.003,-0.003,-0.937,1.201
2024-10-01 08:21:11.966,22886.903,-0.002,0.805,-0.594,0.003,-0.021,0.01,0.05,-0.022,-0.019,-0.003,-0.935,1.2
2024-10-01 08:21:12.086,22887.023,-0.001,0.809,-0.588,-0.003,-0.01,0.009,0.138,0.011,0.026,-0.002,-0.943,1.201
2024-10-01 08:21:12.205,22887.143,-0.001,0.813,-0.583,-0.007,-0.078,-0.017,-0.306,0.008,0.037,-0.002,-0.949,1.203
2024-10-01 08:21:12.325,22887.262,-0.001,0.814,-0.581,0.003,-0.044,-0.055,-0.345,0.0,-0.006,-0.002,-0.951,1.202
2024-10-01 08:21:12.445,22887.382,-0.001,0.831,-0.556,-0.005,-0.017,0.004,-0.207,-0.025,-0.005,-0.001,-0.981,1.203
2024-10-01 08:21:12.565,22887.502,-0.002,0.81,-0.586,-0.001,0.007,0.004,-0.217,-0.034,-0.031,-0.004,-0.945,1.2
2024-10-01 08:21:12.685,22887.622,-0.001,0.812,-0.583,-0.023,-0.077,-0.023,-0.196,0.046,0.073,-0.002,-0.948,1.203
2024-10-01 08:21:12.804,22887.742,-0.006,0.825,-0.565,0.012,-0.017,-0.01,-0.286,-0.029,-0.123,-0.011,-0.971,1.198
2024-10-01 08:21:12.924,22887.861,-0.004,0.83,-0.557,-0.022,-0.007,0.001,-0.193,0.077,0.048,-0.006,-0.98,1.198
2024-10-01 08:21:13.044,22887.981,-0.004,0.834,-0.552,0.002,0.009,0.003,-0.057,-0.016,-0.023,-0.008,-0.986,1.196
2024-10-01 08:21:13.163,22888.101,-0.002,0.815,-0.579,-0.001,0.079,0.022,0.201,-0.012,-0.044,-0.004,-0.953,1.2
2024-10-01 08:21:13.283,22888.221,-0.003,0.825,-0.565,-0.011,-0.043,-0.005,-0.29,0.019,0.038,-0.005,-0.97,1.199
2024-10-01 08:21:13.403,22888.34,-0.001,0.831,-0.556,0.004,-0.049,0.001,-0.013,-0.031,-0.059,-0.001,-0.981,1.203
2024-10-01 08:21:13.523,22888.46,-0.004,0.844,-0.536,-0.006,-0.013,-0.016,-0.233,0.001,0.004,-0.007,-1.005,1.198
2024-10-01 08:21:13.643,22888.58,-0.003,0.823,-0.568,-0.003,0.088,0.023,-0.091,0.009,-0.02,-0.005,-0.967,1.199
2024-10-01 08:21:13.763,22888.7,-0.003,0.836,-0.549,-0.007,-0.013,0.009,-0.683,-0.023,-0.032,-0.006,-0.989,1.201
2024-10-01 08:21:13.882,22888.82,0.026,0.914,-0.406,-0.121,-0.041,-0.001,-0.401,1.074,0.223,0.064,-1.152,1.212
2024-10-01 08:21:14.002,22888.939,-0.002,0.912,-0.41,0.004,0.063,0.058,0.334,-0.025,-0.072,-0.005,-1.148,1.148
2024-10-01 08:21:14.121,22889.059,-0.006,0.906,-0.424,-0.009,0.005,-0.002,0.025,-0.006,-0.004,-0.014,-1.133,1.14
2024-10-01 08:21:14.241,22889.179,-0.007,0.901,-0.433,0.002,-0.002,0.006,0.085,-0.0,-0.032,-0.017,-1.123,1.139
2024-10-01 08:21:14.361,22889.299,-0.003,0.899,-0.439,0.004,0.015,0.01,-0.229,-0.013,-0.022,-0.008,-1.117,1.148
2024-10-01 08:21:14.481,22889.419,-0.007,0.904,-0.428,0.002,0.104,0.061,0.807,-0.008,-0.097,-0.015,-1.128,1.143
2024-10-01 08:21:14.601,22889.538,-0.006,0.9,-0.437,-0.012,-0.084,-0.028,-0.327,0.017,0.062,-0.014,-1.119,1.145
2024-10-01 08:21:14.720,22889.658,-0.007,0.896,-0.444,-0.009,0.032,0.001,0.144,0.028,0.051,-0.017,-1.111,1.143
2024-10-01 08:21:14.840,22889.778,-0.003,0.914,-0.405,0.0,-0.007,-0.027,-0.719,-0.035,0.023,-0.008,-1.154,1.152
2024-10-01 08:21:14.960,22889.898,-0.005,0.897,-0.441,-0.003,0.058,-0.007,-0.559,-0.042,0.011,-0.011,-1.114,1.147
2024-10-01 08:21:15.079,22890.018,-0.001,0.913,-0.408,0.02,0.031,0.02,0.014,0.008,-0.12,-0.002,-1.15,1.157
2024-10-01 08:21:15.199,22890.137,0.001,0.905,-0.426,-0.016,-0.068,-0.049,-0.19,0.115,0.159,0.003,-1.131,1.161
2024-10-01 08:21:15.319,22890.257,0.01,0.921,-0.39,-0.01,-0.048,-0.062,-1.018,-0.053,0.385,0.025,-1.171,1.187
2024-10-01 08:21:15.440,22890.377,0.106,0.903,-0.417,0.264,-0.041,0.008,1.546,-0.497,0.311,0.25,-1.126,1.379
2024-10-01 08:21:15.559,22890.497,0.081,0.888,-0.453,-0.054,0.127,-0.081,1.071,-0.257,-0.259,0.178,-1.092,1.325
2024-10-01 08:21:15.679,22890.617,0.071,0.876,-0.478,0.072,-0.102,-0.02,-0.301,-0.354,-0.002,0.148,-1.066,1.325
2024-10-01 08:21:15.798,22890.736,0.033,0.912,-0.409,-0.017,0.037,0.146,0.101,-0.061,-0.289,0.08,-1.148,1.283
2024-10-01 08:21:15.918,22890.856,0.035,0.899,-0.436,0.009,0.071,0.087,1.429,-0.114,-0.099,0.079,-1.118,1.296
2024-10-01 08:21:16.038,22890.976,0.044,0.893,-0.447,0.01,0.009,-0.015,-0.794,0.008,0.005,0.098,-1.105,1.314
2024-10-01 08:21:16.158,22891.096,0.066,0.942,-0.33,0.008,0.174,0.147,1.39,-0.091,0.004,0.199,-1.228,1.415
2024-10-01 08:21:16.277,22891.216,0.046,0.888,-0.458,-0.026,-0.123,-0.076,-0.754,0.11,0.178,0.101,-1.092,1.318
2024-10-01 08:21:16.397,22891.335,0.052,0.902,-0.429,-0.013,0.007,-0.005,-0.235,0.024,0.046,0.122,-1.124,1.336
2024-10-01 08:21:16.516,22891.455,0.045,0.877,-0.478,0.012,0.15,0.086,1.358,-0.014,-0.23,0.094,-1.07,1.308
2024-10-01 08:21:16.637,22891.575,0.051,0.898,-0.437,-0.02,0.089,0.005,-0.5,0.022,-0.026,0.115,-1.115,1.326
2024-10-01 08:21:16.756,22891.695,0.05,0.887,-0.459,-0.028,-0.109,-0.029,-0.245,0.165,0.137,0.109,-1.091,1.321
2024-10-01 08:21:16.876,22891.814,0.051,0.892,-0.45,0.007,0.006,-0.003,-0.146,-0.025,0.016,0.113,-1.101,1.323
2024-10-01 08:21:16.996,22891.934,0.053,0.893,-0.448,-0.002,-0.03,-0.014,-0.245,0.013,-0.026,0.119,-1.103,1.327
2024-10-01 08:21:17.116,22892.054,0.05,0.891,-0.452,0.014,0.139,0.073,0.821,-0.059,-0.192,0.111,-1.098,1.32
2024-10-01 08:21:17.235,22892.174,0.061,0.898,-0.436,-0.031,-0.015,-0.01,-0.309,0.061,0.058,0.138,-1.115,1.345
2024-10-01 08:21:17.355,22892.294,0.056,0.905,-0.421,0.001,0.032,0.007,0.325,-0.052,-0.008,0.133,-1.132,1.339
2024-10-01 08:21:17.475,22892.413,0.052,0.886,-0.461,0.087,0.104,0.06,0.311,-0.137,-0.274,0.112,-1.089,1.317
2024-10-01 08:21:17.595,22892.533,0.057,0.893,-0.446,-0.01,-0.036,-0.006,-0.167,-0.026,0.036,0.126,-1.105,1.331
2024-10-01 08:21:17.715,22892.653,0.051,0.891,-0.45,0.032,0.014,0.028,0.285,-0.062,-0.196,0.112,-1.101,1.316
2024-10-01 08:21:17.834,22892.773,0.054,0.899,-0.434,-0.016,-0.017,-0.019,-0.277,0.028,0.045,0.125,-1.118,1.327
2024-10-01 08:21:17.954,22892.893,0.048,0.881,-0.471,-0.0,0.09,0.032,0.067,-0.003,-0.09,0.102,-1.077,1.303
2024-10-01 08:21:18.074,22893.012,0.053,0.891,-0.452,-0.017,-0.078,-0.035,-0.366,0.037,0.059,0.117,-1.099,1.316
2024-10-01 08:21:18.193,22893.132,0.06,0.896,-0.439,0.013,-0.051,0.006,-0.054,0.029,-0.035,0.137,-1.111,1.333
2024-10-01 08:21:18.313,22893.252,0.053,0.9,-0.433,-0.001,0.003,-0.028,-0.319,0.003,0.025,0.123,-1.119,1.317
2024-10-01 08:21:18.433,22893.372,0.052,0.895,-0.444,0.006,0.066,0.048,0.794,-0.099,-0.042,0.118,-1.107,1.312
2024-10-01 08:21:18.553,22893.492,0.059,0.898,-0.436,-0.034,0.087,0.019,-0.182,0.072,0.069,0.134,-1.115,1.329
2024-10-01 08:21:18.673,22893.611,0.101,0.925,-0.367,-0.132,0.153,0.09,0.416,0.926,-0.019,0.268,-1.18,1.401
2024-10-01 08:21:18.793,22893.731,0.058,0.916,-0.397,-0.087,0.116,-0.064,0.182,0.183,0.164,0.146,-1.158,1.288
2024-10-01 08:21:18.912,22893.851,0.054,0.912,-0.407,-0.002,0.021,0.01,-0.117,-0.003,-0.046,0.133,-1.147,1.276
2024-10-01 08:21:19.032,22893.971,0.053,0.909,-0.413,-0.006,-0.011,0.003,0.341,0.004,0.002,0.129,-1.141,1.272
2024-10-01 08:21:19.152,22894.091,0.055,0.903,-0.426,-0.006,-0.076,-0.007,-0.318,-0.014,0.056,0.129,-1.127,1.273
2024-10-01 08:21:19.272,22894.21,0.052,0.903,-0.426,0.021,0.097,0.062,0.83,-0.097,-0.113,0.122,-1.127,1.267
2024-10-01 08:21:19.391,22894.33,0.055,0.901,-0.43,-0.021,0.016,0.019,-0.338,-0.021,-0.01,0.127,-1.122,1.272
2024-10-01 08:21:19.511,22894.45,0.051,0.901,-0.432,-0.005,0.025,0.009,0.197,-0.02,0.011,0.118,-1.121,1.263
2024-10-01 08:21:19.631,22894.57,0.057,0.908,-0.415,-0.007,0.027,0.004,-0.202,0.051,0.015,0.136,-1.139,1.281
2024-10-01 08:21:19.751,22894.69,0.053,0.899,-0.434,-0.008,0.049,0.041,0.503,0.03,-0.11,0.121,-1.118,1.267
2024-10-01 08:21:19.870,22894.809,0.059,0.91,-0.409,-0.008,-0.029,-0.01,-0.111,-0.005,-0.033,0.143,-1.144,1.287
2024-10-01 08:21:19.990,22894.929,0.052,0.903,-0.427,-0.014,0.062,0.006,-0.204,-0.039,0.127,0.122,-1.126,1.266
2024-10-01 08:21:20.110,22895.049,0.061,0.91,-0.411,-0.01,0.023,-0.004,-0.373,0.039,0.091,0.147,-1.142,1.293
2024-10-01 08:21:20.230,22895.169,0.082,0.918,-0.388,-0.023,0.084,0.027,-0.033,0.219,0.555,0.208,-1.163,1.362
2024-10-01 08:21:20.350,22895.289,0.145,0.889,-0.434,0.096,0.103,0.021,0.382,0.128,0.47,0.323,-1.095,1.432
2024-10-01 08:21:20.469,22895.408,0.208,0.869,-0.449,0.059,0.064,-0.001,0.248,-0.069,0.486,0.434,-1.053,1.532
2024-10-01 08:21:20.588,22895.528,0.209,0.856,-0.472,0.054,-0.06,0.044,-0.153,-0.578,-0.023,0.417,-1.028,1.572
2024-10-01 08:21:20.709,22895.648,0.149,0.842,-0.519,0.083,-0.002,-0.046,0.628,-0.689,-0.138,0.28,-1.001,1.502
2024-10-01 08:21:20.829,22895.768,0.119,0.823,-0.556,-0.073,-0.027,0.064,0.312,-0.5,-0.066,0.21,-0.966,1.47
2024-10-01 08:21:20.948,22895.887,0.068,0.839,-0.54,-0.013,0.005,-0.045,-0.144,-0.167,-0.382,0.125,-0.996,1.412
2024-10-01 08:21:21.068,22896.007,0.014,0.852,-0.524,0.06,0.016,-0.036,-0.205,-0.948,-1.098,0.027,-1.019,1.344
2024-10-01 08:21:21.188,22896.127,0.003,0.851,-0.525,-0.047,-0.025,0.006,0.219,0.023,0.011,0.006,-1.018,1.336
2024-10-01 08:21:21.308,22896.247,-0.002,0.849,-0.529,-0.037,0.027,-0.022,-0.193,0.09,0.081,-0.004,-1.013,1.326
2024-10-01 08:21:21.428,22896.367,-0.003,0.858,-0.514,0.051,0.045,-0.027,-0.103,-0.031,0.264,-0.006,-1.03,1.316
2024-10-01 08:21:21.547,22896.486,0.025,0.878,-0.478,-0.006,0.034,-0.054,0.096,-0.041,0.138,0.053,-1.072,1.381
2024-10-01 08:21:21.667,22896.606,0.031,0.872,-0.489,0.032,-0.077,0.137,-0.108,-0.023,-0.082,0.063,-1.059,1.387
2024-10-01 08:21:21.787,22896.726,0.004,0.861,-0.509,-0.034,0.109,0.013,0.217,0.026,0.048,0.008,-1.037,1.353
2024-10-01 08:21:21.907,22896.846,0.009,0.851,-0.526,-0.021,0.106,0.032,0.413,-0.003,0.073,0.017,-1.017,1.362
2024-10-01 08:21:22.026,22896.966,0.01,0.845,-0.535,-0.014,-0.03,-0.019,-0.145,0.038,0.014,0.018,-1.006,1.364
2024-10-01 08:21:22.146,22897.085,0.007,0.841,-0.541,0.007,0.006,0.012,0.176,-0.042,-0.055,0.013,-0.999,1.358
2024-10-01 08:21:22.266,22897.205,0.007,0.834,-0.552,-0.011,-0.028,-0.0,-0.011,0.02,0.028,0.012,-0.986,1.358
2024-10-01 08:21:22.386,22897.325,0.006,0.836,-0.549,-0.002,0.04,0.016,0.277,-0.005,-0.014,0.011,-0.989,1.358
2024-10-01 08:21:22.505,22897.445,0.008,0.827,-0.562,0.001,0.001,-0.042,-0.27,0.032,0.031,0.015,-0.974,1.362
2024-10-01 08:21:22.625,22897.565,0.004,0.831,-0.556,-0.004,-0.053,0.005,0.203,0.01,-0.041,0.008,-0.981,1.357
2024-10-01 08:21:22.745,22897.684,0.005,0.828,-0.561,0.0,0.087,0.005,-0.187,0.016,0.056,0.008,-0.975,1.357
2024-10-01 08:21:22.864,22897.804,0.005,0.837,-0.547,-0.024,-0.018,-0.01,-0.216,0.045,0.075,0.009,-0.993,1.358
2024-10-01 08:21:22.984,22897.924,0.003,0.823,-0.567,-0.003,0.095,0.043,0.599,-0.003,-0.023,0.006,-0.967,1.356
2024-10-01 08:21:23.105,22898.044,0.004,0.839,-0.543,-0.005,0.042,0.022,0.079,-0.019,-0.006,0.007,-0.996,1.359
2024-10-01 08:21:23.224,22898.164,0.001,0.834,-0.552,-0.003,-0.128,-0.02,-0.223,0.03,0.018,0.002,-0.986,1.355
2024-10-01 08:21:23.344,22898.283,0.003,0.838,-0.546,-0.005,-0.072,-0.021,-0.178,0.003,-0.003,0.006,-0.994,1.36
2024-10-01 08:21:23.464,22898.403,0.002,0.838,-0.546,-0.0,-0.005,0.003,0.037,-0.004,-0.012,0.003,-0.993,1.358
2024-10-01 08:21:23.583,22898.523,0.002,0.832,-0.554,-0.003,0.052,0.026,0.505,0.011,-0.039,0.003,-0.983,1.358
2024-10-01 08:21:23.704,22898.643,0.003,0.832,-0.554,-0.006,-0.037,0.01,-0.177,-0.002,0.067,0.005,-0.983,1.359
2024-10-01 08:21:23.823,22898.763,0.002,0.826,-0.563,-0.006,0.039,0.022,0.4,0.007,-0.003,0.004,-0.973,1.359
2024-10-01 08:21:23.943,22898.882,-0.0,0.829,-0.559,-0.005,0.027,0.021,-0.174,-0.001,0.015,-0.0,-0.978,1.355
2024-10-01 08:21:24.063,22899.002,0.001,0.826,-0.563,-0.007,0.068,0.028,-0.179,-0.003,-0.003,0.001,-0.972,1.356
2024-10-01 08:21:24.182,22899.122,0.003,0.846,-0.533,-0.005,-0.051,-0.021,-0.121,-0.017,-0.01,0.005,-1.008,1.362
2024-10-01 08:21:24.302,22899.242,-0.0,0.83,-0.558,0.002,0.05,0.017,-0.024,-0.024,0.004,-0.0,-0.978,1.357
2024-10-01 08:21:24.421,22899.362,0.002,0.845,-0.535,-0.011,0.003,0.009,-0.44,0.013,0.025,0.003,-1.007,1.36
2024-10-01 08:21:24.541,22899.481,0.002,0.832,-0.554,-0.02,-0.278,-0.027,0.001,0.023,0.073,0.003,-0.983,1.361
2024-10-01 08:21:24.662,22899.601,-0.003,0.836,-0.548,0.012,-0.005,0.011,0.112,-0.102,-0.138,-0.006,-0.991,1.359
2024-10-01 08:21:24.781,22899.721,0.024,0.896,-0.443,0.014,-0.124,-0.015,-1.054,0.033,-0.128,0.055,-1.111,1.403
2024-10-01 08:21:24.901,22899.841,0.006,0.888,-0.46,0.002,0.059,0.007,0.022,-0.017,-0.022,0.014,-1.093,1.362
2024-10-01 08:21:25.021,22899.96,0.004,0.886,-0.464,-0.009,-0.02,0.012,0.006,0.013,0.021,0.008,-1.088,1.356
2024-10-01 08:21:25.140,22900.08,0.003,0.885,-0.466,0.007,0.043,0.021,0.108,-0.025,-0.074,0.007,-1.086,1.356
2024-10-01 08:21:25.261,22900.2,0.004,0.887,-0.462,-0.013,-0.026,-0.009,-0.117,0.016,0.039,0.008,-1.09,1.358
2024-10-01 08:21:25.380,22900.32,0.003,0.88,-0.475,-0.003,0.029,0.025,0.673,-0.002,-0.006,0.006,-1.076,1.357
2024-10-01 08:21:25.500,22900.44,0.003,0.882,-0.471,-0.004,0.064,0.018,-0.153,-0.01,-0.031,0.006,-1.08,1.356
2024-10-01 08:21:25.620,22900.559,0.004,0.884,-0.468,-0.009,0.008,-0.01,-0.305,0.009,0.05,0.009,-1.084,1.36
2024-10-01 08:21:25.739,22900.679,0.006,0.896,-0.443,-0.022,0.024,0.004,0.327,0.025,0.053,0.014,-1.111,1.366
2024-10-01 08:21:25.860,22900.799,0.004,0.88,-0.476,0.026,0.041,-0.01,-0.404,-0.04,-0.056,0.008,-1.075,1.361
2024-10-01 08:21:25.979,22900.919,0.007,0.889,-0.458,0.001,0.068,0.039,0.494,-0.019,-0.036,0.015,-1.095,1.367
2024-10-01 08:21:26.099,22901.039,0.007,0.883,-0.469,-0.007,0.018,0.008,0.047,-0.023,-0.047,0.015,-1.083,1.368
2024-10-01 08:21:26.218,22901.158,0.007,0.887,-0.462,0.008,-0.074,-0.023,-0.453,-0.018,-0.023,0.016,-1.09,1.369
2024-10-01 08:21:26.338,22901.278,0.004,0.884,-0.468,0.013,0.116,0.059,0.923,-0.088,-0.115,0.01,-1.083,1.363
2024-10-01 08:21:26.458,22901.398,0.008,0.888,-0.46,-0.016,-0.096,-0.048,-0.572,0.022,0.195,0.018,-1.093,1.372
2024-10-01 08:21:26.578,22901.518,0.046,0.967,-0.251,-0.531,0.044,-0.107,-0.558,1.717,-0.874,0.182,-1.313,1.508
2024-10-01 08:21:26.698,22901.638,0.169,0.851,-0.497,-0.096,0.022,0.201,2.233,0.92,0.751,0.328,-1.019,1.535
2024-10-01 08:21:26.818,22901.757,0.232,0.784,-0.576,0.05,-0.088,0.118,0.617,-0.222,0.074,0.383,-0.901,1.561
2024-10-01 08:21:26.937,22901.877,0.196,0.771,-0.606,0.064,-0.095,0.078,-0.633,-0.561,-0.141,0.312,-0.88,1.53
2024-10-01 08:21:27.057,22901.997,0.126,0.818,-0.561,0.038,-0.104,0.047,-0.917,-0.536,-0.431,0.22,-0.958,1.49
2024-10-01 08:21:27.177,22902.117,0.055,0.861,-0.505,-0.003,0.019,0.003,-0.397,-0.384,-0.304,0.108,-1.038,1.422
2024-10-01 08:21:27.296,22902.237,-0.027,0.859,-0.511,0.014,-0.041,0.01,-0.282,0.26,-0.019,-0.053,-1.033,1.294
2024-10-01 08:21:27.416,22902.356,-0.036,0.866,-0.499,0.008,0.113,0.033,0.749,-0.237,-0.127,-0.071,-1.047,1.284
2024-10-01 08:21:27.536,22902.476,-0.038,0.851,-0.523,-0.053,-0.106,-0.026,-0.389,0.391,0.297,-0.072,-1.019,1.283
2024-10-01 08:21:27.656,22902.596,-0.033,0.838,-0.545,0.01,-0.059,-0.005,0.05,-0.082,-0.089,-0.061,-0.993,1.29
2024-10-01 08:21:27.776,22902.716,-0.036,0.827,-0.56,-0.002,-0.014,0.01,0.148,-0.02,0.019,-0.064,-0.975,1.289
2024-10-01 08:21:27.895,22902.836,-0.035,0.829,-0.558,-0.004,-0.037,-0.007,-0.04,0.001,0.01,-0.062,-0.978,1.291
2024-10-01 08:21:28.015,22902.955,-0.034,0.818,-0.574,-0.016,-0.093,-0.052,-0.265,0.092,0.1,-0.059,-0.958,1.292
2024-10-01 08:21:28.135,22903.075,-0.033,0.827,-0.562,-0.001,0.063,-0.002,0.029,0.002,-0.022,-0.059,-0.973,1.295
2024-10-01 08:21:28.255,22903.195,-0.035,0.811,-0.584,0.011,0.071,0.039,0.145,-0.078,-0.013,-0.06,-0.946,1.291
2024-10-01 08:21:28.374,22903.315,-0.032,0.83,-0.557,0.004,-0.132,-0.014,-0.306,-0.054,-0.008,-0.057,-0.979,1.293
2024-10-01 08:21:28.494,22903.435,-0.034,0.836,-0.548,0.002,0.012,-0.014,-0.315,-0.0,-0.037,-0.062,-0.99,1.289
2024-10-01 08:21:28.614,22903.554,-0.033,0.826,-0.563,0.012,-0.123,-0.01,-0.33,0.014,-0.026,-0.059,-0.972,1.29
2024-10-01 08:21:28.734,22903.674,-0.035,0.83,-0.557,0.008,-0.093,-0.051,-0.781,0.015,0.036,-0.064,-0.979,1.289
2024-10-01 08:21:28.854,22903.794,-0.024,0.879,-0.477,-0.017,-0.12,-0.041,-0.624,0.184,-0.044,-0.05,-1.073,1.291
2024-10-01 08:21:28.974,22903.914,-0.026,0.86,-0.51,0.004,0.033,0.01,0.116,-0.012,-0.044,-0.051,-1.035,1.288
2024-10-01 08:21:29.093,22904.033,-0.026,0.859,-0.511,-0.004,-0.009,-0.006,-0.068,0.005,0.008,-0.051,-1.033,1.286
2024-10-01 08:21:29.213,22904.153,-0.027,0.851,-0.525,-0.006,0.036,0.025,0.694,0.042,-0.016,-0.052,-1.017,1.284
2024-10-01 08:21:29.333,22904.273,-0.026,0.85,-0.526,-0.01,-0.026,0.016,-0.378,-0.013,0.028,-0.049,-1.016,1.287
2024-10-01 08:21:29.453,22904.393,-0.028,0.849,-0.528,-0.009,0.038,0.026,0.291,0.026,0.017,-0.053,-1.013,1.282
2024-10-01 08:21:29.573,22904.513,-0.03,0.85,-0.525,-0.002,0.019,-0.025,-0.11,0.02,0.018,-0.056,-1.017,1.279
2024-10-01 08:21:29.692,22904.632,-0.029,0.857,-0.514,-0.0,-0.037,0.011,0.218,0.003,-0.02,-0.056,-1.03,1.281
2024-10-01 08:21:29.812,22904.752,-0.025,0.858,-0.512,-0.027,-0.005,0.028,-0.145,0.067,0.1,-0.049,-1.032,1.287
2024-10-01 08:21:29.932,22904.872,-0.028,0.864,-0.502,0.006,-0.023,-0.013,-0.188,-0.012,-0.022,-0.056,-1.044,1.282
2024-10-01 08:21:30.051,22904.992,-0.029,0.851,-0.525,-0.002,-0.181,-0.077,-0.085,0.057,0.047,-0.054,-1.017,1.282
2024-10-01 08:21:30.171,22905.112,-0.029,0.863,-0.504,-0.003,0.021,0.004,-0.215,0.007,0.046,-0.057,-1.041,1.281
2024-10-01 08:21:30.291,22905.231,-0.028,0.852,-0.522,0.004,-0.041,0.004,-0.189,-0.049,-0.005,-0.054,-1.02,1.284
2024-10-01 08:21:30.411,22905.351,-0.026,0.867,-0.497,-0.007,-0.12,-0.061,-1.066,0.004,0.071,-0.053,-1.05,1.286
2024-10-01 08:21:30.531,22905.471,0.037,0.935,-0.354,-0.113,0.187,-0.042,2.02,0.379,0.074,0.106,-1.207,1.374
2024-10-01 08:21:30.651,22905.591,-0.009,0.896,-0.443,-0.04,-0.082,-0.013,0.142,-0.162,-0.224,-0.02,-1.112,1.27
2024-10-01 08:21:30.770,22905.711,-0.023,0.885,-0.464,0.012,0.031,0.007,0.463,-0.043,-0.17,-0.05,-1.088,1.241
2024-10-01 08:21:30.890,22905.83,-0.027,0.869,-0.494,0.0,0.001,-0.001,0.052,-0.005,-0.043,-0.054,-1.053,1.237
2024-10-01 08:21:31.010,22905.95,-0.027,0.872,-0.489,-0.007,-0.017,-0.005,-0.043,0.005,0.021,-0.055,-1.059,1.236
2024-10-01 08:21:31.130,22906.07,-0.026,0.88,-0.474,0.001,0.035,0.012,0.302,-0.008,-0.022,-0.056,-1.076,1.234
2024-10-01 08:21:31.250,22906.19,-0.027,0.862,-0.506,0.012,0.134,-0.013,-0.187,-0.0,-0.012,-0.054,-1.04,1.237
2024-10-01 08:21:31.369,22906.31,-0.026,0.868,-0.495,-0.006,-0.015,-0.01,-0.27,0.029,0.031,-0.052,-1.052,1.24
2024-10-01 08:21:31.489,22906.429,-0.026,0.877,-0.479,0.001,0.031,0.004,-0.279,-0.009,0.012,-0.054,-1.07,1.239
2024-10-01 08:21:31.608,22906.549,-0.024,0.864,-0.503,-0.003,-0.088,0.025,-0.074,-0.016,-0.022,-0.047,-1.043,1.245
2024-10-01 08:21:31.728,22906.669,-0.023,0.883,-0.468,-0.001,-0.028,-0.012,-0.243,0.002,0.018,-0.049,-1.083,1.245
2024-10-01 08:21:31.849,22906.789,-0.021,0.877,-0.48,-0.001,-0.125,-0.007,0.158,-0.032,-0.015,-0.044,-1.069,1.249
2024-10-01 08:21:31.968,22906.909,-0.023,0.87,-0.492,-0.016,0.005,0.0,-0.027,0.005,0.073,-0.046,-1.055,1.248
2024-10-01 08:21:32.088,22907.028,-0.022,0.886,-0.463,0.004,-0.018,-0.01,-0.301,-0.022,-0.044,-0.047,-1.089,1.248
2024-10-01 08:21:32.208,22907.148,-0.025,0.871,-0.491,-0.007,-0.066,-0.058,-0.258,0.042,0.059,-0.05,-1.057,1.245
2024-10-01 08:21:32.328,22907.268,-0.022,0.886,-0.464,-0.017,0.045,-0.016,-1.09,0.017,0.109,-0.047,-1.088,1.25
2024-10-01 08:21:32.448,22907.388,0.06,0.97,-0.235,-0.38,0.285,-0.28,-0.027,1.717,0.361,0.252,-1.326,1.503
2024-10-01 08:21:32.567,22907.508,0.169,0.899,-0.405,-0.037,-0.116,0.11,1.409,0.432,0.537,0.395,-1.117,1.586
2024-10-01 08:21:32.687,22907.627,0.191,0.835,-0.516,-0.029,-0.062,0.094,0.409,-0.227,-0.068,0.355,-0.988,1.519
2024-10-01 08:21:32.807,22907.747,0.167,0.854,-0.493,0.171,0.012,-0.132,-0.911,-0.006,-0.388,0.326,-1.024,1.462
2024-10-01 08:21:32.926,22907.867,0.121,0.869,-0.479,0.024,0.044,0.032,-0.004,-0.593,-0.208,0.247,-1.054,1.426
2024-10-01 08:21:33.046,22907.987,0.068,0.865,-0.498,-0.016,-0.01,-0.071,0.11,-0.541,-0.112,0.135,-1.044,1.383
2024-10-01 08:21:33.166,22908.106,0.002,0.873,-0.488,-0.111,0.048,-0.031,-0.548,0.173,0.012,0.004,-1.061,1.305
2024-10-01 08:21:33.286,22908.226,0.002,0.912,-0.41,0.073,-0.014,0.025,-0.436,-0.183,-0.224,0.004,-1.148,1.28
2024-10-01 08:21:33.406,22908.346,-0.011,0.907,-0.422,-0.017,0.033,-0.01,0.226,0.024,-0.035,-0.025,-1.135,1.252
2024-10-01 08:21:33.525,22908.466,-0.017,0.894,-0.448,-0.0,0.022,0.012,0.158,0.0,-0.026,-0.037,-1.106,1.24
2024-10-01 08:21:33.645,22908.586,-0.017,0.887,-0.461,0.002,-0.009,-0.002,0.039,-0.005,-0.026,-0.037,-1.092,1.241
2024-10-01 08:21:33.765,22908.705,-0.017,0.889,-0.458,-0.008,-0.024,-0.004,-0.07,0.02,0.045,-0.038,-1.095,1.24
2024-10-01 08:21:33.884,22908.825,-0.017,0.881,-0.472,0.005,0.074,0.042,0.247,-0.02,-0.04,-0.037,-1.079,1.24
2024-10-01 08:21:34.004,22908.945,-0.017,0.889,-0.457,0.006,0.018,0.027,0.298,-0.014,-0.042,-0.037,-1.095,1.239
2024-10-01 08:21:34.124,22909.065,-0.019,0.881,-0.472,-0.005,0.004,0.02,0.539,0.035,-0.012,-0.04,-1.078,1.235
2024-10-01 08:21:34.244,22909.185,-0.014,0.895,-0.447,0.008,-0.077,-0.02,-0.289,-0.029,-0.011,-0.03,-1.108,1.244
2024-10-01 08:21:34.364,22909.304,-0.015,0.9,-0.436,-0.002,0.009,-0.004,0.021,0.009,-0.012,-0.035,-1.12,1.239
2024-10-01 08:21:34.484,22909.424,-0.014,0.894,-0.449,0.013,0.02,-0.008,-0.418,-0.057,-0.068,-0.031,-1.105,1.243
2024-10-01 08:21:34.603,22909.544,-0.015,0.894,-0.447,-0.02,-0.04,-0.028,-0.018,0.068,0.119,-0.033,-1.107,1.242
2024-10-01 08:21:34.723,22909.664,-0.017,0.897,-0.441,0.001,0.026,0.013,0.032,0.014,0.001,-0.038,-1.114,1.235
2024-10-01 08:21:34.843,22909.784,-0.017,0.896,-0.444,-0.001,0.024,0.012,0.053,-0.004,-0.006,-0.038,-1.111,1.235
2024-10-01 08:21:34.963,22909.903,-0.017,0.898,-0.439,-0.003,-0.004,0.004,-0.047,-0.003,0.014,-0.038,-1.116,1.235
2024-10-01 08:21:35.082,22910.023,-0.017,0.898,-0.439,0.0,0.008,0.013,0.142,-0.0,-0.024,-0.039,-1.116,1.235
2024-10-01 08:21:35.202,22910.143,-0.018,0.889,-0.458,-0.025,-0.233,-0.093,-0.49,0.071,0.121,-0.04,-1.094,1.232
2024-10-01 08:21:35.322,22910.263,-0.019,0.892,-0.452,0.006,-0.029,0.006,0.039,-0.004,-0.031,-0.042,-1.101,1.231
2024-10-01 08:21:35.442,22910.383,-0.021,0.883,-0.469,0.003,-0.012,0.002,-0.055,-0.009,-0.002,-0.045,-1.082,1.228
2024-10-01 08:21:35.561,22910.502,-0.02,0.889,-0.457,-0.001,-0.049,-0.007,-0.101,0.015,0.009,-0.044,-1.096,1.229
2024-10-01 08:21:35.681,22910.622,-0.014,0.897,-0.442,0.004,-0.038,-0.013,-0.349,-0.009,0.005,-0.032,-1.112,1.239
2024-10-01 08:21:35.801,22910.742,-0.017,0.903,-0.428,0.004,-0.006,0.001,0.102,0.007,-0.036,-0.039,-1.128,1.233
2024-10-01 08:21:35.920,22910.862,-0.018,0.887,-0.462,0.024,0.138,0.011,0.207,-0.043,-0.06,-0.039,-1.09,1.231
2024-10-01 08:21:36.042,22910.982,-0.015,0.905,-0.425,-0.005,-0.045,-0.02,-0.014,0.003,0.031,-0.034,-1.131,1.236
2024-10-01 08:21:36.161,22911.101,-0.014,0.885,-0.465,0.008,0.134,0.02,0.334,-0.019,0.008,-0.03,-1.087,1.242
2024-10-01 08:21:36.280,22911.221,-0.017,0.892,-0.451,0.015,-0.039,-0.037,-0.518,0.011,-0.049,-0.038,-1.102,1.238
2024-10-01 08:21:36.400,22911.341,0.026,0.939,-0.343,0.022,-0.054,-0.0,-0.682,0.393,-0.04,0.075,-1.219,1.283
2024-10-01 08:21:36.520,22911.461,0.008,0.944,-0.331,0.018,-0.049,-0.005,-0.093,-0.066,-0.173,0.023,-1.233,1.235
2024-10-01 08:21:36.640,22911.581,-0.006,0.941,-0.339,-0.019,0.058,0.013,0.454,-0.048,0.03,-0.019,-1.225,1.194
2024-10-01 08:21:36.759,22911.7,-0.012,0.936,-0.351,0.001,-0.017,-0.01,-0.08,-0.001,-0.019,-0.035,-1.212,1.179
2024-10-01 08:21:36.879,22911.82,-0.014,0.936,-0.352,-0.001,-0.001,0.001,0.015,-0.002,-0.018,-0.039,-1.211,1.175
2024-10-01 08:21:36.999,22911.94,-0.014,0.94,-0.342,-0.008,-0.004,-0.004,-0.157,0.005,0.022,-0.041,-1.222,1.174
2024-10-01 08:21:37.119,22912.06,-0.017,0.924,-0.383,-0.004,-0.143,-0.062,-0.191,-0.067,0.091,-0.045,-1.178,1.172
2024-10-01 08:21:37.239,22912.179,-0.016,0.932,-0.361,-0.006,0.011,0.003,-0.033,-0.002,0.026,-0.046,-1.201,1.172
2024-10-01 08:21:37.358,22912.299,-0.013,0.937,-0.35,-0.007,-0.03,-0.018,-0.286,-0.015,0.031,-0.037,-1.213,1.18
2024-10-01 08:21:37.478,22912.419,-0.014,0.939,-0.343,0.005,0.071,0.055,0.703,-0.01,-0.047,-0.042,-1.221,1.175
