Date,TimeStamp,GravityX,GravityY,GravityZ,UserAccelerationX,UserAccelerationY,UserAccelerationZ,RotationRateX,RotationRateY,RotationRateZ,AttitudeRoll,AttitudePitch,AttitudeYaw
2024-10-15 13:23:24.979,72555.855,0.125,-0.193,-0.973,0.0,-0.007,0.007,-0.009,-0.007,-0.003,0.128,0.195,1.104
2024-10-15 13:23:24.995,72555.865,0.125,-0.193,-0.973,0.0,-0.011,0.012,-0.017,-0.001,-0.009,0.128,0.194,1.104
2024-10-15 13:23:24.997,72555.875,0.125,-0.193,-0.973,-0.001,-0.009,0.013,-0.026,0.009,-0.008,0.128,0.194,1.104
2024-10-15 13:23:24.999,72555.885,0.125,-0.193,-0.973,-0.003,-0.008,0.01,-0.021,0.006,-0.005,0.128,0.194,1.104
2024-10-15 13:23:25.000,72555.895,0.126,-0.192,-0.973,-0.003,-0.002,0.004,-0.011,0.005,-0.004,0.128,0.194,1.104
2024-10-15 13:23:25.001,72555.905,0.126,-0.192,-0.973,-0.001,0.005,0.002,-0.002,0.005,-0.003,0.128,0.194,1.104
2024-10-15 13:23:25.003,72555.915,0.126,-0.192,-0.973,-0.001,0.009,-0.003,0.013,-0.002,0.004,0.128,0.194,1.104
2024-10-15 13:23:25.004,72555.925,0.126,-0.193,-0.973,0.002,0.014,0.0,0.008,-0.007,0.004,0.128,0.194,1.104
2024-10-15 13:23:25.006,72555.935,0.126,-0.193,-0.973,0.005,0.014,0.011,-0.002,0.003,0.002,0.128,0.194,1.104
2024-10-15 13:23:25.007,72555.945,0.126,-0.193,-0.973,-0.002,0.006,0.015,-0.003,0.004,0.003,0.128,0.194,1.104
2024-10-15 13:23:25.008,72555.955,0.126,-0.193,-0.973,-0.003,0.001,0.011,-0.009,0.006,-0.007,0.128,0.194,1.104
2024-10-15 13:23:25.010,72555.965,0.126,-0.193,-0.973,-0.003,-0.006,0.007,-0.023,0.011,-0.01,0.128,0.194,1.104
2024-10-15 13:23:25.011,72555.975,0.126,-0.192,-0.973,-0.009,-0.018,0.003,-0.021,0.009,-0.014,0.129,0.194,1.104
2024-10-15 13:23:25.012,72555.985,0.126,-0.192,-0.973,-0.01,-0.016,0.002,-0.016,0.001,-0.014,0.129,0.193,1.103
2024-10-15 13:23:25.013,72555.995,0.126,-0.192,-0.973,-0.003,-0.01,0.009,-0.014,-0.003,-0.011,0.129,0.193,1.103
2024-10-15 13:23:25.014,72556.005,0.126,-0.192,-0.973,0.001,-0.001,0.011,-0.011,-0.004,-0.014,0.129,0.193,1.103
2024-10-15 13:23:25.016,72556.015,0.126,-0.192,-0.973,0.001,0.006,0.007,-0.018,-0.005,-0.01,0.129,0.193,1.103
2024-10-15 13:23:25.017,72556.025,0.126,-0.191,-0.973,0.001,0.01,0.005,-0.027,0.003,-0.011,0.129,0.193,1.103
2024-10-15 13:23:25.018,72556.035,0.126,-0.191,-0.973,0.001,0.008,0.004,-0.037,0.015,-0.018,0.129,0.192,1.103
2024-10-15 13:23:25.019,72556.045,0.126,-0.191,-0.974,-0.0,0.003,0.001,-0.063,0.023,-0.023,0.129,0.192,1.103
2024-10-15 13:23:25.021,72556.055,0.126,-0.19,-0.974,0.002,-0.021,0.002,-0.023,0.023,-0.019,0.129,0.191,1.103
2024-10-15 13:23:25.022,72556.065,0.127,-0.19,-0.974,-0.01,0.0,-0.003,-0.005,0.001,-0.007,0.129,0.191,1.103
2024-10-15 13:23:25.023,72556.075,0.127,-0.19,-0.974,0.004,0.012,0.006,-0.003,0.008,-0.017,0.129,0.191,1.102
2024-10-15 13:23:25.024,72556.085,0.127,-0.19,-0.974,0.003,0.016,0.011,-0.002,0.009,0.011,0.129,0.191,1.102
2024-10-15 13:23:25.026,72556.095,0.127,-0.19,-0.974,-0.008,0.023,0.003,0.012,0.005,0.008,0.129,0.191,1.102
2024-10-15 13:23:25.028,72556.105,0.127,-0.19,-0.974,0.002,0.03,0.0,0.011,0.002,0.013,0.129,0.192,1.103
2024-10-15 13:23:25.030,72556.115,0.127,-0.19,-0.974,-0.002,0.026,-0.006,-0.034,0.016,-0.001,0.129,0.191,1.103
2024-10-15 13:23:25.032,72556.125,0.127,-0.189,-0.974,-0.003,-0.003,-0.002,-0.158,0.04,-0.059,0.13,0.19,1.102
2024-10-15 13:23:25.034,72556.135,0.128,-0.188,-0.974,0.004,-0.083,-0.008,-0.149,0.065,-0.021,0.13,0.189,1.102
2024-10-15 13:23:25.036,72556.145,0.128,-0.187,-0.974,-0.02,-0.078,-0.01,-0.094,0.005,-0.049,0.131,0.188,1.102
2024-10-15 13:23:25.038,72556.155,0.128,-0.186,-0.974,-0.008,-0.025,0.007,-0.062,0.01,-0.062,0.131,0.187,1.102
2024-10-15 13:23:25.039,72556.165,0.128,-0.185,-0.974,0.011,-0.029,0.005,-0.027,-0.001,-0.06,0.131,0.186,1.101
2024-10-15 13:23:25.041,72556.175,0.128,-0.185,-0.974,-0.008,-0.021,-0.001,-0.013,-0.001,-0.073,0.131,0.186,1.1
2024-10-15 13:23:25.043,72556.185,0.129,-0.185,-0.974,0.001,-0.016,0.013,0.004,-0.006,-0.073,0.131,0.186,1.1
2024-10-15 13:23:25.044,72556.195,0.129,-0.185,-0.974,-0.003,-0.006,0.032,0.004,-0.007,-0.076,0.131,0.186,1.099
2024-10-15 13:23:25.046,72556.205,0.129,-0.185,-0.974,-0.003,-0.005,0.043,0.029,-0.004,-0.064,0.131,0.186,1.098
2024-10-15 13:23:25.048,72556.215,0.129,-0.185,-0.974,-0.001,-0.005,0.026,0.097,-0.02,-0.057,0.131,0.187,1.097
2024-10-15 13:23:25.049,72556.225,0.128,-0.187,-0.974,-0.003,-0.002,-0.009,0.128,-0.03,-0.063,0.131,0.188,1.097
2024-10-15 13:23:25.051,72556.235,0.128,-0.188,-0.974,0.0,-0.009,-0.034,0.136,0.018,-0.061,0.131,0.189,1.096
2024-10-15 13:23:25.052,72556.245,0.129,-0.189,-0.973,-0.002,-0.022,-0.028,0.12,0.044,-0.06,0.132,0.19,1.095
2024-10-15 13:23:25.054,72556.255,0.13,-0.19,-0.973,-0.01,-0.018,-0.013,0.102,0.074,-0.064,0.132,0.191,1.094
2024-10-15 13:23:25.056,72556.265,0.13,-0.191,-0.973,-0.003,-0.011,-0.004,0.1,0.08,-0.063,0.133,0.192,1.094
2024-10-15 13:23:25.058,72556.275,0.131,-0.192,-0.973,0.003,-0.001,-0.01,0.1,0.081,-0.064,0.134,0.193,1.093
2024-10-15 13:23:25.059,72556.285,0.132,-0.193,-0.972,0.01,0.008,-0.015,0.122,0.074,-0.057,0.135,0.194,1.092
2024-10-15 13:23:25.060,72556.295,0.133,-0.194,-0.972,0.013,0.007,-0.01,0.151,0.062,-0.053,0.136,0.195,1.091
2024-10-15 13:23:25.061,72556.305,0.134,-0.196,-0.972,0.01,0.005,0.002,0.169,0.06,-0.051,0.137,0.197,1.091
2024-10-15 13:23:25.062,72556.315,0.134,-0.197,-0.971,0.007,0.003,0.01,0.153,0.062,-0.056,0.137,0.198,1.09
2024-10-15 13:23:25.064,72556.325,0.135,-0.198,-0.971,0.001,0.005,0.004,0.115,0.067,-0.05,0.138,0.2,1.089
2024-10-15 13:23:25.065,72556.335,0.136,-0.199,-0.97,-0.012,0.012,0.003,0.092,0.086,-0.056,0.139,0.201,1.088
2024-10-15 13:23:25.066,72556.345,0.137,-0.2,-0.97,-0.017,0.015,0.005,0.107,0.083,-0.053,0.14,0.201,1.088
2024-10-15 13:23:25.067,72556.355,0.138,-0.201,-0.97,-0.011,0.028,-0.001,0.12,0.072,-0.037,0.141,0.202,1.087
2024-10-15 13:23:25.069,72556.365,0.138,-0.202,-0.97,-0.001,0.036,-0.003,0.131,0.062,-0.011,0.142,0.204,1.087
2024-10-15 13:23:25.070,72556.374,0.139,-0.203,-0.969,0.003,0.034,-0.001,0.133,0.055,0.005,0.142,0.205,1.086
2024-10-15 13:23:25.071,72556.384,0.139,-0.205,-0.969,0.002,0.028,0.011,0.123,0.049,0.008,0.143,0.206,1.086
2024-10-15 13:23:25.073,72556.394,0.14,-0.206,-0.969,-0.0,0.018,0.026,0.109,0.038,0.001,0.143,0.207,1.086
2024-10-15 13:23:25.074,72556.404,0.14,-0.207,-0.968,-0.005,-0.003,0.038,0.098,0.041,0.015,0.144,0.208,1.086
2024-10-15 13:23:25.075,72556.414,0.14,-0.208,-0.968,-0.013,-0.019,0.038,0.108,0.037,0.028,0.144,0.209,1.086
2024-10-15 13:23:25.076,72556.424,0.141,-0.209,-0.968,-0.014,-0.01,0.026,0.165,0.025,0.048,0.144,0.211,1.086
2024-10-15 13:23:25.078,72556.434,0.141,-0.211,-0.967,-0.012,0.015,0.003,0.234,0.008,0.057,0.144,0.212,1.087
2024-10-15 13:23:25.079,72556.444,0.141,-0.213,-0.967,-0.01,0.04,-0.02,0.268,-0.005,0.055,0.144,0.215,1.087
2024-10-15 13:23:25.080,72556.454,0.14,-0.216,-0.966,-0.011,0.042,-0.024,0.269,-0.014,0.05,0.144,0.218,1.087
2024-10-15 13:23:25.081,72556.464,0.14,-0.218,-0.966,-0.018,0.031,-0.019,0.26,-0.044,0.063,0.144,0.22,1.087
2024-10-15 13:23:25.082,72556.474,0.139,-0.221,-0.965,-0.023,0.019,-0.01,0.333,-0.079,0.064,0.143,0.223,1.087
2024-10-15 13:23:25.083,72556.484,0.138,-0.225,-0.964,-0.017,0.029,-0.015,0.461,-0.112,0.026,0.142,0.227,1.087
2024-10-15 13:23:25.085,72556.494,0.137,-0.23,-0.964,-0.028,0.027,0.011,0.426,-0.159,0.065,0.141,0.232,1.087
2024-10-15 13:23:25.086,72556.504,0.135,-0.233,-0.963,-0.025,0.006,0.08,0.282,-0.124,0.08,0.139,0.235,1.087
2024-10-15 13:23:25.087,72556.514,0.134,-0.235,-0.963,-0.017,-0.054,0.085,0.185,-0.096,0.136,0.138,0.238,1.088
2024-10-15 13:23:25.088,72556.524,0.133,-0.237,-0.962,-0.05,-0.048,0.063,0.199,-0.087,0.137,0.137,0.24,1.089
2024-10-15 13:23:25.090,72556.534,0.132,-0.24,-0.962,-0.043,-0.009,0.007,0.305,-0.079,0.114,0.136,0.242,1.09
2024-10-15 13:23:25.096,72556.544,0.131,-0.243,-0.961,-0.048,0.007,-0.066,0.413,-0.068,0.101,0.135,0.246,1.091
2024-10-15 13:23:25.106,72556.554,0.13,-0.248,-0.96,-0.055,0.007,-0.104,0.442,-0.06,0.078,0.134,0.25,1.091
2024-10-15 13:23:25.116,72556.564,0.129,-0.252,-0.959,-0.042,-0.011,-0.099,0.405,-0.034,0.068,0.134,0.255,1.091
2024-10-15 13:23:25.126,72556.574,0.129,-0.255,-0.958,-0.039,-0.038,-0.064,0.315,-0.024,0.07,0.133,0.258,1.091
2024-10-15 13:23:25.136,72556.584,0.128,-0.258,-0.958,-0.031,-0.065,-0.021,0.241,-0.019,0.076,0.133,0.261,1.092
2024-10-15 13:23:25.146,72556.594,0.128,-0.26,-0.957,-0.024,-0.061,0.005,0.181,-0.044,0.075,0.133,0.263,1.092
2024-10-15 13:23:25.156,72556.604,0.127,-0.262,-0.957,-0.032,-0.043,0.012,0.137,-0.046,0.082,0.132,0.265,1.093
2024-10-15 13:23:25.166,72556.614,0.127,-0.263,-0.956,-0.04,-0.028,0.013,0.198,-0.0,0.088,0.132,0.266,1.094
2024-10-15 13:23:25.176,72556.624,0.126,-0.266,-0.956,-0.054,0.003,0.002,0.336,-0.026,0.056,0.131,0.269,1.094
2024-10-15 13:23:25.186,72556.634,0.126,-0.269,-0.955,-0.058,0.059,-0.029,0.368,-0.026,0.021,0.131,0.273,1.094
2024-10-15 13:23:25.196,72556.644,0.126,-0.273,-0.954,-0.032,0.03,-0.043,0.293,0.013,-0.001,0.131,0.276,1.094
2024-10-15 13:23:25.206,72556.654,0.126,-0.275,-0.953,-0.018,-0.037,-0.048,0.22,0.054,-0.029,0.132,0.279,1.093
2024-10-15 13:23:25.216,72556.664,0.127,-0.277,-0.953,-0.027,-0.06,-0.054,0.145,0.06,-0.074,0.133,0.28,1.092
2024-10-15 13:23:25.226,72556.674,0.128,-0.278,-0.952,-0.043,-0.063,-0.063,0.07,0.086,-0.097,0.134,0.281,1.091
2024-10-15 13:23:25.236,72556.684,0.129,-0.278,-0.952,-0.057,-0.078,-0.056,0.024,0.133,-0.129,0.135,0.282,1.09
2024-10-15 13:23:25.246,72556.694,0.131,-0.278,-0.952,-0.096,-0.067,-0.03,-0.015,0.203,-0.146,0.137,0.281,1.089
2024-10-15 13:23:25.256,72556.704,0.134,-0.278,-0.951,-0.129,-0.059,-0.016,0.093,0.193,-0.111,0.139,0.282,1.087
2024-10-15 13:23:25.266,72556.714,0.136,-0.279,-0.951,-0.104,-0.035,-0.03,0.193,0.158,-0.151,0.142,0.283,1.086
2024-10-15 13:23:25.276,72556.724,0.137,-0.281,-0.95,-0.057,-0.012,-0.036,0.186,0.162,-0.136,0.144,0.285,1.084
2024-10-15 13:23:25.286,72556.734,0.139,-0.282,-0.949,-0.065,-0.061,-0.033,0.102,0.171,-0.14,0.146,0.286,1.082
2024-10-15 13:23:25.296,72556.744,0.141,-0.282,-0.949,-0.083,-0.105,-0.02,0.019,0.186,-0.188,0.148,0.286,1.081
2024-10-15 13:23:25.306,72556.754,0.144,-0.282,-0.949,-0.084,-0.116,0.004,-0.047,0.209,-0.232,0.151,0.286,1.078
2024-10-15 13:23:25.316,72556.764,0.147,-0.281,-0.948,-0.095,-0.117,0.018,-0.056,0.208,-0.256,0.153,0.285,1.076
2024-10-15 13:23:25.326,72556.774,0.149,-0.28,-0.948,-0.112,-0.093,0.022,-0.046,0.202,-0.287,0.156,0.284,1.073
2024-10-15 13:23:25.336,72556.784,0.152,-0.279,-0.948,-0.121,-0.076,0.027,-0.044,0.186,-0.313,0.159,0.283,1.07
2024-10-15 13:23:25.346,72556.794,0.155,-0.278,-0.948,-0.128,-0.074,0.037,-0.043,0.159,-0.34,0.162,0.282,1.067
2024-10-15 13:23:25.357,72556.804,0.157,-0.277,-0.948,-0.127,-0.072,0.045,-0.071,0.123,-0.351,0.164,0.281,1.064
2024-10-15 13:23:25.366,72556.814,0.159,-0.276,-0.948,-0.126,-0.072,0.049,-0.122,0.094,-0.373,0.166,0.28,1.06
2024-10-15 13:23:25.376,72556.824,0.161,-0.274,-0.948,-0.126,-0.084,0.049,-0.168,0.074,-0.386,0.168,0.277,1.056
2024-10-15 13:23:25.386,72556.834,0.162,-0.272,-0.949,-0.133,-0.092,0.043,-0.181,0.064,-0.397,0.17,0.275,1.053
2024-10-15 13:23:25.396,72556.844,0.164,-0.269,-0.949,-0.141,-0.071,0.037,-0.146,0.047,-0.418,0.171,0.273,1.049
2024-10-15 13:23:25.406,72556.854,0.166,-0.268,-0.949,-0.154,-0.032,0.023,-0.089,0.05,-0.445,0.173,0.271,1.045
2024-10-15 13:23:25.416,72556.864,0.167,-0.266,-0.949,-0.171,0.001,0.004,-0.074,0.042,-0.466,0.174,0.269,1.04
2024-10-15 13:23:25.426,72556.874,0.169,-0.264,-0.95,-0.178,0.018,0.003,-0.137,0.019,-0.493,0.176,0.267,1.035
2024-10-15 13:23:25.436,72556.884,0.17,-0.262,-0.95,-0.159,0.002,0.015,-0.275,0.014,-0.502,0.177,0.265,1.031
2024-10-15 13:23:25.446,72556.894,0.172,-0.257,-0.951,-0.142,-0.038,0.043,-0.42,0.017,-0.505,0.179,0.26,1.026
2024-10-15 13:23:25.456,72556.904,0.173,-0.252,-0.952,-0.14,-0.058,0.056,-0.534,-0.002,-0.496,0.18,0.255,1.022
2024-10-15 13:23:25.466,72556.914,0.174,-0.246,-0.954,-0.138,-0.047,0.063,-0.583,0.006,-0.485,0.181,0.248,1.018
2024-10-15 13:23:25.476,72556.924,0.176,-0.24,-0.955,-0.136,-0.014,0.058,-0.476,0.051,-0.478,0.182,0.242,1.014
2024-10-15 13:23:25.486,72556.934,0.177,-0.235,-0.956,-0.15,0.032,0.023,-0.337,0.047,-0.489,0.184,0.237,1.01
2024-10-15 13:23:25.496,72556.943,0.179,-0.232,-0.956,-0.145,0.088,0.01,-0.238,0.056,-0.507,0.185,0.234,1.006
2024-10-15 13:23:25.506,72556.953,0.181,-0.228,-0.957,-0.1,0.099,0.013,-0.247,0.033,-0.529,0.187,0.23,1.001
2024-10-15 13:23:25.516,72556.963,0.182,-0.224,-0.957,-0.069,0.07,0.023,-0.413,0.014,-0.545,0.188,0.226,0.996
2024-10-15 13:23:25.526,72556.973,0.183,-0.218,-0.959,-0.049,0.008,0.051,-0.667,0.021,-0.547,0.189,0.22,0.992
2024-10-15 13:23:25.536,72556.983,0.185,-0.209,-0.96,-0.054,-0.056,0.068,-0.96,0.046,-0.511,0.19,0.211,0.988
2024-10-15 13:23:25.546,72556.993,0.186,-0.198,-0.962,-0.074,-0.082,0.071,-1.237,0.076,-0.465,0.191,0.199,0.985
2024-10-15 13:23:25.556,72557.003,0.188,-0.184,-0.965,-0.095,-0.054,0.055,-1.508,0.096,-0.432,0.193,0.185,0.983
2024-10-15 13:23:25.566,72557.013,0.19,-0.167,-0.967,-0.105,0.001,0.04,-1.724,0.145,-0.421,0.194,0.168,0.982
2024-10-15 13:23:25.576,72557.023,0.192,-0.149,-0.97,-0.083,0.04,0.036,-1.896,0.175,-0.451,0.196,0.15,0.981
2024-10-15 13:23:25.586,72557.033,0.195,-0.129,-0.972,-0.027,0.062,0.027,-2.004,0.185,-0.497,0.198,0.13,0.981
2024-10-15 13:23:25.596,72557.043,0.197,-0.108,-0.974,0.026,0.079,0.009,-2.162,0.151,-0.544,0.2,0.108,0.98
2024-10-15 13:23:25.606,72557.053,0.199,-0.085,-0.976,0.052,0.058,0.007,-2.467,0.098,-0.555,0.201,0.085,0.979
2024-10-15 13:23:25.616,72557.063,0.2,-0.058,-0.978,0.076,-0.026,0.031,-2.836,0.104,-0.581,0.202,0.058,0.978
2024-10-15 13:23:25.626,72557.073,0.201,-0.027,-0.979,0.07,-0.125,0.037,-3.155,0.142,-0.615,0.203,0.027,0.979
2024-10-15 13:23:25.636,72557.083,0.203,0.006,-0.979,0.027,-0.149,0.049,-3.334,0.183,-0.612,0.205,-0.006,0.979
2024-10-15 13:23:25.646,72557.093,0.205,0.04,-0.978,-0.003,-0.096,0.054,-3.4,0.173,-0.557,0.206,-0.04,0.98
2024-10-15 13:23:25.656,72557.103,0.206,0.075,-0.976,0.018,-0.014,0.063,-3.539,0.068,-0.543,0.208,-0.075,0.982
2024-10-15 13:23:25.666,72557.113,0.206,0.112,-0.972,0.076,0.011,0.101,-3.765,0.019,-0.507,0.208,-0.112,0.984
2024-10-15 13:23:25.676,72557.123,0.205,0.15,-0.967,0.111,-0.031,0.134,-3.914,0.077,-0.479,0.209,-0.15,0.988
2024-10-15 13:23:25.686,72557.133,0.206,0.189,-0.96,0.089,-0.057,0.124,-3.899,0.132,-0.47,0.211,-0.19,0.991
2024-10-15 13:23:25.695,72557.143,0.206,0.226,-0.952,0.052,-0.019,0.087,-3.719,0.097,-0.464,0.213,-0.228,0.995
2024-10-15 13:23:25.705,72557.153,0.205,0.261,-0.943,0.051,0.04,0.054,-3.468,0.032,-0.442,0.214,-0.264,0.998
2024-10-15 13:23:25.715,72557.163,0.204,0.293,-0.934,0.062,0.08,0.039,-3.236,0.005,-0.416,0.215,-0.298,1.001
2024-10-15 13:23:25.726,72557.173,0.203,0.323,-0.924,0.068,0.084,0.041,-3.046,-0.053,-0.433,0.216,-0.329,1.004
2024-10-15 13:23:25.736,72557.183,0.2,0.351,-0.915,0.087,0.044,0.05,-2.925,-0.134,-0.46,0.216,-0.359,1.006
2024-10-15 13:23:25.746,72557.193,0.197,0.379,-0.904,0.114,-0.028,0.079,-2.908,-0.171,-0.448,0.215,-0.388,1.008
2024-10-15 13:23:25.756,72557.203,0.194,0.406,-0.893,0.121,-0.069,0.088,-2.902,-0.172,-0.44,0.214,-0.418,1.01
2024-10-15 13:23:25.765,72557.213,0.191,0.432,-0.882,0.095,-0.06,0.063,-2.8,-0.134,-0.435,0.213,-0.447,1.012
2024-10-15 13:23:25.775,72557.223,0.188,0.456,-0.87,0.063,-0.045,0.018,-2.478,-0.02,-0.415,0.213,-0.473,1.013
2024-10-15 13:23:25.785,72557.233,0.186,0.477,-0.859,0.026,0.012,-0.046,-2.198,-0.001,-0.612,0.213,-0.497,1.013
2024-10-15 13:23:25.797,72557.243,0.183,0.496,-0.849,0.001,0.015,-0.059,-1.991,0.013,-0.654,0.212,-0.519,1.011
2024-10-15 13:23:25.805,72557.253,0.18,0.513,-0.839,0.039,-0.134,-0.083,-1.962,0.048,-0.602,0.211,-0.539,1.009
2024-10-15 13:23:25.815,72557.263,0.177,0.531,-0.829,0.071,-0.185,-0.098,-2.04,0.045,-0.633,0.211,-0.56,1.007
2024-10-15 13:23:25.825,72557.273,0.174,0.55,-0.817,0.08,-0.185,-0.114,-2.174,0.013,-0.704,0.209,-0.582,1.004
2024-10-15 13:23:25.835,72557.283,0.17,0.569,-0.805,0.096,-0.184,-0.12,-2.289,-0.003,-0.669,0.208,-0.605,1.002
2024-10-15 13:23:25.846,72557.293,0.166,0.588,-0.792,0.106,-0.154,-0.142,-2.223,0.014,-0.647,0.207,-0.629,1.0
2024-10-15 13:23:25.856,72557.303,0.162,0.606,-0.779,0.096,-0.066,-0.14,-1.992,0.017,-0.687,0.205,-0.651,0.997
2024-10-15 13:23:25.865,72557.313,0.158,0.621,-0.767,0.078,-0.012,-0.115,-1.728,0.11,-0.748,0.203,-0.67,0.993
2024-10-15 13:23:25.875,72557.323,0.155,0.635,-0.757,0.065,-0.038,-0.055,-1.721,0.165,-0.733,0.202,-0.688,0.988
2024-10-15 13:23:25.885,72557.333,0.151,0.65,-0.745,0.045,-0.107,-0.001,-1.821,0.216,-0.769,0.2,-0.707,0.983
2024-10-15 13:23:25.895,72557.343,0.148,0.664,-0.733,0.06,-0.145,0.001,-1.793,0.212,-0.771,0.199,-0.727,0.978
2024-10-15 13:23:25.905,72557.353,0.144,0.678,-0.721,0.083,-0.171,-0.049,-1.634,0.214,-0.723,0.198,-0.745,0.972
2024-10-15 13:23:25.915,72557.363,0.141,0.69,-0.71,0.091,-0.07,-0.124,-1.393,0.172,-0.64,0.196,-0.761,0.967
2024-10-15 13:23:25.926,72557.373,0.139,0.699,-0.701,0.049,0.026,-0.239,-1.17,0.152,-0.288,0.196,-0.774,0.964
2024-10-15 13:23:25.935,72557.383,0.138,0.707,-0.693,0.008,0.044,-0.3,-0.937,0.195,-0.314,0.197,-0.786,0.963
2024-10-15 13:23:25.945,72557.393,0.137,0.713,-0.688,-0.02,0.104,-0.231,-0.585,0.203,-0.294,0.197,-0.794,0.961
2024-10-15 13:23:25.955,72557.403,0.137,0.716,-0.684,-0.04,0.102,-0.142,-0.234,0.323,-0.246,0.198,-0.798,0.958
2024-10-15 13:23:25.964,72557.413,0.138,0.716,-0.684,-0.016,0.125,-0.055,0.433,0.503,-0.31,0.199,-0.798,0.954
2024-10-15 13:23:25.975,72557.423,0.139,0.712,-0.688,-0.06,0.127,-0.055,0.882,0.598,-0.341,0.2,-0.792,0.948
2024-10-15 13:23:25.985,72557.433,0.141,0.705,-0.695,-0.052,0.076,-0.002,1.273,0.611,-0.336,0.201,-0.782,0.94
2024-10-15 13:23:25.994,72557.443,0.143,0.696,-0.704,0.01,-0.031,-0.016,1.387,0.577,-0.347,0.201,-0.77,0.932
2024-10-15 13:23:26.004,72557.453,0.144,0.687,-0.713,0.052,-0.073,0.01,1.333,0.55,-0.426,0.2,-0.757,0.923
2024-10-15 13:23:26.014,72557.463,0.145,0.678,-0.72,0.051,-0.114,0.028,1.124,0.502,-0.506,0.199,-0.746,0.913
2024-10-15 13:23:26.025,72557.473,0.145,0.672,-0.726,0.017,-0.191,0.042,0.74,0.481,-0.527,0.197,-0.737,0.904
2024-10-15 13:23:26.035,72557.483,0.145,0.669,-0.729,-0.001,-0.274,0.043,0.331,0.455,-0.488,0.197,-0.733,0.896
2024-10-15 13:23:26.045,72557.493,0.145,0.669,-0.729,0.02,-0.28,0.044,0.065,0.399,-0.502,0.196,-0.732,0.889
2024-10-15 13:23:26.055,72557.503,0.144,0.669,-0.729,0.045,-0.178,0.039,-0.055,0.321,-0.537,0.195,-0.733,0.882
2024-10-15 13:23:26.065,72557.512,0.142,0.671,-0.728,0.063,-0.053,0.063,-0.056,0.252,-0.581,0.193,-0.735,0.875
2024-10-15 13:23:26.075,72557.522,0.14,0.672,-0.727,0.078,0.016,0.091,0.0,0.182,-0.618,0.19,-0.737,0.867
2024-10-15 13:23:26.085,72557.532,0.137,0.672,-0.728,0.075,0.03,0.117,0.095,0.135,-0.62,0.186,-0.737,0.858
2024-10-15 13:23:26.095,72557.542,0.133,0.672,-0.728,0.059,0.018,0.13,0.18,0.062,-0.683,0.181,-0.737,0.85
2024-10-15 13:23:26.105,72557.552,0.129,0.671,-0.73,0.051,0.02,0.148,0.471,0.025,-0.769,0.174,-0.735,0.839
2024-10-15 13:23:26.115,72557.562,0.124,0.668,-0.734,0.019,-0.037,0.167,0.461,-0.073,-0.575,0.168,-0.732,0.829
2024-10-15 13:23:26.125,72557.572,0.119,0.666,-0.736,0.019,-0.049,0.166,0.277,-0.32,-0.585,0.16,-0.729,0.82
2024-10-15 13:23:26.135,72557.582,0.112,0.666,-0.738,0.054,-0.03,0.24,0.029,-0.422,-0.438,0.151,-0.728,0.813
2024-10-15 13:23:26.145,72557.592,0.107,0.667,-0.738,0.062,-0.033,0.291,-0.172,-0.457,-0.389,0.143,-0.73,0.808
2024-10-15 13:23:26.155,72557.602,0.1,0.668,-0.737,0.009,0.092,0.296,-0.178,-0.456,-0.413,0.135,-0.732,0.803
2024-10-15 13:23:26.165,72557.612,0.094,0.67,-0.737,-0.052,0.18,0.247,-0.006,-0.434,-0.406,0.127,-0.734,0.798
2024-10-15 13:23:26.175,72557.622,0.089,0.669,-0.738,-0.092,0.221,0.174,0.173,-0.42,-0.297,0.12,-0.733,0.793
2024-10-15 13:23:26.185,72557.632,0.084,0.668,-0.74,-0.092,0.219,0.122,0.313,-0.434,-0.271,0.113,-0.731,0.789
2024-10-15 13:23:26.195,72557.642,0.079,0.665,-0.742,-0.07,0.197,0.108,0.334,-0.438,-0.209,0.106,-0.728,0.785
2024-10-15 13:23:26.205,72557.652,0.075,0.663,-0.745,-0.051,0.15,0.157,0.368,-0.392,-0.214,0.1,-0.725,0.782
2024-10-15 13:23:26.215,72557.662,0.071,0.66,-0.748,-0.048,0.111,0.214,0.404,-0.3,-0.192,0.094,-0.721,0.779
2024-10-15 13:23:26.225,72557.672,0.068,0.657,-0.751,-0.074,0.074,0.22,0.372,-0.232,-0.113,0.09,-0.717,0.776
2024-10-15 13:23:26.235,72557.682,0.066,0.655,-0.753,-0.08,0.085,0.204,0.326,-0.188,0.006,0.087,-0.714,0.775
2024-10-15 13:23:26.245,72557.692,0.065,0.653,-0.755,-0.056,0.107,0.176,0.237,-0.14,0.087,0.086,-0.711,0.775
2024-10-15 13:23:26.255,72557.702,0.064,0.652,-0.756,-0.042,0.144,0.153,-0.021,-0.113,0.108,0.085,-0.71,0.776
2024-10-15 13:23:26.265,72557.712,0.065,0.652,-0.755,-0.034,0.153,0.147,-0.199,-0.033,0.25,0.086,-0.71,0.779
2024-10-15 13:23:26.274,72557.722,0.067,0.654,-0.754,0.035,0.093,0.136,-0.259,0.11,0.256,0.089,-0.713,0.783
2024-10-15 13:23:26.285,72557.732,0.07,0.655,-0.752,0.085,0.074,0.062,-0.128,0.27,0.167,0.093,-0.715,0.786
2024-10-15 13:23:26.295,72557.742,0.073,0.655,-0.752,0.061,0.153,-0.032,0.074,0.313,0.127,0.097,-0.715,0.788
2024-10-15 13:23:26.305,72557.752,0.076,0.654,-0.752,0.097,0.193,-0.09,0.222,0.304,0.12,0.101,-0.713,0.789
2024-10-15 13:23:26.315,72557.762,0.079,0.652,-0.754,0.145,0.211,-0.079,0.286,0.33,0.158,0.105,-0.71,0.79
2024-10-15 13:23:26.325,72557.772,0.083,0.65,-0.755,0.128,0.22,-0.08,0.273,0.354,0.238,0.11,-0.707,0.793
2024-10-15 13:23:26.334,72557.782,0.088,0.648,-0.757,0.096,0.193,-0.093,0.277,0.395,0.31,0.116,-0.704,0.796
2024-10-15 13:23:26.344,72557.792,0.093,0.645,-0.759,0.076,0.189,-0.089,0.365,0.413,0.3,0.122,-0.701,0.799
2024-10-15 13:23:26.354,72557.802,0.098,0.641,-0.761,0.069,0.2,-0.034,0.545,0.414,0.301,0.128,-0.696,0.802
2024-10-15 13:23:26.365,72557.812,0.103,0.636,-0.765,0.074,0.227,0.026,0.71,0.337,0.268,0.133,-0.689,0.805
2024-10-15 13:23:26.374,72557.822,0.106,0.63,-0.769,0.073,0.261,0.056,0.765,0.204,0.18,0.137,-0.682,0.807
2024-10-15 13:23:26.384,72557.832,0.109,0.624,-0.774,0.069,0.19,0.071,0.809,0.143,0.258,0.14,-0.674,0.808
2024-10-15 13:23:26.394,72557.842,0.111,0.617,-0.779,0.058,0.105,0.1,0.818,0.045,0.269,0.142,-0.665,0.81
2024-10-15 13:23:26.404,72557.852,0.113,0.611,-0.784,0.046,0.037,0.127,0.806,0.021,0.271,0.143,-0.657,0.812
2024-10-15 13:23:26.414,72557.862,0.115,0.604,-0.789,0.006,0.012,0.135,0.767,-0.044,0.428,0.145,-0.649,0.815
2024-10-15 13:23:26.424,72557.872,0.117,0.597,-0.793,0.002,0.044,0.113,0.8,-0.087,0.498,0.147,-0.64,0.819
2024-10-15 13:23:26.434,72557.882,0.119,0.59,-0.799,0.024,0.117,0.079,1.041,-0.09,0.414,0.148,-0.631,0.823
2024-10-15 13:23:26.445,72557.892,0.121,0.579,-0.806,-0.023,0.256,0.042,1.393,-0.064,0.379,0.149,-0.618,0.826
2024-10-15 13:23:26.454,72557.902,0.123,0.567,-0.815,-0.046,0.286,-0.017,1.579,-0.119,0.494,0.149,-0.603,0.828
2024-10-15 13:23:26.464,72557.912,0.124,0.553,-0.824,0.027,0.163,-0.063,1.624,-0.197,0.567,0.15,-0.586,0.832
2024-10-15 13:23:26.473,72557.922,0.125,0.539,-0.833,0.062,0.043,-0.081,1.486,-0.306,0.608,0.15,-0.57,0.836
2024-10-15 13:23:26.483,72557.932,0.126,0.527,-0.841,0.069,-0.04,-0.026,1.298,-0.351,0.578,0.149,-0.555,0.84
2024-10-15 13:23:26.494,72557.942,0.126,0.516,-0.848,0.084,-0.092,0.064,1.254,-0.328,0.486,0.147,-0.542,0.844
2024-10-15 13:23:26.504,72557.952,0.125,0.504,-0.854,0.053,-0.093,0.081,1.257,-0.294,0.44,0.146,-0.529,0.847
2024-10-15 13:23:26.514,72557.962,0.125,0.493,-0.861,0.025,-0.091,0.028,1.216,-0.329,0.439,0.144,-0.516,0.85
2024-10-15 13:23:26.524,72557.972,0.124,0.483,-0.867,0.045,-0.129,-0.011,1.053,-0.313,0.421,0.142,-0.504,0.853
2024-10-15 13:23:26.534,72557.982,0.124,0.474,-0.872,0.062,-0.144,-0.01,0.925,-0.235,0.352,0.141,-0.494,0.856
2024-10-15 13:23:26.544,72557.992,0.124,0.465,-0.877,0.048,-0.102,-0.033,0.976,-0.129,0.272,0.14,-0.484,0.858
2024-10-15 13:23:26.554,72558.002,0.124,0.456,-0.882,0.036,-0.065,-0.053,1.139,-0.161,0.256,0.139,-0.473,0.859
2024-10-15 13:23:26.565,72558.012,0.123,0.445,-0.887,0.081,-0.042,-0.065,1.166,-0.206,0.154,0.138,-0.461,0.86
2024-10-15 13:23:26.574,72558.022,0.122,0.435,-0.892,0.088,-0.066,-0.069,0.965,-0.092,0.116,0.136,-0.45,0.86
2024-10-15 13:23:26.583,72558.032,0.122,0.428,-0.896,0.028,-0.146,-0.085,0.725,0.021,0.066,0.136,-0.442,0.859
2024-10-15 13:23:26.594,72558.042,0.123,0.422,-0.898,-0.028,-0.164,-0.109,0.544,0.035,0.057,0.136,-0.436,0.859
2024-10-15 13:23:26.603,72558.052,0.123,0.418,-0.9,-0.034,-0.097,-0.058,0.418,0.097,0.03,0.136,-0.431,0.859
2024-10-15 13:23:26.614,72558.062,0.124,0.415,-0.901,-0.024,-0.066,0.018,0.264,0.107,0.007,0.137,-0.427,0.859
2024-10-15 13:23:26.624,72558.072,0.126,0.413,-0.902,-0.044,-0.027,0.049,0.142,0.115,0.013,0.138,-0.426,0.858
2024-10-15 13:23:26.634,72558.081,0.126,0.412,-0.903,-0.042,-0.002,0.04,0.151,0.081,0.019,0.139,-0.424,0.858
2024-10-15 13:23:26.644,72558.091,0.127,0.41,-0.903,-0.044,0.025,0.021,0.242,0.086,0.037,0.14,-0.422,0.858
2024-10-15 13:23:26.654,72558.101,0.128,0.407,-0.904,-0.051,0.039,0.024,0.332,0.086,0.038,0.141,-0.419,0.858
2024-10-15 13:23:26.664,72558.111,0.129,0.404,-0.906,-0.067,0.036,0.021,0.418,0.079,0.037,0.142,-0.415,0.858
2024-10-15 13:23:26.674,72558.121,0.13,0.4,-0.907,-0.076,0.027,0.021,0.412,0.085,0.05,0.142,-0.411,0.858
2024-10-15 13:23:26.684,72558.131,0.131,0.396,-0.909,-0.077,0.013,0.041,0.393,0.102,0.056,0.143,-0.407,0.858
2024-10-15 13:23:26.694,72558.141,0.132,0.392,-0.91,-0.073,0.032,0.062,0.429,0.071,0.058,0.144,-0.403,0.858
2024-10-15 13:23:26.704,72558.151,0.133,0.388,-0.912,-0.033,0.036,0.057,0.487,0.056,0.06,0.145,-0.399,0.858
2024-10-15 13:23:26.713,72558.161,0.134,0.383,-0.914,-0.006,0.031,0.022,0.496,0.011,0.11,0.145,-0.394,0.858
2024-10-15 13:23:26.723,72558.171,0.134,0.379,-0.916,0.012,0.019,-0.019,0.443,-0.019,0.118,0.145,-0.389,0.858
2024-10-15 13:23:26.733,72558.181,0.134,0.375,-0.917,0.032,-0.007,-0.017,0.321,-0.027,0.133,0.145,-0.385,0.859
2024-10-15 13:23:26.744,72558.191,0.135,0.372,-0.918,0.033,-0.039,0.004,0.265,-0.01,0.175,0.146,-0.382,0.86
2024-10-15 13:23:26.754,72558.201,0.135,0.369,-0.919,0.047,-0.053,0.004,0.356,-0.013,0.145,0.146,-0.378,0.862
2024-10-15 13:23:26.764,72558.211,0.135,0.365,-0.921,0.057,-0.021,-0.019,0.473,-0.028,0.105,0.146,-0.374,0.862
2024-10-15 13:23:26.774,72558.221,0.136,0.361,-0.923,0.046,0.012,-0.027,0.544,0.014,0.041,0.146,-0.369,0.862
2024-10-15 13:23:26.784,72558.231,0.136,0.356,-0.925,0.024,-0.019,-0.029,0.501,0.042,-0.017,0.146,-0.364,0.862
2024-10-15 13:23:26.794,72558.241,0.136,0.352,-0.926,-0.009,-0.057,-0.044,0.339,0.062,-0.016,0.146,-0.36,0.861
2024-10-15 13:23:26.804,72558.251,0.137,0.35,-0.927,-0.01,-0.076,-0.052,0.162,0.102,-0.048,0.147,-0.357,0.86
2024-10-15 13:23:26.814,72558.261,0.138,0.349,-0.927,-0.016,-0.056,-0.014,0.048,0.125,-0.063,0.148,-0.356,0.859
2024-10-15 13:23:26.824,72558.271,0.139,0.349,-0.927,-0.019,-0.036,0.038,0.019,0.119,-0.039,0.149,-0.356,0.859
2024-10-15 13:23:26.834,72558.281,0.14,0.348,-0.927,0.0,-0.029,0.065,0.154,0.128,-0.005,0.15,-0.355,0.858
2024-10-15 13:23:26.844,72558.291,0.141,0.345,-0.928,0.005,0.038,0.064,0.374,0.13,0.035,0.151,-0.353,0.858
2024-10-15 13:23:26.854,72558.301,0.142,0.341,-0.929,-0.004,0.135,0.04,0.633,0.047,0.137,0.152,-0.348,0.858
2024-10-15 13:23:26.864,72558.311,0.143,0.333,-0.932,0.026,0.195,0.043,0.862,-0.052,0.208,0.152,-0.34,0.859
2024-10-15 13:23:26.873,72558.321,0.143,0.325,-0.935,0.049,0.18,0.053,0.87,-0.072,0.278,0.152,-0.331,0.86
2024-10-15 13:23:26.884,72558.331,0.143,0.317,-0.938,0.03,0.107,0.029,0.719,-0.041,0.316,0.152,-0.323,0.862
2024-10-15 13:23:26.894,72558.341,0.144,0.31,-0.94,-0.019,0.046,-0.017,0.72,0.066,0.353,0.152,-0.315,0.864
2024-10-15 13:23:26.904,72558.351,0.146,0.302,-0.942,-0.041,0.051,-0.011,0.942,0.145,0.294,0.154,-0.306,0.866
2024-10-15 13:23:26.914,72558.361,0.148,0.291,-0.945,-0.038,0.108,0.014,1.137,0.03,0.331,0.156,-0.296,0.867
2024-10-15 13:23:26.924,72558.371,0.149,0.28,-0.948,-0.003,0.078,-0.039,1.008,-0.086,0.378,0.156,-0.284,0.869
2024-10-15 13:23:26.933,72558.381,0.149,0.272,-0.951,0.05,-0.012,-0.017,0.745,-0.006,0.277,0.156,-0.275,0.871
2024-10-15 13:23:26.943,72558.391,0.15,0.265,-0.952,-0.019,-0.068,0.023,0.617,0.056,0.274,0.157,-0.268,0.873
2024-10-15 13:23:26.954,72558.401,0.151,0.259,-0.954,-0.069,-0.088,-0.006,0.583,-0.012,0.264,0.157,-0.262,0.875
2024-10-15 13:23:26.964,72558.411,0.152,0.253,-0.955,-0.035,-0.073,-0.013,0.564,0.018,0.204,0.158,-0.256,0.876
2024-10-15 13:23:26.974,72558.421,0.153,0.247,-0.957,-0.03,-0.108,-0.013,0.569,0.021,0.252,0.158,-0.25,0.878
2024-10-15 13:23:26.983,72558.431,0.154,0.241,-0.958,-0.056,-0.105,-0.034,0.57,0.024,0.286,0.159,-0.244,0.88
2024-10-15 13:23:26.993,72558.441,0.155,0.236,-0.959,-0.047,-0.027,-0.038,0.537,0.08,0.282,0.16,-0.238,0.882
2024-10-15 13:23:27.003,72558.451,0.156,0.231,-0.96,-0.059,0.065,-0.048,0.366,0.038,0.249,0.161,-0.233,0.883
2024-10-15 13:23:27.013,72558.461,0.157,0.229,-0.961,-0.042,0.092,-0.019,-0.065,-0.036,0.361,0.162,-0.231,0.886
2024-10-15 13:23:27.023,72558.471,0.157,0.23,-0.96,0.015,-0.0,0.038,-0.41,0.053,0.308,0.162,-0.233,0.89
2024-10-15 13:23:27.033,72558.481,0.159,0.234,-0.959,-0.033,0.02,0.09,-0.473,0.064,0.291,0.164,-0.237,0.894
2024-10-15 13:23:27.043,72558.491,0.16,0.237,-0.958,-0.069,0.057,0.099,-0.214,0.058,0.288,0.165,-0.24,0.897
2024-10-15 13:23:27.053,72558.501,0.161,0.237,-0.958,0.012,0.012,0.057,0.238,0.085,0.235,0.167,-0.239,0.9
2024-10-15 13:23:27.063,72558.511,0.162,0.233,-0.959,0.008,0.079,-0.005,0.575,0.06,0.147,0.168,-0.235,0.901
2024-10-15 13:23:27.073,72558.521,0.163,0.227,-0.96,0.029,0.081,0.002,0.513,0.013,0.099,0.168,-0.229,0.902
2024-10-15 13:23:27.083,72558.531,0.163,0.223,-0.961,0.086,-0.091,0.04,0.195,0.05,0.033,0.169,-0.225,0.902
2024-10-15 13:23:27.093,72558.541,0.164,0.223,-0.961,0.1,-0.233,0.059,0.008,0.059,-0.017,0.169,-0.224,0.902
2024-10-15 13:23:27.103,72558.551,0.164,0.223,-0.961,0.094,-0.249,0.063,-0.025,-0.004,-0.051,0.169,-0.225,0.901
2024-10-15 13:23:27.113,72558.561,0.164,0.223,-0.961,0.107,-0.172,0.034,-0.057,-0.071,-0.085,0.169,-0.225,0.901
2024-10-15 13:23:27.123,72558.571,0.163,0.224,-0.961,0.084,-0.055,0.042,-0.009,-0.06,-0.07,0.168,-0.226,0.9
2024-10-15 13:23:27.133,72558.581,0.162,0.223,-0.961,0.04,0.059,0.043,0.148,-0.089,0.003,0.167,-0.225,0.899
2024-10-15 13:23:27.143,72558.591,0.161,0.22,-0.962,0.019,0.191,-0.008,0.495,-0.079,0.071,0.166,-0.222,0.899
2024-10-15 13:23:27.153,72558.601,0.16,0.213,-0.964,0.018,0.283,-0.042,0.872,-0.159,0.081,0.165,-0.215,0.899
2024-10-15 13:23:27.163,72558.611,0.158,0.205,-0.966,0.012,0.309,0.015,0.812,-0.324,0.095,0.162,-0.206,0.898
2024-10-15 13:23:27.173,72558.621,0.156,0.198,-0.968,0.095,0.057,0.029,0.646,-0.215,0.105,0.159,-0.199,0.898
2024-10-15 13:23:27.183,72558.631,0.154,0.192,-0.969,-0.002,-0.103,0.0,0.554,-0.146,0.112,0.158,-0.193,0.898
2024-10-15 13:23:27.193,72558.641,0.153,0.186,-0.971,-0.101,-0.051,0.001,0.523,-0.197,0.081,0.156,-0.187,0.898
2024-10-15 13:23:27.203,72558.65,0.151,0.182,-0.972,-0.073,-0.032,0.029,0.42,-0.238,0.064,0.154,-0.183,0.898
2024-10-15 13:23:27.212,72558.66,0.149,0.178,-0.973,-0.055,-0.078,0.068,0.366,-0.189,0.05,0.152,-0.179,0.898
2024-10-15 13:23:27.222,72558.67,0.147,0.174,-0.974,-0.108,-0.072,0.067,0.373,-0.201,0.084,0.15,-0.175,0.898
2024-10-15 13:23:27.232,72558.68,0.145,0.171,-0.975,-0.139,0.001,0.017,0.344,-0.179,0.064,0.148,-0.171,0.899
2024-10-15 13:23:27.242,72558.69,0.144,0.168,-0.975,-0.152,0.063,-0.049,0.222,-0.126,0.099,0.146,-0.168,0.899
2024-10-15 13:23:27.252,72558.7,0.143,0.166,-0.976,-0.143,0.005,-0.054,0.082,-0.118,0.083,0.145,-0.167,0.9
2024-10-15 13:23:27.262,72558.71,0.142,0.166,-0.976,-0.081,-0.067,-0.052,-0.047,-0.117,0.028,0.144,-0.167,0.9
2024-10-15 13:23:27.273,72558.72,0.141,0.167,-0.976,-0.045,-0.1,-0.044,-0.136,-0.093,-0.034,0.143,-0.168,0.9
2024-10-15 13:23:27.283,72558.73,0.139,0.169,-0.976,-0.007,-0.175,-0.057,-0.404,-0.194,-0.013,0.142,-0.17,0.9
2024-10-15 13:23:27.293,72558.74,0.138,0.174,-0.975,0.012,-0.197,-0.084,-0.605,-0.047,-0.028,0.141,-0.175,0.901
2024-10-15 13:23:27.303,72558.75,0.139,0.18,-0.974,-0.019,-0.073,-0.031,-0.544,0.116,0.049,0.141,-0.181,0.902
2024-10-15 13:23:27.313,72558.76,0.14,0.184,-0.973,-0.099,0.146,0.05,-0.336,0.063,0.14,0.142,-0.185,0.903
2024-10-15 13:23:27.323,72558.77,0.14,0.186,-0.973,0.047,0.171,0.116,0.032,0.05,0.115,0.143,-0.187,0.905
2024-10-15 13:23:27.334,72558.78,0.141,0.184,-0.973,0.089,0.211,0.097,0.185,-0.022,0.082,0.144,-0.185,0.906
2024-10-15 13:23:27.343,72558.79,0.141,0.183,-0.973,0.127,0.04,0.049,0.137,0.074,0.002,0.144,-0.184,0.906
2024-10-15 13:23:27.353,72558.8,0.142,0.182,-0.973,0.139,-0.166,0.016,0.03,0.155,-0.055,0.145,-0.183,0.906
2024-10-15 13:23:27.363,72558.81,0.143,0.182,-0.973,0.13,-0.211,0.031,-0.028,0.066,-0.045,0.146,-0.183,0.905
2024-10-15 13:23:27.373,72558.82,0.143,0.182,-0.973,0.205,-0.18,0.041,0.139,-0.012,-0.007,0.146,-0.183,0.905
2024-10-15 13:23:27.383,72558.83,0.143,0.179,-0.973,0.214,-0.018,-0.006,0.313,-0.131,0.06,0.146,-0.18,0.905
2024-10-15 13:23:27.393,72558.84,0.141,0.176,-0.974,0.162,0.181,-0.059,0.445,-0.161,0.113,0.144,-0.176,0.905
2024-10-15 13:23:27.403,72558.85,0.14,0.17,-0.975,0.101,0.253,-0.069,0.761,-0.044,0.151,0.143,-0.171,0.906
2024-10-15 13:23:27.412,72558.86,0.14,0.16,-0.977,0.017,0.268,0.012,0.968,-0.209,0.074,0.142,-0.161,0.905
2024-10-15 13:23:27.422,72558.87,0.136,0.153,-0.979,0.068,0.126,0.16,0.64,-0.415,-0.072,0.138,-0.153,0.904
2024-10-15 13:23:27.433,72558.88,0.134,0.147,-0.98,0.182,-0.282,0.115,0.567,-0.116,-0.044,0.136,-0.148,0.903
2024-10-15 13:23:27.442,72558.89,0.132,0.142,-0.981,-0.076,-0.231,-0.03,0.442,-0.195,0.001,0.134,-0.143,0.902
2024-10-15 13:23:27.453,72558.9,0.13,0.138,-0.982,-0.138,-0.038,-0.095,0.328,-0.228,0.012,0.132,-0.139,0.901
2024-10-15 13:23:27.463,72558.91,0.128,0.136,-0.982,-0.121,0.051,-0.071,0.175,-0.274,0.098,0.129,-0.136,0.902
2024-10-15 13:23:27.473,72558.92,0.125,0.134,-0.983,-0.187,0.09,-0.025,0.123,-0.269,0.124,0.127,-0.135,0.903
2024-10-15 13:23:27.482,72558.93,0.123,0.133,-0.983,-0.215,0.074,-0.012,0.132,-0.277,0.144,0.124,-0.133,0.904
2024-10-15 13:23:27.492,72558.94,0.12,0.132,-0.984,-0.236,0.075,-0.02,0.09,-0.309,0.127,0.122,-0.132,0.905
2024-10-15 13:23:27.503,72558.95,0.118,0.131,-0.984,-0.196,0.018,0.025,0.054,-0.256,0.102,0.119,-0.131,0.906
2024-10-15 13:23:27.512,72558.96,0.115,0.13,-0.985,-0.161,-0.043,0.034,0.089,-0.305,0.061,0.116,-0.13,0.907
2024-10-15 13:23:27.523,72558.97,0.112,0.129,-0.985,-0.099,-0.075,0.006,0.041,-0.329,-0.005,0.113,-0.129,0.907
2024-10-15 13:23:27.533,72558.98,0.108,0.132,-0.985,-0.022,-0.135,-0.017,-0.547,-0.396,0.004,0.109,-0.132,0.907
2024-10-15 13:23:27.542,72558.99,0.106,0.138,-0.985,-0.002,-0.163,-0.026,-0.652,-0.008,-0.087,0.107,-0.138,0.907
2024-10-15 13:23:27.552,72559.0,0.107,0.144,-0.984,-0.113,-0.006,-0.021,-0.507,0.198,0.025,0.108,-0.144,0.908
2024-10-15 13:23:27.563,72559.01,0.109,0.148,-0.983,-0.167,0.205,0.027,-0.291,0.242,-0.006,0.111,-0.148,0.908
2024-10-15 13:23:27.572,72559.02,0.111,0.15,-0.982,0.006,0.172,0.152,-0.114,0.201,-0.036,0.113,-0.15,0.908
2024-10-15 13:23:27.582,72559.03,0.113,0.151,-0.982,0.1,0.063,0.177,-0.129,0.183,-0.129,0.115,-0.151,0.908
2024-10-15 13:23:27.593,72559.04,0.115,0.153,-0.982,0.148,-0.099,0.118,-0.22,0.224,-0.2,0.116,-0.153,0.906
2024-10-15 13:23:27.602,72559.05,0.117,0.155,-0.981,0.172,-0.242,0.01,-0.29,0.247,-0.243,0.119,-0.156,0.904
2024-10-15 13:23:27.612,72559.06,0.119,0.158,-0.98,0.187,-0.218,-0.057,-0.255,0.25,-0.201,0.121,-0.159,0.902
2024-10-15 13:23:27.623,72559.07,0.121,0.16,-0.98,0.196,-0.114,-0.094,-0.058,0.285,-0.103,0.123,-0.161,0.901
2024-10-15 13:23:27.633,72559.08,0.124,0.16,-0.979,0.188,0.062,-0.094,0.126,0.215,-0.016,0.126,-0.161,0.9
2024-10-15 13:23:27.642,72559.09,0.125,0.158,-0.979,0.208,0.197,-0.045,0.207,0.125,0.015,0.127,-0.159,0.9
2024-10-15 13:23:27.652,72559.1,0.126,0.156,-0.98,0.219,0.232,0.011,0.374,0.098,0.074,0.128,-0.156,0.9
2024-10-15 13:23:27.662,72559.11,0.128,0.149,-0.981,0.142,0.264,0.058,0.883,0.091,-0.004,0.13,-0.15,0.9
2024-10-15 13:23:27.672,72559.12,0.126,0.142,-0.982,0.078,0.285,0.131,0.566,-0.392,-0.081,0.128,-0.142,0.898
2024-10-15 13:23:27.682,72559.13,0.123,0.138,-0.983,0.175,-0.085,0.028,0.339,-0.098,-0.106,0.125,-0.138,0.897
2024-10-15 13:23:27.692,72559.14,0.123,0.135,-0.983,-0.067,-0.27,-0.184,0.272,0.095,0.007,0.125,-0.135,0.896
2024-10-15 13:23:27.702,72559.15,0.123,0.132,-0.983,-0.398,0.016,-0.176,0.161,-0.128,0.128,0.125,-0.133,0.896
2024-10-15 13:23:27.712,72559.16,0.121,0.131,-0.984,-0.259,0.011,-0.023,0.126,-0.292,0.094,0.123,-0.131,0.897
2024-10-15 13:23:27.723,72559.17,0.119,0.13,-0.984,-0.196,-0.041,0.066,0.094,-0.292,0.083,0.12,-0.13,0.898
2024-10-15 13:23:27.732,72559.18,0.116,0.129,-0.985,-0.299,-0.021,0.055,-0.004,-0.292,0.043,0.117,-0.13,0.899
2024-10-15 13:23:27.742,72559.19,0.113,0.13,-0.985,-0.268,-0.095,0.025,-0.153,-0.201,-0.059,0.115,-0.13,0.899
2024-10-15 13:23:27.752,72559.2,0.112,0.133,-0.985,-0.23,-0.103,0.01,-0.372,-0.004,-0.188,0.113,-0.133,0.898
2024-10-15 13:23:27.762,72559.21,0.113,0.137,-0.984,-0.208,-0.12,0.012,-0.45,0.157,-0.203,0.114,-0.137,0.896
2024-10-15 13:23:27.772,72559.219,0.113,0.143,-0.983,-0.12,-0.203,0.013,-0.694,-0.062,-0.162,0.114,-0.143,0.895
2024-10-15 13:23:27.782,72559.229,0.112,0.15,-0.982,0.045,-0.205,-0.054,-0.69,0.098,-0.254,0.114,-0.151,0.894
2024-10-15 13:23:27.792,72559.239,0.114,0.157,-0.981,-0.006,-0.028,-0.099,-0.791,0.21,-0.122,0.115,-0.158,0.893
2024-10-15 13:23:27.802,72559.249,0.117,0.165,-0.979,-0.069,0.11,-0.002,-0.669,0.409,-0.134,0.118,-0.166,0.892
2024-10-15 13:23:27.812,72559.259,0.12,0.17,-0.978,0.01,0.202,0.166,-0.439,0.304,-0.065,0.122,-0.171,0.892
2024-10-15 13:23:27.822,72559.269,0.122,0.174,-0.977,0.131,0.137,0.218,-0.196,0.216,-0.092,0.125,-0.175,0.892
2024-10-15 13:23:27.832,72559.279,0.124,0.175,-0.977,0.266,-0.028,0.174,-0.073,0.147,-0.102,0.126,-0.176,0.891
2024-10-15 13:23:27.842,72559.289,0.125,0.176,-0.976,0.28,-0.083,0.06,-0.128,0.107,-0.095,0.127,-0.177,0.89
2024-10-15 13:23:27.852,72559.299,0.126,0.178,-0.976,0.291,-0.094,-0.048,-0.122,0.145,-0.06,0.128,-0.178,0.889
2024-10-15 13:23:27.862,72559.309,0.128,0.178,-0.976,0.237,-0.006,-0.113,0.009,0.167,0.028,0.13,-0.179,0.889
2024-10-15 13:23:27.872,72559.319,0.129,0.177,-0.976,0.174,0.138,-0.107,0.138,0.073,0.1,0.131,-0.178,0.89
2024-10-15 13:23:27.882,72559.329,0.129,0.175,-0.976,0.177,0.207,-0.037,0.275,-0.017,0.162,0.132,-0.176,0.891
2024-10-15 13:23:27.892,72559.339,0.129,0.172,-0.977,0.18,0.186,0.04,0.431,-0.082,0.193,0.132,-0.172,0.892
2024-10-15 13:23:27.902,72559.349,0.128,0.166,-0.978,0.141,0.167,0.058,0.625,-0.168,0.226,0.13,-0.167,0.894
2024-10-15 13:23:27.912,72559.359,0.127,0.159,-0.979,0.1,0.104,0.043,0.787,-0.25,0.365,0.129,-0.159,0.895
2024-10-15 13:23:27.922,72559.369,0.124,0.152,-0.981,0.089,0.085,0.101,0.599,-0.429,0.02,0.125,-0.153,0.896
2024-10-15 13:23:27.932,72559.379,0.121,0.146,-0.982,0.079,-0.036,0.041,0.567,-0.15,0.094,0.123,-0.146,0.896
2024-10-15 13:23:27.941,72559.389,0.12,0.141,-0.983,-0.219,-0.04,-0.146,0.468,-0.056,0.102,0.122,-0.141,0.896
2024-10-15 13:23:27.951,72559.399,0.119,0.136,-0.984,-0.291,-0.044,-0.097,0.485,-0.283,0.217,0.12,-0.136,0.898
2024-10-15 13:23:27.961,72559.409,0.116,0.131,-0.985,-0.201,-0.046,-0.016,0.446,-0.368,0.077,0.117,-0.132,0.898
2024-10-15 13:23:27.971,72559.419,0.113,0.127,-0.985,-0.223,-0.044,-0.007,0.349,-0.305,0.089,0.114,-0.127,0.899
2024-10-15 13:23:27.981,72559.429,0.11,0.124,-0.986,-0.307,-0.162,-0.071,0.185,-0.306,0.03,0.111,-0.125,0.899
2024-10-15 13:23:27.991,72559.439,0.107,0.124,-0.987,-0.282,-0.212,-0.063,-0.051,-0.292,-0.109,0.108,-0.124,0.899
2024-10-15 13:23:28.001,72559.449,0.104,0.125,-0.987,-0.209,-0.237,-0.019,-0.175,-0.162,-0.237,0.105,-0.126,0.897
2024-10-15 13:23:28.012,72559.459,0.103,0.128,-0.986,-0.179,-0.232,-0.021,-0.234,-0.008,-0.318,0.104,-0.128,0.895
2024-10-15 13:23:28.021,72559.469,0.103,0.131,-0.986,-0.137,-0.158,-0.023,-0.36,0.107,-0.416,0.104,-0.131,0.891
2024-10-15 13:23:28.032,72559.479,0.104,0.136,-0.985,-0.061,-0.108,-0.043,-0.65,0.183,-0.452,0.105,-0.136,0.887
2024-10-15 13:23:28.042,72559.489,0.107,0.143,-0.984,-0.036,-0.056,0.035,-0.555,0.651,-0.388,0.108,-0.143,0.884
2024-10-15 13:23:28.052,72559.499,0.114,0.147,-0.983,-0.112,0.157,0.229,-0.368,0.663,-0.207,0.115,-0.148,0.881
2024-10-15 13:23:28.062,72559.509,0.118,0.15,-0.982,0.014,0.307,0.38,-0.119,0.381,-0.083,0.12,-0.151,0.88
2024-10-15 13:23:28.072,72559.519,0.121,0.15,-0.981,0.287,0.282,0.363,0.094,0.153,0.013,0.123,-0.151,0.88
2024-10-15 13:23:28.081,72559.529,0.122,0.149,-0.981,0.369,0.3,0.21,0.187,0.116,0.091,0.124,-0.149,0.88
2024-10-15 13:23:28.092,72559.539,0.124,0.147,-0.981,0.338,0.205,-0.024,0.216,0.143,0.173,0.125,-0.147,0.881
2024-10-15 13:23:28.102,72559.549,0.125,0.144,-0.982,0.286,0.121,-0.23,0.263,0.168,0.217,0.127,-0.145,0.883
2024-10-15 13:23:28.111,72559.559,0.127,0.141,-0.982,0.264,0.083,-0.244,0.362,0.121,0.286,0.129,-0.141,0.885
2024-10-15 13:23:28.121,72559.569,0.128,0.136,-0.982,0.262,0.068,-0.135,0.483,-0.025,0.299,0.13,-0.137,0.887
2024-10-15 13:23:28.131,72559.579,0.128,0.131,-0.983,0.249,0.077,-0.034,0.505,-0.158,0.445,0.129,-0.131,0.89
2024-10-15 13:23:28.141,72559.589,0.126,0.126,-0.984,0.193,0.056,0.019,0.354,-0.309,0.281,0.127,-0.126,0.894
2024-10-15 13:23:28.152,72559.599,0.124,0.122,-0.985,0.157,0.024,0.166,0.351,-0.102,0.064,0.125,-0.122,0.895
2024-10-15 13:23:28.161,72559.609,0.125,0.119,-0.985,-0.099,0.043,0.022,0.314,0.247,0.214,0.126,-0.119,0.895
2024-10-15 13:23:28.171,72559.619,0.126,0.114,-0.985,-0.294,-0.078,-0.152,0.587,-0.006,0.414,0.128,-0.114,0.898
2024-10-15 13:23:28.181,72559.629,0.125,0.107,-0.986,-0.199,-0.046,-0.128,0.736,-0.275,0.115,0.126,-0.107,0.9
2024-10-15 13:23:28.191,72559.639,0.123,0.1,-0.987,-0.115,-0.055,-0.049,0.676,-0.247,0.066,0.124,-0.1,0.9
2024-10-15 13:23:28.201,72559.649,0.121,0.093,-0.988,-0.253,-0.183,-0.031,0.566,-0.18,0.037,0.122,-0.094,0.9
2024-10-15 13:23:28.211,72559.659,0.119,0.089,-0.989,-0.372,-0.241,-0.04,0.385,-0.193,-0.049,0.12,-0.089,0.899
2024-10-15 13:23:28.221,72559.669,0.117,0.086,-0.989,-0.363,-0.258,-0.007,0.15,-0.189,-0.142,0.118,-0.086,0.898
2024-10-15 13:23:28.231,72559.679,0.115,0.086,-0.99,-0.3,-0.293,0.082,-0.169,-0.153,-0.346,0.116,-0.087,0.895
2024-10-15 13:23:28.241,72559.689,0.114,0.09,-0.989,-0.274,-0.27,0.153,-0.429,0.044,-0.552,0.115,-0.09,0.891
2024-10-15 13:23:28.251,72559.699,0.115,0.095,-0.989,-0.271,-0.259,0.152,-0.526,0.283,-0.631,0.116,-0.096,0.886
2024-10-15 13:23:28.261,72559.709,0.118,0.102,-0.988,-0.262,-0.157,0.121,-0.579,0.422,-0.637,0.119,-0.102,0.88
2024-10-15 13:23:28.270,72559.719,0.122,0.109,-0.987,-0.181,0.036,0.124,-0.68,0.449,-0.597,0.123,-0.109,0.875
2024-10-15 13:23:28.280,72559.729,0.126,0.116,-0.985,-0.062,0.169,0.122,-0.669,0.465,-0.499,0.127,-0.116,0.87
2024-10-15 13:23:28.291,72559.739,0.13,0.122,-0.984,0.002,0.234,0.057,-0.448,0.53,-0.271,0.131,-0.122,0.867
2024-10-15 13:23:28.301,72559.749,0.135,0.125,-0.983,0.045,0.304,-0.013,-0.145,0.449,-0.084,0.136,-0.126,0.865
2024-10-15 13:23:28.311,72559.759,0.138,0.126,-0.982,0.222,0.343,-0.006,0.051,0.257,0.063,0.14,-0.126,0.865
2024-10-15 13:23:28.321,72559.769,0.14,0.124,-0.982,0.45,0.269,-0.023,0.148,0.156,0.184,0.142,-0.125,0.866
2024-10-15 13:23:28.331,72559.779,0.141,0.122,-0.982,0.58,0.167,-0.026,0.262,-0.0,0.276,0.143,-0.122,0.869
2024-10-15 13:23:28.341,72559.789,0.141,0.118,-0.983,0.616,0.097,-0.062,0.382,-0.163,0.355,0.142,-0.119,0.871
2024-10-15 13:23:28.351,72559.798,0.139,0.114,-0.984,0.55,0.067,-0.13,0.482,-0.235,0.44,0.141,-0.114,0.875
2024-10-15 13:23:28.361,72559.808,0.137,0.108,-0.985,0.398,0.052,-0.114,0.555,-0.309,0.506,0.138,-0.108,0.878
2024-10-15 13:23:28.371,72559.818,0.134,0.102,-0.986,0.281,0.034,-0.04,0.548,-0.465,0.568,0.135,-0.102,0.883
2024-10-15 13:23:28.381,72559.828,0.129,0.096,-0.987,0.213,0.04,0.043,0.4,-0.649,0.627,0.13,-0.096,0.888
2024-10-15 13:23:28.391,72559.838,0.124,0.09,-0.988,0.179,0.092,0.235,0.491,-0.565,0.308,0.125,-0.09,0.892
2024-10-15 13:23:28.401,72559.848,0.119,0.086,-0.989,-0.031,0.111,0.115,0.245,-0.425,0.171,0.12,-0.086,0.894
2024-10-15 13:23:28.411,72559.858,0.117,0.085,-0.99,-0.322,-0.1,-0.136,-0.095,-0.043,-0.106,0.117,-0.085,0.894
2024-10-15 13:23:28.421,72559.868,0.115,0.086,-0.99,-0.497,-0.282,-0.116,-0.01,-0.251,0.247,0.116,-0.086,0.895
2024-10-15 13:23:28.431,72559.878,0.112,0.084,-0.99,-0.432,-0.3,-0.106,0.394,-0.481,-0.004,0.112,-0.084,0.896
2024-10-15 13:23:28.441,72559.888,0.107,0.08,-0.991,-0.302,-0.223,-0.102,0.333,-0.444,-0.13,0.108,-0.08,0.895
2024-10-15 13:23:28.451,72559.898,0.103,0.078,-0.992,-0.451,-0.244,-0.063,0.065,-0.31,-0.069,0.104,-0.078,0.894
2024-10-15 13:23:28.461,72559.908,0.1,0.079,-0.992,-0.457,-0.243,0.066,-0.083,-0.336,-0.239,0.1,-0.079,0.892
2024-10-15 13:23:28.471,72559.918,0.097,0.081,-0.992,-0.307,-0.1,0.205,-0.296,-0.255,-0.458,0.097,-0.081,0.889
2024-10-15 13:23:28.481,72559.928,0.095,0.085,-0.992,-0.255,-0.006,0.206,-0.503,0.103,-0.548,0.096,-0.085,0.884
2024-10-15 13:23:28.491,72559.938,0.098,0.091,-0.991,-0.274,0.002,0.136,-0.564,0.464,-0.526,0.098,-0.091,0.88
2024-10-15 13:23:28.501,72559.948,0.103,0.097,-0.99,-0.213,0.109,0.089,-0.413,0.569,-0.474,0.103,-0.097,0.875
2024-10-15 13:23:28.511,72559.958,0.108,0.1,-0.989,-0.038,0.252,-0.038,-0.158,0.595,-0.359,0.109,-0.1,0.871
2024-10-15 13:23:28.521,72559.968,0.113,0.101,-0.988,0.038,0.301,-0.215,-0.125,0.59,-0.213,0.114,-0.101,0.868
2024-10-15 13:23:28.531,72559.978,0.119,0.102,-0.988,0.111,0.228,-0.099,-0.073,0.496,-0.094,0.12,-0.103,0.867
2024-10-15 13:23:28.541,72559.988,0.123,0.103,-0.987,0.22,0.132,0.063,0.007,0.313,-0.015,0.124,-0.103,0.866
2024-10-15 13:23:28.551,72559.998,0.125,0.102,-0.987,0.307,0.072,0.118,0.079,0.204,0.054,0.126,-0.102,0.867
2024-10-15 13:23:28.561,72560.008,0.127,0.101,-0.987,0.363,-0.032,0.114,0.163,0.094,0.08,0.128,-0.101,0.867
2024-10-15 13:23:28.571,72560.018,0.127,0.1,-0.987,0.403,-0.092,0.054,0.108,-0.032,0.095,0.128,-0.1,0.868
2024-10-15 13:23:28.581,72560.028,0.127,0.099,-0.987,0.477,-0.161,-0.017,0.113,-0.035,0.109,0.128,-0.099,0.869
2024-10-15 13:23:28.590,72560.038,0.126,0.097,-0.987,0.484,-0.147,-0.082,0.178,-0.132,0.153,0.127,-0.097,0.87
2024-10-15 13:23:28.601,72560.048,0.125,0.095,-0.988,0.414,0.015,-0.149,0.293,-0.14,0.202,0.126,-0.095,0.871
2024-10-15 13:23:28.611,72560.058,0.124,0.09,-0.988,0.305,0.136,-0.189,0.601,-0.097,0.301,0.125,-0.09,0.873
2024-10-15 13:23:28.621,72560.068,0.124,0.081,-0.989,0.105,0.3,-0.19,1.249,0.028,0.276,0.125,-0.081,0.875
2024-10-15 13:23:28.630,72560.078,0.122,0.069,-0.99,-0.013,0.446,-0.011,0.97,-0.4,0.031,0.123,-0.069,0.875
2024-10-15 13:23:28.640,72560.088,0.12,0.063,-0.991,0.096,0.07,0.185,0.25,0.132,-0.415,0.121,-0.063,0.873
2024-10-15 13:23:28.651,72560.098,0.123,0.064,-0.99,-0.15,-0.413,0.123,-0.281,0.452,-0.417,0.124,-0.064,0.868
2024-10-15 13:23:28.660,72560.108,0.127,0.067,-0.99,-0.58,-0.315,0.06,-0.204,0.234,0.364,0.128,-0.067,0.867
2024-10-15 13:23:28.671,72560.118,0.126,0.067,-0.99,-0.351,-0.212,0.003,0.275,-0.424,-0.084,0.126,-0.067,0.87
2024-10-15 13:23:28.680,72560.128,0.121,0.064,-0.991,-0.095,0.026,0.002,0.182,-0.4,-0.003,0.122,-0.064,0.869
2024-10-15 13:23:28.690,72560.138,0.118,0.063,-0.991,-0.339,0.027,0.061,-0.019,-0.318,0.132,0.119,-0.064,0.869
2024-10-15 13:23:28.700,72560.148,0.115,0.063,-0.991,-0.426,-0.064,0.136,0.121,-0.461,0.263,0.115,-0.063,0.871
2024-10-15 13:23:28.710,72560.158,0.11,0.06,-0.992,-0.279,0.1,0.183,0.355,-0.549,0.164,0.11,-0.06,0.873
2024-10-15 13:23:28.720,72560.168,0.105,0.057,-0.993,-0.203,0.244,0.122,0.294,-0.404,0.038,0.105,-0.057,0.874
2024-10-15 13:23:28.730,72560.178,0.103,0.055,-0.993,-0.271,0.222,0.023,-0.011,-0.023,-0.048,0.103,-0.055,0.874
2024-10-15 13:23:28.741,72560.188,0.104,0.057,-0.993,-0.263,0.088,-0.034,-0.249,0.265,-0.084,0.104,-0.057,0.873
2024-10-15 13:23:28.750,72560.198,0.106,0.06,-0.992,-0.173,0.014,-0.052,-0.453,0.192,-0.16,0.107,-0.06,0.872
2024-10-15 13:23:28.760,72560.208,0.108,0.066,-0.992,-0.022,-0.059,-0.099,-0.638,0.271,-0.175,0.109,-0.066,0.871
2024-10-15 13:23:28.770,72560.218,0.112,0.073,-0.991,-0.016,-0.167,-0.116,-0.624,0.41,-0.168,0.112,-0.073,0.87
2024-10-15 13:23:28.780,72560.228,0.115,0.079,-0.99,-0.087,-0.17,-0.012,-0.543,0.307,-0.163,0.116,-0.079,0.869
2024-10-15 13:23:28.790,72560.238,0.118,0.083,-0.99,0.052,-0.193,0.105,-0.413,0.215,-0.205,0.118,-0.084,0.868
2024-10-15 13:23:28.800,72560.248,0.119,0.087,-0.989,0.187,-0.195,0.147,-0.339,0.152,-0.167,0.12,-0.087,0.866
2024-10-15 13:23:28.810,72560.258,0.121,0.09,-0.989,0.258,-0.126,0.13,-0.21,0.163,-0.111,0.122,-0.09,0.865
2024-10-15 13:23:28.821,72560.268,0.122,0.092,-0.988,0.364,-0.011,0.041,-0.086,0.059,-0.019,0.123,-0.092,0.865
2024-10-15 13:23:28.830,72560.278,0.122,0.092,-0.988,0.483,0.152,-0.055,-0.018,0.005,0.058,0.123,-0.092,0.865
2024-10-15 13:23:28.840,72560.288,0.123,0.091,-0.988,0.558,0.213,-0.173,0.181,0.052,0.139,0.123,-0.092,0.866
2024-10-15 13:23:28.850,72560.298,0.123,0.088,-0.988,0.447,0.241,-0.23,0.383,-0.025,0.193,0.124,-0.089,0.867
2024-10-15 13:23:28.860,72560.308,0.122,0.084,-0.989,0.331,0.184,-0.177,0.455,-0.106,0.183,0.123,-0.084,0.869
2024-10-15 13:23:28.871,72560.318,0.122,0.079,-0.989,0.217,0.04,-0.076,0.591,-0.018,0.179,0.122,-0.079,0.87
2024-10-15 13:23:28.880,72560.328,0.122,0.071,-0.99,0.04,-0.051,0.016,0.879,-0.145,0.034,0.122,-0.071,0.87
2024-10-15 13:23:28.890,72560.338,0.118,0.065,-0.991,-0.043,-0.029,0.197,0.351,-0.438,-0.189,0.119,-0.065,0.869
2024-10-15 13:23:28.900,72560.348,0.116,0.064,-0.991,0.069,-0.358,0.221,-0.102,-0.059,-0.372,0.116,-0.064,0.865
2024-10-15 13:23:28.910,72560.358,0.115,0.066,-0.991,-0.277,-0.418,0.045,-0.279,-0.106,-0.284,0.115,-0.067,0.862
2024-10-15 13:23:28.920,72560.367,0.113,0.07,-0.991,-0.498,-0.165,-0.014,-0.281,-0.227,-0.21,0.113,-0.07,0.86
2024-10-15 13:23:28.930,72560.377,0.11,0.072,-0.991,-0.406,-0.001,-0.002,-0.134,-0.331,-0.023,0.11,-0.072,0.859
2024-10-15 13:23:28.940,72560.387,0.106,0.072,-0.992,-0.401,0.124,0.046,0.112,-0.447,0.141,0.107,-0.072,0.86
2024-10-15 13:23:28.950,72560.397,0.101,0.07,-0.992,-0.343,0.246,0.077,0.228,-0.508,0.092,0.102,-0.07,0.861
2024-10-15 13:23:28.960,72560.407,0.097,0.068,-0.993,-0.302,0.359,0.052,0.112,-0.359,0.021,0.097,-0.068,0.861
2024-10-15 13:23:28.970,72560.417,0.095,0.068,-0.993,-0.263,0.195,0.001,-0.075,-0.106,-0.035,0.095,-0.068,0.861
2024-10-15 13:23:28.980,72560.427,0.095,0.07,-0.993,-0.248,0.053,-0.052,-0.298,0.063,-0.114,0.095,-0.07,0.861
2024-10-15 13:23:28.990,72560.437,0.095,0.074,-0.993,-0.161,-0.035,-0.054,-0.491,0.129,-0.231,0.096,-0.074,0.859
2024-10-15 13:23:29.000,72560.447,0.097,0.08,-0.992,-0.103,-0.143,-0.105,-0.741,0.267,-0.213,0.098,-0.08,0.858
2024-10-15 13:23:29.010,72560.457,0.1,0.088,-0.991,-0.154,-0.145,-0.052,-0.863,0.344,-0.207,0.101,-0.089,0.856
2024-10-15 13:23:29.020,72560.467,0.103,0.097,-0.99,-0.115,-0.109,0.036,-0.816,0.289,-0.205,0.104,-0.097,0.855
2024-10-15 13:23:29.030,72560.477,0.106,0.104,-0.989,-0.007,-0.091,0.016,-0.557,0.326,-0.169,0.107,-0.104,0.854
2024-10-15 13:23:29.040,72560.487,0.109,0.109,-0.988,0.03,-0.045,-0.035,-0.438,0.292,-0.152,0.11,-0.109,0.853
2024-10-15 13:23:29.050,72560.497,0.112,0.113,-0.987,0.075,0.025,0.013,-0.405,0.38,-0.166,0.113,-0.114,0.852
2024-10-15 13:23:29.060,72560.507,0.115,0.117,-0.986,0.162,-0.036,0.122,-0.274,0.354,-0.094,0.116,-0.117,0.851
2024-10-15 13:23:29.070,72560.517,0.118,0.119,-0.986,0.308,-0.101,0.22,-0.175,0.21,-0.11,0.119,-0.12,0.85
2024-10-15 13:23:29.080,72560.527,0.119,0.121,-0.985,0.537,-0.11,0.213,-0.142,0.059,-0.085,0.12,-0.121,0.849
2024-10-15 13:23:29.090,72560.537,0.119,0.122,-0.985,0.647,-0.085,0.096,-0.067,0.009,-0.043,0.12,-0.122,0.849
2024-10-15 13:23:29.100,72560.547,0.119,0.122,-0.985,0.583,-0.012,-0.155,0.071,0.012,0.029,0.121,-0.122,0.849
2024-10-15 13:23:29.110,72560.557,0.12,0.121,-0.985,0.398,0.101,-0.37,0.199,0.005,0.092,0.121,-0.121,0.849
2024-10-15 13:23:29.120,72560.567,0.12,0.118,-0.986,0.235,0.146,-0.338,0.324,-0.01,0.138,0.121,-0.118,0.85
2024-10-15 13:23:29.130,72560.577,0.12,0.113,-0.986,0.109,0.132,-0.146,0.817,0.134,0.118,0.121,-0.113,0.851
2024-10-15 13:23:29.140,72560.587,0.121,0.102,-0.987,0.005,0.163,0.058,1.115,-0.179,0.063,0.122,-0.103,0.851
2024-10-15 13:23:29.150,72560.597,0.117,0.093,-0.989,0.063,0.071,0.218,0.775,-0.422,-0.126,0.118,-0.093,0.849
2024-10-15 13:23:29.160,72560.607,0.114,0.087,-0.99,0.194,-0.348,0.206,0.606,-0.276,-0.152,0.114,-0.087,0.847
2024-10-15 13:23:29.170,72560.617,0.111,0.081,-0.991,-0.165,-0.252,0.072,0.473,-0.324,-0.129,0.111,-0.081,0.845
2024-10-15 13:23:29.179,72560.627,0.107,0.077,-0.991,-0.385,0.102,-0.047,0.351,-0.314,-0.036,0.108,-0.077,0.843
2024-10-15 13:23:29.189,72560.637,0.104,0.074,-0.992,-0.456,0.216,-0.06,0.273,-0.339,0.156,0.105,-0.074,0.844
2024-10-15 13:23:29.200,72560.647,0.101,0.071,-0.992,-0.523,0.341,0.002,0.346,-0.318,0.204,0.102,-0.071,0.845
2024-10-15 13:23:29.209,72560.657,0.098,0.068,-0.993,-0.497,0.371,0.066,0.32,-0.341,0.184,0.098,-0.068,0.847
2024-10-15 13:23:29.219,72560.667,0.095,0.065,-0.993,-0.405,0.19,0.1,0.142,-0.236,0.029,0.095,-0.065,0.848
2024-10-15 13:23:29.230,72560.677,0.094,0.065,-0.993,-0.307,-0.093,0.096,-0.101,-0.038,-0.121,0.094,-0.065,0.847
2024-10-15 13:23:29.239,72560.687,0.094,0.067,-0.993,-0.266,-0.272,0.044,-0.399,0.126,-0.272,0.094,-0.068,0.846
2024-10-15 13:23:29.250,72560.697,0.095,0.073,-0.993,-0.178,-0.33,0.013,-0.623,0.187,-0.422,0.096,-0.073,0.843
2024-10-15 13:23:29.259,72560.707,0.098,0.08,-0.992,-0.122,-0.296,-0.06,-0.598,0.474,-0.384,0.099,-0.08,0.839
2024-10-15 13:23:29.269,72560.717,0.103,0.085,-0.991,-0.18,-0.117,-0.054,-0.446,0.479,-0.297,0.103,-0.085,0.836
2024-10-15 13:23:29.278,72560.727,0.107,0.089,-0.99,-0.064,0.072,0.07,-0.324,0.372,-0.252,0.107,-0.089,0.834
2024-10-15 13:23:29.288,72560.737,0.11,0.092,-0.99,0.127,0.167,0.144,-0.243,0.363,-0.205,0.111,-0.092,0.832
2024-10-15 13:23:29.299,72560.747,0.113,0.095,-0.989,0.21,0.142,0.123,-0.244,0.29,-0.115,0.114,-0.095,0.831
2024-10-15 13:23:29.309,72560.757,0.115,0.098,-0.989,0.327,0.022,0.057,-0.284,0.158,-0.072,0.116,-0.098,0.83
2024-10-15 13:23:29.319,72560.767,0.117,0.1,-0.988,0.456,-0.069,-0.011,-0.24,0.129,-0.033,0.118,-0.1,0.83
2024-10-15 13:23:29.329,72560.777,0.118,0.102,-0.988,0.478,-0.094,-0.089,-0.175,0.046,0.026,0.119,-0.102,0.83
2024-10-15 13:23:29.339,72560.787,0.118,0.103,-0.988,0.449,-0.024,-0.133,-0.007,0.025,0.012,0.119,-0.103,0.83
2024-10-15 13:23:29.349,72560.797,0.118,0.102,-0.988,0.382,0.064,-0.105,0.273,0.054,0.145,0.119,-0.102,0.831
2024-10-15 13:23:29.359,72560.807,0.118,0.099,-0.988,0.304,0.081,-0.07,0.274,-0.119,0.135,0.119,-0.099,0.832
2024-10-15 13:23:29.369,72560.817,0.117,0.096,-0.988,0.323,0.071,-0.012,0.277,-0.103,0.122,0.118,-0.096,0.833
2024-10-15 13:23:29.379,72560.827,0.116,0.092,-0.989,0.25,0.054,0.012,0.426,-0.137,0.165,0.117,-0.093,0.834
2024-10-15 13:23:29.389,72560.837,0.116,0.086,-0.99,0.069,0.193,-0.067,0.935,-0.012,0.189,0.116,-0.086,0.835
2024-10-15 13:23:29.399,72560.847,0.114,0.076,-0.991,-0.077,0.339,-0.043,0.902,-0.424,0.276,0.115,-0.076,0.836
2024-10-15 13:23:29.409,72560.857,0.109,0.068,-0.992,-0.055,0.209,0.151,0.556,-0.399,0.175,0.11,-0.068,0.838
2024-10-15 13:23:29.419,72560.867,0.107,0.063,-0.992,-0.102,-0.08,0.104,0.444,-0.191,0.232,0.107,-0.063,0.839
2024-10-15 13:23:29.429,72560.877,0.105,0.059,-0.993,-0.438,0.01,0.028,0.313,-0.253,0.219,0.105,-0.059,0.841
2024-10-15 13:23:29.439,72560.887,0.102,0.057,-0.993,-0.408,-0.029,-0.006,0.169,-0.259,0.133,0.103,-0.057,0.843
2024-10-15 13:23:29.449,72560.897,0.1,0.056,-0.993,-0.394,-0.077,0.007,-0.027,-0.212,0.065,0.1,-0.056,0.844
2024-10-15 13:23:29.459,72560.907,0.098,0.057,-0.994,-0.415,-0.159,0.067,-0.289,-0.182,-0.052,0.099,-0.057,0.844
2024-10-15 13:23:29.469,72560.917,0.097,0.061,-0.993,-0.362,-0.229,0.131,-0.499,-0.132,-0.18,0.097,-0.062,0.843
2024-10-15 13:23:29.479,72560.927,0.095,0.067,-0.993,-0.291,-0.249,0.157,-0.646,-0.063,-0.267,0.096,-0.067,0.841
2024-10-15 13:23:29.489,72560.936,0.095,0.074,-0.993,-0.222,-0.206,0.093,-0.645,0.086,-0.325,0.096,-0.074,0.839
2024-10-15 13:23:29.499,72560.946,0.096,0.081,-0.992,-0.16,-0.1,-0.031,-0.713,0.193,-0.292,0.097,-0.081,0.836
2024-10-15 13:23:29.510,72560.956,0.098,0.089,-0.991,-0.097,0.046,-0.125,-0.83,0.287,-0.249,0.099,-0.089,0.835
2024-10-15 13:23:29.519,72560.966,0.102,0.096,-0.99,-0.04,0.153,-0.143,-0.558,0.511,-0.116,0.103,-0.096,0.833
2024-10-15 13:23:29.529,72560.976,0.107,0.101,-0.989,-0.04,0.24,-0.06,-0.332,0.318,-0.005,0.107,-0.101,0.833
2024-10-15 13:23:29.539,72560.986,0.109,0.104,-0.989,0.138,0.183,0.093,-0.256,0.196,-0.006,0.11,-0.104,0.834
2024-10-15 13:23:29.549,72560.996,0.111,0.106,-0.988,0.327,-0.026,0.189,-0.205,0.168,0.042,0.112,-0.106,0.834
2024-10-15 13:23:29.558,72561.006,0.112,0.107,-0.988,0.387,-0.122,0.148,-0.053,0.141,0.051,0.113,-0.107,0.835
2024-10-15 13:23:29.569,72561.016,0.113,0.107,-0.988,0.459,-0.055,0.052,0.138,0.052,0.061,0.114,-0.107,0.835
2024-10-15 13:23:29.579,72561.026,0.114,0.105,-0.988,0.502,0.064,-0.073,0.162,0.002,0.149,0.115,-0.105,0.836
2024-10-15 13:23:29.589,72561.036,0.114,0.103,-0.988,0.469,0.107,-0.169,0.265,0.055,0.236,0.115,-0.103,0.838
2024-10-15 13:23:29.599,72561.046,0.115,0.099,-0.988,0.367,0.114,-0.214,0.408,-0.008,0.325,0.116,-0.099,0.84
2024-10-15 13:23:29.609,72561.056,0.115,0.094,-0.989,0.253,0.184,-0.17,0.558,-0.079,0.384,0.115,-0.094,0.843
2024-10-15 13:23:29.619,72561.066,0.114,0.088,-0.99,0.173,0.162,-0.07,0.616,-0.16,0.597,0.115,-0.088,0.847
2024-10-15 13:23:29.629,72561.076,0.111,0.081,-0.99,0.119,0.191,0.212,0.583,-0.438,0.39,0.112,-0.081,0.852
2024-10-15 13:23:29.639,72561.086,0.107,0.075,-0.991,0.128,0.183,0.358,0.617,-0.523,0.491,0.108,-0.075,0.855
2024-10-15 13:23:29.648,72561.096,0.102,0.069,-0.992,-0.091,0.022,0.071,0.531,-0.466,0.473,0.103,-0.069,0.86
2024-10-15 13:23:29.659,72561.106,0.099,0.063,-0.993,-0.298,-0.079,-0.092,0.441,-0.325,0.371,0.099,-0.063,0.863
2024-10-15 13:23:29.669,72561.116,0.096,0.059,-0.994,-0.431,-0.137,-0.123,0.349,-0.253,0.234,0.097,-0.059,0.866
2024-10-15 13:23:29.679,72561.126,0.094,0.056,-0.994,-0.461,-0.196,-0.053,0.222,-0.206,0.057,0.094,-0.056,0.867
2024-10-15 13:23:29.689,72561.136,0.092,0.055,-0.994,-0.462,-0.267,0.019,0.026,-0.155,-0.046,0.092,-0.055,0.867
2024-10-15 13:23:29.699,72561.146,0.091,0.056,-0.994,-0.457,-0.302,0.095,-0.29,-0.136,-0.156,0.091,-0.056,0.866
2024-10-15 13:23:29.709,72561.156,0.09,0.06,-0.994,-0.384,-0.258,0.176,-0.484,-0.042,-0.238,0.09,-0.06,0.864
2024-10-15 13:23:29.719,72561.166,0.089,0.066,-0.994,-0.306,-0.137,0.171,-0.567,0.007,-0.247,0.09,-0.066,0.863
2024-10-15 13:23:29.729,72561.176,0.09,0.071,-0.993,-0.204,-0.024,0.072,-0.482,0.128,-0.227,0.09,-0.071,0.861
2024-10-15 13:23:29.739,72561.186,0.091,0.076,-0.993,-0.095,0.051,-0.021,-0.436,0.119,-0.184,0.091,-0.076,0.859
2024-10-15 13:23:29.749,72561.196,0.092,0.08,-0.993,-0.006,0.154,-0.086,-0.435,0.115,-0.126,0.092,-0.08,0.858
2024-10-15 13:23:29.759,72561.206,0.094,0.084,-0.992,0.048,0.151,-0.115,-0.268,0.248,-0.022,0.094,-0.084,0.857
2024-10-15 13:23:29.768,72561.216,0.096,0.086,-0.992,0.012,0.181,-0.091,-0.187,0.21,0.054,0.097,-0.086,0.858
2024-10-15 13:23:29.778,72561.226,0.098,0.088,-0.991,0.101,0.149,-0.018,-0.145,0.189,0.069,0.099,-0.088,0.859
2024-10-15 13:23:29.788,72561.236,0.1,0.089,-0.991,0.247,0.028,0.059,-0.072,0.18,0.097,0.101,-0.089,0.859
2024-10-15 13:23:29.798,72561.246,0.102,0.089,-0.991,0.335,-0.001,0.085,0.015,0.081,0.135,0.102,-0.089,0.861
2024-10-15 13:23:29.808,72561.256,0.101,0.088,-0.991,0.472,-0.043,0.052,0.048,-0.115,0.08,0.102,-0.088,0.862
2024-10-15 13:23:29.818,72561.266,0.1,0.088,-0.991,0.55,-0.059,-0.01,0.054,-0.128,0.099,0.101,-0.088,0.863
2024-10-15 13:23:29.829,72561.276,0.1,0.086,-0.991,0.439,-0.04,-0.108,0.209,-0.041,0.16,0.1,-0.086,0.864
2024-10-15 13:23:29.838,72561.286,0.099,0.084,-0.992,0.241,0.063,-0.2,0.286,-0.12,0.228,0.099,-0.084,0.865
2024-10-15 13:23:29.848,72561.296,0.098,0.08,-0.992,0.144,0.107,-0.174,0.381,-0.074,0.308,0.099,-0.08,0.868
2024-10-15 13:23:29.858,72561.306,0.098,0.076,-0.992,0.032,0.142,-0.05,0.422,-0.044,0.484,0.098,-0.076,0.871
2024-10-15 13:23:29.868,72561.316,0.097,0.072,-0.993,0.017,0.183,0.173,0.352,-0.299,0.363,0.097,-0.072,0.875
2024-10-15 13:23:29.878,72561.326,0.094,0.068,-0.993,0.136,0.152,0.289,0.371,-0.281,0.335,0.094,-0.068,0.878
2024-10-15 13:23:29.888,72561.336,0.092,0.064,-0.994,0.017,0.086,0.061,0.399,-0.19,0.307,0.092,-0.064,0.881
2024-10-15 13:23:29.899,72561.346,0.09,0.06,-0.994,-0.177,0.05,-0.085,0.386,-0.131,0.254,0.091,-0.06,0.884
2024-10-15 13:23:29.908,72561.356,0.089,0.056,-0.994,-0.267,-0.034,-0.077,0.325,-0.109,0.248,0.09,-0.056,0.886
2024-10-15 13:23:29.918,72561.366,0.088,0.053,-0.995,-0.302,-0.113,0.009,0.22,-0.122,0.109,0.088,-0.053,0.887
2024-10-15 13:23:29.928,72561.376,0.087,0.051,-0.995,-0.322,-0.143,0.087,0.07,-0.159,0.038,0.087,-0.051,0.888
2024-10-15 13:23:29.938,72561.386,0.085,0.051,-0.995,-0.35,-0.17,0.139,-0.078,-0.175,0.021,0.085,-0.051,0.888
2024-10-15 13:23:29.948,72561.396,0.083,0.053,-0.995,-0.362,-0.162,0.143,-0.187,-0.258,-0.05,0.083,-0.053,0.888
2024-10-15 13:23:29.958,72561.406,0.081,0.055,-0.995,-0.314,-0.149,0.11,-0.244,-0.221,-0.145,0.081,-0.055,0.887
2024-10-15 13:23:29.968,72561.416,0.079,0.058,-0.995,-0.282,-0.14,0.061,-0.268,-0.111,-0.216,0.079,-0.058,0.886
2024-10-15 13:23:29.978,72561.426,0.078,0.061,-0.995,-0.246,-0.129,-0.007,-0.294,-0.012,-0.287,0.078,-0.061,0.884
2024-10-15 13:23:29.988,72561.436,0.078,0.064,-0.995,-0.155,-0.106,-0.046,-0.349,0.068,-0.303,0.078,-0.064,0.881
2024-10-15 13:23:29.998,72561.446,0.079,0.068,-0.995,-0.04,-0.061,-0.029,-0.394,0.127,-0.306,0.079,-0.068,0.878
2024-10-15 13:23:30.008,72561.456,0.08,0.073,-0.994,0.041,0.059,-0.026,-0.49,0.052,-0.228,0.08,-0.073,0.876
2024-10-15 13:23:30.018,72561.466,0.08,0.078,-0.994,0.121,0.083,-0.046,-0.477,0.071,-0.17,0.081,-0.078,0.874
2024-10-15 13:23:30.029,72561.476,0.081,0.082,-0.993,0.136,0.068,-0.076,-0.433,0.108,-0.142,0.081,-0.082,0.873
2024-10-15 13:23:30.038,72561.486,0.082,0.087,-0.993,0.115,0.019,-0.043,-0.496,0.09,-0.143,0.082,-0.087,0.872
2024-10-15 13:23:30.049,72561.496,0.082,0.092,-0.992,0.22,-0.153,0.049,-0.584,0.037,-0.134,0.083,-0.093,0.871
2024-10-15 13:23:30.058,72561.505,0.082,0.099,-0.992,0.32,-0.184,0.1,-0.631,-0.161,-0.078,0.082,-0.099,0.871
2024-10-15 13:23:30.068,72561.515,0.079,0.105,-0.991,0.406,-0.083,0.057,-0.553,-0.376,-0.052,0.08,-0.105,0.87
2024-10-15 13:23:30.078,72561.525,0.074,0.11,-0.991,0.371,0.107,-0.045,-0.502,-0.561,-0.038,0.075,-0.11,0.87
2024-10-15 13:23:30.088,72561.535,0.069,0.115,-0.991,0.234,0.204,-0.089,-0.573,-0.575,-0.063,0.069,-0.115,0.87
2024-10-15 13:23:30.098,72561.545,0.064,0.121,-0.991,0.057,0.131,-0.045,-0.59,-0.409,-0.088,0.064,-0.121,0.87
2024-10-15 13:23:30.108,72561.555,0.06,0.125,-0.99,-0.105,0.001,0.04,-0.149,-0.191,-0.146,0.061,-0.125,0.869
2024-10-15 13:23:30.118,72561.565,0.059,0.124,-0.991,-0.2,-0.001,0.122,0.255,-0.161,-0.194,0.059,-0.124,0.867
2024-10-15 13:23:30.128,72561.575,0.055,0.124,-0.991,-0.188,0.065,0.184,-0.239,-0.474,-0.167,0.056,-0.124,0.865
2024-10-15 13:23:30.138,72561.585,0.052,0.128,-0.99,-0.041,-0.138,0.166,-0.605,-0.172,-0.168,0.052,-0.129,0.864
2024-10-15 13:23:30.148,72561.595,0.052,0.135,-0.99,-0.132,-0.056,-0.105,-0.623,0.127,-0.007,0.052,-0.135,0.863
2024-10-15 13:23:30.158,72561.605,0.053,0.141,-0.989,-0.251,0.226,-0.294,-0.668,0.13,0.093,0.053,-0.141,0.864
2024-10-15 13:23:30.168,72561.615,0.055,0.147,-0.988,-0.111,0.212,-0.202,-0.625,0.225,0.124,0.055,-0.148,0.866
2024-10-15 13:23:30.178,72561.625,0.058,0.152,-0.987,-0.044,0.165,-0.018,-0.394,0.288,0.185,0.058,-0.153,0.868
2024-10-15 13:23:30.188,72561.635,0.06,0.155,-0.986,-0.042,0.191,0.082,-0.152,0.168,0.214,0.061,-0.155,0.87
2024-10-15 13:23:30.198,72561.645,0.062,0.155,-0.986,0.026,0.153,0.117,-0.022,0.083,0.213,0.063,-0.156,0.872
2024-10-15 13:23:30.208,72561.655,0.063,0.155,-0.986,0.061,0.078,0.16,0.069,0.067,0.226,0.064,-0.156,0.874
2024-10-15 13:23:30.218,72561.665,0.064,0.154,-0.986,0.047,0.029,0.122,0.213,0.027,0.259,0.064,-0.154,0.877
2024-10-15 13:23:30.228,72561.675,0.064,0.151,-0.986,0.059,-0.006,0.041,0.308,-0.032,0.265,0.065,-0.151,0.879
2024-10-15 13:23:30.238,72561.685,0.064,0.148,-0.987,0.087,-0.034,-0.014,0.263,-0.024,0.224,0.065,-0.148,0.881
2024-10-15 13:23:30.248,72561.695,0.065,0.145,-0.987,0.075,-0.066,-0.083,0.243,0.064,0.221,0.065,-0.146,0.883
2024-10-15 13:23:30.258,72561.705,0.066,0.142,-0.988,0.048,-0.11,-0.148,0.349,0.101,0.174,0.067,-0.143,0.885
2024-10-15 13:23:30.268,72561.715,0.067,0.138,-0.988,0.06,-0.087,-0.12,0.392,0.059,0.114,0.068,-0.139,0.886
2024-10-15 13:23:30.279,72561.725,0.067,0.134,-0.989,0.102,-0.084,-0.007,0.382,-0.001,0.054,0.068,-0.135,0.887
2024-10-15 13:23:30.288,72561.735,0.067,0.13,-0.989,0.12,-0.146,0.053,0.581,-0.025,0.051,0.068,-0.13,0.887
2024-10-15 13:23:30.297,72561.745,0.067,0.123,-0.99,0.095,-0.106,0.05,0.815,-0.144,0.09,0.067,-0.123,0.887
2024-10-15 13:23:30.308,72561.755,0.064,0.117,-0.991,0.051,0.067,0.026,0.38,-0.274,0.17,0.065,-0.117,0.888
2024-10-15 13:23:30.318,72561.765,0.064,0.112,-0.992,0.051,0.043,-0.008,0.57,0.214,0.17,0.065,-0.113,0.89
2024-10-15 13:23:30.328,72561.775,0.066,0.106,-0.992,-0.158,0.135,-0.259,0.531,0.098,0.302,0.067,-0.107,0.892
2024-10-15 13:23:30.337,72561.785,0.067,0.101,-0.993,-0.152,0.203,-0.104,0.462,0.035,0.206,0.067,-0.102,0.894
2024-10-15 13:23:30.348,72561.795,0.068,0.096,-0.993,0.003,-0.108,0.051,0.535,0.119,0.159,0.068,-0.097,0.895
2024-10-15 13:23:30.357,72561.805,0.069,0.091,-0.993,-0.149,-0.032,0.068,0.453,0.058,0.169,0.069,-0.091,0.897
2024-10-15 13:23:30.367,72561.815,0.069,0.087,-0.994,-0.127,-0.116,0.111,0.45,0.025,0.059,0.07,-0.087,0.898
2024-10-15 13:23:30.377,72561.825,0.07,0.082,-0.994,-0.075,-0.154,0.089,0.491,0.011,0.117,0.07,-0.082,0.898
2024-10-15 13:23:30.387,72561.835,0.07,0.078,-0.995,-0.125,-0.014,0.036,0.373,-0.035,0.084,0.07,-0.078,0.899
2024-10-15 13:23:30.397,72561.845,0.07,0.074,-0.995,-0.059,-0.036,0.012,0.291,0.082,0.119,0.07,-0.074,0.899
2024-10-15 13:23:30.408,72561.855,0.072,0.072,-0.995,-0.104,0.054,-0.032,0.237,0.207,0.128,0.072,-0.072,0.901
2024-10-15 13:23:30.418,72561.865,0.073,0.071,-0.995,-0.093,0.125,-0.035,-0.161,0.078,0.236,0.074,-0.071,0.902
2024-10-15 13:23:30.427,72561.875,0.074,0.074,-0.994,-0.021,0.062,-0.044,-0.369,0.183,0.303,0.075,-0.074,0.905
2024-10-15 13:23:30.437,72561.885,0.077,0.076,-0.994,0.021,0.051,0.084,-0.017,0.187,0.418,0.077,-0.076,0.909
2024-10-15 13:23:30.448,72561.895,0.077,0.075,-0.994,-0.054,0.237,0.081,-0.042,-0.143,0.467,0.078,-0.075,0.913
2024-10-15 13:23:30.457,72561.905,0.076,0.077,-0.994,0.106,0.119,0.057,-0.383,-0.061,0.393,0.077,-0.077,0.918
2024-10-15 13:23:30.467,72561.915,0.077,0.081,-0.994,0.065,-0.083,0.075,-0.534,0.031,0.426,0.077,-0.081,0.922
2024-10-15 13:23:30.477,72561.925,0.077,0.085,-0.993,-0.001,-0.182,0.096,-0.318,-0.045,0.271,0.077,-0.086,0.926
2024-10-15 13:23:30.487,72561.935,0.076,0.086,-0.993,0.09,-0.201,0.118,0.092,-0.181,0.086,0.076,-0.086,0.928
2024-10-15 13:23:30.497,72561.945,0.074,0.086,-0.994,0.17,-0.336,0.031,-0.043,-0.235,-0.118,0.074,-0.086,0.928
2024-10-15 13:23:30.507,72561.955,0.072,0.089,-0.993,0.176,-0.513,-0.03,-0.531,-0.146,-0.185,0.072,-0.089,0.927
2024-10-15 13:23:30.517,72561.965,0.072,0.093,-0.993,0.162,-0.479,-0.006,-0.307,0.066,-0.197,0.072,-0.094,0.925
2024-10-15 13:23:30.527,72561.975,0.071,0.095,-0.993,0.033,0.019,-0.077,0.035,-0.116,0.004,0.072,-0.095,0.924
2024-10-15 13:23:30.538,72561.985,0.07,0.093,-0.993,0.035,0.476,-0.157,0.24,-0.094,0.103,0.07,-0.093,0.924
2024-10-15 13:23:30.547,72561.995,0.07,0.09,-0.993,0.037,0.559,-0.136,0.335,-0.039,0.24,0.07,-0.09,0.926
2024-10-15 13:23:30.557,72562.005,0.07,0.086,-0.994,-0.061,0.459,-0.046,0.412,-0.013,0.214,0.07,-0.086,0.928
2024-10-15 13:23:30.567,72562.015,0.069,0.083,-0.994,-0.056,0.229,0.065,0.266,-0.094,0.141,0.07,-0.083,0.93
2024-10-15 13:23:30.577,72562.025,0.069,0.081,-0.994,-0.029,-0.064,0.117,0.038,-0.071,0.044,0.069,-0.081,0.93
2024-10-15 13:23:30.587,72562.035,0.068,0.081,-0.994,-0.022,-0.314,0.095,-0.036,-0.021,-0.033,0.068,-0.081,0.93
2024-10-15 13:23:30.597,72562.045,0.068,0.081,-0.994,-0.062,-0.255,0.03,0.052,-0.029,-0.06,0.068,-0.081,0.93
2024-10-15 13:23:30.607,72562.055,0.067,0.081,-0.994,-0.077,-0.072,-0.002,0.089,-0.051,-0.066,0.068,-0.081,0.929
2024-10-15 13:23:30.617,72562.065,0.067,0.08,-0.995,-0.056,0.047,0.057,0.114,-0.076,-0.051,0.067,-0.08,0.929
2024-10-15 13:23:30.627,72562.075,0.066,0.079,-0.995,-0.051,0.077,0.054,0.056,-0.142,0.009,0.066,-0.079,0.928
2024-10-15 13:23:30.637,72562.084,0.064,0.078,-0.995,-0.037,0.046,-0.031,0.089,-0.075,0.041,0.065,-0.078,0.929
2024-10-15 13:23:30.647,72562.094,0.064,0.077,-0.995,-0.088,0.07,-0.093,0.175,-0.116,0.066,0.064,-0.077,0.929
2024-10-15 13:23:30.657,72562.104,0.062,0.075,-0.995,-0.092,0.058,-0.06,0.195,-0.214,0.05,0.062,-0.075,0.929
2024-10-15 13:23:30.667,72562.114,0.06,0.073,-0.995,-0.039,-0.046,-0.053,0.05,-0.185,-0.001,0.06,-0.073,0.93
2024-10-15 13:23:30.677,72562.124,0.058,0.074,-0.996,-0.074,-0.114,-0.073,-0.056,-0.118,-0.002,0.059,-0.074,0.93
2024-10-15 13:23:30.687,72562.134,0.058,0.075,-0.996,-0.074,-0.187,-0.048,-0.234,-0.042,-0.054,0.058,-0.075,0.93
2024-10-15 13:23:30.697,72562.144,0.057,0.079,-0.995,-0.05,-0.066,0.004,-0.724,-0.082,-0.123,0.057,-0.079,0.929
2024-10-15 13:23:30.707,72562.154,0.056,0.089,-0.994,-0.019,-0.068,0.063,-1.139,-0.013,-0.012,0.057,-0.089,0.929
2024-10-15 13:23:30.717,72562.164,0.058,0.098,-0.994,0.012,-0.22,0.126,-0.557,0.298,-0.0,0.058,-0.098,0.929
2024-10-15 13:23:30.727,72562.174,0.06,0.1,-0.993,-0.085,0.15,0.066,0.012,0.027,0.004,0.06,-0.1,0.929
2024-10-15 13:23:30.737,72562.184,0.059,0.1,-0.993,0.131,0.18,0.034,0.035,-0.05,-0.061,0.06,-0.1,0.929
2024-10-15 13:23:30.747,72562.194,0.059,0.1,-0.993,0.285,0.019,0.069,-0.054,0.053,-0.005,0.06,-0.1,0.929
2024-10-15 13:23:30.757,72562.204,0.06,0.1,-0.993,0.221,-0.018,0.109,0.023,-0.055,0.027,0.06,-0.1,0.929
2024-10-15 13:23:30.767,72562.214,0.058,0.1,-0.993,0.241,0.027,0.092,0.047,-0.222,0.025,0.058,-0.1,0.929
2024-10-15 13:23:30.777,72562.224,0.056,0.1,-0.993,0.248,0.059,-0.046,0.018,-0.212,0.03,0.056,-0.1,0.929
2024-10-15 13:23:30.787,72562.234,0.054,0.099,-0.994,0.131,0.065,-0.168,0.264,-0.058,0.029,0.055,-0.099,0.93
2024-10-15 13:23:30.797,72562.244,0.055,0.093,-0.994,-0.01,0.121,-0.18,0.899,0.172,-0.104,0.056,-0.093,0.929
2024-10-15 13:23:30.807,72562.254,0.055,0.084,-0.995,-0.067,0.164,-0.006,0.875,-0.301,-0.308,0.055,-0.084,0.926
2024-10-15 13:23:30.817,72562.264,0.051,0.077,-0.996,0.158,-0.307,0.082,0.64,-0.24,-0.404,0.051,-0.077,0.922
2024-10-15 13:23:30.827,72562.274,0.05,0.071,-0.996,0.056,-0.464,0.054,0.498,-0.091,-0.368,0.05,-0.071,0.918
2024-10-15 13:23:30.837,72562.284,0.048,0.067,-0.997,-0.194,-0.17,-0.101,0.265,-0.105,-0.193,0.048,-0.067,0.915
2024-10-15 13:23:30.847,72562.294,0.048,0.066,-0.997,-0.211,0.12,-0.152,0.048,-0.017,-0.007,0.048,-0.066,0.914
2024-10-15 13:23:30.857,72562.304,0.048,0.065,-0.997,-0.264,0.409,-0.039,0.177,0.0,0.137,0.048,-0.065,0.915
2024-10-15 13:23:30.867,72562.314,0.048,0.061,-0.997,-0.253,0.432,0.102,0.517,-0.065,0.163,0.048,-0.061,0.916
2024-10-15 13:23:30.877,72562.324,0.046,0.056,-0.997,-0.217,0.322,0.149,0.411,-0.248,-0.021,0.046,-0.056,0.917
2024-10-15 13:23:30.886,72562.334,0.044,0.054,-0.998,-0.113,-0.138,0.072,0.139,-0.061,-0.179,0.044,-0.054,0.915
2024-10-15 13:23:30.896,72562.344,0.044,0.055,-0.998,-0.154,-0.536,-0.05,-0.326,0.021,-0.25,0.044,-0.055,0.913
2024-10-15 13:23:30.906,72562.354,0.043,0.061,-0.997,-0.16,-0.579,-0.077,-0.985,-0.168,-0.177,0.043,-0.061,0.911
2024-10-15 13:23:30.917,72562.364,0.042,0.072,-0.997,-0.056,-0.383,0.041,-1.002,0.079,-0.132,0.042,-0.072,0.91
2024-10-15 13:23:30.927,72562.374,0.044,0.08,-0.996,-0.148,0.247,0.211,-0.634,0.176,0.106,0.044,-0.08,0.91
2024-10-15 13:23:30.936,72562.384,0.045,0.086,-0.995,-0.19,0.671,0.256,-0.539,0.031,0.222,0.045,-0.086,0.912
2024-10-15 13:23:30.947,72562.394,0.046,0.091,-0.995,0.047,0.479,0.181,-0.511,0.036,0.291,0.046,-0.091,0.915
2024-10-15 13:23:30.956,72562.404,0.046,0.096,-0.994,0.122,0.211,0.02,-0.536,0.08,0.187,0.047,-0.096,0.918
2024-10-15 13:23:30.966,72562.414,0.047,0.101,-0.994,0.171,-0.137,-0.105,-0.467,0.055,0.107,0.047,-0.101,0.92
2024-10-15 13:23:30.976,72562.424,0.047,0.105,-0.993,0.24,-0.332,-0.115,-0.338,0.0,-0.089,0.048,-0.105,0.92
2024-10-15 13:23:30.986,72562.434,0.047,0.108,-0.993,0.28,-0.316,-0.097,-0.38,0.001,-0.153,0.048,-0.108,0.919
2024-10-15 13:23:30.996,72562.444,0.047,0.112,-0.993,0.264,-0.317,-0.09,-0.324,0.076,-0.14,0.048,-0.112,0.917
2024-10-15 13:23:31.006,72562.454,0.048,0.114,-0.992,0.212,-0.16,-0.023,-0.098,0.068,-0.055,0.049,-0.114,0.917
2024-10-15 13:23:31.016,72562.464,0.048,0.115,-0.992,0.134,0.197,0.043,-0.015,-0.117,0.016,0.048,-0.115,0.916
2024-10-15 13:23:31.026,72562.474,0.047,0.114,-0.992,0.138,0.246,0.083,0.106,-0.14,0.021,0.047,-0.114,0.917
2024-10-15 13:23:31.036,72562.484,0.045,0.113,-0.993,0.061,0.155,0.041,0.17,-0.185,0.034,0.045,-0.113,0.917
2024-10-15 13:23:31.046,72562.494,0.043,0.111,-0.993,-0.012,0.033,-0.01,0.193,-0.177,-0.065,0.043,-0.111,0.917
2024-10-15 13:23:31.056,72562.504,0.042,0.108,-0.993,-0.004,-0.099,-0.019,0.363,-0.038,-0.195,0.042,-0.108,0.915
2024-10-15 13:23:31.066,72562.514,0.04,0.105,-0.994,-0.021,-0.08,-0.01,0.152,-0.27,-0.196,0.041,-0.106,0.913
2024-10-15 13:23:31.076,72562.524,0.038,0.105,-0.994,0.037,-0.183,-0.061,0.028,-0.122,-0.143,0.038,-0.105,0.911
2024-10-15 13:23:31.086,72562.534,0.038,0.104,-0.994,-0.071,-0.045,-0.141,0.047,0.018,0.012,0.038,-0.105,0.911
2024-10-15 13:23:31.096,72562.544,0.037,0.104,-0.994,-0.263,0.337,-0.082,0.087,-0.121,0.139,0.037,-0.104,0.911
2024-10-15 13:23:31.106,72562.554,0.036,0.102,-0.994,-0.167,0.243,0.023,0.317,-0.141,0.14,0.036,-0.102,0.913
2024-10-15 13:23:31.116,72562.564,0.035,0.098,-0.995,-0.164,0.179,0.055,0.389,-0.144,0.098,0.035,-0.098,0.914
2024-10-15 13:23:31.126,72562.574,0.033,0.095,-0.995,-0.186,0.024,0.03,0.249,-0.127,-0.035,0.033,-0.095,0.914
2024-10-15 13:23:31.136,72562.584,0.032,0.093,-0.995,-0.14,-0.278,-0.026,0.135,-0.038,-0.095,0.033,-0.093,0.913
2024-10-15 13:23:31.146,72562.594,0.032,0.093,-0.995,-0.148,-0.353,-0.055,-0.251,-0.039,-0.14,0.032,-0.093,0.912
2024-10-15 13:23:31.156,72562.604,0.031,0.099,-0.995,-0.13,-0.215,-0.029,-0.963,-0.211,0.129,0.031,-0.099,0.912
2024-10-15 13:23:31.166,72562.614,0.03,0.109,-0.994,-0.087,-0.109,0.079,-0.92,0.146,0.081,0.031,-0.109,0.914
2024-10-15 13:23:31.176,72562.624,0.032,0.116,-0.993,-0.182,0.391,0.229,-0.628,0.153,0.194,0.032,-0.117,0.915
2024-10-15 13:23:31.186,72562.634,0.034,0.121,-0.992,-0.096,0.315,0.153,-0.318,0.088,0.049,0.034,-0.121,0.917
2024-10-15 13:23:31.196,72562.644,0.034,0.123,-0.992,0.145,-0.034,0.07,-0.184,0.038,-0.106,0.034,-0.124,0.917
2024-10-15 13:23:31.206,72562.653,0.035,0.125,-0.991,0.202,-0.121,0.026,-0.27,0.185,-0.121,0.035,-0.126,0.915
2024-10-15 13:23:31.216,72562.663,0.036,0.129,-0.991,0.21,-0.149,0.053,-0.33,0.083,-0.095,0.037,-0.129,0.914
2024-10-15 13:23:31.226,72562.673,0.036,0.131,-0.991,0.302,-0.152,0.094,-0.119,-0.076,-0.115,0.037,-0.131,0.914
2024-10-15 13:23:31.236,72562.683,0.035,0.131,-0.991,0.368,-0.106,0.027,0.012,-0.171,-0.158,0.035,-0.132,0.912
2024-10-15 13:23:31.246,72562.693,0.033,0.131,-0.991,0.278,0.057,-0.117,0.117,-0.145,-0.136,0.033,-0.131,0.911
2024-10-15 13:23:31.256,72562.703,0.033,0.127,-0.991,0.144,0.102,-0.267,0.649,0.225,-0.209,0.033,-0.128,0.909
2024-10-15 13:23:31.266,72562.713,0.034,0.121,-0.992,-0.035,0.25,-0.248,0.497,-0.012,-0.121,0.035,-0.121,0.907
2024-10-15 13:23:31.276,72562.723,0.033,0.117,-0.993,0.034,-0.015,-0.041,0.331,-0.135,-0.177,0.033,-0.118,0.905
2024-10-15 13:23:31.286,72562.733,0.032,0.113,-0.993,0.123,-0.257,0.077,0.457,-0.066,-0.111,0.032,-0.114,0.904
2024-10-15 13:23:31.296,72562.743,0.031,0.109,-0.994,-0.123,0.141,0.056,0.372,-0.162,-0.024,0.031,-0.109,0.903
2024-10-15 13:23:31.306,72562.753,0.029,0.106,-0.994,-0.166,0.147,0.017,0.321,-0.107,0.085,0.03,-0.106,0.903
2024-10-15 13:23:31.316,72562.763,0.028,0.103,-0.994,-0.238,0.173,0.03,0.34,-0.144,0.079,0.028,-0.103,0.904
2024-10-15 13:23:31.326,72562.773,0.027,0.099,-0.995,-0.271,0.136,0.04,0.333,-0.073,0.028,0.027,-0.099,0.904
2024-10-15 13:23:31.336,72562.783,0.026,0.096,-0.995,-0.246,-0.009,0.075,0.241,-0.071,-0.02,0.027,-0.096,0.904
2024-10-15 13:23:31.346,72562.793,0.026,0.094,-0.995,-0.201,-0.091,0.078,0.185,-0.05,-0.076,0.026,-0.094,0.904
2024-10-15 13:23:31.356,72562.803,0.026,0.092,-0.995,-0.157,-0.088,0.009,0.192,0.024,-0.119,0.026,-0.093,0.903
2024-10-15 13:23:31.366,72562.813,0.026,0.091,-0.996,-0.142,-0.097,-0.062,0.131,0.086,-0.127,0.026,-0.091,0.901
2024-10-15 13:23:31.376,72562.823,0.027,0.091,-0.995,-0.107,-0.087,-0.073,-0.232,0.05,-0.09,0.027,-0.091,0.9
2024-10-15 13:23:31.385,72562.833,0.026,0.096,-0.995,-0.045,-0.123,-0.062,-0.818,-0.077,-0.068,0.026,-0.096,0.9
2024-10-15 13:23:31.396,72562.843,0.028,0.105,-0.994,-0.024,-0.193,0.006,-0.935,0.475,-0.079,0.028,-0.106,0.899
2024-10-15 13:23:31.405,72562.853,0.033,0.113,-0.993,-0.163,0.047,0.193,-0.527,0.495,-0.028,0.033,-0.113,0.899
2024-10-15 13:23:31.415,72562.863,0.037,0.116,-0.993,-0.008,0.022,0.18,-0.198,0.261,-0.105,0.037,-0.116,0.898
2024-10-15 13:23:31.424,72562.873,0.038,0.118,-0.992,0.292,-0.053,0.067,-0.197,0.119,-0.142,0.039,-0.118,0.897
2024-10-15 13:23:31.435,72562.883,0.04,0.12,-0.992,0.35,-0.076,-0.148,-0.244,0.312,-0.046,0.041,-0.121,0.896
2024-10-15 13:23:31.445,72562.893,0.043,0.123,-0.992,0.272,0.024,-0.151,-0.235,0.237,0.028,0.044,-0.123,0.896
2024-10-15 13:23:31.455,72562.903,0.044,0.125,-0.991,0.304,0.114,0.039,-0.185,-0.049,-0.016,0.045,-0.125,0.897
2024-10-15 13:23:31.465,72562.913,0.043,0.126,-0.991,0.399,-0.045,0.201,-0.105,-0.214,-0.089,0.043,-0.127,0.896
2024-10-15 13:23:31.475,72562.923,0.04,0.127,-0.991,0.31,-0.123,0.121,-0.034,-0.246,-0.123,0.041,-0.127,0.895
2024-10-15 13:23:31.485,72562.933,0.038,0.126,-0.991,0.113,0.027,-0.062,0.303,-0.153,-0.068,0.038,-0.127,0.894
2024-10-15 13:23:31.495,72562.943,0.038,0.12,-0.992,-0.06,0.239,-0.126,0.797,0.157,-0.093,0.038,-0.121,0.893
2024-10-15 13:23:31.505,72562.953,0.037,0.114,-0.993,-0.14,0.371,-0.046,0.43,-0.408,-0.056,0.037,-0.114,0.892
2024-10-15 13:23:31.515,72562.963,0.033,0.11,-0.993,0.062,-0.108,0.032,0.469,-0.216,-0.1,0.034,-0.11,0.891
2024-10-15 13:23:31.525,72562.973,0.031,0.105,-0.994,-0.067,-0.13,-0.019,0.434,-0.216,0.016,0.032,-0.105,0.89
2024-10-15 13:23:31.535,72562.983,0.029,0.102,-0.994,-0.266,0.104,-0.082,0.288,-0.239,0.019,0.029,-0.102,0.89
2024-10-15 13:23:31.545,72562.993,0.028,0.099,-0.995,-0.236,0.055,-0.099,0.201,-0.061,0.057,0.028,-0.099,0.891
2024-10-15 13:23:31.555,72563.003,0.027,0.097,-0.995,-0.335,0.161,-0.019,0.207,-0.016,0.059,0.027,-0.097,0.891
2024-10-15 13:23:31.565,72563.013,0.027,0.095,-0.995,-0.293,0.081,0.12,0.203,-0.066,-0.005,0.027,-0.095,0.892
2024-10-15 13:23:31.575,72563.023,0.026,0.094,-0.995,-0.203,-0.013,0.151,0.098,-0.028,-0.059,0.027,-0.094,0.891
2024-10-15 13:23:31.585,72563.033,0.027,0.093,-0.995,-0.171,-0.129,0.071,0.018,0.092,-0.126,0.027,-0.093,0.89
2024-10-15 13:23:31.595,72563.043,0.028,0.094,-0.995,-0.172,-0.177,-0.069,-0.161,0.247,-0.225,0.028,-0.094,0.889
2024-10-15 13:23:31.605,72563.053,0.031,0.098,-0.995,-0.141,-0.203,-0.167,-0.699,0.288,-0.244,0.031,-0.098,0.886
2024-10-15 13:23:31.615,72563.063,0.035,0.106,-0.994,-0.122,-0.246,-0.144,-0.859,0.598,-0.133,0.035,-0.107,0.885
2024-10-15 13:23:31.625,72563.073,0.041,0.114,-0.993,-0.163,-0.084,0.014,-0.766,0.754,-0.116,0.042,-0.115,0.884
2024-10-15 13:23:31.635,72563.083,0.048,0.121,-0.991,-0.108,0.195,0.106,-0.63,0.662,-0.046,0.049,-0.122,0.883
2024-10-15 13:23:31.645,72563.093,0.054,0.127,-0.99,0.104,0.124,0.138,-0.478,0.504,-0.025,0.055,-0.127,0.883
2024-10-15 13:23:31.655,72563.103,0.058,0.131,-0.99,0.258,0.018,0.126,-0.34,0.359,-0.051,0.059,-0.131,0.883
2024-10-15 13:23:31.665,72563.113,0.061,0.134,-0.989,0.312,-0.028,0.105,-0.296,0.262,-0.01,0.062,-0.134,0.883
2024-10-15 13:23:31.675,72563.123,0.063,0.137,-0.989,0.337,-0.048,0.094,-0.194,0.12,0.048,0.064,-0.137,0.883
2024-10-15 13:23:31.686,72563.133,0.063,0.138,-0.988,0.371,-0.056,0.138,-0.128,-0.149,0.055,0.064,-0.139,0.884
2024-10-15 13:23:31.696,72563.143,0.061,0.139,-0.988,0.377,-0.014,0.111,-0.06,-0.305,0.009,0.062,-0.139,0.884
2024-10-15 13:23:31.705,72563.153,0.058,0.139,-0.989,0.288,-0.032,-0.022,-0.023,-0.242,0.006,0.059,-0.14,0.884
2024-10-15 13:23:31.715,72563.163,0.056,0.139,-0.989,0.116,-0.031,-0.173,0.094,-0.154,0.008,0.057,-0.14,0.884
2024-10-15 13:23:31.725,72563.173,0.056,0.136,-0.989,-0.011,0.091,-0.218,0.598,0.171,-0.05,0.057,-0.136,0.884
2024-10-15 13:23:31.735,72563.183,0.057,0.13,-0.99,-0.086,0.242,-0.119,0.536,-0.19,-0.043,0.057,-0.13,0.883
2024-10-15 13:23:31.745,72563.193,0.053,0.126,-0.991,0.034,0.002,-0.009,0.353,-0.386,-0.084,0.054,-0.126,0.882
2024-10-15 13:23:31.755,72563.203,0.051,0.122,-0.991,0.089,-0.263,0.01,0.483,-0.153,-0.117,0.051,-0.122,0.881
2024-10-15 13:23:31.765,72563.213,0.049,0.117,-0.992,-0.179,0.08,0.038,0.413,-0.231,-0.088,0.049,-0.117,0.88
2024-10-15 13:23:31.775,72563.222,0.046,0.114,-0.992,-0.179,0.072,0.043,0.292,-0.214,-0.062,0.047,-0.114,0.879
2024-10-15 13:23:31.785,72563.232,0.044,0.112,-0.993,-0.192,0.062,0.022,0.166,-0.134,-0.001,0.045,-0.112,0.878
2024-10-15 13:23:31.795,72563.242,0.044,0.109,-0.993,-0.285,0.127,-0.007,0.334,0.09,-0.012,0.044,-0.109,0.878
2024-10-15 13:23:31.805,72563.252,0.045,0.105,-0.993,-0.336,0.172,-0.011,0.408,0.137,-0.02,0.046,-0.106,0.878
2024-10-15 13:23:31.815,72563.262,0.046,0.102,-0.994,-0.274,0.085,0.041,0.227,0.1,-0.153,0.047,-0.102,0.877
2024-10-15 13:23:31.825,72563.272,0.048,0.101,-0.994,-0.152,-0.147,0.064,0.065,0.241,-0.198,0.048,-0.101,0.875
2024-10-15 13:23:31.835,72563.282,0.05,0.101,-0.994,-0.148,-0.275,0.045,-0.047,0.215,-0.188,0.05,-0.101,0.873
2024-10-15 13:23:31.845,72563.292,0.051,0.103,-0.993,-0.067,-0.258,0.004,-0.409,0.028,-0.287,0.051,-0.103,0.871
2024-10-15 13:23:31.855,72563.302,0.051,0.109,-0.993,0.041,-0.212,-0.115,-0.664,0.076,-0.227,0.051,-0.109,0.869
2024-10-15 13:23:31.865,72563.312,0.054,0.115,-0.992,-0.04,-0.137,-0.178,-0.595,0.527,-0.164,0.054,-0.115,0.867
2024-10-15 13:23:31.875,72563.322,0.059,0.121,-0.991,-0.212,0.191,-0.11,-0.65,0.622,-0.122,0.06,-0.122,0.866
2024-10-15 13:23:31.885,72563.332,0.066,0.129,-0.989,-0.111,0.208,0.0,-0.941,0.639,-0.064,0.066,-0.129,0.865
2024-10-15 13:23:31.895,72563.342,0.071,0.139,-0.988,0.057,0.001,0.165,-0.922,0.527,-0.003,0.072,-0.139,0.866
2024-10-15 13:23:31.905,72563.352,0.076,0.145,-0.986,0.179,-0.122,0.223,-0.41,0.445,-0.035,0.077,-0.146,0.866
2024-10-15 13:23:31.915,72563.362,0.079,0.148,-0.986,0.262,0.03,0.155,-0.169,0.119,0.064,0.08,-0.148,0.866
2024-10-15 13:23:31.925,72563.372,0.079,0.149,-0.986,0.398,0.053,0.144,-0.107,-0.169,0.068,0.08,-0.15,0.867
2024-10-15 13:23:31.934,72563.382,0.077,0.149,-0.986,0.454,0.019,0.163,0.106,-0.247,0.072,0.078,-0.15,0.868
2024-10-15 13:23:31.945,72563.392,0.074,0.148,-0.986,0.313,0.161,0.091,0.164,-0.378,0.173,0.075,-0.148,0.869
2024-10-15 13:23:31.954,72563.402,0.07,0.146,-0.987,0.213,0.09,-0.048,0.155,-0.363,0.094,0.071,-0.146,0.87
2024-10-15 13:23:31.964,72563.412,0.067,0.145,-0.987,0.125,0.046,-0.085,0.023,-0.378,0.068,0.068,-0.145,0.871
2024-10-15 13:23:31.974,72563.422,0.064,0.144,-0.988,0.045,-0.009,-0.094,0.229,-0.144,-0.012,0.065,-0.144,0.871
2024-10-15 13:23:31.985,72563.432,0.064,0.139,-0.988,-0.047,0.03,-0.112,0.598,0.131,-0.047,0.065,-0.14,0.871
2024-10-15 13:23:31.994,72563.442,0.063,0.135,-0.989,-0.076,0.155,-0.01,0.375,-0.312,-0.021,0.064,-0.135,0.87
2024-10-15 13:23:32.004,72563.452,0.06,0.131,-0.99,0.144,-0.136,0.095,0.541,-0.295,-0.119,0.06,-0.131,0.869
2024-10-15 13:23:32.014,72563.462,0.058,0.125,-0.99,0.067,-0.066,0.053,0.488,-0.207,-0.034,0.058,-0.125,0.868
2024-10-15 13:23:32.024,72563.472,0.055,0.122,-0.991,-0.18,0.193,-0.046,0.289,-0.3,0.067,0.055,-0.122,0.868
2024-10-15 13:23:32.034,72563.482,0.053,0.118,-0.992,-0.185,0.03,-0.117,0.389,-0.054,0.085,0.054,-0.118,0.868
2024-10-15 13:23:32.045,72563.492,0.054,0.114,-0.992,-0.352,0.221,-0.126,0.441,0.066,0.112,0.054,-0.114,0.869
2024-10-15 13:23:32.054,72563.502,0.054,0.109,-0.993,-0.393,0.186,-0.03,0.439,0.069,0.054,0.055,-0.11,0.87
2024-10-15 13:23:32.064,72563.512,0.055,0.106,-0.993,-0.284,-0.105,0.092,0.319,0.009,-0.053,0.055,-0.106,0.87
2024-10-15 13:23:32.075,72563.522,0.055,0.103,-0.993,-0.21,-0.239,0.109,0.143,0.041,-0.215,0.055,-0.104,0.868
2024-10-15 13:23:32.084,72563.532,0.056,0.103,-0.993,-0.191,-0.362,0.003,-0.073,0.272,-0.291,0.056,-0.103,0.866
2024-10-15 13:23:32.094,72563.542,0.059,0.107,-0.993,-0.214,-0.32,-0.039,-0.711,0.247,-0.194,0.059,-0.107,0.863
2024-10-15 13:23:32.104,72563.552,0.06,0.117,-0.991,-0.089,-0.257,-0.025,-1.333,0.041,-0.172,0.06,-0.118,0.862
2024-10-15 13:23:32.114,72563.562,0.063,0.13,-0.99,0.036,-0.115,-0.023,-1.173,0.646,-0.142,0.063,-0.131,0.861
2024-10-15 13:23:32.124,72563.572,0.07,0.14,-0.988,-0.149,0.249,0.016,-0.801,0.832,0.037,0.071,-0.14,0.861
2024-10-15 13:23:32.134,72563.582,0.077,0.146,-0.986,-0.053,0.303,0.144,-0.429,0.492,0.038,0.078,-0.147,0.862
2024-10-15 13:23:32.144,72563.592,0.081,0.149,-0.986,0.341,0.128,0.24,-0.188,0.265,-0.025,0.082,-0.149,0.863
2024-10-15 13:23:32.154,72563.602,0.083,0.151,-0.985,0.47,0.116,0.191,-0.203,0.196,-0.036,0.084,-0.151,0.863
2024-10-15 13:23:32.164,72563.612,0.084,0.153,-0.985,0.415,0.043,0.111,-0.241,0.011,0.017,0.085,-0.154,0.863
2024-10-15 13:23:32.174,72563.622,0.083,0.155,-0.984,0.357,-0.068,0.025,-0.193,-0.083,-0.014,0.085,-0.156,0.863
2024-10-15 13:23:32.184,72563.632,0.082,0.157,-0.984,0.244,0.02,-0.098,-0.177,-0.137,0.011,0.083,-0.158,0.863
2024-10-15 13:23:32.194,72563.642,0.081,0.158,-0.984,0.109,0.023,-0.207,-0.109,-0.101,0.052,0.082,-0.159,0.863
2024-10-15 13:23:32.205,72563.652,0.08,0.159,-0.984,0.006,0.018,-0.204,0.03,-0.089,0.107,0.081,-0.159,0.864
2024-10-15 13:23:32.215,72563.662,0.08,0.157,-0.984,-0.06,0.058,-0.108,0.382,0.052,0.112,0.081,-0.157,0.865
2024-10-15 13:23:32.224,72563.672,0.08,0.153,-0.985,-0.062,0.104,0.085,0.289,-0.207,0.056,0.081,-0.154,0.866
2024-10-15 13:23:32.234,72563.682,0.077,0.15,-0.986,0.044,0.016,0.232,0.33,-0.333,0.009,0.078,-0.151,0.866
2024-10-15 13:23:32.244,72563.692,0.074,0.146,-0.986,0.062,-0.132,0.114,0.378,-0.285,0.037,0.075,-0.147,0.866
2024-10-15 13:23:32.254,72563.702,0.072,0.143,-0.987,-0.132,0.009,-0.042,0.322,-0.137,0.023,0.073,-0.143,0.866
2024-10-15 13:23:32.264,72563.712,0.071,0.14,-0.988,-0.233,0.056,-0.128,0.2,-0.042,0.049,0.072,-0.141,0.866
2024-10-15 13:23:32.274,72563.722,0.071,0.139,-0.988,-0.246,0.044,-0.078,0.146,0.008,0.03,0.072,-0.139,0.866
2024-10-15 13:23:32.284,72563.732,0.071,0.137,-0.988,-0.203,0.004,0.026,0.091,-0.002,-0.022,0.072,-0.138,0.866
2024-10-15 13:23:32.294,72563.742,0.071,0.137,-0.988,-0.152,-0.04,0.085,0.048,0.027,-0.067,0.072,-0.137,0.866
2024-10-15 13:23:32.304,72563.752,0.072,0.136,-0.988,-0.113,-0.106,0.077,0.028,0.077,-0.084,0.072,-0.137,0.865
2024-10-15 13:23:32.314,72563.762,0.072,0.136,-0.988,-0.103,-0.114,0.056,0.035,0.066,-0.051,0.073,-0.137,0.864
2024-10-15 13:23:32.324,72563.772,0.073,0.136,-0.988,-0.065,-0.062,0.045,0.096,0.075,-0.048,0.074,-0.136,0.864
2024-10-15 13:23:32.334,72563.782,0.074,0.135,-0.988,-0.031,0.033,0.03,0.121,0.102,-0.034,0.074,-0.135,0.863
2024-10-15 13:23:32.343,72563.792,0.075,0.134,-0.988,-0.007,0.041,0.017,0.014,0.168,-0.036,0.076,-0.134,0.863
2024-10-15 13:23:32.354,72563.801,0.077,0.134,-0.988,0.035,-0.007,-0.001,-0.101,0.252,-0.034,0.078,-0.135,0.862
2024-10-15 13:23:32.364,72563.811,0.079,0.136,-0.988,0.104,-0.032,-0.038,-0.165,0.253,-0.007,0.08,-0.136,0.862
2024-10-15 13:23:32.374,72563.821,0.082,0.137,-0.987,0.209,-0.016,-0.056,-0.085,0.245,0.008,0.083,-0.138,0.863
2024-10-15 13:23:32.384,72563.831,0.084,0.137,-0.987,0.262,0.098,-0.032,0.084,0.156,0.076,0.085,-0.138,0.863
2024-10-15 13:23:32.394,72563.841,0.085,0.135,-0.987,0.273,0.188,-0.011,0.302,0.038,0.228,0.086,-0.135,0.864
2024-10-15 13:23:32.404,72563.851,0.085,0.132,-0.988,0.251,0.212,-0.022,0.337,-0.105,0.205,0.086,-0.132,0.866
2024-10-15 13:23:32.414,72563.861,0.084,0.128,-0.988,0.181,0.178,-0.024,0.256,-0.136,0.308,0.085,-0.129,0.868
2024-10-15 13:23:32.424,72563.871,0.083,0.126,-0.989,0.069,0.081,0.04,0.218,-0.197,0.334,0.084,-0.126,0.872
2024-10-15 13:23:32.433,72563.881,0.081,0.123,-0.989,0.052,0.033,0.172,0.297,-0.255,0.283,0.082,-0.123,0.874
2024-10-15 13:23:32.444,72563.891,0.079,0.12,-0.99,0.003,0.038,0.091,0.308,-0.291,0.274,0.079,-0.12,0.877
2024-10-15 13:23:32.453,72563.901,0.076,0.117,-0.99,-0.043,-0.05,0.022,0.28,-0.245,0.191,0.077,-0.117,0.879
2024-10-15 13:23:32.463,72563.911,0.074,0.114,-0.991,-0.11,-0.138,-0.048,0.212,-0.258,0.18,0.075,-0.114,0.881
2024-10-15 13:23:32.474,72563.921,0.072,0.112,-0.991,-0.153,-0.186,-0.088,0.171,-0.208,0.114,0.072,-0.112,0.882
2024-10-15 13:23:32.484,72563.931,0.07,0.11,-0.991,-0.184,-0.177,-0.043,0.099,-0.206,0.063,0.07,-0.111,0.883
2024-10-15 13:23:32.494,72563.941,0.068,0.11,-0.992,-0.182,-0.156,0.033,-0.037,-0.209,0.035,0.068,-0.11,0.883
2024-10-15 13:23:32.504,72563.951,0.066,0.111,-0.992,-0.148,-0.123,0.105,-0.102,-0.125,0.01,0.067,-0.111,0.883
2024-10-15 13:23:32.514,72563.961,0.065,0.112,-0.992,-0.142,-0.034,0.124,-0.076,-0.115,0.026,0.066,-0.112,0.884
2024-10-15 13:23:32.524,72563.971,0.064,0.112,-0.992,-0.11,0.047,0.098,-0.02,-0.111,0.026,0.064,-0.112,0.884
2024-10-15 13:23:32.534,72563.981,0.063,0.112,-0.992,-0.049,0.077,0.043,-0.031,-0.033,0.04,0.064,-0.113,0.884
2024-10-15 13:23:32.544,72563.991,0.064,0.113,-0.992,-0.049,0.118,0.025,-0.055,0.07,0.068,0.064,-0.113,0.885
2024-10-15 13:23:32.554,72564.001,0.065,0.113,-0.991,-0.006,0.07,0.026,-0.003,0.113,0.062,0.065,-0.113,0.886
2024-10-15 13:23:32.564,72564.011,0.066,0.113,-0.991,0.067,0.073,-0.005,0.058,0.077,0.056,0.066,-0.113,0.886
2024-10-15 13:23:32.574,72564.021,0.066,0.112,-0.991,0.13,0.089,-0.075,0.073,0.04,0.074,0.067,-0.112,0.887
2024-10-15 13:23:32.584,72564.031,0.067,0.111,-0.992,0.152,0.068,-0.109,0.109,0.047,0.119,0.067,-0.111,0.888
2024-10-15 13:23:32.594,72564.041,0.067,0.11,-0.992,0.12,0.076,-0.085,0.195,0.031,0.166,0.068,-0.11,0.889
2024-10-15 13:23:32.603,72564.051,0.067,0.107,-0.992,0.074,0.101,-0.011,0.302,-0.065,0.18,0.068,-0.107,0.891
2024-10-15 13:23:32.614,72564.061,0.066,0.104,-0.992,0.064,0.052,0.047,0.315,-0.242,0.192,0.067,-0.104,0.892
2024-10-15 13:23:32.623,72564.071,0.063,0.101,-0.993,0.074,-0.078,0.033,0.295,-0.311,0.158,0.064,-0.101,0.894
2024-10-15 13:23:32.633,72564.081,0.061,0.098,-0.993,0.01,-0.144,-0.04,0.31,-0.261,0.173,0.061,-0.098,0.895
2024-10-15 13:23:32.644,72564.091,0.058,0.095,-0.994,-0.13,-0.082,-0.074,0.289,-0.266,0.185,0.059,-0.095,0.897
2024-10-15 13:23:32.653,72564.101,0.056,0.091,-0.994,-0.158,-0.067,-0.048,0.398,-0.257,0.136,0.056,-0.091,0.898
2024-10-15 13:23:32.663,72564.111,0.053,0.087,-0.995,-0.163,-0.036,-0.015,0.382,-0.282,0.128,0.054,-0.087,0.899
2024-10-15 13:23:32.673,72564.121,0.051,0.084,-0.995,-0.152,-0.061,0.017,0.137,-0.266,0.072,0.051,-0.084,0.9
2024-10-15 13:23:32.684,72564.131,0.048,0.084,-0.995,-0.097,-0.128,0.022,-0.012,-0.21,-0.021,0.049,-0.084,0.901
2024-10-15 13:23:32.694,72564.141,0.046,0.084,-0.995,-0.081,-0.185,-0.029,-0.029,-0.178,-0.05,0.047,-0.084,0.9
2024-10-15 13:23:32.703,72564.151,0.045,0.084,-0.995,-0.074,-0.172,-0.055,-0.004,-0.1,-0.088,0.045,-0.084,0.899
2024-10-15 13:23:32.714,72564.161,0.044,0.086,-0.995,-0.083,-0.057,-0.043,-0.431,-0.168,0.001,0.044,-0.086,0.899
2024-10-15 13:23:32.723,72564.171,0.042,0.094,-0.995,-0.046,-0.04,-0.017,-1.199,-0.181,0.229,0.042,-0.094,0.901
2024-10-15 13:23:32.733,72564.181,0.042,0.108,-0.993,0.005,-0.004,0.11,-1.462,0.18,0.341,0.042,-0.108,0.904
2024-10-15 13:23:32.744,72564.191,0.045,0.118,-0.992,-0.133,0.369,0.246,-0.616,0.201,0.379,0.045,-0.119,0.908
2024-10-15 13:23:32.753,72564.201,0.045,0.121,-0.992,-0.042,0.417,0.144,-0.016,-0.132,0.189,0.046,-0.121,0.911
2024-10-15 13:23:32.763,72564.211,0.044,0.121,-0.992,0.226,0.076,0.024,-0.103,-0.134,-0.137,0.044,-0.121,0.912
2024-10-15 13:23:32.774,72564.221,0.043,0.125,-0.991,0.256,-0.501,-0.053,-0.711,0.082,-0.277,0.044,-0.125,0.909
2024-10-15 13:23:32.783,72564.231,0.043,0.133,-0.99,0.167,-0.841,0.04,-0.822,-0.012,-0.392,0.044,-0.133,0.907
2024-10-15 13:23:32.793,72564.241,0.042,0.14,-0.989,0.285,-0.672,0.082,-0.437,-0.21,-0.421,0.042,-0.14,0.903
2024-10-15 13:23:32.803,72564.251,0.039,0.142,-0.989,0.283,0.075,-0.138,-0.071,-0.165,-0.162,0.04,-0.143,0.9
2024-10-15 13:23:32.813,72564.261,0.039,0.139,-0.989,0.095,0.644,-0.328,0.664,0.117,-0.062,0.039,-0.14,0.899
2024-10-15 13:23:32.823,72564.271,0.039,0.131,-0.991,-0.051,0.849,-0.146,0.865,-0.249,0.01,0.039,-0.131,0.898
2024-10-15 13:23:32.833,72564.281,0.035,0.125,-0.992,0.093,0.439,0.075,0.471,-0.359,-0.051,0.035,-0.125,0.898
2024-10-15 13:23:32.844,72564.291,0.034,0.12,-0.992,0.177,-0.221,0.048,0.447,0.06,-0.078,0.034,-0.121,0.897
2024-10-15 13:23:32.853,72564.301,0.034,0.116,-0.993,-0.16,-0.086,-0.037,0.474,0.029,-0.034,0.034,-0.116,0.896
2024-10-15 13:23:32.863,72564.311,0.034,0.111,-0.993,-0.161,0.0,-0.031,0.476,-0.029,-0.095,0.034,-0.111,0.895
2024-10-15 13:23:32.873,72564.321,0.033,0.107,-0.994,-0.075,0.015,0.058,0.374,-0.068,-0.014,0.034,-0.107,0.895
2024-10-15 13:23:32.883,72564.331,0.033,0.103,-0.994,-0.144,0.04,0.094,0.387,-0.057,0.029,0.033,-0.103,0.895
2024-10-15 13:23:32.893,72564.341,0.032,0.099,-0.995,-0.195,0.063,0.072,0.448,-0.063,0.049,0.032,-0.099,0.895
2024-10-15 13:23:32.903,72564.351,0.032,0.094,-0.995,-0.231,0.116,0.052,0.425,-0.03,0.024,0.032,-0.095,0.895
2024-10-15 13:23:32.913,72564.361,0.032,0.091,-0.995,-0.233,0.051,0.064,0.307,-0.036,0.025,0.032,-0.091,0.895
2024-10-15 13:23:32.923,72564.37,0.031,0.088,-0.996,-0.187,-0.067,0.049,0.263,-0.053,-0.019,0.031,-0.088,0.895
2024-10-15 13:23:32.933,72564.38,0.031,0.086,-0.996,-0.114,-0.155,-0.011,0.174,0.005,-0.039,0.031,-0.086,0.895
2024-10-15 13:23:32.943,72564.39,0.031,0.085,-0.996,-0.097,-0.108,-0.062,0.02,0.141,-0.072,0.032,-0.085,0.894
2024-10-15 13:23:32.953,72564.4,0.033,0.086,-0.996,-0.096,-0.004,-0.071,-0.425,0.117,0.049,0.033,-0.087,0.894
2024-10-15 13:23:32.963,72564.41,0.034,0.094,-0.995,-0.046,-0.019,-0.025,-1.015,0.157,0.21,0.034,-0.094,0.896
2024-10-15 13:23:32.972,72564.42,0.037,0.104,-0.994,-0.025,0.006,0.121,-0.92,0.365,0.18,0.037,-0.104,0.898
2024-10-15 13:23:32.982,72564.43,0.04,0.111,-0.993,-0.068,0.101,0.176,-0.475,0.124,0.077,0.04,-0.111,0.9
2024-10-15 13:23:32.992,72564.44,0.041,0.115,-0.993,0.133,-0.094,0.006,-0.404,0.113,-0.123,0.041,-0.115,0.899
2024-10-15 13:23:33.002,72564.45,0.042,0.12,-0.992,0.194,-0.284,-0.116,-0.634,0.234,-0.17,0.043,-0.12,0.898
2024-10-15 13:23:33.012,72564.46,0.045,0.126,-0.991,0.153,-0.384,-0.064,-0.627,0.325,-0.218,0.045,-0.127,0.897
2024-10-15 13:23:33.022,72564.47,0.047,0.133,-0.99,0.181,-0.19,0.054,-0.638,0.169,-0.191,0.048,-0.133,0.895
2024-10-15 13:23:33.033,72564.48,0.048,0.138,-0.989,0.305,-0.059,0.162,-0.437,0.01,-0.19,0.048,-0.139,0.893
2024-10-15 13:23:33.043,72564.49,0.047,0.142,-0.989,0.371,-0.038,0.095,-0.209,-0.055,-0.157,0.048,-0.142,0.891
2024-10-15 13:23:33.053,72564.5,0.047,0.142,-0.989,0.214,0.293,-0.067,0.07,0.006,-0.071,0.047,-0.143,0.89
2024-10-15 13:23:33.063,72564.51,0.047,0.14,-0.989,0.049,0.515,-0.133,0.463,0.011,0.099,0.047,-0.14,0.89
2024-10-15 13:23:33.072,72564.52,0.047,0.134,-0.99,-0.069,0.514,-0.074,0.67,-0.151,0.117,0.047,-0.134,0.891
2024-10-15 13:23:33.082,72564.53,0.044,0.128,-0.991,-0.023,0.199,0.108,0.458,-0.352,0.16,0.044,-0.128,0.892
2024-10-15 13:23:33.092,72564.54,0.041,0.124,-0.991,-0.003,-0.126,0.053,0.372,-0.165,0.126,0.042,-0.124,0.894
2024-10-15 13:23:33.102,72564.55,0.041,0.12,-0.992,-0.179,-0.077,-0.081,0.317,-0.059,0.206,0.041,-0.121,0.895
2024-10-15 13:23:33.112,72564.56,0.04,0.118,-0.992,-0.288,0.027,-0.079,0.22,-0.138,0.203,0.04,-0.118,0.897
2024-10-15 13:23:33.122,72564.57,0.039,0.115,-0.993,-0.163,-0.032,0.039,0.247,-0.153,0.177,0.039,-0.116,0.899
2024-10-15 13:23:33.133,72564.58,0.037,0.112,-0.993,-0.154,-0.028,0.063,0.398,-0.145,0.16,0.038,-0.112,0.9
2024-10-15 13:23:33.143,72564.59,0.037,0.108,-0.993,-0.189,-0.063,-0.005,0.388,-0.051,0.135,0.037,-0.108,0.902
2024-10-15 13:23:33.153,72564.6,0.037,0.105,-0.994,-0.16,-0.119,-0.07,0.171,0.08,-0.039,0.037,-0.105,0.902
2024-10-15 13:23:33.162,72564.61,0.038,0.105,-0.994,-0.119,-0.231,-0.076,-0.227,0.198,-0.131,0.038,-0.106,0.901
2024-10-15 13:23:33.173,72564.62,0.039,0.112,-0.993,-0.025,-0.563,-0.012,-1.132,-0.049,-0.184,0.039,-0.112,0.9
2024-10-15 13:23:33.183,72564.63,0.038,0.126,-0.991,0.142,-0.669,0.072,-1.655,-0.067,-0.288,0.038,-0.126,0.898
2024-10-15 13:23:33.192,72564.64,0.038,0.142,-0.989,0.119,-0.303,0.212,-1.495,0.188,-0.242,0.039,-0.142,0.896
2024-10-15 13:23:33.202,72564.65,0.039,0.158,-0.987,-0.107,0.276,0.221,-1.794,-0.05,-0.119,0.039,-0.158,0.895
2024-10-15 13:23:33.213,72564.66,0.038,0.178,-0.983,0.075,0.192,0.087,-2.209,0.035,-0.186,0.039,-0.179,0.894
2024-10-15 13:23:33.223,72564.67,0.039,0.2,-0.979,0.124,-0.022,-0.026,-2.26,0.181,-0.184,0.04,-0.201,0.893
2024-10-15 13:23:33.233,72564.68,0.04,0.222,-0.974,0.026,-0.126,-0.081,-2.445,0.104,-0.243,0.041,-0.224,0.892
2024-10-15 13:23:33.242,72564.69,0.04,0.248,-0.968,0.064,-0.219,-0.021,-2.826,-0.071,-0.35,0.041,-0.251,0.89
2024-10-15 13:23:33.253,72564.7,0.037,0.277,-0.96,0.117,-0.403,0.073,-3.089,-0.202,-0.417,0.039,-0.281,0.887
2024-10-15 13:23:33.262,72564.71,0.033,0.307,-0.951,0.064,-0.4,0.081,-3.221,-0.322,-0.528,0.035,-0.312,0.884
2024-10-15 13:23:33.272,72564.72,0.028,0.337,-0.941,0.001,-0.271,0.035,-3.083,-0.347,-0.66,0.03,-0.344,0.878
2024-10-15 13:23:33.282,72564.73,0.023,0.368,-0.929,-0.078,-0.223,0.018,-3.663,-0.244,-0.645,0.025,-0.377,0.873
2024-10-15 13:23:33.292,72564.74,0.019,0.406,-0.914,-0.097,-0.245,0.058,-4.354,-0.015,-0.742,0.021,-0.418,0.866
2024-10-15 13:23:33.302,72564.75,0.017,0.446,-0.895,-0.135,-0.307,-0.132,-4.315,0.237,-0.653,0.019,-0.462,0.859
2024-10-15 13:23:33.312,72564.76,0.017,0.481,-0.876,-0.21,-0.124,-0.222,-3.699,0.373,-0.577,0.02,-0.502,0.853
2024-10-15 13:23:33.322,72564.77,0.018,0.51,-0.86,-0.163,0.181,-0.054,-2.991,0.377,-0.523,0.021,-0.536,0.848
2024-10-15 13:23:33.332,72564.78,0.018,0.534,-0.845,-0.094,0.373,0.179,-2.543,0.172,-0.504,0.021,-0.563,0.842
2024-10-15 13:23:33.342,72564.79,0.015,0.554,-0.832,-0.005,0.304,0.318,-2.291,-0.074,-0.491,0.018,-0.587,0.837
2024-10-15 13:23:33.352,72564.8,0.012,0.572,-0.82,0.036,0.204,0.324,-2.137,-0.18,-0.395,0.014,-0.609,0.832
2024-10-15 13:23:33.362,72564.81,0.008,0.589,-0.808,0.001,0.189,0.289,-1.931,-0.253,-0.325,0.01,-0.63,0.828
2024-10-15 13:23:33.372,72564.82,0.004,0.603,-0.798,0.004,0.216,0.247,-1.51,-0.27,-0.337,0.005,-0.647,0.824
2024-10-15 13:23:33.382,72564.83,-0.0,0.613,-0.79,0.003,0.291,0.098,-1.041,-0.216,-0.298,-0.0,-0.66,0.82
2024-10-15 13:23:33.392,72564.84,-0.003,0.62,-0.785,-0.009,0.336,-0.065,-0.699,-0.137,-0.142,-0.004,-0.668,0.817
2024-10-15 13:23:33.402,72564.85,-0.005,0.624,-0.782,0.013,0.271,-0.115,-0.356,-0.151,-0.051,-0.006,-0.674,0.816
2024-10-15 13:23:33.412,72564.86,-0.006,0.626,-0.78,0.075,0.262,-0.114,-0.135,-0.102,-0.083,-0.008,-0.676,0.815
2024-10-15 13:23:33.422,72564.87,-0.007,0.627,-0.779,0.063,0.26,-0.118,-0.285,-0.037,-0.06,-0.009,-0.678,0.814
2024-10-15 13:23:33.432,72564.88,-0.008,0.63,-0.776,0.03,0.064,-0.103,-0.596,0.008,-0.054,-0.01,-0.682,0.813
2024-10-15 13:23:33.442,72564.89,-0.007,0.635,-0.772,0.008,-0.087,-0.087,-0.633,0.093,-0.02,-0.01,-0.688,0.813
2024-10-15 13:23:33.452,72564.9,-0.007,0.639,-0.769,-0.022,-0.073,-0.103,-0.358,0.122,-0.034,-0.009,-0.693,0.812
2024-10-15 13:23:33.462,72564.91,-0.006,0.641,-0.768,-0.031,0.012,-0.147,-0.04,0.088,0.0,-0.008,-0.695,0.812
2024-10-15 13:23:33.472,72564.92,-0.006,0.64,-0.768,-0.018,0.092,-0.131,0.234,0.033,0.002,-0.007,-0.694,0.812
2024-10-15 13:23:33.482,72564.93,-0.005,0.637,-0.771,-0.027,0.126,-0.068,0.484,0.003,0.011,-0.007,-0.691,0.812
2024-10-15 13:23:33.492,72564.939,-0.005,0.633,-0.774,-0.054,0.157,0.012,0.672,-0.05,0.047,-0.007,-0.685,0.813
2024-10-15 13:23:33.502,72564.949,-0.006,0.627,-0.779,-0.049,0.15,0.071,0.763,-0.11,0.088,-0.007,-0.678,0.814
2024-10-15 13:23:33.512,72564.959,-0.006,0.621,-0.784,-0.026,0.142,0.107,0.747,-0.165,0.095,-0.008,-0.67,0.815
2024-10-15 13:23:33.522,72564.969,-0.007,0.616,-0.788,-0.007,0.111,0.13,0.681,-0.201,0.098,-0.009,-0.663,0.816
2024-10-15 13:23:33.532,72564.979,-0.008,0.611,-0.792,-0.003,0.055,0.126,0.593,-0.248,0.115,-0.01,-0.657,0.818
2024-10-15 13:23:33.542,72564.989,-0.01,0.606,-0.795,0.002,0.04,0.177,0.609,-0.31,0.046,-0.012,-0.651,0.819
2024-10-15 13:23:33.552,72564.999,-0.012,0.6,-0.8,-0.019,0.073,0.197,0.801,-0.309,0.142,-0.015,-0.644,0.82
2024-10-15 13:23:33.562,72565.009,-0.013,0.593,-0.805,-0.037,0.161,0.115,1.04,-0.354,0.198,-0.017,-0.635,0.822
2024-10-15 13:23:33.572,72565.019,-0.015,0.585,-0.811,-0.045,0.227,0.067,0.983,-0.331,0.286,-0.018,-0.624,0.825
2024-10-15 13:23:33.582,72565.029,-0.015,0.578,-0.816,-0.051,0.219,0.066,0.633,-0.311,0.36,-0.019,-0.616,0.83
2024-10-15 13:23:33.592,72565.039,-0.015,0.574,-0.819,-0.053,0.104,0.043,0.429,-0.227,0.436,-0.019,-0.611,0.835
2024-10-15 13:23:33.602,72565.049,-0.014,0.57,-0.821,-0.045,-0.031,-0.034,0.59,-0.088,0.493,-0.017,-0.607,0.84
2024-10-15 13:23:33.612,72565.059,-0.011,0.563,-0.826,-0.008,-0.051,-0.078,1.06,0.022,0.518,-0.014,-0.598,0.847
2024-10-15 13:23:33.622,72565.069,-0.009,0.553,-0.833,0.063,-0.022,-0.075,1.46,0.024,0.421,-0.01,-0.586,0.853
2024-10-15 13:23:33.632,72565.079,-0.006,0.54,-0.842,0.119,-0.028,-0.019,1.536,-0.037,0.362,-0.008,-0.571,0.857
2024-10-15 13:23:33.642,72565.089,-0.005,0.528,-0.849,0.157,-0.128,0.039,1.294,-0.067,0.285,-0.006,-0.556,0.861
2024-10-15 13:23:33.652,72565.099,-0.004,0.518,-0.855,0.137,-0.256,0.076,1.019,0.028,0.223,-0.005,-0.545,0.864
2024-10-15 13:23:33.662,72565.109,-0.002,0.51,-0.86,0.07,-0.292,0.064,0.863,0.176,0.161,-0.003,-0.536,0.867
2024-10-15 13:23:33.672,72565.119,0.0,0.503,-0.864,0.02,-0.248,0.045,0.803,0.251,0.154,0.001,-0.527,0.868
2024-10-15 13:23:33.682,72565.129,0.003,0.496,-0.868,0.037,-0.227,0.063,0.941,0.272,0.079,0.004,-0.519,0.87
2024-10-15 13:23:33.692,72565.139,0.006,0.487,-0.873,0.055,-0.184,0.081,1.126,0.309,-0.026,0.007,-0.508,0.87
2024-10-15 13:23:33.702,72565.149,0.008,0.476,-0.879,0.04,-0.126,0.092,1.246,0.306,-0.086,0.01,-0.496,0.869
2024-10-15 13:23:33.712,72565.159,0.011,0.466,-0.885,0.046,-0.161,0.103,1.188,0.307,-0.145,0.012,-0.484,0.868
2024-10-15 13:23:33.722,72565.169,0.012,0.456,-0.89,0.046,-0.216,0.102,1.006,0.277,-0.154,0.014,-0.473,0.866
2024-10-15 13:23:33.732,72565.179,0.014,0.448,-0.894,0.039,-0.234,0.113,0.766,0.217,-0.14,0.016,-0.464,0.864
2024-10-15 13:23:33.742,72565.189,0.015,0.442,-0.897,0.045,-0.16,0.077,0.636,0.202,-0.155,0.017,-0.458,0.862
2024-10-15 13:23:33.752,72565.199,0.016,0.436,-0.9,0.031,-0.019,-0.018,0.604,0.204,-0.204,0.018,-0.451,0.86
2024-10-15 13:23:33.761,72565.209,0.018,0.431,-0.902,0.005,0.094,-0.111,0.557,0.29,-0.197,0.019,-0.446,0.858
2024-10-15 13:23:33.771,72565.219,0.02,0.426,-0.905,-0.037,0.164,-0.166,0.622,0.468,-0.139,0.022,-0.44,0.856
2024-10-15 13:23:33.781,72565.229,0.025,0.42,-0.907,-0.087,0.203,-0.201,0.818,0.593,-0.082,0.027,-0.433,0.855
2024-10-15 13:23:33.792,72565.239,0.03,0.411,-0.911,-0.096,0.228,-0.201,1.087,0.596,0.0,0.033,-0.423,0.854
2024-10-15 13:23:33.802,72565.249,0.035,0.401,-0.916,-0.051,0.247,-0.139,1.143,0.507,0.081,0.038,-0.412,0.854
2024-10-15 13:23:33.811,72565.259,0.04,0.39,-0.92,0.004,0.204,-0.027,1.046,0.383,0.13,0.043,-0.401,0.854
2024-10-15 13:23:33.821,72565.269,0.043,0.381,-0.924,0.034,0.102,0.073,0.962,0.292,0.168,0.047,-0.391,0.856
2024-10-15 13:23:33.831,72565.279,0.046,0.372,-0.927,0.034,0.063,0.127,0.95,0.193,0.158,0.05,-0.381,0.857
2024-10-15 13:23:33.841,72565.289,0.048,0.364,-0.93,0.034,0.058,0.12,0.886,0.093,0.151,0.052,-0.372,0.858
2024-10-15 13:23:33.852,72565.299,0.049,0.356,-0.933,0.028,0.022,0.07,0.79,0.064,0.151,0.053,-0.364,0.859
2024-10-15 13:23:33.862,72565.309,0.05,0.348,-0.936,0.006,-0.012,0.012,0.857,0.101,0.184,0.054,-0.356,0.86
2024-10-15 13:23:33.872,72565.319,0.052,0.34,-0.939,-0.025,0.034,-0.033,0.93,0.136,0.243,0.056,-0.347,0.862
2024-10-15 13:23:33.882,72565.329,0.054,0.331,-0.942,-0.033,0.161,-0.127,0.96,0.135,0.222,0.058,-0.337,0.864
2024-10-15 13:23:33.891,72565.339,0.057,0.321,-0.945,-0.046,0.183,-0.223,1.012,0.239,0.335,0.06,-0.327,0.866
2024-10-15 13:23:33.901,72565.349,0.061,0.312,-0.948,-0.077,0.063,-0.204,0.796,0.284,0.405,0.064,-0.318,0.87
2024-10-15 13:23:33.911,72565.359,0.065,0.306,-0.95,-0.062,-0.048,-0.104,0.55,0.286,0.4,0.068,-0.311,0.874
2024-10-15 13:23:33.921,72565.369,0.068,0.301,-0.951,-0.029,-0.099,-0.012,0.268,0.129,0.348,0.071,-0.306,0.877
2024-10-15 13:23:33.931,72565.379,0.069,0.3,-0.951,0.012,-0.121,0.079,0.017,-0.017,0.308,0.073,-0.305,0.88
2024-10-15 13:23:33.941,72565.389,0.07,0.299,-0.952,0.014,-0.167,0.121,0.105,0.026,0.238,0.073,-0.304,0.883
2024-10-15 13:23:33.951,72565.399,0.071,0.296,-0.952,-0.064,-0.105,0.119,0.524,0.056,0.188,0.074,-0.301,0.885
2024-10-15 13:23:33.961,72565.409,0.072,0.29,-0.954,-0.102,0.024,0.035,0.861,0.061,0.121,0.075,-0.294,0.886
2024-10-15 13:23:33.971,72565.419,0.073,0.282,-0.957,-0.065,0.034,0.005,0.734,0.038,0.095,0.076,-0.285,0.887
2024-10-15 13:23:33.981,72565.429,0.073,0.276,-0.958,-0.018,-0.107,0.029,0.298,0.043,0.066,0.076,-0.28,0.887
2024-10-15 13:23:33.991,72565.439,0.074,0.275,-0.958,0.012,-0.253,0.065,-0.015,0.106,0.063,0.077,-0.279,0.888
2024-10-15 13:23:34.001,72565.449,0.076,0.275,-0.958,0.026,-0.223,0.107,0.032,0.163,-0.063,0.079,-0.279,0.888
2024-10-15 13:23:34.011,72565.459,0.076,0.275,-0.959,0.079,-0.155,0.123,0.136,-0.03,-0.119,0.079,-0.278,0.887
2024-10-15 13:23:34.021,72565.469,0.074,0.273,-0.959,0.2,-0.222,0.149,0.292,-0.235,-0.254,0.077,-0.276,0.885
2024-10-15 13:23:34.031,72565.479,0.071,0.269,-0.961,0.256,-0.157,0.154,0.517,-0.21,-0.344,0.074,-0.272,0.881
2024-10-15 13:23:34.041,72565.489,0.069,0.264,-0.962,0.133,0.113,0.035,0.554,-0.023,-0.287,0.072,-0.267,0.877
2024-10-15 13:23:34.051,72565.499,0.069,0.259,-0.963,-0.014,0.282,-0.112,0.594,0.228,-0.188,0.072,-0.262,0.875
2024-10-15 13:23:34.061,72565.509,0.072,0.252,-0.965,-0.099,0.317,-0.145,0.888,0.398,-0.116,0.075,-0.254,0.872
2024-10-15 13:23:34.071,72565.518,0.075,0.244,-0.967,-0.104,0.322,-0.052,0.744,0.148,-0.046,0.077,-0.246,0.871
2024-10-15 13:23:34.081,72565.528,0.075,0.238,-0.968,0.003,0.131,0.049,0.596,0.065,-0.049,0.078,-0.24,0.87
2024-10-15 13:23:34.091,72565.538,0.076,0.231,-0.97,0.024,-0.075,0.056,0.732,0.033,0.063,0.078,-0.233,0.869
2024-10-15 13:23:34.101,72565.548,0.076,0.224,-0.972,-0.113,0.069,0.048,0.801,-0.152,0.168,0.078,-0.225,0.87
2024-10-15 13:23:34.111,72565.558,0.074,0.215,-0.974,-0.107,0.083,0.025,0.851,-0.315,0.27,0.076,-0.217,0.872
2024-10-15 13:23:34.121,72565.568,0.071,0.206,-0.976,-0.112,0.067,0.013,1.03,-0.436,0.386,0.073,-0.208,0.874
2024-10-15 13:23:34.131,72565.578,0.067,0.195,-0.978,-0.153,0.139,0.013,1.142,-0.587,0.455,0.068,-0.196,0.878
2024-10-15 13:23:34.141,72565.588,0.062,0.184,-0.981,-0.116,0.114,-0.005,1.082,-0.632,0.431,0.063,-0.185,0.882
2024-10-15 13:23:34.151,72565.598,0.057,0.174,-0.983,-0.079,0.051,-0.032,0.968,-0.511,0.356,0.058,-0.174,0.885
2024-10-15 13:23:34.161,72565.608,0.053,0.165,-0.985,-0.088,0.005,-0.051,0.754,-0.371,0.329,0.054,-0.166,0.888
2024-10-15 13:23:34.171,72565.618,0.05,0.161,-0.986,-0.078,-0.023,-0.045,0.023,-0.448,0.396,0.05,-0.161,0.891
2024-10-15 13:23:34.181,72565.628,0.046,0.163,-0.985,0.011,-0.132,-0.008,-0.523,-0.304,0.322,0.047,-0.164,0.895
2024-10-15 13:23:34.191,72565.638,0.045,0.168,-0.985,0.004,-0.158,0.075,-0.445,-0.066,0.282,0.046,-0.169,0.898
2024-10-15 13:23:34.201,72565.648,0.045,0.171,-0.984,-0.075,-0.059,0.041,-0.119,-0.09,0.102,0.045,-0.172,0.901
2024-10-15 13:23:34.211,72565.658,0.044,0.171,-0.984,0.094,-0.213,-0.009,0.181,-0.119,-0.091,0.044,-0.171,0.901
2024-10-15 13:23:34.221,72565.668,0.042,0.169,-0.985,0.198,-0.26,0.047,0.086,-0.18,-0.199,0.043,-0.17,0.899
2024-10-15 13:23:34.231,72565.678,0.04,0.17,-0.985,0.26,-0.377,0.117,-0.192,-0.252,-0.267,0.04,-0.17,0.897
2024-10-15 13:23:34.241,72565.688,0.036,0.172,-0.984,0.304,-0.401,0.212,-0.278,-0.302,-0.362,0.037,-0.173,0.894
2024-10-15 13:23:34.251,72565.698,0.033,0.175,-0.984,0.253,-0.186,0.133,-0.263,-0.225,-0.365,0.033,-0.176,0.89
2024-10-15 13:23:34.261,72565.708,0.031,0.177,-0.984,0.109,0.111,-0.072,-0.126,-0.034,-0.328,0.031,-0.178,0.887
2024-10-15 13:23:34.271,72565.718,0.032,0.176,-0.984,-0.035,0.32,-0.245,0.371,0.389,-0.277,0.033,-0.177,0.883
2024-10-15 13:23:34.281,72565.728,0.036,0.171,-0.985,-0.147,0.46,-0.253,0.58,0.426,-0.299,0.037,-0.172,0.88
2024-10-15 13:23:34.290,72565.738,0.038,0.167,-0.985,-0.056,0.278,-0.016,0.303,0.139,-0.384,0.039,-0.168,0.877
2024-10-15 13:23:34.301,72565.748,0.039,0.164,-0.986,0.096,-0.137,0.114,0.327,0.182,-0.322,0.04,-0.165,0.873
2024-10-15 13:23:34.311,72565.758,0.041,0.16,-0.986,-0.056,-0.061,0.085,0.502,0.162,-0.119,0.041,-0.161,0.871
2024-10-15 13:23:34.320,72565.768,0.041,0.155,-0.987,-0.203,0.19,0.014,0.595,-0.049,0.098,0.042,-0.155,0.87
2024-10-15 13:23:34.330,72565.778,0.04,0.148,-0.988,-0.163,0.229,-0.038,0.758,-0.206,0.251,0.041,-0.149,0.872
2024-10-15 13:23:34.341,72565.788,0.038,0.14,-0.989,-0.159,0.266,-0.048,0.934,-0.313,0.326,0.038,-0.14,0.874
2024-10-15 13:23:34.351,72565.798,0.035,0.13,-0.991,-0.162,0.205,-0.012,0.88,-0.442,0.274,0.035,-0.131,0.877
2024-10-15 13:23:34.360,72565.808,0.031,0.122,-0.992,-0.093,-0.03,0.005,0.747,-0.411,0.191,0.031,-0.123,0.879
2024-10-15 13:23:34.370,72565.818,0.027,0.116,-0.993,-0.084,-0.142,-0.025,0.569,-0.298,0.158,0.027,-0.116,0.881
2024-10-15 13:23:34.380,72565.828,0.025,0.111,-0.994,-0.111,-0.102,-0.066,0.461,-0.244,0.125,0.025,-0.111,0.882
2024-10-15 13:23:34.390,72565.838,0.023,0.107,-0.994,-0.071,-0.088,-0.085,0.3,-0.191,0.113,0.023,-0.107,0.883
2024-10-15 13:23:34.401,72565.848,0.02,0.106,-0.994,-0.037,-0.048,-0.117,-0.156,-0.312,0.23,0.021,-0.106,0.885
2024-10-15 13:23:34.410,72565.858,0.019,0.108,-0.994,-0.019,-0.036,-0.097,-0.264,0.1,0.229,0.02,-0.108,0.887
2024-10-15 13:23:34.420,72565.868,0.021,0.111,-0.994,-0.119,0.153,0.076,-0.412,0.19,0.215,0.022,-0.112,0.89
2024-10-15 13:23:34.430,72565.878,0.023,0.115,-0.993,-0.062,0.159,0.166,-0.336,0.019,0.178,0.023,-0.116,0.892
2024-10-15 13:23:34.440,72565.888,0.023,0.117,-0.993,0.161,-0.137,0.139,-0.11,0.02,0.028,0.023,-0.118,0.893
2024-10-15 13:23:34.450,72565.898,0.023,0.118,-0.993,0.172,-0.144,0.073,-0.038,0.038,-0.086,0.023,-0.118,0.893
2024-10-15 13:23:34.460,72565.908,0.023,0.119,-0.993,0.198,-0.327,0.062,-0.27,-0.147,-0.208,0.023,-0.12,0.891
2024-10-15 13:23:34.470,72565.918,0.02,0.124,-0.992,0.307,-0.53,0.096,-0.567,-0.336,-0.33,0.02,-0.124,0.888
2024-10-15 13:23:34.480,72565.928,0.016,0.129,-0.992,0.336,-0.539,0.125,-0.423,-0.264,-0.372,0.016,-0.129,0.885
2024-10-15 13:23:34.489,72565.938,0.013,0.132,-0.991,0.183,-0.163,0.028,-0.151,-0.217,-0.279,0.013,-0.132,0.882
2024-10-15 13:23:34.500,72565.948,0.011,0.132,-0.991,0.066,0.203,-0.081,0.059,-0.142,-0.197,0.011,-0.133,0.879
2024-10-15 13:23:34.510,72565.958,0.011,0.129,-0.992,0.009,0.362,-0.121,0.6,0.126,-0.186,0.011,-0.13,0.877
2024-10-15 13:23:34.520,72565.968,0.013,0.122,-0.993,-0.065,0.471,-0.121,0.837,0.191,-0.148,0.013,-0.122,0.876
2024-10-15 13:23:34.529,72565.978,0.012,0.116,-0.993,-0.008,0.357,-0.007,0.32,-0.214,-0.234,0.012,-0.116,0.874
2024-10-15 13:23:34.540,72565.988,0.011,0.113,-0.994,0.2,-0.241,0.057,0.355,0.052,-0.244,0.011,-0.113,0.871
2024-10-15 13:23:34.550,72565.998,0.011,0.108,-0.994,0.009,-0.16,0.014,0.512,0.036,-0.171,0.011,-0.109,0.869
2024-10-15 13:23:34.560,72566.008,0.011,0.104,-0.995,-0.109,0.097,-0.035,0.477,-0.077,-0.102,0.011,-0.104,0.868
2024-10-15 13:23:34.570,72566.018,0.01,0.099,-0.995,-0.037,0.09,-0.037,0.402,-0.038,-0.019,0.01,-0.099,0.867
2024-10-15 13:23:34.580,72566.028,0.01,0.095,-0.995,-0.147,0.217,0.01,0.363,-0.063,0.106,0.01,-0.096,0.867
2024-10-15 13:23:34.590,72566.038,0.009,0.092,-0.996,-0.2,0.212,0.048,0.43,-0.074,0.127,0.009,-0.092,0.869
2024-10-15 13:23:34.600,72566.048,0.009,0.087,-0.996,-0.221,0.202,0.039,0.436,-0.061,0.093,0.009,-0.087,0.87
2024-10-15 13:23:34.610,72566.058,0.008,0.083,-0.996,-0.236,0.058,0.025,0.348,-0.002,0.073,0.008,-0.083,0.87
2024-10-15 13:23:34.620,72566.068,0.008,0.08,-0.997,-0.217,-0.128,0.027,0.214,0.003,0.043,0.008,-0.081,0.871
2024-10-15 13:23:34.630,72566.078,0.008,0.079,-0.997,-0.173,-0.128,-0.002,0.07,-0.055,0.013,0.008,-0.079,0.871
2024-10-15 13:23:34.640,72566.087,0.008,0.079,-0.997,-0.109,-0.127,-0.047,0.041,0.059,0.02,0.008,-0.079,0.871
2024-10-15 13:23:34.650,72566.097,0.009,0.079,-0.997,-0.097,-0.072,-0.105,-0.112,0.146,0.073,0.009,-0.079,0.872
2024-10-15 13:23:34.660,72566.107,0.01,0.082,-0.997,-0.07,0.026,-0.108,-0.511,0.037,0.22,0.01,-0.082,0.873
2024-10-15 13:23:34.670,72566.117,0.012,0.087,-0.996,0.014,0.056,-0.021,-0.506,0.223,0.184,0.012,-0.088,0.875
2024-10-15 13:23:34.680,72566.127,0.014,0.092,-0.996,-0.021,0.23,0.151,-0.331,0.138,0.235,0.014,-0.092,0.878
2024-10-15 13:23:34.690,72566.137,0.015,0.094,-0.995,0.053,0.081,0.203,-0.244,0.021,0.062,0.015,-0.095,0.879
2024-10-15 13:23:34.700,72566.147,0.014,0.096,-0.995,0.214,-0.224,0.197,-0.126,-0.067,-0.139,0.014,-0.096,0.879
2024-10-15 13:23:34.710,72566.157,0.013,0.098,-0.995,0.23,-0.391,0.112,-0.192,-0.128,-0.219,0.013,-0.098,0.877
2024-10-15 13:23:34.720,72566.167,0.011,0.101,-0.995,0.236,-0.476,0.067,-0.384,-0.254,-0.282,0.011,-0.101,0.875
2024-10-15 13:23:34.730,72566.177,0.008,0.104,-0.994,0.258,-0.421,0.084,-0.33,-0.197,-0.3,0.008,-0.105,0.872
2024-10-15 13:23:34.740,72566.187,0.006,0.107,-0.994,0.184,-0.157,0.0,-0.143,-0.168,-0.252,0.006,-0.107,0.869
2024-10-15 13:23:34.750,72566.197,0.005,0.107,-0.994,0.1,0.136,-0.183,0.101,-0.11,-0.176,0.005,-0.107,0.867
2024-10-15 13:23:34.760,72566.207,0.004,0.105,-0.995,0.04,0.341,-0.315,0.413,0.126,-0.111,0.004,-0.105,0.865
2024-10-15 13:23:34.770,72566.217,0.006,0.1,-0.995,-0.04,0.45,-0.326,0.582,0.246,-0.073,0.006,-0.1,0.864
2024-10-15 13:23:34.780,72566.227,0.008,0.094,-0.996,-0.032,0.347,-0.116,0.588,0.118,-0.121,0.008,-0.094,0.863
2024-10-15 13:23:34.790,72566.237,0.008,0.089,-0.996,0.085,0.032,0.139,0.382,-0.117,-0.137,0.008,-0.089,0.862
2024-10-15 13:23:34.800,72566.247,0.006,0.086,-0.996,0.085,-0.148,0.241,0.275,-0.155,-0.152,0.007,-0.086,0.861
2024-10-15 13:23:34.810,72566.257,0.005,0.083,-0.997,-0.051,-0.161,0.191,0.272,-0.123,-0.128,0.005,-0.083,0.859
2024-10-15 13:23:34.820,72566.267,0.004,0.081,-0.997,-0.195,-0.058,0.044,0.175,-0.094,-0.072,0.004,-0.081,0.858
2024-10-15 13:23:34.830,72566.277,0.003,0.079,-0.997,-0.245,0.03,-0.079,0.165,-0.001,-0.056,0.003,-0.079,0.858
2024-10-15 13:23:34.840,72566.287,0.004,0.077,-0.997,-0.26,0.086,-0.1,0.208,0.107,-0.042,0.004,-0.077,0.857
2024-10-15 13:23:34.850,72566.297,0.005,0.075,-0.997,-0.246,0.138,-0.038,0.277,0.108,-0.044,0.005,-0.075,0.857
2024-10-15 13:23:34.860,72566.307,0.006,0.071,-0.997,-0.178,0.129,0.068,0.448,0.042,-0.035,0.006,-0.071,0.856
2024-10-15 13:23:34.869,72566.317,0.006,0.066,-0.998,-0.106,0.048,0.1,0.588,-0.005,-0.058,0.006,-0.066,0.856
2024-10-15 13:23:34.880,72566.327,0.005,0.06,-0.998,-0.078,-0.002,0.063,0.528,-0.032,-0.059,0.005,-0.06,0.855
2024-10-15 13:23:34.890,72566.337,0.005,0.056,-0.998,-0.049,-0.072,-0.02,0.348,0.014,-0.132,0.005,-0.056,0.854
2024-10-15 13:23:34.899,72566.347,0.005,0.055,-0.998,-0.037,-0.135,-0.098,-0.25,-0.024,-0.086,0.005,-0.055,0.853
2024-10-15 13:23:34.909,72566.357,0.005,0.061,-0.998,-0.031,-0.273,-0.144,-0.85,0.031,-0.014,0.005,-0.061,0.852
2024-10-15 13:23:34.919,72566.367,0.006,0.07,-0.998,-0.028,-0.235,-0.022,-0.786,0.162,0.126,0.006,-0.07,0.853
2024-10-15 13:23:34.929,72566.377,0.007,0.074,-0.997,-0.032,0.165,0.137,-0.146,0.013,-0.009,0.007,-0.074,0.854
2024-10-15 13:23:34.939,72566.387,0.007,0.074,-0.997,0.149,0.224,0.081,0.164,-0.052,-0.059,0.007,-0.074,0.853
2024-10-15 13:23:34.950,72566.397,0.006,0.073,-0.997,0.235,0.039,0.041,-0.0,-0.041,-0.151,0.006,-0.073,0.852
2024-10-15 13:23:34.960,72566.407,0.006,0.074,-0.997,0.277,-0.258,0.007,-0.219,-0.059,-0.148,0.006,-0.074,0.851
2024-10-15 13:23:34.969,72566.417,0.005,0.077,-0.997,0.302,-0.32,0.052,-0.284,-0.195,-0.205,0.005,-0.077,0.849
2024-10-15 13:23:34.979,72566.427,0.002,0.08,-0.997,0.333,-0.21,0.108,-0.318,-0.278,-0.238,0.002,-0.08,0.847
2024-10-15 13:23:34.990,72566.437,-0.001,0.082,-0.997,0.243,-0.059,0.064,-0.211,-0.208,-0.196,-0.001,-0.082,0.845
2024-10-15 13:23:34.999,72566.447,-0.002,0.083,-0.997,0.089,0.084,-0.066,0.028,-0.085,-0.134,-0.002,-0.083,0.843
2024-10-15 13:23:35.009,72566.457,-0.003,0.081,-0.997,-0.034,0.268,-0.142,0.456,0.081,-0.127,-0.003,-0.081,0.842
2024-10-15 13:23:35.019,72566.467,-0.001,0.075,-0.997,-0.082,0.353,-0.104,0.706,0.192,-0.147,-0.001,-0.075,0.84
2024-10-15 13:23:35.028,72566.477,-0.001,0.07,-0.998,-0.049,0.268,0.006,0.297,-0.211,-0.166,-0.001,-0.07,0.839
2024-10-15 13:23:35.039,72566.487,-0.003,0.067,-0.998,0.13,-0.225,0.05,0.312,-0.041,-0.222,-0.003,-0.067,0.837
2024-10-15 13:23:35.048,72566.497,-0.003,0.064,-0.998,-0.028,-0.202,0.033,0.342,-0.04,-0.233,-0.003,-0.064,0.835
2024-10-15 13:23:35.058,72566.507,-0.004,0.06,-0.998,-0.149,-0.049,0.038,0.326,-0.056,-0.235,-0.004,-0.06,0.832
2024-10-15 13:23:35.069,72566.517,-0.005,0.058,-0.998,-0.123,-0.055,0.054,0.206,-0.059,-0.236,-0.005,-0.058,0.83
2024-10-15 13:23:35.079,72566.527,-0.006,0.056,-0.998,-0.153,0.037,0.1,0.082,-0.116,-0.166,-0.006,-0.056,0.828
2024-10-15 13:23:35.089,72566.537,-0.007,0.056,-0.998,-0.159,0.065,0.06,0.033,-0.064,-0.078,-0.007,-0.056,0.827
2024-10-15 13:23:35.099,72566.547,-0.007,0.055,-0.998,-0.186,0.146,-0.002,0.104,0.006,0.004,-0.007,-0.055,0.826
2024-10-15 13:23:35.109,72566.557,-0.007,0.053,-0.999,-0.224,0.275,-0.02,0.259,0.044,0.032,-0.007,-0.053,0.827
2024-10-15 13:23:35.119,72566.567,-0.006,0.05,-0.999,-0.196,0.251,-0.005,0.289,0.047,0.026,-0.006,-0.05,0.827
2024-10-15 13:23:35.129,72566.577,-0.005,0.048,-0.999,-0.158,0.099,0.012,0.189,0.08,-0.02,-0.005,-0.048,0.827
2024-10-15 13:23:35.139,72566.587,-0.005,0.047,-0.999,-0.129,-0.075,0.048,0.089,0.098,-0.047,-0.005,-0.047,0.827
2024-10-15 13:23:35.149,72566.597,-0.004,0.046,-0.999,-0.112,-0.147,0.06,0.032,0.068,-0.102,-0.004,-0.046,0.826
2024-10-15 13:23:35.159,72566.607,-0.004,0.047,-0.999,-0.072,-0.134,0.013,-0.191,-0.047,-0.125,-0.004,-0.047,0.825
2024-10-15 13:23:35.169,72566.617,-0.004,0.05,-0.999,-0.058,-0.168,-0.071,-0.357,0.018,-0.107,-0.004,-0.05,0.824
2024-10-15 13:23:35.179,72566.627,-0.003,0.054,-0.999,-0.121,-0.126,-0.119,-0.515,0.185,-0.075,-0.003,-0.054,0.823
2024-10-15 13:23:35.189,72566.637,-0.001,0.061,-0.998,-0.174,0.004,-0.054,-0.793,0.126,-0.064,-0.001,-0.061,0.822
2024-10-15 13:23:35.199,72566.647,-0.0,0.068,-0.998,-0.054,-0.082,0.08,-0.71,0.076,-0.097,-0.0,-0.068,0.821
2024-10-15 13:23:35.209,72566.657,-0.0,0.074,-0.997,0.048,-0.126,0.151,-0.487,0.02,-0.172,-0.0,-0.074,0.82
2024-10-15 13:23:35.219,72566.666,-0.0,0.079,-0.997,0.103,-0.07,0.127,-0.44,-0.021,-0.198,-0.0,-0.079,0.818
2024-10-15 13:23:35.229,72566.676,-0.0,0.083,-0.997,0.179,-0.113,0.079,-0.384,-0.001,-0.163,-0.0,-0.083,0.816
2024-10-15 13:23:35.239,72566.686,-0.001,0.086,-0.996,0.227,-0.087,0.022,-0.309,-0.055,-0.162,-0.001,-0.086,0.815
2024-10-15 13:23:35.249,72566.696,-0.001,0.089,-0.996,0.293,-0.028,-0.032,-0.265,-0.04,-0.112,-0.001,-0.089,0.813
2024-10-15 13:23:35.259,72566.706,-0.002,0.091,-0.996,0.329,0.012,-0.066,-0.118,-0.04,-0.075,-0.002,-0.091,0.812
2024-10-15 13:23:35.270,72566.716,-0.003,0.091,-0.996,0.333,0.083,-0.08,0.116,-0.057,-0.103,-0.003,-0.091,0.811
2024-10-15 13:23:35.279,72566.726,-0.003,0.089,-0.996,0.301,0.139,-0.087,0.249,-0.046,-0.089,-0.003,-0.089,0.81
2024-10-15 13:23:35.289,72566.736,-0.004,0.087,-0.996,0.217,0.162,-0.066,0.232,-0.047,-0.086,-0.004,-0.087,0.81
2024-10-15 13:23:35.299,72566.746,-0.004,0.085,-0.996,0.124,0.143,-0.043,0.199,-0.02,-0.073,-0.004,-0.085,0.809
