Date,TimeStamp,GravityX,GravityY,GravityZ,UserAccelerationX,UserAccelerationY,UserAccelerationZ,RotationRateX,RotationRateY,RotationRateZ,AttitudeRoll,AttitudePitch,AttitudeYaw
2024-09-23 11:49:56.150,163328.992,-0.016,0.825,-0.564,-0.002,-0.003,0.004,0.034,0.018,-0.02,-0.029,-0.971,1.023
2024-09-23 11:49:56.159,163329.002,-0.016,0.825,-0.565,-0.002,0.002,0.002,0.051,0.016,-0.009,-0.029,-0.97,1.023
2024-09-23 11:49:56.169,163329.012,-0.016,0.825,-0.565,-0.004,-0.004,0.005,0.062,0.029,-0.008,-0.029,-0.97,1.023
2024-09-23 11:49:56.179,163329.022,-0.016,0.824,-0.566,0.004,-0.01,0.009,0.039,0.02,0.002,-0.029,-0.969,1.023
2024-09-23 11:49:56.189,163329.032,-0.016,0.824,-0.566,-0.006,0.014,0.003,0.022,0.022,0.009,-0.028,-0.969,1.023
2024-09-23 11:49:56.200,163329.042,-0.016,0.824,-0.566,-0.004,-0.015,0.0,0.011,0.024,0.007,-0.028,-0.969,1.023
2024-09-23 11:49:56.210,163329.052,-0.016,0.824,-0.566,0.005,-0.021,0.002,-0.005,0.026,0.004,-0.028,-0.969,1.023
2024-09-23 11:49:56.218,163329.062,-0.015,0.824,-0.566,-0.003,-0.003,-0.001,-0.021,0.024,0.01,-0.027,-0.969,1.023
2024-09-23 11:49:56.228,163329.072,-0.015,0.824,-0.566,-0.002,-0.016,-0.006,-0.027,0.014,0.022,-0.027,-0.969,1.023
2024-09-23 11:49:56.238,163329.082,-0.015,0.825,-0.566,-0.003,-0.016,-0.008,-0.02,0.007,0.02,-0.027,-0.969,1.024
2024-09-23 11:49:56.248,163329.092,-0.015,0.825,-0.565,-0.005,-0.003,-0.001,-0.021,-0.01,0.018,-0.026,-0.97,1.024
2024-09-23 11:49:56.258,163329.102,-0.015,0.825,-0.565,-0.0,-0.002,0.004,-0.008,-0.004,0.022,-0.026,-0.97,1.024
2024-09-23 11:49:56.269,163329.112,-0.015,0.825,-0.565,0.007,-0.003,0.005,-0.018,0.013,0.013,-0.026,-0.97,1.025
2024-09-23 11:49:56.279,163329.122,-0.014,0.825,-0.565,0.008,0.003,0.002,-0.035,0.004,0.002,-0.026,-0.97,1.025
2024-09-23 11:49:56.289,163329.132,-0.014,0.825,-0.565,-0.003,-0.005,-0.005,-0.028,0.005,0.034,-0.025,-0.97,1.025
2024-09-23 11:49:56.299,163329.142,-0.014,0.825,-0.565,-0.008,-0.011,-0.003,-0.008,0.01,0.006,-0.025,-0.971,1.025
2024-09-23 11:49:56.309,163329.152,-0.014,0.825,-0.565,0.006,-0.017,0.009,0.008,0.005,0.017,-0.025,-0.971,1.026
2024-09-23 11:49:56.319,163329.162,-0.014,0.825,-0.565,0.002,0.015,0.002,0.011,0.007,0.004,-0.025,-0.97,1.026
2024-09-23 11:49:56.329,163329.172,-0.014,0.825,-0.565,0.004,0.006,0.007,0.005,0.016,0.01,-0.024,-0.97,1.026
2024-09-23 11:49:56.339,163329.182,-0.013,0.825,-0.565,-0.004,0.006,0.003,-0.007,0.037,0.025,-0.024,-0.97,1.026
2024-09-23 11:49:56.349,163329.192,-0.013,0.825,-0.565,-0.005,-0.011,0.002,-0.04,0.021,0.025,-0.023,-0.971,1.027
2024-09-23 11:49:56.359,163329.202,-0.013,0.825,-0.564,-0.005,-0.013,-0.006,-0.003,0.009,0.039,-0.023,-0.971,1.027
2024-09-23 11:49:56.369,163329.212,-0.012,0.825,-0.565,-0.013,-0.005,-0.011,0.031,0.02,0.009,-0.022,-0.971,1.028
2024-09-23 11:49:56.379,163329.222,-0.012,0.825,-0.565,0.015,-0.023,0.02,0.019,0.013,0.014,-0.022,-0.97,1.028
2024-09-23 11:49:56.389,163329.232,-0.012,0.825,-0.565,0.011,0.03,0.006,-0.004,0.001,0.042,-0.021,-0.97,1.028
2024-09-23 11:49:56.399,163329.242,-0.012,0.825,-0.565,-0.016,0.016,-0.006,0.008,0.02,0.021,-0.021,-0.97,1.029
2024-09-23 11:49:56.409,163329.252,-0.011,0.825,-0.565,0.003,-0.046,0.007,-0.009,0.021,0.036,-0.02,-0.97,1.03
2024-09-23 11:49:56.419,163329.262,-0.011,0.825,-0.565,0.006,-0.006,0.003,-0.031,0.037,0.039,-0.019,-0.971,1.03
2024-09-23 11:49:56.429,163329.272,-0.01,0.825,-0.564,-0.013,0.011,-0.008,-0.052,0.049,0.034,-0.018,-0.971,1.031
2024-09-23 11:49:56.439,163329.282,-0.01,0.826,-0.564,-0.004,-0.035,-0.003,-0.072,0.054,0.059,-0.017,-0.972,1.032
2024-09-23 11:49:56.449,163329.292,-0.009,0.826,-0.563,-0.007,-0.019,-0.005,-0.075,0.071,0.055,-0.016,-0.972,1.032
2024-09-23 11:49:56.459,163329.302,-0.008,0.827,-0.563,-0.013,-0.013,-0.003,-0.106,0.093,0.063,-0.014,-0.973,1.034
2024-09-23 11:49:56.469,163329.312,-0.007,0.827,-0.562,0.004,-0.027,0.006,-0.159,0.086,0.08,-0.012,-0.975,1.035
2024-09-23 11:49:56.479,163329.322,-0.006,0.828,-0.56,-0.015,-0.02,-0.005,-0.193,0.093,0.098,-0.01,-0.976,1.036
2024-09-23 11:49:56.489,163329.332,-0.004,0.83,-0.558,-0.02,-0.034,-0.011,-0.274,0.089,0.093,-0.008,-0.979,1.038
2024-09-23 11:49:56.499,163329.342,-0.003,0.831,-0.556,-0.0,-0.051,-0.009,-0.327,0.087,0.113,-0.005,-0.982,1.04
2024-09-23 11:49:56.509,163329.352,-0.002,0.833,-0.553,-0.013,-0.013,-0.032,-0.386,0.109,0.102,-0.003,-0.985,1.042
2024-09-23 11:49:56.519,163329.362,-0.0,0.836,-0.549,-0.01,-0.039,-0.023,-0.492,0.138,0.098,-0.0,-0.989,1.043
2024-09-23 11:49:56.529,163329.372,0.001,0.839,-0.545,-0.007,-0.024,-0.021,-0.625,0.167,0.092,0.003,-0.995,1.045
2024-09-23 11:49:56.539,163329.382,0.003,0.842,-0.539,-0.02,-0.033,-0.039,-0.729,0.202,0.088,0.006,-1.002,1.047
2024-09-23 11:49:56.549,163329.392,0.005,0.846,-0.532,-0.014,-0.078,-0.052,-0.821,0.241,0.071,0.009,-1.009,1.048
2024-09-23 11:49:56.559,163329.402,0.007,0.851,-0.525,-0.018,-0.069,-0.052,-0.866,0.295,0.071,0.013,-1.018,1.05
2024-09-23 11:49:56.569,163329.412,0.009,0.855,-0.518,-0.031,-0.045,-0.047,-0.907,0.338,0.056,0.018,-1.026,1.051
2024-09-23 11:49:56.579,163329.422,0.012,0.86,-0.51,-0.034,-0.029,-0.046,-0.915,0.364,0.113,0.023,-1.036,1.053
2024-09-23 11:49:56.589,163329.432,0.015,0.865,-0.502,-0.047,-0.007,-0.029,-0.888,0.386,0.099,0.029,-1.045,1.056
2024-09-23 11:49:56.599,163329.442,0.018,0.869,-0.495,-0.04,-0.025,-0.025,-0.814,0.407,0.131,0.035,-1.053,1.059
2024-09-23 11:49:56.608,163329.452,0.021,0.873,-0.488,-0.045,0.015,-0.027,-0.741,0.411,0.149,0.043,-1.061,1.062
2024-09-23 11:49:56.618,163329.462,0.024,0.876,-0.481,-0.047,0.043,-0.011,-0.689,0.41,0.175,0.05,-1.068,1.066
2024-09-23 11:49:56.628,163329.472,0.027,0.879,-0.475,-0.039,0.042,-0.004,-0.674,0.368,0.133,0.058,-1.074,1.07
2024-09-23 11:49:56.638,163329.482,0.029,0.883,-0.469,-0.034,0.031,-0.008,-0.74,0.089,-0.058,0.061,-1.082,1.072
2024-09-23 11:49:56.648,163329.491,0.029,0.886,-0.463,-0.041,0.022,-0.001,-0.638,-0.076,0.013,0.062,-1.088,1.072
2024-09-23 11:49:56.658,163329.501,0.028,0.888,-0.458,-0.101,-0.007,0.036,-0.474,-0.13,-0.038,0.061,-1.094,1.073
2024-09-23 11:49:56.668,163329.511,0.027,0.89,-0.455,-0.117,0.044,0.053,-0.306,-0.176,-0.026,0.059,-1.098,1.072
2024-09-23 11:49:56.678,163329.521,0.026,0.891,-0.453,-0.029,0.073,0.049,-0.135,-0.243,-0.037,0.057,-1.1,1.072
2024-09-23 11:49:56.688,163329.531,0.024,0.892,-0.452,-0.016,0.062,0.066,0.031,-0.289,-0.03,0.054,-1.101,1.071
2024-09-23 11:49:56.698,163329.541,0.023,0.891,-0.453,-0.029,0.075,0.08,0.215,-0.313,-0.019,0.05,-1.1,1.071
2024-09-23 11:49:56.708,163329.551,0.021,0.89,-0.456,-0.02,0.072,0.089,0.389,-0.301,0.017,0.047,-1.097,1.07
2024-09-23 11:49:56.719,163329.561,0.02,0.888,-0.46,-0.009,0.066,0.092,0.535,-0.306,0.017,0.044,-1.092,1.07
2024-09-23 11:49:56.728,163329.571,0.019,0.885,-0.466,0.013,0.063,0.088,0.636,-0.3,0.037,0.041,-1.086,1.07
2024-09-23 11:49:56.739,163329.581,0.018,0.882,-0.472,0.037,0.046,0.073,0.742,-0.266,0.071,0.038,-1.079,1.071
2024-09-23 11:49:56.748,163329.591,0.017,0.878,-0.479,0.043,0.024,0.06,0.801,-0.238,0.075,0.036,-1.071,1.072
2024-09-23 11:49:56.758,163329.601,0.017,0.874,-0.486,0.064,0.015,0.053,0.839,-0.202,0.09,0.035,-1.063,1.073
2024-09-23 11:49:56.769,163329.611,0.017,0.87,-0.493,0.098,0.001,0.037,0.869,-0.177,0.095,0.034,-1.055,1.074
2024-09-23 11:49:56.778,163329.621,0.017,0.865,-0.501,0.11,-0.015,0.021,0.878,-0.158,0.082,0.034,-1.046,1.075
2024-09-23 11:49:56.788,163329.631,0.017,0.861,-0.508,0.115,-0.02,0.008,0.849,-0.155,0.069,0.033,-1.037,1.076
2024-09-23 11:49:56.798,163329.641,0.017,0.857,-0.516,0.123,-0.023,-0.008,0.8,-0.154,0.04,0.032,-1.029,1.077
2024-09-23 11:49:56.808,163329.651,0.016,0.853,-0.522,0.12,-0.035,-0.028,0.71,-0.186,-0.044,0.03,-1.021,1.076
2024-09-23 11:49:56.818,163329.661,0.014,0.849,-0.528,0.116,-0.047,-0.043,0.602,-0.219,-0.12,0.026,-1.015,1.074
2024-09-23 11:49:56.828,163329.671,0.011,0.847,-0.532,0.095,-0.053,-0.043,0.424,-0.248,-0.167,0.021,-1.01,1.072
2024-09-23 11:49:56.839,163329.681,0.009,0.845,-0.535,0.057,-0.05,-0.024,0.352,-0.275,-0.154,0.016,-1.006,1.068
2024-09-23 11:49:56.848,163329.691,0.006,0.843,-0.538,0.029,-0.044,-0.014,0.315,-0.271,-0.146,0.011,-1.002,1.066
2024-09-23 11:49:56.857,163329.701,0.003,0.841,-0.541,0.007,-0.04,-0.014,0.306,-0.262,-0.122,0.006,-0.999,1.063
2024-09-23 11:49:56.867,163329.711,0.001,0.839,-0.543,0.009,-0.015,0.006,0.295,-0.249,-0.102,0.002,-0.996,1.061
2024-09-23 11:49:56.877,163329.721,-0.001,0.838,-0.546,-0.001,0.007,0.011,0.296,-0.22,-0.069,-0.002,-0.993,1.059
2024-09-23 11:49:56.888,163329.731,-0.003,0.836,-0.548,-0.014,0.02,0.006,0.31,-0.183,-0.056,-0.005,-0.99,1.058
2024-09-23 11:49:56.897,163329.741,-0.004,0.835,-0.551,-0.019,0.01,-0.003,0.292,-0.152,-0.057,-0.007,-0.987,1.057
2024-09-23 11:49:56.908,163329.751,-0.005,0.833,-0.553,-0.024,0.008,-0.003,0.276,-0.145,-0.04,-0.009,-0.984,1.056
2024-09-23 11:49:56.918,163329.761,-0.006,0.832,-0.555,-0.026,-0.005,-0.004,0.251,-0.128,-0.031,-0.011,-0.982,1.056
2024-09-23 11:49:56.928,163329.771,-0.007,0.83,-0.557,-0.017,-0.02,-0.004,0.232,-0.115,-0.018,-0.013,-0.979,1.055
2024-09-23 11:49:56.938,163329.781,-0.008,0.829,-0.559,-0.01,-0.012,-0.001,0.216,-0.098,-0.008,-0.014,-0.977,1.055
2024-09-23 11:49:56.948,163329.791,-0.008,0.828,-0.561,-0.011,-0.006,-0.001,0.174,-0.088,-0.005,-0.015,-0.975,1.055
2024-09-23 11:49:56.958,163329.801,-0.009,0.827,-0.562,-0.01,0.001,0.0,0.117,-0.071,-0.002,-0.016,-0.974,1.055
2024-09-23 11:49:56.969,163329.811,-0.009,0.827,-0.563,-0.011,-0.005,-0.011,0.062,-0.044,-0.008,-0.016,-0.973,1.055
2024-09-23 11:49:56.977,163329.821,-0.009,0.826,-0.563,-0.009,-0.016,-0.02,0.004,-0.031,-0.014,-0.017,-0.973,1.055
2024-09-23 11:49:56.987,163329.831,-0.01,0.826,-0.563,-0.006,-0.028,-0.016,-0.031,-0.022,-0.025,-0.017,-0.973,1.055
2024-09-23 11:49:56.997,163329.841,-0.01,0.827,-0.563,-0.005,-0.036,-0.018,-0.01,-0.029,-0.032,-0.018,-0.973,1.054
2024-09-23 11:49:57.007,163329.851,-0.011,0.826,-0.563,0.002,-0.021,-0.016,0.059,-0.046,-0.041,-0.019,-0.973,1.053
2024-09-23 11:49:57.017,163329.861,-0.011,0.826,-0.564,0.01,0.001,0.002,0.136,-0.056,-0.051,-0.02,-0.972,1.053
2024-09-23 11:49:57.028,163329.871,-0.012,0.825,-0.565,0.014,0.028,0.022,0.193,-0.082,-0.049,-0.022,-0.97,1.052
2024-09-23 11:49:57.038,163329.881,-0.013,0.824,-0.567,0.014,0.035,0.028,0.219,-0.097,-0.047,-0.023,-0.968,1.051
2024-09-23 11:49:57.048,163329.891,-0.014,0.822,-0.569,0.014,0.029,0.022,0.228,-0.099,-0.044,-0.025,-0.966,1.05
2024-09-23 11:49:57.058,163329.901,-0.015,0.821,-0.571,0.009,0.016,0.015,0.2,-0.091,-0.05,-0.026,-0.963,1.049
2024-09-23 11:49:57.068,163329.911,-0.016,0.82,-0.572,0.004,0.002,0.012,0.131,-0.069,-0.056,-0.028,-0.962,1.049
2024-09-23 11:49:57.078,163329.921,-0.017,0.82,-0.573,0.002,-0.014,0.002,0.047,-0.049,-0.056,-0.029,-0.961,1.048
2024-09-23 11:49:57.088,163329.931,-0.017,0.82,-0.573,-0.002,-0.028,-0.013,-0.03,-0.025,-0.059,-0.03,-0.961,1.047
2024-09-23 11:49:57.098,163329.941,-0.018,0.82,-0.572,-0.005,-0.049,-0.021,-0.073,-0.006,-0.05,-0.031,-0.961,1.046
2024-09-23 11:49:57.108,163329.951,-0.018,0.82,-0.572,-0.004,-0.042,-0.022,-0.09,0.003,-0.04,-0.032,-0.962,1.045
2024-09-23 11:49:57.118,163329.961,-0.018,0.821,-0.571,-0.011,-0.032,-0.013,-0.07,-0.0,-0.026,-0.032,-0.963,1.044
2024-09-23 11:49:57.127,163329.971,-0.019,0.821,-0.57,-0.009,-0.014,-0.004,-0.019,-0.006,-0.02,-0.033,-0.963,1.044
2024-09-23 11:49:57.138,163329.981,-0.019,0.821,-0.57,-0.007,0.005,0.003,0.053,-0.019,-0.017,-0.033,-0.963,1.044
2024-09-23 11:49:57.147,163329.991,-0.019,0.821,-0.571,-0.0,0.018,0.016,0.104,-0.02,-0.023,-0.033,-0.963,1.044
2024-09-23 11:49:57.158,163330.001,-0.019,0.82,-0.572,0.006,0.03,0.023,0.129,-0.011,-0.035,-0.034,-0.961,1.043
2024-09-23 11:49:57.167,163330.011,-0.02,0.819,-0.573,0.009,0.029,0.02,0.118,-0.004,-0.038,-0.034,-0.96,1.043
2024-09-23 11:49:57.177,163330.021,-0.02,0.819,-0.574,0.006,0.017,0.008,0.093,0.002,-0.048,-0.035,-0.959,1.042
2024-09-23 11:49:57.188,163330.031,-0.02,0.818,-0.575,0.001,-0.001,-0.001,0.07,0.016,-0.046,-0.036,-0.958,1.041
2024-09-23 11:49:57.197,163330.041,-0.021,0.818,-0.575,-0.0,-0.013,-0.008,0.058,0.017,-0.044,-0.036,-0.957,1.04
2024-09-23 11:49:57.207,163330.051,-0.021,0.817,-0.576,-0.004,-0.019,-0.006,0.064,0.01,-0.045,-0.036,-0.957,1.04
2024-09-23 11:49:57.217,163330.061,-0.021,0.817,-0.576,-0.002,-0.01,-0.002,0.093,0.001,-0.046,-0.037,-0.956,1.039
2024-09-23 11:49:57.228,163330.07,-0.022,0.816,-0.577,0.003,0.0,0.005,0.111,-0.013,-0.052,-0.038,-0.955,1.038
2024-09-23 11:49:57.237,163330.08,-0.022,0.816,-0.578,0.009,0.01,0.012,0.151,-0.032,-0.055,-0.039,-0.954,1.037
2024-09-23 11:49:57.247,163330.09,-0.023,0.815,-0.58,0.013,0.02,0.011,0.197,-0.052,-0.064,-0.04,-0.952,1.036
2024-09-23 11:49:57.257,163330.1,-0.024,0.813,-0.581,0.014,0.02,0.011,0.221,-0.072,-0.05,-0.041,-0.95,1.036
2024-09-23 11:49:57.267,163330.11,-0.025,0.812,-0.583,0.013,0.026,0.017,0.215,-0.059,-0.02,-0.042,-0.948,1.035
2024-09-23 11:49:57.277,163330.12,-0.025,0.811,-0.584,0.01,0.016,0.017,0.098,-0.036,-0.028,-0.043,-0.946,1.035
2024-09-23 11:49:57.287,163330.13,-0.025,0.811,-0.585,-0.003,-0.01,0.002,-0.007,-0.039,0.018,-0.043,-0.946,1.035
2024-09-23 11:49:57.297,163330.14,-0.025,0.811,-0.584,-0.027,-0.028,-0.028,-0.065,-0.023,0.01,-0.043,-0.946,1.035
2024-09-23 11:49:57.307,163330.15,-0.025,0.812,-0.584,-0.01,-0.09,-0.02,-0.068,-0.016,0.018,-0.043,-0.947,1.035
2024-09-23 11:49:57.317,163330.16,-0.025,0.812,-0.583,-0.012,-0.04,-0.023,-0.065,-0.034,0.015,-0.043,-0.948,1.036
2024-09-23 11:49:57.327,163330.17,-0.025,0.812,-0.583,-0.008,-0.005,-0.004,-0.021,-0.02,0.025,-0.043,-0.948,1.036
2024-09-23 11:49:57.337,163330.18,-0.025,0.812,-0.583,0.001,-0.006,0.001,-0.001,-0.026,0.024,-0.043,-0.948,1.036
2024-09-23 11:49:57.347,163330.19,-0.025,0.812,-0.583,0.0,0.004,0.014,-0.002,-0.031,0.031,-0.043,-0.948,1.037
2024-09-23 11:49:57.357,163330.2,-0.025,0.812,-0.583,0.005,0.012,0.011,0.011,-0.023,0.021,-0.043,-0.948,1.037
2024-09-23 11:49:57.366,163330.21,-0.025,0.812,-0.583,-0.001,0.001,-0.005,-0.019,-0.015,0.026,-0.043,-0.948,1.038
2024-09-23 11:49:57.376,163330.22,-0.025,0.813,-0.582,0.002,-0.004,0.013,-0.062,-0.037,0.051,-0.043,-0.949,1.038
2024-09-23 11:49:57.386,163330.23,-0.025,0.813,-0.582,-0.005,-0.015,-0.01,-0.034,-0.017,0.042,-0.042,-0.949,1.039
2024-09-23 11:49:57.396,163330.24,-0.024,0.813,-0.582,-0.009,-0.027,-0.016,-0.105,-0.042,0.039,-0.042,-0.95,1.04
2024-09-23 11:49:57.406,163330.25,-0.024,0.814,-0.581,0.0,-0.011,0.015,-0.089,-0.026,0.049,-0.042,-0.951,1.041
2024-09-23 11:49:57.417,163330.26,-0.024,0.814,-0.58,-0.002,-0.016,-0.014,-0.121,-0.06,0.041,-0.042,-0.952,1.041
2024-09-23 11:49:57.427,163330.27,-0.024,0.815,-0.579,0.008,-0.019,-0.008,-0.07,-0.038,0.026,-0.042,-0.953,1.042
2024-09-23 11:49:57.437,163330.28,-0.024,0.815,-0.578,0.004,-0.004,0.004,-0.095,-0.062,0.019,-0.042,-0.953,1.042
2024-09-23 11:49:57.447,163330.29,-0.024,0.816,-0.578,0.008,0.001,0.003,-0.043,-0.055,0.032,-0.042,-0.954,1.042
2024-09-23 11:49:57.457,163330.3,-0.024,0.816,-0.578,0.004,-0.0,-0.001,-0.025,-0.048,0.006,-0.042,-0.954,1.043
2024-09-23 11:49:57.467,163330.31,-0.025,0.816,-0.577,0.007,-0.001,-0.004,-0.108,-0.065,0.014,-0.043,-0.955,1.043
2024-09-23 11:49:57.478,163330.32,-0.025,0.817,-0.576,-0.008,0.019,0.02,-0.082,-0.064,0.029,-0.043,-0.956,1.043
2024-09-23 11:49:57.486,163330.33,-0.025,0.817,-0.576,-0.002,-0.037,-0.027,-0.095,-0.057,0.002,-0.044,-0.957,1.043
2024-09-23 11:49:57.497,163330.34,-0.025,0.818,-0.575,0.01,-0.019,-0.002,-0.137,-0.079,0.037,-0.044,-0.958,1.043
2024-09-23 11:49:57.507,163330.35,-0.026,0.819,-0.574,-0.006,0.026,0.003,-0.095,-0.076,0.006,-0.045,-0.959,1.044
2024-09-23 11:49:57.516,163330.36,-0.026,0.819,-0.573,0.007,-0.044,-0.021,-0.113,-0.091,0.001,-0.045,-0.96,1.044
2024-09-23 11:49:57.527,163330.37,-0.026,0.82,-0.572,0.008,0.003,0.019,-0.081,-0.096,0.015,-0.046,-0.961,1.044
2024-09-23 11:49:57.537,163330.38,-0.027,0.82,-0.572,-0.001,0.011,-0.001,-0.046,-0.09,0.02,-0.047,-0.961,1.044
2024-09-23 11:49:57.547,163330.39,-0.027,0.82,-0.571,0.01,-0.006,-0.001,-0.036,-0.084,0.02,-0.047,-0.962,1.045
2024-09-23 11:49:57.557,163330.4,-0.028,0.821,-0.571,-0.004,0.007,0.012,-0.086,-0.106,0.01,-0.048,-0.963,1.045
2024-09-23 11:49:57.567,163330.41,-0.028,0.821,-0.57,-0.003,-0.007,0.005,-0.019,-0.072,0.031,-0.049,-0.963,1.045
2024-09-23 11:49:57.577,163330.42,-0.028,0.821,-0.57,-0.001,-0.012,-0.009,-0.063,-0.048,0.009,-0.049,-0.963,1.046
2024-09-23 11:49:57.587,163330.43,-0.028,0.822,-0.569,0.003,-0.004,0.005,-0.151,-0.042,0.011,-0.049,-0.964,1.046
2024-09-23 11:49:57.597,163330.44,-0.028,0.823,-0.568,-0.012,-0.005,-0.003,-0.192,0.005,0.019,-0.049,-0.966,1.046
2024-09-23 11:49:57.608,163330.45,-0.028,0.824,-0.566,0.002,-0.059,-0.031,-0.276,0.029,0.013,-0.049,-0.968,1.046
2024-09-23 11:49:57.617,163330.46,-0.027,0.826,-0.564,-0.01,-0.034,-0.011,-0.284,0.052,0.032,-0.049,-0.971,1.046
2024-09-23 11:49:57.626,163330.47,-0.027,0.827,-0.561,-0.018,-0.038,-0.017,-0.269,0.059,0.023,-0.048,-0.974,1.046
2024-09-23 11:49:57.636,163330.48,-0.026,0.829,-0.559,0.0,-0.037,-0.02,-0.252,0.071,0.024,-0.047,-0.977,1.047
2024-09-23 11:49:57.646,163330.49,-0.026,0.83,-0.557,-0.013,0.019,0.009,-0.266,0.107,0.024,-0.046,-0.979,1.047
2024-09-23 11:49:57.656,163330.5,-0.025,0.831,-0.555,-0.008,0.01,-0.002,-0.281,0.118,0.039,-0.045,-0.982,1.047
2024-09-23 11:49:57.666,163330.51,-0.024,0.833,-0.553,-0.011,0.012,-0.012,-0.235,0.125,0.036,-0.043,-0.984,1.048
2024-09-23 11:49:57.677,163330.52,-0.023,0.834,-0.551,-0.017,-0.015,-0.007,-0.145,0.128,0.024,-0.041,-0.986,1.048
2024-09-23 11:49:57.687,163330.53,-0.022,0.834,-0.551,0.003,-0.003,0.009,-0.078,0.124,0.007,-0.04,-0.987,1.048
2024-09-23 11:49:57.697,163330.54,-0.021,0.835,-0.55,0.001,0.046,0.025,-0.051,0.103,0.015,-0.039,-0.988,1.048
2024-09-23 11:49:57.706,163330.55,-0.021,0.835,-0.55,0.006,0.031,0.017,-0.033,0.083,0.012,-0.038,-0.988,1.048
2024-09-23 11:49:57.716,163330.56,-0.02,0.835,-0.55,0.005,0.006,0.004,0.017,0.063,0.001,-0.037,-0.988,1.048
2024-09-23 11:49:57.726,163330.57,-0.02,0.835,-0.55,0.008,0.005,0.006,0.049,0.046,-0.007,-0.037,-0.988,1.048
2024-09-23 11:49:57.737,163330.58,-0.02,0.834,-0.551,0.009,0.016,0.015,0.077,0.034,-0.011,-0.036,-0.987,1.048
2024-09-23 11:49:57.746,163330.59,-0.02,0.834,-0.552,0.01,0.014,0.015,0.109,0.02,-0.023,-0.036,-0.986,1.048
2024-09-23 11:49:57.756,163330.6,-0.02,0.833,-0.553,0.008,0.004,0.011,0.139,0.006,-0.034,-0.037,-0.985,1.047
2024-09-23 11:49:57.766,163330.61,-0.021,0.832,-0.554,0.008,0.014,0.01,0.16,-0.008,-0.042,-0.037,-0.983,1.047
2024-09-23 11:49:57.776,163330.62,-0.021,0.831,-0.555,0.01,0.016,0.009,0.177,-0.026,-0.046,-0.038,-0.982,1.046
2024-09-23 11:49:57.787,163330.63,-0.022,0.83,-0.557,0.011,0.015,0.01,0.193,-0.044,-0.048,-0.039,-0.98,1.046
2024-09-23 11:49:57.797,163330.64,-0.022,0.829,-0.558,0.01,0.01,0.01,0.196,-0.063,-0.045,-0.04,-0.978,1.045
2024-09-23 11:49:57.807,163330.65,-0.023,0.828,-0.56,0.01,0.006,0.007,0.206,-0.073,-0.041,-0.041,-0.976,1.044
2024-09-23 11:49:57.817,163330.659,-0.024,0.827,-0.561,0.005,0.005,0.005,0.202,-0.075,-0.044,-0.042,-0.974,1.044
2024-09-23 11:49:57.827,163330.669,-0.024,0.826,-0.563,0.006,0.002,0.008,0.191,-0.086,-0.039,-0.043,-0.972,1.043
2024-09-23 11:49:57.836,163330.679,-0.025,0.825,-0.564,0.002,0.002,0.005,0.157,-0.037,-0.034,-0.044,-0.971,1.043
2024-09-23 11:49:57.847,163330.689,-0.025,0.825,-0.565,0.001,-0.006,0.005,0.028,-0.022,-0.037,-0.045,-0.97,1.042
2024-09-23 11:49:57.856,163330.699,-0.026,0.825,-0.565,-0.012,-0.002,-0.013,-0.042,-0.008,-0.006,-0.045,-0.97,1.042
2024-09-23 11:49:57.867,163330.709,-0.026,0.825,-0.564,-0.025,-0.046,-0.038,-0.032,0.003,-0.005,-0.045,-0.97,1.042
2024-09-23 11:49:57.875,163330.719,-0.026,0.825,-0.564,0.004,-0.073,-0.015,-0.011,0.007,-0.001,-0.045,-0.971,1.042
2024-09-23 11:49:57.885,163330.729,-0.026,0.825,-0.564,-0.01,0.007,0.0,0.015,0.01,0.006,-0.045,-0.971,1.042
2024-09-23 11:49:57.895,163330.739,-0.025,0.825,-0.564,-0.002,0.006,0.009,0.059,0.017,0.001,-0.045,-0.971,1.042
2024-09-23 11:49:57.905,163330.749,-0.025,0.825,-0.565,-0.0,0.008,0.01,0.055,0.014,0.004,-0.045,-0.97,1.042
2024-09-23 11:49:57.916,163330.759,-0.025,0.825,-0.565,0.0,0.015,0.017,0.046,0.006,0.01,-0.044,-0.969,1.042
2024-09-23 11:49:57.926,163330.769,-0.025,0.824,-0.566,-0.004,-0.002,0.007,0.044,0.009,0.008,-0.044,-0.969,1.043
2024-09-23 11:49:57.937,163330.779,-0.025,0.824,-0.566,0.005,-0.02,-0.004,0.016,0.017,-0.0,-0.044,-0.969,1.043
2024-09-23 11:49:57.947,163330.789,-0.025,0.824,-0.566,0.006,-0.009,0.001,-0.009,0.035,0.002,-0.044,-0.968,1.043
2024-09-23 11:49:57.956,163330.799,-0.025,0.824,-0.566,0.0,-0.008,-0.005,-0.049,0.019,-0.004,-0.044,-0.969,1.042
2024-09-23 11:49:57.966,163330.809,-0.025,0.824,-0.566,-0.008,-0.019,-0.012,-0.031,0.015,0.009,-0.043,-0.969,1.043
2024-09-23 11:49:57.977,163330.819,-0.024,0.824,-0.565,-0.011,-0.027,-0.006,-0.005,0.022,0.021,-0.043,-0.969,1.043
2024-09-23 11:49:57.986,163330.829,-0.024,0.825,-0.565,0.005,-0.017,0.008,0.001,0.013,0.02,-0.043,-0.969,1.043
2024-09-23 11:49:57.997,163330.839,-0.024,0.825,-0.565,-0.007,0.02,0.008,0.006,0.016,0.015,-0.042,-0.969,1.043
2024-09-23 11:49:58.006,163330.849,-0.024,0.824,-0.565,-0.002,-0.009,0.01,0.011,0.006,0.022,-0.042,-0.969,1.044
2024-09-23 11:49:58.016,163330.859,-0.024,0.824,-0.565,0.001,-0.006,0.002,0.01,0.002,0.017,-0.042,-0.969,1.044
2024-09-23 11:49:58.026,163330.869,-0.023,0.824,-0.566,-0.005,0.003,-0.001,-0.0,-0.002,0.017,-0.041,-0.969,1.044
2024-09-23 11:49:58.036,163330.879,-0.023,0.824,-0.565,0.007,-0.005,-0.003,-0.026,0.003,0.016,-0.041,-0.969,1.045
2024-09-23 11:49:58.046,163330.889,-0.023,0.825,-0.565,-0.001,-0.001,-0.005,-0.068,0.004,0.006,-0.041,-0.97,1.045
2024-09-23 11:49:58.056,163330.899,-0.023,0.825,-0.565,0.0,-0.01,-0.01,-0.075,-0.007,0.021,-0.041,-0.97,1.045
2024-09-23 11:49:58.066,163330.909,-0.023,0.825,-0.564,-0.008,-0.018,-0.017,-0.046,0.002,0.009,-0.041,-0.971,1.045
2024-09-23 11:49:58.076,163330.919,-0.023,0.826,-0.564,-0.001,-0.024,-0.001,-0.017,0.01,0.016,-0.041,-0.971,1.045
2024-09-23 11:49:58.086,163330.929,-0.023,0.826,-0.564,0.01,-0.001,0.014,-0.011,0.011,0.004,-0.04,-0.971,1.045
2024-09-23 11:49:58.096,163330.939,-0.023,0.826,-0.564,-0.001,0.015,0.005,-0.002,0.009,0.026,-0.04,-0.971,1.046
2024-09-23 11:49:58.106,163330.949,-0.022,0.826,-0.564,-0.008,0.006,0.005,0.012,0.005,0.015,-0.04,-0.971,1.046
2024-09-23 11:49:58.116,163330.959,-0.022,0.826,-0.564,0.0,-0.012,0.009,0.023,0.001,0.008,-0.039,-0.971,1.046
2024-09-23 11:49:58.126,163330.969,-0.022,0.825,-0.564,0.002,0.007,0.004,-0.001,0.013,0.007,-0.039,-0.971,1.046
2024-09-23 11:49:58.135,163330.979,-0.022,0.826,-0.564,0.01,0.009,0.001,-0.048,-0.002,0.008,-0.039,-0.971,1.047
2024-09-23 11:49:58.145,163330.989,-0.022,0.826,-0.564,-0.002,0.002,-0.014,-0.026,0.021,0.03,-0.039,-0.972,1.047
2024-09-23 11:49:58.155,163330.999,-0.022,0.826,-0.563,-0.011,-0.033,-0.01,-0.032,0.011,0.0,-0.038,-0.972,1.047
2024-09-23 11:49:58.165,163331.009,-0.021,0.826,-0.563,0.009,-0.028,0.011,-0.03,0.019,0.044,-0.038,-0.972,1.048
2024-09-23 11:49:58.175,163331.019,-0.021,0.826,-0.563,-0.014,0.025,-0.004,-0.044,0.004,0.029,-0.037,-0.973,1.048
2024-09-23 11:49:58.185,163331.029,-0.021,0.827,-0.562,-0.003,-0.034,0.001,-0.03,0.01,0.041,-0.037,-0.973,1.049
2024-09-23 11:49:58.196,163331.039,-0.02,0.827,-0.562,-0.008,0.0,0.008,-0.016,0.023,0.024,-0.036,-0.973,1.049
2024-09-23 11:49:58.205,163331.049,-0.02,0.827,-0.562,0.008,-0.011,0.006,-0.031,0.028,0.024,-0.036,-0.973,1.05
2024-09-23 11:49:58.215,163331.059,-0.02,0.827,-0.562,0.002,0.015,-0.003,-0.036,0.045,0.03,-0.035,-0.974,1.05
2024-09-23 11:49:58.225,163331.069,-0.019,0.827,-0.562,-0.008,-0.008,-0.002,-0.044,0.062,0.027,-0.034,-0.974,1.051
2024-09-23 11:49:58.236,163331.079,-0.018,0.828,-0.561,0.0,-0.031,0.001,-0.066,0.056,0.043,-0.033,-0.975,1.051
2024-09-23 11:49:58.246,163331.089,-0.018,0.828,-0.561,-0.009,-0.005,-0.005,-0.074,0.083,0.04,-0.032,-0.975,1.052
2024-09-23 11:49:58.256,163331.099,-0.017,0.828,-0.56,-0.008,-0.033,0.005,-0.117,0.097,0.048,-0.03,-0.976,1.053
2024-09-23 11:49:58.265,163331.109,-0.016,0.829,-0.559,-0.003,-0.02,0.001,-0.186,0.094,0.066,-0.028,-0.978,1.053
2024-09-23 11:49:58.275,163331.119,-0.015,0.83,-0.557,-0.023,-0.004,-0.013,-0.228,0.105,0.069,-0.027,-0.98,1.055
2024-09-23 11:49:58.286,163331.129,-0.014,0.832,-0.555,-0.01,-0.054,-0.013,-0.269,0.109,0.08,-0.024,-0.982,1.056
2024-09-23 11:49:58.295,163331.139,-0.012,0.834,-0.552,-0.004,-0.031,-0.016,-0.358,0.142,0.077,-0.022,-0.985,1.057
2024-09-23 11:49:58.305,163331.149,-0.011,0.836,-0.549,-0.016,-0.014,-0.015,-0.475,0.194,0.072,-0.02,-0.99,1.058
2024-09-23 11:49:58.316,163331.159,-0.009,0.839,-0.545,-0.017,-0.042,-0.034,-0.591,0.241,0.076,-0.017,-0.995,1.059
2024-09-23 11:49:58.325,163331.169,-0.007,0.842,-0.54,-0.028,-0.054,-0.057,-0.632,0.296,0.064,-0.013,-1.001,1.06
2024-09-23 11:49:58.335,163331.179,-0.005,0.845,-0.534,-0.029,-0.065,-0.055,-0.629,0.343,0.065,-0.009,-1.007,1.061
2024-09-23 11:49:58.345,163331.189,-0.002,0.849,-0.529,-0.03,-0.035,-0.039,-0.601,0.338,0.072,-0.005,-1.013,1.062
2024-09-23 11:49:58.355,163331.199,0.0,0.852,-0.524,-0.035,0.001,-0.025,-0.578,0.327,0.122,0.0,-1.019,1.064
2024-09-23 11:49:58.365,163331.209,0.003,0.854,-0.52,-0.037,0.02,-0.015,-0.469,0.319,0.163,0.006,-1.025,1.067
2024-09-23 11:49:58.376,163331.219,0.006,0.857,-0.516,-0.043,0.034,-0.004,-0.326,0.322,0.165,0.012,-1.028,1.07
2024-09-23 11:49:58.385,163331.229,0.009,0.858,-0.514,-0.021,0.052,0.012,-0.186,0.31,0.186,0.018,-1.031,1.074
2024-09-23 11:49:58.394,163331.238,0.012,0.859,-0.513,-0.016,0.071,0.031,-0.157,0.143,0.011,0.023,-1.032,1.076
2024-09-23 11:49:58.404,163331.248,0.011,0.859,-0.511,-0.012,0.055,0.033,-0.215,-0.13,-0.073,0.022,-1.034,1.075
2024-09-23 11:49:58.415,163331.258,0.01,0.86,-0.51,-0.033,0.041,0.044,-0.156,-0.179,-0.033,0.019,-1.036,1.075
2024-09-23 11:49:58.425,163331.268,0.009,0.861,-0.509,-0.131,0.022,0.101,-0.036,-0.182,-0.011,0.017,-1.037,1.074
2024-09-23 11:49:58.435,163331.278,0.008,0.861,-0.509,-0.1,0.065,0.106,0.05,-0.226,-0.026,0.015,-1.037,1.074
2024-09-23 11:49:58.445,163331.288,0.006,0.86,-0.51,-0.028,0.046,0.051,0.11,-0.255,-0.018,0.012,-1.036,1.074
2024-09-23 11:49:58.455,163331.298,0.005,0.86,-0.511,-0.069,0.07,0.084,0.182,-0.27,0.004,0.01,-1.035,1.073
2024-09-23 11:49:58.465,163331.308,0.004,0.858,-0.513,-0.072,0.045,0.087,0.267,-0.279,0.02,0.007,-1.032,1.074
2024-09-23 11:49:58.475,163331.318,0.002,0.857,-0.515,-0.038,0.034,0.062,0.35,-0.266,0.033,0.005,-1.029,1.074
2024-09-23 11:49:58.485,163331.328,0.001,0.855,-0.519,-0.012,0.031,0.043,0.438,-0.239,0.048,0.003,-1.025,1.075
2024-09-23 11:49:58.495,163331.338,0.001,0.852,-0.523,0.018,0.005,0.021,0.513,-0.199,0.055,0.001,-1.02,1.076
2024-09-23 11:49:58.505,163331.348,0.0,0.85,-0.528,0.04,0.001,0.012,0.563,-0.158,0.062,0.001,-1.015,1.077
2024-09-23 11:49:58.515,163331.358,0.0,0.846,-0.532,0.063,-0.008,0.003,0.613,-0.117,0.074,0.0,-1.009,1.078
2024-09-23 11:49:58.525,163331.368,0.0,0.843,-0.538,0.089,-0.038,-0.007,0.616,-0.096,0.047,0.0,-1.003,1.079
2024-09-23 11:49:58.535,163331.378,-0.0,0.84,-0.543,0.108,-0.033,-0.025,0.612,-0.095,0.025,-0.0,-0.997,1.08
2024-09-23 11:49:58.545,163331.388,-0.001,0.837,-0.548,0.117,-0.029,-0.043,0.577,-0.091,-0.018,-0.001,-0.991,1.08
2024-09-23 11:49:58.555,163331.398,-0.002,0.834,-0.552,0.124,-0.036,-0.037,0.521,-0.095,-0.087,-0.003,-0.986,1.079
2024-09-23 11:49:58.565,163331.408,-0.003,0.831,-0.556,0.129,-0.026,-0.035,0.443,-0.103,-0.175,-0.006,-0.981,1.077
2024-09-23 11:49:58.575,163331.418,-0.005,0.829,-0.56,0.124,-0.033,-0.041,0.357,-0.115,-0.22,-0.01,-0.977,1.073
2024-09-23 11:49:58.585,163331.428,-0.008,0.827,-0.562,0.094,-0.036,-0.034,0.298,-0.129,-0.224,-0.014,-0.973,1.069
2024-09-23 11:49:58.595,163331.438,-0.011,0.825,-0.565,0.048,-0.036,-0.023,0.289,-0.131,-0.208,-0.019,-0.97,1.066
2024-09-23 11:49:58.605,163331.448,-0.013,0.823,-0.567,0.022,-0.027,-0.012,0.331,-0.137,-0.183,-0.023,-0.967,1.062
2024-09-23 11:49:58.615,163331.458,-0.015,0.821,-0.57,0.007,0.001,0.003,0.396,-0.14,-0.155,-0.026,-0.964,1.059
2024-09-23 11:49:58.625,163331.468,-0.017,0.819,-0.574,-0.003,0.02,0.015,0.456,-0.141,-0.129,-0.03,-0.959,1.057
2024-09-23 11:49:58.636,163331.478,-0.019,0.816,-0.578,-0.003,0.043,0.029,0.474,-0.123,-0.097,-0.032,-0.955,1.055
2024-09-23 11:49:58.645,163331.488,-0.02,0.813,-0.581,-0.006,0.028,0.032,0.446,-0.096,-0.078,-0.035,-0.95,1.054
2024-09-23 11:49:58.655,163331.498,-0.021,0.811,-0.585,-0.01,0.026,0.019,0.344,-0.066,-0.05,-0.036,-0.946,1.053
2024-09-23 11:49:58.665,163331.508,-0.022,0.809,-0.587,-0.022,0.003,0.001,0.227,-0.028,-0.032,-0.037,-0.943,1.053
2024-09-23 11:49:58.675,163331.518,-0.022,0.808,-0.588,-0.029,-0.045,-0.018,0.116,0.013,-0.014,-0.037,-0.941,1.052
2024-09-23 11:49:58.685,163331.528,-0.022,0.808,-0.589,-0.033,-0.05,-0.026,0.03,0.041,-0.004,-0.037,-0.941,1.052
2024-09-23 11:49:58.695,163331.538,-0.022,0.808,-0.589,-0.033,-0.046,-0.025,-0.02,0.054,0.003,-0.037,-0.941,1.052
2024-09-23 11:49:58.705,163331.548,-0.021,0.808,-0.589,-0.025,-0.039,-0.024,-0.028,0.052,0.007,-0.036,-0.941,1.052
2024-09-23 11:49:58.715,163331.558,-0.021,0.808,-0.588,-0.009,-0.028,-0.013,-0.019,0.033,0.005,-0.036,-0.941,1.053
2024-09-23 11:49:58.725,163331.568,-0.021,0.808,-0.588,0.003,-0.014,-0.004,0.021,0.018,0.001,-0.035,-0.941,1.053
2024-09-23 11:49:58.735,163331.578,-0.021,0.808,-0.589,0.009,0.002,0.004,0.067,0.008,-0.011,-0.035,-0.941,1.053
2024-09-23 11:49:58.744,163331.588,-0.021,0.808,-0.589,0.015,0.013,0.011,0.089,-0.007,-0.015,-0.035,-0.94,1.052
2024-09-23 11:49:58.755,163331.598,-0.021,0.807,-0.59,0.014,0.022,0.014,0.08,-0.014,-0.017,-0.036,-0.939,1.052
2024-09-23 11:49:58.765,163331.608,-0.021,0.807,-0.591,0.01,0.006,0.007,0.071,-0.01,-0.025,-0.036,-0.938,1.052
2024-09-23 11:49:58.774,163331.618,-0.022,0.806,-0.591,0.008,-0.002,-0.002,0.052,0.007,-0.031,-0.037,-0.938,1.051
2024-09-23 11:49:58.785,163331.628,-0.022,0.806,-0.592,0.004,-0.011,-0.003,0.032,0.008,-0.043,-0.037,-0.937,1.051
2024-09-23 11:49:58.794,163331.638,-0.022,0.806,-0.592,0.002,-0.011,-0.005,0.019,0.016,-0.048,-0.038,-0.937,1.05
2024-09-23 11:49:58.804,163331.648,-0.023,0.806,-0.592,0.001,-0.011,-0.001,0.016,0.01,-0.043,-0.038,-0.937,1.049
2024-09-23 11:49:58.814,163331.658,-0.023,0.805,-0.592,0.002,-0.009,-0.003,0.045,0.001,-0.043,-0.039,-0.936,1.048
2024-09-23 11:49:58.824,163331.668,-0.023,0.805,-0.593,0.0,-0.007,0.001,0.087,-0.017,-0.041,-0.039,-0.936,1.048
2024-09-23 11:49:58.835,163331.678,-0.024,0.804,-0.594,0.005,0.011,0.007,0.15,-0.03,-0.046,-0.04,-0.935,1.047
2024-09-23 11:49:58.845,163331.688,-0.024,0.803,-0.595,0.006,0.024,0.017,0.213,-0.044,-0.044,-0.041,-0.933,1.047
2024-09-23 11:49:58.855,163331.698,-0.025,0.802,-0.597,0.007,0.03,0.018,0.254,-0.058,-0.042,-0.041,-0.93,1.046
2024-09-23 11:49:58.864,163331.708,-0.025,0.8,-0.599,0.006,0.027,0.019,0.271,-0.068,-0.038,-0.042,-0.928,1.046
2024-09-23 11:49:58.875,163331.718,-0.026,0.799,-0.601,0.005,0.021,0.022,0.274,-0.075,-0.032,-0.043,-0.925,1.045
2024-09-23 11:49:58.885,163331.728,-0.027,0.797,-0.603,0.005,0.006,0.013,0.248,-0.072,-0.026,-0.044,-0.922,1.045
2024-09-23 11:49:58.894,163331.738,-0.027,0.796,-0.605,0.006,-0.005,0.007,0.197,-0.058,-0.021,-0.045,-0.92,1.045
2024-09-23 11:49:58.903,163331.748,-0.028,0.795,-0.606,-0.002,-0.01,0.002,0.078,-0.021,-0.019,-0.046,-0.919,1.045
2024-09-23 11:49:58.913,163331.758,-0.028,0.795,-0.606,-0.008,-0.024,-0.005,-0.033,-0.015,0.001,-0.046,-0.919,1.045
2024-09-23 11:49:58.924,163331.768,-0.028,0.795,-0.606,-0.022,-0.041,-0.028,-0.06,-0.012,-0.002,-0.046,-0.919,1.045
2024-09-23 11:49:58.934,163331.778,-0.028,0.796,-0.605,-0.015,-0.074,-0.03,-0.035,-0.021,-0.002,-0.046,-0.92,1.045
2024-09-23 11:49:58.944,163331.788,-0.028,0.796,-0.605,0.005,-0.034,-0.01,0.01,-0.028,-0.001,-0.046,-0.92,1.045
2024-09-23 11:49:58.954,163331.798,-0.028,0.795,-0.605,0.006,0.025,0.004,0.048,-0.031,0.004,-0.047,-0.92,1.045
2024-09-23 11:49:58.965,163331.808,-0.028,0.795,-0.606,0.008,0.02,0.013,0.057,-0.024,0.018,-0.047,-0.919,1.045
2024-09-23 11:49:58.975,163331.817,-0.028,0.795,-0.606,0.002,0.018,0.014,0.023,-0.022,0.021,-0.047,-0.919,1.045
2024-09-23 11:49:58.985,163331.827,-0.028,0.795,-0.606,-0.007,-0.003,0.008,0.003,-0.009,0.033,-0.046,-0.919,1.046
2024-09-23 11:49:58.995,163331.837,-0.028,0.795,-0.606,-0.01,-0.023,-0.002,-0.023,-0.015,0.026,-0.046,-0.919,1.046
2024-09-23 11:49:59.004,163331.847,-0.028,0.795,-0.606,-0.007,-0.026,-0.007,-0.085,-0.021,0.026,-0.046,-0.919,1.046
2024-09-23 11:49:59.015,163331.857,-0.028,0.796,-0.605,-0.003,-0.015,-0.003,-0.057,-0.013,0.039,-0.046,-0.92,1.047
2024-09-23 11:49:59.024,163331.867,-0.028,0.796,-0.605,0.001,-0.031,-0.025,-0.08,-0.047,0.024,-0.046,-0.921,1.047
2024-09-23 11:49:59.034,163331.877,-0.028,0.796,-0.604,0.003,-0.009,0.002,-0.049,-0.039,0.029,-0.046,-0.921,1.048
2024-09-23 11:49:59.044,163331.887,-0.028,0.797,-0.604,0.004,-0.004,0.011,-0.047,-0.037,0.017,-0.046,-0.922,1.048
2024-09-23 11:49:59.054,163331.897,-0.028,0.797,-0.603,0.012,-0.007,-0.004,-0.034,-0.009,0.035,-0.046,-0.922,1.049
2024-09-23 11:49:59.064,163331.907,-0.028,0.797,-0.603,-0.006,0.01,0.006,-0.085,-0.036,0.018,-0.046,-0.923,1.049
2024-09-23 11:49:59.074,163331.917,-0.028,0.798,-0.602,-0.005,-0.013,-0.001,-0.042,-0.014,0.04,-0.046,-0.923,1.049
2024-09-23 11:49:59.084,163331.927,-0.027,0.798,-0.602,-0.007,-0.017,-0.002,-0.024,-0.018,0.021,-0.046,-0.924,1.05
2024-09-23 11:49:59.094,163331.937,-0.028,0.798,-0.602,0.001,-0.005,-0.003,-0.067,-0.027,0.014,-0.046,-0.924,1.05
2024-09-23 11:49:59.104,163331.947,-0.028,0.798,-0.602,-0.004,0.02,0.018,-0.028,-0.028,0.042,-0.046,-0.925,1.05
2024-09-23 11:49:59.114,163331.957,-0.027,0.799,-0.601,0.009,-0.017,-0.022,-0.048,-0.045,0.005,-0.046,-0.925,1.051
2024-09-23 11:49:59.124,163331.967,-0.028,0.799,-0.601,0.008,-0.013,-0.004,-0.098,-0.033,0.012,-0.046,-0.926,1.051
2024-09-23 11:49:59.134,163331.977,-0.028,0.8,-0.6,-0.002,0.015,0.015,-0.141,-0.052,0.016,-0.046,-0.927,1.051
2024-09-23 11:49:59.145,163331.987,-0.028,0.8,-0.599,0.006,-0.038,-0.024,-0.074,-0.049,0.022,-0.047,-0.928,1.051
2024-09-23 11:49:59.154,163331.997,-0.028,0.801,-0.599,0.007,-0.029,-0.015,-0.038,-0.048,0.01,-0.047,-0.928,1.052
2024-09-23 11:49:59.164,163332.007,-0.028,0.801,-0.598,0.005,0.02,0.009,-0.082,-0.062,0.021,-0.048,-0.929,1.052
2024-09-23 11:49:59.174,163332.017,-0.029,0.801,-0.598,-0.007,0.023,0.02,-0.034,-0.058,0.033,-0.048,-0.929,1.052
2024-09-23 11:49:59.184,163332.027,-0.029,0.802,-0.597,0.003,-0.035,-0.014,-0.071,-0.056,0.014,-0.048,-0.93,1.052
2024-09-23 11:49:59.194,163332.037,-0.029,0.802,-0.597,0.002,0.013,0.011,-0.06,-0.05,0.025,-0.048,-0.931,1.053
2024-09-23 11:49:59.204,163332.047,-0.029,0.802,-0.596,-0.008,-0.009,-0.004,-0.089,-0.051,-0.006,-0.048,-0.931,1.053
2024-09-23 11:49:59.214,163332.057,-0.029,0.803,-0.595,0.013,-0.025,-0.008,-0.102,-0.044,0.007,-0.049,-0.932,1.053
2024-09-23 11:49:59.224,163332.067,-0.029,0.803,-0.595,-0.006,0.011,0.002,-0.076,-0.028,-0.008,-0.049,-0.933,1.053
2024-09-23 11:49:59.234,163332.077,-0.03,0.804,-0.594,0.011,-0.039,-0.014,-0.132,-0.018,-0.02,-0.05,-0.934,1.052
2024-09-23 11:49:59.244,163332.087,-0.03,0.805,-0.593,0.005,0.015,0.01,-0.152,0.011,0.005,-0.05,-0.935,1.052
2024-09-23 11:49:59.254,163332.097,-0.03,0.806,-0.591,-0.017,-0.011,-0.008,-0.188,0.033,0.005,-0.05,-0.937,1.052
2024-09-23 11:49:59.264,163332.107,-0.029,0.807,-0.59,0.001,-0.05,-0.012,-0.219,0.054,0.003,-0.05,-0.939,1.052
2024-09-23 11:49:59.275,163332.117,-0.029,0.808,-0.588,-0.018,-0.008,-0.006,-0.215,0.068,0.012,-0.049,-0.941,1.052
2024-09-23 11:49:59.284,163332.127,-0.028,0.81,-0.586,-0.015,-0.025,-0.017,-0.237,0.087,0.002,-0.048,-0.944,1.052
2024-09-23 11:49:59.294,163332.137,-0.028,0.811,-0.584,-0.008,-0.008,-0.005,-0.283,0.105,-0.001,-0.047,-0.946,1.052
2024-09-23 11:49:59.304,163332.147,-0.027,0.813,-0.582,-0.01,0.006,-0.013,-0.313,0.11,0.002,-0.047,-0.949,1.052
2024-09-23 11:49:59.314,163332.157,-0.026,0.815,-0.58,-0.009,-0.017,-0.022,-0.278,0.114,0.004,-0.046,-0.952,1.051
2024-09-23 11:49:59.323,163332.167,-0.026,0.816,-0.578,-0.01,-0.028,-0.007,-0.195,0.098,0.004,-0.045,-0.954,1.051
2024-09-23 11:49:59.334,163332.177,-0.025,0.817,-0.577,0.003,-0.004,0.005,-0.088,0.074,-0.0,-0.044,-0.956,1.051
2024-09-23 11:49:59.344,163332.187,-0.025,0.817,-0.576,0.005,0.04,0.015,-0.006,0.053,-0.0,-0.043,-0.956,1.051
2024-09-23 11:49:59.353,163332.197,-0.025,0.817,-0.577,0.01,0.041,0.029,0.075,0.029,-0.007,-0.043,-0.956,1.051
2024-09-23 11:49:59.364,163332.207,-0.025,0.816,-0.578,0.013,0.035,0.026,0.126,0.02,-0.013,-0.043,-0.954,1.051
2024-09-23 11:49:59.373,163332.217,-0.025,0.815,-0.579,0.011,0.032,0.018,0.139,0.015,-0.013,-0.043,-0.953,1.051
2024-09-23 11:49:59.384,163332.227,-0.025,0.814,-0.58,0.008,0.029,0.016,0.12,0.02,-0.018,-0.043,-0.952,1.051
2024-09-23 11:49:59.393,163332.237,-0.025,0.814,-0.581,0.004,0.007,0.01,0.092,0.009,-0.014,-0.043,-0.951,1.05
2024-09-23 11:49:59.404,163332.247,-0.025,0.813,-0.581,0.003,-0.011,-0.003,0.092,0.003,-0.017,-0.043,-0.95,1.05
2024-09-23 11:49:59.413,163332.257,-0.025,0.813,-0.582,-0.001,-0.013,-0.006,0.115,-0.013,-0.017,-0.043,-0.949,1.05
2024-09-23 11:49:59.423,163332.267,-0.025,0.812,-0.583,0.004,-0.008,0.002,0.158,-0.035,-0.014,-0.044,-0.947,1.05
2024-09-23 11:49:59.434,163332.277,-0.026,0.811,-0.585,0.006,0.003,0.009,0.203,-0.056,-0.007,-0.044,-0.946,1.05
2024-09-23 11:49:59.444,163332.287,-0.026,0.81,-0.586,0.008,0.015,0.012,0.242,-0.069,-0.004,-0.045,-0.944,1.05
2024-09-23 11:49:59.453,163332.297,-0.027,0.808,-0.588,0.01,0.019,0.019,0.266,-0.074,-0.007,-0.045,-0.941,1.05
2024-09-23 11:49:59.463,163332.307,-0.027,0.807,-0.59,0.006,0.026,0.016,0.276,-0.07,-0.004,-0.046,-0.939,1.05
2024-09-23 11:49:59.473,163332.317,-0.027,0.805,-0.592,0.003,0.014,0.014,0.222,-0.032,-0.009,-0.046,-0.936,1.05
2024-09-23 11:49:59.484,163332.327,-0.028,0.805,-0.593,0.003,0.007,0.012,0.062,-0.018,-0.007,-0.046,-0.935,1.05
2024-09-23 11:49:59.494,163332.337,-0.028,0.804,-0.593,-0.009,-0.015,-0.002,-0.043,0.005,0.018,-0.046,-0.935,1.05
2024-09-23 11:49:59.504,163332.347,-0.027,0.805,-0.593,-0.025,-0.062,-0.04,-0.057,0.025,0.013,-0.046,-0.935,1.051
2024-09-23 11:49:59.514,163332.357,-0.027,0.805,-0.592,-0.006,-0.087,-0.027,-0.043,0.021,0.02,-0.046,-0.936,1.051
2024-09-23 11:49:59.524,163332.367,-0.027,0.805,-0.592,-0.015,-0.003,-0.01,0.022,0.027,0.025,-0.045,-0.936,1.051
2024-09-23 11:49:59.534,163332.377,-0.026,0.805,-0.593,-0.009,0.001,0.005,0.084,0.014,0.017,-0.045,-0.936,1.052
2024-09-23 11:49:59.543,163332.387,-0.026,0.804,-0.593,0.005,0.012,0.014,0.109,0.003,0.022,-0.044,-0.935,1.052
2024-09-23 11:49:59.553,163332.396,-0.026,0.804,-0.594,-0.001,0.027,0.023,0.108,0.016,0.026,-0.044,-0.934,1.053
2024-09-23 11:49:59.563,163332.406,-0.026,0.803,-0.595,0.002,0.005,0.013,0.064,0.026,0.017,-0.043,-0.933,1.053
2024-09-23 11:49:59.573,163332.416,-0.025,0.803,-0.595,-0.0,0.003,0.006,0.026,0.023,0.03,-0.043,-0.932,1.053
2024-09-23 11:49:59.583,163332.426,-0.025,0.803,-0.596,-0.009,-0.014,-0.005,0.01,0.049,0.025,-0.042,-0.932,1.054
2024-09-23 11:49:59.593,163332.436,-0.024,0.803,-0.596,-0.005,-0.034,-0.007,-0.026,0.045,0.028,-0.041,-0.932,1.054
2024-09-23 11:49:59.603,163332.446,-0.024,0.803,-0.595,-0.004,-0.008,-0.01,-0.039,0.035,0.037,-0.04,-0.933,1.055
2024-09-23 11:49:59.613,163332.456,-0.023,0.803,-0.595,-0.016,-0.012,-0.009,0.001,0.051,0.032,-0.039,-0.933,1.055
2024-09-23 11:49:59.623,163332.466,-0.023,0.803,-0.595,0.001,-0.031,-0.001,0.002,0.04,0.028,-0.039,-0.933,1.056
2024-09-23 11:49:59.633,163332.476,-0.022,0.803,-0.595,0.002,0.014,0.005,0.0,0.042,0.042,-0.038,-0.933,1.056
2024-09-23 11:49:59.643,163332.486,-0.022,0.803,-0.595,-0.008,0.015,0.001,0.002,0.034,0.037,-0.037,-0.933,1.057
2024-09-23 11:49:59.653,163332.496,-0.021,0.803,-0.595,0.001,-0.017,0.002,0.016,0.026,0.03,-0.036,-0.933,1.058
2024-09-23 11:49:59.663,163332.506,-0.021,0.803,-0.595,-0.001,0.001,0.003,0.012,0.019,0.02,-0.036,-0.933,1.058
2024-09-23 11:49:59.673,163332.516,-0.021,0.803,-0.595,0.007,-0.001,0.002,0.002,0.013,0.017,-0.035,-0.933,1.058
2024-09-23 11:49:59.683,163332.526,-0.021,0.803,-0.595,0.006,-0.005,-0.002,-0.012,0.007,0.015,-0.035,-0.933,1.059
2024-09-23 11:49:59.693,163332.536,-0.021,0.803,-0.595,0.005,-0.011,-0.004,-0.016,0.003,0.024,-0.035,-0.933,1.059
2024-09-23 11:49:59.703,163332.546,-0.021,0.803,-0.595,0.001,-0.008,-0.005,-0.014,-0.005,0.016,-0.035,-0.933,1.059
2024-09-23 11:49:59.713,163332.556,-0.02,0.803,-0.595,0.002,-0.011,-0.002,0.001,-0.005,0.022,-0.034,-0.933,1.059
2024-09-23 11:49:59.723,163332.566,-0.02,0.803,-0.595,0.002,0.003,0.001,-0.015,0.001,0.02,-0.034,-0.933,1.06
2024-09-23 11:49:59.733,163332.576,-0.02,0.804,-0.595,0.001,-0.001,0.007,-0.036,0.013,0.023,-0.034,-0.933,1.06
2024-09-23 11:49:59.743,163332.586,-0.02,0.804,-0.595,-0.002,-0.009,-0.0,-0.04,0.017,0.029,-0.033,-0.934,1.06
2024-09-23 11:49:59.753,163332.596,-0.019,0.804,-0.594,-0.012,-0.015,-0.009,-0.023,0.011,0.038,-0.033,-0.934,1.061
2024-09-23 11:49:59.763,163332.606,-0.019,0.804,-0.594,-0.01,-0.007,-0.001,-0.018,0.018,0.035,-0.032,-0.934,1.062
2024-09-23 11:49:59.773,163332.616,-0.019,0.804,-0.594,0.002,-0.002,0.005,-0.063,-0.002,0.039,-0.031,-0.934,1.062
2024-09-23 11:49:59.784,163332.626,-0.018,0.805,-0.594,-0.001,0.002,-0.004,-0.048,0.01,0.05,-0.031,-0.935,1.063
2024-09-23 11:49:59.793,163332.636,-0.018,0.805,-0.593,-0.01,-0.025,-0.004,-0.035,-0.005,0.018,-0.03,-0.935,1.064
2024-09-23 11:49:59.803,163332.646,-0.018,0.805,-0.593,0.009,-0.026,0.004,-0.043,0.012,0.021,-0.03,-0.936,1.064
2024-09-23 11:49:59.813,163332.656,-0.018,0.805,-0.593,0.005,0.02,0.003,-0.051,0.008,0.015,-0.03,-0.936,1.064
2024-09-23 11:49:59.823,163332.666,-0.017,0.806,-0.592,0.004,-0.015,-0.001,-0.052,0.045,0.014,-0.029,-0.937,1.064
2024-09-23 11:49:59.833,163332.676,-0.017,0.806,-0.592,-0.0,-0.01,-0.003,-0.086,0.055,0.019,-0.029,-0.937,1.064
2024-09-23 11:49:59.843,163332.686,-0.017,0.807,-0.591,-0.006,-0.005,-0.001,-0.095,0.058,0.038,-0.028,-0.938,1.065
2024-09-23 11:49:59.853,163332.696,-0.016,0.807,-0.59,-0.022,-0.017,-0.006,-0.101,0.066,0.027,-0.027,-0.939,1.065
2024-09-23 11:49:59.863,163332.706,-0.015,0.808,-0.589,-0.001,-0.04,-0.001,-0.128,0.069,0.025,-0.026,-0.94,1.066
2024-09-23 11:49:59.872,163332.716,-0.015,0.809,-0.588,-0.005,0.003,0.004,-0.184,0.084,0.023,-0.025,-0.942,1.066
2024-09-23 11:49:59.883,163332.726,-0.014,0.81,-0.586,-0.011,-0.025,-0.001,-0.27,0.084,0.026,-0.024,-0.944,1.066
2024-09-23 11:49:59.893,163332.736,-0.013,0.812,-0.584,-0.002,-0.038,-0.025,-0.327,0.111,0.036,-0.022,-0.947,1.067
2024-09-23 11:49:59.903,163332.746,-0.012,0.814,-0.581,-0.021,-0.037,-0.029,-0.408,0.122,0.022,-0.021,-0.951,1.067
2024-09-23 11:49:59.913,163332.756,-0.011,0.817,-0.577,-0.006,-0.041,-0.025,-0.544,0.161,0.015,-0.02,-0.955,1.067
2024-09-23 11:49:59.923,163332.766,-0.01,0.82,-0.572,-0.018,-0.022,-0.027,-0.673,0.189,0.024,-0.018,-0.961,1.067
2024-09-23 11:49:59.933,163332.776,-0.009,0.824,-0.567,-0.021,-0.064,-0.044,-0.738,0.23,0.033,-0.016,-0.968,1.067
2024-09-23 11:49:59.943,163332.786,-0.007,0.828,-0.56,-0.02,-0.076,-0.049,-0.745,0.261,0.038,-0.013,-0.976,1.068
2024-09-23 11:49:59.952,163332.796,-0.005,0.832,-0.555,-0.025,-0.038,-0.038,-0.674,0.296,0.058,-0.01,-0.983,1.069
2024-09-23 11:49:59.963,163332.806,-0.003,0.836,-0.549,-0.035,-0.008,-0.023,-0.581,0.315,0.076,-0.006,-0.989,1.07
2024-09-23 11:49:59.973,163332.816,-0.001,0.838,-0.545,-0.032,0.016,-0.001,-0.477,0.305,0.138,-0.001,-0.994,1.071
2024-09-23 11:49:59.983,163332.826,0.002,0.841,-0.542,-0.035,0.039,0.014,-0.298,0.305,0.183,0.005,-0.998,1.075
2024-09-23 11:49:59.993,163332.836,0.005,0.842,-0.54,-0.029,0.045,0.015,-0.221,0.153,0.052,0.01,-1.001,1.077
2024-09-23 11:50:00.002,163332.846,0.005,0.843,-0.538,-0.015,0.099,0.023,-0.086,-0.291,-0.347,0.01,-1.002,1.078
2024-09-23 11:50:00.013,163332.856,0.003,0.844,-0.537,-0.039,0.092,0.065,-0.186,-0.192,-0.047,0.006,-1.004,1.074
2024-09-23 11:50:00.022,163332.866,0.002,0.845,-0.535,-0.142,0.028,0.099,-0.11,-0.143,0.016,0.004,-1.006,1.074
2024-09-23 11:50:00.033,163332.876,0.002,0.845,-0.535,-0.18,0.079,0.145,0.064,-0.183,0.019,0.003,-1.006,1.074
2024-09-23 11:50:00.043,163332.886,0.001,0.844,-0.536,-0.039,-0.016,0.063,0.162,-0.22,0.004,0.001,-1.005,1.075
2024-09-23 11:50:00.052,163332.896,-0.0,0.843,-0.538,-0.083,0.065,0.072,0.271,-0.201,0.05,-0.001,-1.003,1.075
2024-09-23 11:50:00.062,163332.906,-0.001,0.841,-0.541,-0.066,0.072,0.078,0.392,-0.183,0.061,-0.002,-0.999,1.076
2024-09-23 11:50:00.072,163332.916,-0.001,0.839,-0.545,-0.025,0.012,0.05,0.498,-0.15,0.084,-0.002,-0.995,1.077
2024-09-23 11:50:00.082,163332.926,-0.002,0.836,-0.549,0.015,0.024,0.031,0.526,-0.111,0.051,-0.003,-0.99,1.079
2024-09-23 11:50:00.092,163332.936,-0.002,0.833,-0.553,0.036,0.007,0.006,0.516,-0.064,0.037,-0.003,-0.985,1.079
2024-09-23 11:50:00.103,163332.946,-0.001,0.83,-0.558,0.067,0.002,-0.005,0.551,-0.01,0.049,-0.003,-0.979,1.08
2024-09-23 11:50:00.112,163332.956,-0.001,0.827,-0.562,0.098,-0.035,-0.006,0.585,0.025,0.045,-0.002,-0.974,1.081
2024-09-23 11:50:00.122,163332.966,-0.001,0.824,-0.567,0.12,-0.049,-0.024,0.595,0.032,0.037,-0.001,-0.968,1.082
2024-09-23 11:50:00.132,163332.975,-0.0,0.82,-0.572,0.143,-0.038,-0.029,0.574,0.007,0.023,-0.0,-0.962,1.082
2024-09-23 11:50:00.142,163332.985,-0.0,0.817,-0.576,0.155,-0.04,-0.036,0.428,-0.032,-0.089,-0.001,-0.957,1.082
2024-09-23 11:50:00.152,163332.995,-0.002,0.815,-0.579,0.161,-0.029,-0.039,0.243,-0.074,-0.127,-0.003,-0.953,1.08
2024-09-23 11:50:00.162,163333.005,-0.003,0.814,-0.58,0.129,-0.036,-0.031,0.132,-0.076,-0.13,-0.006,-0.952,1.078
2024-09-23 11:50:00.173,163333.015,-0.005,0.814,-0.581,0.065,-0.04,-0.025,0.061,-0.105,-0.163,-0.009,-0.951,1.075
2024-09-23 11:50:00.182,163333.025,-0.007,0.813,-0.582,0.037,-0.042,-0.032,0.016,-0.095,-0.151,-0.012,-0.95,1.072
2024-09-23 11:50:00.192,163333.035,-0.009,0.813,-0.582,-0.007,-0.034,-0.035,-0.016,-0.077,-0.134,-0.015,-0.95,1.07
2024-09-23 11:50:00.202,163333.045,-0.01,0.814,-0.581,-0.024,-0.03,-0.037,-0.02,-0.052,-0.1,-0.017,-0.95,1.068
2024-09-23 11:50:00.212,163333.055,-0.011,0.814,-0.581,-0.019,-0.031,-0.04,0.01,-0.034,-0.06,-0.019,-0.95,1.067
2024-09-23 11:50:00.222,163333.065,-0.011,0.813,-0.581,-0.031,-0.006,-0.028,0.034,-0.032,-0.048,-0.02,-0.95,1.066
2024-09-23 11:50:00.232,163333.075,-0.012,0.813,-0.582,-0.025,0.028,-0.008,0.077,-0.04,-0.017,-0.02,-0.95,1.065
2024-09-23 11:50:00.242,163333.085,-0.012,0.812,-0.583,-0.013,0.023,0.012,0.16,-0.064,0.013,-0.021,-0.948,1.065
2024-09-23 11:50:00.252,163333.095,-0.012,0.811,-0.584,-0.006,0.015,0.016,0.235,-0.073,0.028,-0.021,-0.946,1.065
2024-09-23 11:50:00.262,163333.105,-0.013,0.81,-0.587,-0.004,0.029,0.026,0.288,-0.081,0.033,-0.021,-0.944,1.066
2024-09-23 11:50:00.272,163333.115,-0.013,0.808,-0.589,0.001,0.037,0.025,0.321,-0.077,0.017,-0.022,-0.941,1.067
2024-09-23 11:50:00.282,163333.125,-0.013,0.806,-0.592,0.004,0.024,0.019,0.323,-0.07,0.001,-0.022,-0.937,1.067
2024-09-23 11:50:00.292,163333.135,-0.014,0.804,-0.594,0.001,0.012,0.015,0.289,-0.058,-0.013,-0.023,-0.934,1.067
2024-09-23 11:50:00.302,163333.145,-0.014,0.803,-0.596,0.005,0.003,0.01,0.247,-0.045,-0.027,-0.024,-0.932,1.067
2024-09-23 11:50:00.312,163333.155,-0.015,0.801,-0.598,0.007,-0.014,-0.002,0.193,-0.036,-0.047,-0.025,-0.93,1.066
2024-09-23 11:50:00.322,163333.165,-0.015,0.8,-0.599,0.008,-0.025,-0.007,0.136,-0.021,-0.058,-0.026,-0.928,1.065
2024-09-23 11:50:00.332,163333.175,-0.016,0.8,-0.6,0.007,-0.017,-0.008,0.121,-0.013,-0.06,-0.026,-0.927,1.064
2024-09-23 11:50:00.342,163333.185,-0.016,0.799,-0.601,0.004,-0.015,-0.013,0.135,-0.023,-0.049,-0.027,-0.926,1.063
2024-09-23 11:50:00.352,163333.195,-0.017,0.798,-0.602,0.002,-0.006,-0.007,0.213,-0.038,-0.045,-0.028,-0.924,1.063
2024-09-23 11:50:00.362,163333.205,-0.018,0.797,-0.604,0.002,0.003,0.004,0.328,-0.06,-0.041,-0.029,-0.921,1.062
2024-09-23 11:50:00.372,163333.215,-0.018,0.794,-0.607,0.006,0.027,0.023,0.437,-0.083,-0.048,-0.03,-0.918,1.062
2024-09-23 11:50:00.382,163333.225,-0.019,0.791,-0.611,0.013,0.056,0.035,0.508,-0.098,-0.059,-0.032,-0.913,1.061
2024-09-23 11:50:00.392,163333.235,-0.02,0.788,-0.615,0.014,0.061,0.04,0.477,-0.079,-0.06,-0.033,-0.908,1.061
2024-09-23 11:50:00.402,163333.245,-0.021,0.786,-0.618,0.009,0.035,0.035,0.235,-0.033,-0.036,-0.034,-0.905,1.06
2024-09-23 11:50:00.412,163333.255,-0.021,0.785,-0.619,-0.002,-0.013,0.013,-0.012,-0.016,0.012,-0.034,-0.903,1.06
2024-09-23 11:50:00.422,163333.265,-0.021,0.786,-0.618,-0.041,-0.065,-0.056,-0.116,-0.015,0.038,-0.034,-0.904,1.06
2024-09-23 11:50:00.432,163333.275,-0.021,0.787,-0.617,-0.022,-0.153,-0.063,-0.127,-0.022,0.038,-0.034,-0.905,1.061
2024-09-23 11:50:00.442,163333.285,-0.021,0.787,-0.616,-0.009,-0.086,-0.041,-0.069,-0.027,0.042,-0.034,-0.906,1.061
2024-09-23 11:50:00.452,163333.295,-0.021,0.788,-0.616,0.004,0.001,-0.009,-0.024,-0.033,0.037,-0.034,-0.907,1.062
2024-09-23 11:50:00.461,163333.305,-0.021,0.788,-0.616,0.007,0.018,0.015,-0.002,-0.022,0.032,-0.033,-0.907,1.063
2024-09-23 11:50:00.472,163333.315,-0.02,0.788,-0.616,0.003,0.026,0.021,-0.031,-0.017,0.036,-0.033,-0.907,1.063
2024-09-23 11:50:00.482,163333.325,-0.02,0.788,-0.615,-0.003,0.006,0.005,-0.048,-0.032,0.05,-0.033,-0.908,1.064
2024-09-23 11:50:00.492,163333.335,-0.02,0.788,-0.615,-0.009,-0.016,-0.004,0.023,-0.022,0.039,-0.032,-0.908,1.065
2024-09-23 11:50:00.502,163333.345,-0.02,0.788,-0.615,-0.005,-0.029,-0.009,-0.051,0.003,0.021,-0.032,-0.908,1.065
2024-09-23 11:50:00.511,163333.355,-0.02,0.789,-0.615,-0.002,0.01,0.023,-0.055,-0.017,0.044,-0.032,-0.908,1.065
2024-09-23 11:50:00.521,163333.365,-0.02,0.789,-0.614,-0.005,-0.013,-0.015,-0.075,-0.032,0.026,-0.032,-0.909,1.066
2024-09-23 11:50:00.532,163333.375,-0.019,0.789,-0.614,0.011,-0.027,-0.011,-0.061,-0.021,0.037,-0.032,-0.91,1.066
2024-09-23 11:50:00.542,163333.385,-0.019,0.79,-0.613,0.001,-0.013,0.003,-0.08,-0.033,0.034,-0.032,-0.91,1.067
2024-09-23 11:50:00.552,163333.395,-0.019,0.79,-0.613,0.007,-0.0,-0.01,-0.057,-0.029,0.039,-0.031,-0.911,1.068
2024-09-23 11:50:00.562,163333.405,-0.019,0.791,-0.612,-0.004,-0.009,0.001,-0.091,-0.023,0.042,-0.031,-0.912,1.068
2024-09-23 11:50:00.572,163333.415,-0.019,0.791,-0.612,-0.003,-0.009,0.003,-0.012,-0.032,0.029,-0.031,-0.912,1.069
2024-09-23 11:50:00.582,163333.425,-0.019,0.791,-0.611,0.004,-0.01,-0.013,-0.058,-0.024,0.014,-0.031,-0.913,1.069
2024-09-23 11:50:00.592,163333.435,-0.019,0.791,-0.611,0.004,0.021,0.016,-0.008,-0.045,0.03,-0.031,-0.913,1.069
2024-09-23 11:50:00.601,163333.445,-0.019,0.792,-0.611,-0.003,-0.013,-0.008,-0.07,-0.033,0.023,-0.031,-0.913,1.07
2024-09-23 11:50:00.611,163333.455,-0.019,0.792,-0.611,0.013,-0.003,0.004,-0.005,-0.049,0.034,-0.031,-0.914,1.07
2024-09-23 11:50:00.622,163333.465,-0.019,0.792,-0.61,0.0,-0.01,-0.015,-0.104,-0.03,0.007,-0.032,-0.914,1.07
2024-09-23 11:50:00.631,163333.475,-0.019,0.793,-0.609,0.011,0.006,0.007,-0.11,-0.045,0.051,-0.032,-0.915,1.071
2024-09-23 11:50:00.641,163333.485,-0.019,0.793,-0.609,-0.013,-0.023,-0.011,-0.091,-0.071,0.019,-0.032,-0.916,1.071
2024-09-23 11:50:00.651,163333.495,-0.02,0.794,-0.608,0.008,-0.04,-0.022,-0.074,-0.06,0.023,-0.032,-0.917,1.071
2024-09-23 11:50:00.661,163333.505,-0.02,0.794,-0.608,-0.0,0.014,0.018,0.019,-0.05,0.014,-0.033,-0.917,1.072
2024-09-23 11:50:00.671,163333.515,-0.02,0.794,-0.607,0.008,-0.0,-0.01,-0.126,-0.047,-0.026,-0.033,-0.918,1.072
2024-09-23 11:50:00.682,163333.525,-0.02,0.795,-0.606,0.006,0.016,0.023,-0.127,-0.052,0.035,-0.034,-0.919,1.072
2024-09-23 11:50:00.692,163333.535,-0.02,0.795,-0.606,-0.013,-0.018,-0.018,-0.005,-0.047,0.006,-0.034,-0.92,1.072
2024-09-23 11:50:00.701,163333.545,-0.021,0.796,-0.605,0.02,-0.054,-0.041,-0.088,-0.013,-0.036,-0.034,-0.92,1.072
2024-09-23 11:50:00.711,163333.555,-0.021,0.797,-0.604,-0.004,0.044,0.035,-0.195,-0.01,0.014,-0.035,-0.922,1.071
2024-09-23 11:50:00.721,163333.564,-0.021,0.797,-0.603,-0.014,-0.018,-0.003,-0.099,-0.001,0.011,-0.035,-0.923,1.072
2024-09-23 11:50:00.731,163333.574,-0.021,0.798,-0.602,0.004,-0.071,-0.04,-0.128,0.031,-0.022,-0.035,-0.924,1.072
2024-09-23 11:50:00.741,163333.584,-0.021,0.799,-0.601,-0.01,0.02,0.024,-0.146,0.034,0.009,-0.034,-0.925,1.071
2024-09-23 11:50:00.751,163333.594,-0.02,0.8,-0.6,-0.021,0.004,0.016,-0.109,0.02,-0.001,-0.034,-0.927,1.071
2024-09-23 11:50:00.761,163333.604,-0.02,0.8,-0.599,0.0,-0.045,-0.011,-0.129,0.034,-0.014,-0.034,-0.928,1.071
2024-09-23 11:50:00.771,163333.614,-0.02,0.801,-0.598,0.001,0.012,0.015,-0.194,0.051,-0.005,-0.034,-0.929,1.071
2024-09-23 11:50:00.781,163333.624,-0.02,0.802,-0.596,-0.002,0.013,-0.001,-0.249,0.064,-0.002,-0.033,-0.931,1.071
2024-09-23 11:50:00.791,163333.634,-0.02,0.804,-0.594,0.004,-0.031,-0.029,-0.24,0.063,-0.002,-0.033,-0.934,1.071
2024-09-23 11:50:00.801,163333.644,-0.019,0.805,-0.593,-0.008,-0.033,-0.026,-0.202,0.063,-0.019,-0.032,-0.936,1.07
2024-09-23 11:50:00.812,163333.654,-0.019,0.806,-0.591,-0.0,-0.012,-0.005,-0.128,0.07,-0.018,-0.032,-0.938,1.07
2024-09-23 11:50:00.821,163333.664,-0.019,0.807,-0.591,0.003,0.019,0.01,-0.045,0.069,-0.025,-0.032,-0.939,1.069
2024-09-23 11:50:00.831,163333.674,-0.019,0.807,-0.591,0.005,0.025,0.019,0.004,0.071,-0.035,-0.032,-0.939,1.069
2024-09-23 11:50:00.841,163333.684,-0.018,0.807,-0.591,0.002,0.036,0.025,0.025,0.074,-0.027,-0.031,-0.939,1.068
2024-09-23 11:50:00.851,163333.694,-0.018,0.807,-0.591,0.004,0.024,0.017,0.029,0.069,-0.013,-0.031,-0.938,1.068
2024-09-23 11:50:00.861,163333.704,-0.018,0.806,-0.591,-0.0,-0.004,0.006,0.016,0.064,-0.005,-0.03,-0.938,1.068
2024-09-23 11:50:00.871,163333.714,-0.018,0.806,-0.591,-0.0,0.001,0.001,0.021,0.057,0.004,-0.03,-0.938,1.068
2024-09-23 11:50:00.881,163333.724,-0.017,0.806,-0.592,-0.001,-0.009,-0.003,0.047,0.056,0.008,-0.029,-0.937,1.068
2024-09-23 11:50:00.891,163333.734,-0.017,0.806,-0.592,-0.003,-0.009,0.001,0.072,0.054,-0.0,-0.028,-0.937,1.068
2024-09-23 11:50:00.901,163333.744,-0.017,0.805,-0.593,-0.002,0.009,0.009,0.089,0.039,0.004,-0.028,-0.936,1.068
2024-09-23 11:50:00.911,163333.754,-0.016,0.805,-0.593,0.001,0.006,0.009,0.115,0.024,-0.001,-0.028,-0.935,1.068
2024-09-23 11:50:00.921,163333.764,-0.016,0.804,-0.594,0.006,0.009,0.004,0.153,-0.001,-0.007,-0.027,-0.934,1.068
2024-09-23 11:50:00.931,163333.774,-0.016,0.803,-0.596,0.011,0.01,0.006,0.168,-0.025,-0.004,-0.028,-0.932,1.068
2024-09-23 11:50:00.942,163333.784,-0.017,0.802,-0.597,0.014,0.012,0.009,0.191,-0.051,-0.003,-0.028,-0.931,1.068
2024-09-23 11:50:00.951,163333.794,-0.017,0.801,-0.599,0.017,0.008,0.005,0.229,-0.066,0.001,-0.028,-0.929,1.068
2024-09-23 11:50:00.961,163333.804,-0.017,0.799,-0.601,0.01,0.003,0.007,0.257,-0.068,0.001,-0.029,-0.926,1.068
2024-09-23 11:50:00.971,163333.814,-0.018,0.798,-0.603,0.006,0.01,0.016,0.244,-0.063,0.01,-0.03,-0.924,1.069
2024-09-23 11:50:00.981,163333.824,-0.018,0.797,-0.604,0.001,0.022,0.011,0.163,-0.014,-0.004,-0.03,-0.922,1.069
2024-09-23 11:50:00.991,163333.834,-0.018,0.796,-0.605,-0.005,0.001,0.003,0.025,0.01,0.016,-0.03,-0.921,1.069
2024-09-23 11:50:01.001,163333.844,-0.018,0.796,-0.605,-0.017,-0.018,-0.008,-0.04,0.035,0.038,-0.029,-0.921,1.069
2024-09-23 11:50:01.011,163333.854,-0.017,0.797,-0.604,-0.024,-0.063,-0.043,-0.044,0.034,0.034,-0.028,-0.922,1.07
2024-09-23 11:50:01.020,163333.864,-0.017,0.797,-0.604,-0.001,-0.065,-0.025,-0.007,0.018,0.038,-0.027,-0.922,1.071
2024-09-23 11:50:01.031,163333.874,-0.016,0.797,-0.604,-0.007,0.008,-0.001,0.059,0.019,0.029,-0.027,-0.922,1.071
2024-09-23 11:50:01.041,163333.884,-0.016,0.796,-0.605,0.006,-0.001,0.01,0.099,-0.004,0.016,-0.026,-0.921,1.072
2024-09-23 11:50:01.051,163333.894,-0.016,0.796,-0.606,0.006,0.029,0.018,0.125,-0.009,0.02,-0.026,-0.92,1.072
2024-09-23 11:50:01.061,163333.904,-0.016,0.795,-0.607,-0.001,0.015,0.016,0.133,-0.001,0.007,-0.026,-0.919,1.072
2024-09-23 11:50:01.071,163333.914,-0.016,0.794,-0.607,0.008,0.002,0.014,0.086,0.023,0.004,-0.026,-0.918,1.072
2024-09-23 11:50:01.081,163333.924,-0.015,0.794,-0.608,0.0,0.013,0.005,0.024,0.02,0.015,-0.025,-0.917,1.073
2024-09-23 11:50:01.091,163333.934,-0.015,0.794,-0.608,-0.008,-0.026,-0.003,0.006,0.03,0.031,-0.025,-0.917,1.073
2024-09-23 11:50:01.101,163333.944,-0.015,0.794,-0.608,-0.016,-0.028,-0.012,0.004,0.029,0.018,-0.024,-0.917,1.073
2024-09-23 11:50:01.111,163333.954,-0.014,0.794,-0.608,0.0,-0.035,-0.004,-0.007,0.029,0.03,-0.024,-0.917,1.074
2024-09-23 11:50:01.121,163333.964,-0.014,0.794,-0.608,0.002,0.009,-0.006,-0.018,0.034,0.034,-0.023,-0.917,1.074
2024-09-23 11:50:01.131,163333.974,-0.014,0.794,-0.608,-0.003,-0.013,-0.009,-0.052,0.014,0.037,-0.022,-0.917,1.075
2024-09-23 11:50:01.140,163333.984,-0.013,0.794,-0.608,-0.006,-0.028,-0.004,-0.003,0.016,0.03,-0.022,-0.918,1.075
2024-09-23 11:50:01.150,163333.994,-0.013,0.794,-0.608,-0.001,-0.02,-0.005,0.015,0.04,0.017,-0.021,-0.918,1.076
2024-09-23 11:50:01.161,163334.004,-0.013,0.794,-0.608,0.014,0.014,0.005,-0.003,0.015,0.018,-0.021,-0.918,1.076
2024-09-23 11:50:01.170,163334.014,-0.012,0.794,-0.608,0.001,0.02,0.004,0.037,0.019,0.022,-0.02,-0.917,1.076
2024-09-23 11:50:01.181,163334.024,-0.012,0.794,-0.608,-0.006,-0.013,-0.009,0.052,0.006,0.005,-0.02,-0.917,1.076
2024-09-23 11:50:01.191,163334.034,-0.012,0.793,-0.609,0.008,-0.009,0.008,0.02,0.004,0.014,-0.02,-0.916,1.077
2024-09-23 11:50:01.201,163334.044,-0.012,0.793,-0.609,0.004,0.02,0.01,-0.024,0.005,0.019,-0.02,-0.916,1.077
2024-09-23 11:50:01.210,163334.054,-0.012,0.794,-0.608,0.002,-0.02,-0.002,-0.05,0.007,0.026,-0.019,-0.917,1.077
2024-09-23 11:50:01.220,163334.064,-0.011,0.794,-0.608,-0.003,-0.021,-0.014,-0.025,0.008,0.027,-0.019,-0.917,1.078
2024-09-23 11:50:01.230,163334.074,-0.011,0.794,-0.608,-0.005,-0.025,-0.013,0.024,0.018,0.015,-0.018,-0.917,1.078
2024-09-23 11:50:01.240,163334.084,-0.011,0.794,-0.608,0.003,-0.002,-0.002,-0.009,0.024,0.01,-0.018,-0.917,1.078
2024-09-23 11:50:01.250,163334.094,-0.011,0.794,-0.608,0.006,0.02,0.002,-0.019,0.019,0.022,-0.018,-0.917,1.078
2024-09-23 11:50:01.260,163334.104,-0.01,0.794,-0.608,-0.009,-0.014,0.0,-0.01,0.02,0.025,-0.017,-0.917,1.079
2024-09-23 11:50:01.270,163334.114,-0.01,0.794,-0.608,-0.007,-0.025,-0.003,-0.007,0.02,0.024,-0.017,-0.917,1.079
2024-09-23 11:50:01.280,163334.124,-0.01,0.794,-0.608,-0.001,-0.001,0.003,0.005,0.01,0.024,-0.016,-0.917,1.08
2024-09-23 11:50:01.290,163334.134,-0.01,0.794,-0.608,0.001,0.004,0.004,0.012,-0.0,0.019,-0.016,-0.917,1.08
2024-09-23 11:50:01.300,163334.143,-0.009,0.794,-0.608,0.006,-0.003,0.006,0.015,-0.002,0.017,-0.016,-0.917,1.08
2024-09-23 11:50:01.310,163334.153,-0.009,0.794,-0.608,0.008,-0.001,0.006,-0.021,0.013,0.028,-0.015,-0.917,1.081
2024-09-23 11:50:01.321,163334.163,-0.009,0.794,-0.608,0.004,0.002,-0.003,-0.034,0.004,0.038,-0.015,-0.917,1.081
2024-09-23 11:50:01.330,163334.173,-0.009,0.794,-0.608,-0.004,-0.01,-0.009,-0.035,-0.004,0.044,-0.014,-0.918,1.082
2024-09-23 11:50:01.340,163334.183,-0.008,0.794,-0.607,-0.011,-0.02,-0.005,-0.026,-0.011,0.033,-0.014,-0.918,1.082
2024-09-23 11:50:01.350,163334.193,-0.008,0.794,-0.607,0.005,-0.011,-0.003,-0.022,0.02,0.04,-0.013,-0.918,1.083
2024-09-23 11:50:01.360,163334.203,-0.008,0.795,-0.607,0.001,0.013,-0.008,-0.057,0.026,0.021,-0.013,-0.918,1.083
2024-09-23 11:50:01.370,163334.213,-0.007,0.795,-0.607,-0.007,-0.016,0.002,-0.086,0.019,0.03,-0.012,-0.919,1.084
2024-09-23 11:50:01.380,163334.223,-0.007,0.796,-0.606,-0.013,-0.021,-0.005,-0.088,0.043,0.038,-0.011,-0.92,1.084
2024-09-23 11:50:01.390,163334.233,-0.006,0.796,-0.605,-0.008,-0.035,-0.003,-0.108,0.06,0.027,-0.01,-0.921,1.085
2024-09-23 11:50:01.400,163334.243,-0.006,0.797,-0.604,0.002,-0.012,0.006,-0.162,0.055,0.028,-0.01,-0.922,1.085
2024-09-23 11:50:01.410,163334.253,-0.005,0.798,-0.603,-0.008,-0.004,-0.007,-0.192,0.087,0.033,-0.009,-0.924,1.086
2024-09-23 11:50:01.421,163334.263,-0.004,0.799,-0.601,-0.015,-0.046,-0.007,-0.247,0.093,0.016,-0.007,-0.926,1.086
2024-09-23 11:50:01.430,163334.273,-0.004,0.801,-0.599,-0.006,-0.024,-0.015,-0.338,0.118,0.028,-0.006,-0.929,1.086
2024-09-23 11:50:01.440,163334.283,-0.003,0.803,-0.596,-0.02,-0.024,-0.026,-0.456,0.182,0.019,-0.004,-0.933,1.087
2024-09-23 11:50:01.450,163334.293,-0.001,0.806,-0.592,-0.016,-0.058,-0.028,-0.611,0.27,-0.001,-0.002,-0.938,1.087
2024-09-23 11:50:01.460,163334.303,0.001,0.81,-0.586,-0.027,-0.032,-0.036,-0.746,0.327,0.012,0.001,-0.945,1.087
2024-09-23 11:50:01.470,163334.313,0.003,0.815,-0.58,-0.049,-0.067,-0.031,-0.838,0.355,0.067,0.005,-0.952,1.087
2024-09-23 11:50:01.480,163334.323,0.006,0.82,-0.573,-0.047,-0.083,-0.035,-0.852,0.355,0.148,0.01,-0.961,1.089
2024-09-23 11:50:01.490,163334.333,0.009,0.824,-0.566,-0.042,-0.041,-0.031,-0.756,0.328,0.237,0.016,-0.969,1.093
2024-09-23 11:50:01.499,163334.343,0.013,0.828,-0.561,-0.033,-0.005,-0.028,-0.57,0.281,0.269,0.023,-0.975,1.098
2024-09-23 11:50:01.510,163334.353,0.017,0.831,-0.557,-0.01,0.034,-0.026,-0.415,0.218,0.284,0.03,-0.98,1.103
2024-09-23 11:50:01.520,163334.363,0.016,0.833,-0.553,0.004,0.075,0.01,-0.645,0.094,-0.676,0.029,-0.984,1.101
2024-09-23 11:50:01.530,163334.373,0.014,0.836,-0.548,0.015,0.071,0.026,-0.578,-0.176,0.081,0.026,-0.99,1.099
2024-09-23 11:50:01.540,163334.383,0.013,0.838,-0.545,-0.195,0.069,0.089,-0.261,-0.207,0.025,0.024,-0.994,1.099
2024-09-23 11:50:01.550,163334.393,0.012,0.839,-0.544,-0.126,0.022,0.151,-0.05,-0.302,-0.001,0.022,-0.996,1.099
2024-09-23 11:50:01.560,163334.403,0.01,0.839,-0.544,0.016,0.054,0.04,-0.009,-0.322,-0.005,0.019,-0.996,1.099
2024-09-23 11:50:01.570,163334.413,0.009,0.839,-0.544,-0.101,0.173,0.089,0.115,-0.333,0.03,0.016,-0.996,1.099
2024-09-23 11:50:01.581,163334.423,0.007,0.838,-0.546,-0.047,0.027,0.105,0.264,-0.331,0.026,0.013,-0.994,1.099
2024-09-23 11:50:01.590,163334.433,0.005,0.836,-0.548,-0.024,0.014,0.075,0.32,-0.324,0.013,0.01,-0.991,1.1
2024-09-23 11:50:01.600,163334.443,0.004,0.835,-0.551,-0.004,0.072,0.043,0.342,-0.314,-0.004,0.007,-0.987,1.1
2024-09-23 11:50:01.610,163334.453,0.002,0.833,-0.554,0.005,0.03,0.017,0.382,-0.277,0.022,0.004,-0.984,1.1
2024-09-23 11:50:01.620,163334.463,0.001,0.83,-0.557,0.007,0.002,0.009,0.425,-0.227,0.04,0.002,-0.98,1.1
2024-09-23 11:50:01.630,163334.473,-0.0,0.828,-0.561,0.015,-0.011,-0.01,0.472,-0.191,0.022,-0.0,-0.975,1.1
2024-09-23 11:50:01.640,163334.483,-0.001,0.825,-0.565,0.05,-0.028,-0.032,0.506,-0.143,0.012,-0.002,-0.97,1.101
2024-09-23 11:50:01.650,163334.493,-0.002,0.822,-0.57,0.079,-0.035,-0.046,0.527,-0.112,0.002,-0.003,-0.965,1.101
2024-09-23 11:50:01.659,163334.503,-0.002,0.819,-0.574,0.095,-0.042,-0.053,0.506,-0.082,0.018,-0.004,-0.96,1.101
2024-09-23 11:50:01.669,163334.513,-0.002,0.816,-0.578,0.112,-0.043,-0.055,0.465,-0.037,0.016,-0.004,-0.955,1.101
2024-09-23 11:50:01.680,163334.523,-0.002,0.814,-0.581,0.128,-0.057,-0.049,0.428,-0.02,-0.019,-0.004,-0.95,1.101
2024-09-23 11:50:01.690,163334.533,-0.003,0.811,-0.584,0.139,-0.052,-0.032,0.29,-0.04,-0.146,-0.006,-0.947,1.1
2024-09-23 11:50:01.699,163334.543,-0.005,0.81,-0.586,0.138,-0.04,-0.019,0.154,-0.046,-0.189,-0.008,-0.945,1.097
2024-09-23 11:50:01.710,163334.553,-0.007,0.809,-0.587,0.096,-0.046,-0.013,0.116,-0.035,-0.185,-0.011,-0.943,1.094
2024-09-23 11:50:01.720,163334.563,-0.008,0.809,-0.588,0.044,-0.041,-0.007,0.109,-0.023,-0.155,-0.014,-0.942,1.091
2024-09-23 11:50:01.730,163334.573,-0.009,0.808,-0.589,0.026,-0.019,-0.011,0.122,-0.008,-0.117,-0.016,-0.941,1.089
2024-09-23 11:50:01.739,163334.583,-0.01,0.807,-0.59,0.008,0.004,-0.014,0.194,-0.013,-0.08,-0.017,-0.939,1.087
2024-09-23 11:50:01.750,163334.593,-0.011,0.806,-0.592,-0.008,0.007,0.004,0.242,-0.018,-0.056,-0.018,-0.937,1.086
2024-09-23 11:50:01.759,163334.603,-0.011,0.804,-0.594,-0.017,0.029,0.012,0.245,-0.024,-0.029,-0.019,-0.935,1.085
2024-09-23 11:50:01.769,163334.613,-0.012,0.803,-0.596,-0.016,0.029,0.013,0.271,-0.03,-0.015,-0.02,-0.932,1.085
2024-09-23 11:50:01.780,163334.623,-0.012,0.801,-0.598,-0.019,-0.003,0.016,0.279,-0.026,-0.009,-0.02,-0.929,1.085
2024-09-23 11:50:01.789,163334.633,-0.012,0.8,-0.6,-0.023,0.008,0.013,0.269,-0.011,-0.005,-0.02,-0.927,1.085
2024-09-23 11:50:01.799,163334.643,-0.012,0.798,-0.602,-0.021,0.005,0.003,0.219,0.015,-0.009,-0.02,-0.924,1.085
2024-09-23 11:50:01.809,163334.653,-0.012,0.797,-0.604,-0.022,-0.006,-0.016,0.131,0.033,-0.014,-0.02,-0.922,1.085
2024-09-23 11:50:01.819,163334.663,-0.012,0.796,-0.605,-0.02,-0.019,-0.016,0.067,0.049,-0.016,-0.02,-0.921,1.085
2024-09-23 11:50:01.830,163334.673,-0.012,0.796,-0.605,-0.019,-0.031,-0.011,0.013,0.058,-0.018,-0.02,-0.921,1.084
2024-09-23 11:50:01.840,163334.683,-0.012,0.796,-0.605,-0.014,-0.028,-0.006,0.017,0.061,-0.018,-0.019,-0.921,1.084
2024-09-23 11:50:01.849,163334.693,-0.011,0.796,-0.605,-0.007,-0.021,-0.006,0.052,0.052,-0.021,-0.019,-0.921,1.084
2024-09-23 11:50:01.859,163334.703,-0.011,0.796,-0.606,-0.001,-0.002,-0.007,0.093,0.036,-0.024,-0.019,-0.92,1.083
2024-09-23 11:50:01.869,163334.713,-0.011,0.795,-0.607,0.01,0.005,-0.002,0.139,0.021,-0.027,-0.019,-0.919,1.083
2024-09-23 11:50:01.880,163334.722,-0.012,0.794,-0.608,0.014,0.006,0.007,0.173,0.01,-0.025,-0.019,-0.917,1.082
2024-09-23 11:50:01.889,163334.732,-0.012,0.793,-0.609,0.014,0.012,0.014,0.194,0.003,-0.029,-0.02,-0.915,1.082
2024-09-23 11:50:01.899,163334.742,-0.012,0.792,-0.611,0.014,0.014,0.016,0.219,0.005,-0.033,-0.02,-0.913,1.081
2024-09-23 11:50:01.909,163334.752,-0.013,0.79,-0.613,0.012,0.017,0.016,0.223,0.009,-0.036,-0.021,-0.911,1.081
2024-09-23 11:50:01.919,163334.762,-0.013,0.789,-0.615,0.007,0.015,0.01,0.223,0.004,-0.032,-0.021,-0.909,1.08
2024-09-23 11:50:01.929,163334.772,-0.013,0.787,-0.616,0.005,0.007,0.001,0.221,-0.003,-0.036,-0.021,-0.906,1.08
2024-09-23 11:50:01.939,163334.782,-0.014,0.786,-0.618,0.003,-0.002,-0.002,0.255,-0.025,-0.032,-0.022,-0.904,1.079
2024-09-23 11:50:01.949,163334.792,-0.014,0.784,-0.62,0.004,-0.003,-0.003,0.298,-0.055,-0.031,-0.023,-0.901,1.079
2024-09-23 11:50:01.960,163334.802,-0.015,0.782,-0.623,0.009,0.011,-0.002,0.329,-0.084,-0.014,-0.023,-0.898,1.079
2024-09-23 11:50:01.969,163334.812,-0.015,0.78,-0.625,0.01,0.026,0.011,0.359,-0.113,0.003,-0.024,-0.895,1.079
2024-09-23 11:50:01.979,163334.822,-0.015,0.778,-0.627,0.007,0.022,0.026,0.19,-0.065,0.022,-0.025,-0.892,1.079
2024-09-23 11:50:01.989,163334.832,-0.016,0.778,-0.628,0.006,0.016,0.03,0.099,-0.062,-0.017,-0.025,-0.891,1.079
2024-09-23 11:50:01.999,163334.842,-0.016,0.778,-0.629,-0.018,-0.018,0.013,-0.01,-0.038,0.025,-0.025,-0.891,1.08
2024-09-23 11:50:02.009,163334.852,-0.016,0.778,-0.628,-0.051,-0.076,-0.042,-0.066,-0.026,0.015,-0.025,-0.891,1.08
2024-09-23 11:50:02.019,163334.862,-0.016,0.778,-0.627,-0.013,-0.087,-0.054,-0.121,-0.018,0.017,-0.026,-0.892,1.08
2024-09-23 11:50:02.029,163334.872,-0.016,0.779,-0.627,-0.005,-0.038,-0.032,-0.015,-0.036,0.014,-0.026,-0.893,1.08
2024-09-23 11:50:02.039,163334.882,-0.016,0.779,-0.627,0.001,-0.032,-0.013,-0.019,-0.035,0.004,-0.026,-0.893,1.08
2024-09-23 11:50:02.049,163334.892,-0.016,0.779,-0.627,0.002,0.003,0.012,0.005,-0.04,0.013,-0.026,-0.893,1.081
2024-09-23 11:50:02.059,163334.902,-0.016,0.779,-0.627,0.011,0.0,0.012,-0.038,-0.039,0.001,-0.026,-0.893,1.081
2024-09-23 11:50:02.069,163334.912,-0.017,0.78,-0.626,0.004,-0.006,0.007,-0.039,-0.055,0.03,-0.027,-0.894,1.081
2024-09-23 11:50:02.079,163334.922,-0.017,0.78,-0.626,0.001,0.01,-0.005,0.022,-0.029,0.025,-0.027,-0.894,1.081
2024-09-23 11:50:02.090,163334.932,-0.017,0.78,-0.626,-0.001,-0.037,-0.014,-0.07,-0.025,-0.001,-0.027,-0.894,1.081
2024-09-23 11:50:02.099,163334.942,-0.017,0.78,-0.626,-0.007,0.016,0.02,-0.075,-0.026,0.02,-0.027,-0.895,1.082
2024-09-23 11:50:02.109,163334.952,-0.017,0.78,-0.625,-0.01,-0.016,-0.005,-0.048,-0.034,0.019,-0.027,-0.895,1.082
2024-09-23 11:50:02.119,163334.962,-0.017,0.781,-0.625,-0.002,-0.042,-0.017,-0.051,-0.036,0.016,-0.027,-0.896,1.082
2024-09-23 11:50:02.129,163334.972,-0.017,0.781,-0.624,0.002,0.004,-0.001,-0.022,-0.042,0.036,-0.027,-0.896,1.083
2024-09-23 11:50:02.139,163334.982,-0.017,0.781,-0.624,0.005,-0.004,0.003,-0.004,-0.043,0.019,-0.028,-0.896,1.083
2024-09-23 11:50:02.149,163334.992,-0.017,0.781,-0.624,0.004,-0.005,-0.004,-0.033,-0.041,0.016,-0.028,-0.896,1.083
2024-09-23 11:50:02.159,163335.002,-0.018,0.782,-0.624,0.001,0.023,0.012,-0.095,-0.05,0.026,-0.028,-0.897,1.083
2024-09-23 11:50:02.169,163335.012,-0.018,0.782,-0.624,0.006,-0.024,-0.002,0.033,-0.034,0.035,-0.028,-0.897,1.084
2024-09-23 11:50:02.179,163335.022,-0.018,0.782,-0.623,0.001,-0.035,-0.022,-0.09,-0.051,-0.01,-0.028,-0.897,1.084
2024-09-23 11:50:02.189,163335.032,-0.018,0.782,-0.623,-0.0,0.017,0.016,-0.084,-0.048,0.032,-0.029,-0.898,1.084
2024-09-23 11:50:02.199,163335.042,-0.018,0.782,-0.623,0.003,-0.013,-0.01,-0.007,-0.049,-0.001,-0.029,-0.898,1.085
2024-09-23 11:50:02.209,163335.052,-0.019,0.783,-0.622,0.011,-0.042,-0.021,-0.12,-0.066,-0.001,-0.03,-0.899,1.084
2024-09-23 11:50:02.219,163335.062,-0.019,0.783,-0.621,0.002,0.04,0.008,-0.036,-0.071,0.027,-0.031,-0.9,1.085
2024-09-23 11:50:02.229,163335.072,-0.019,0.783,-0.621,0.003,-0.031,-0.01,-0.042,-0.078,-0.019,-0.031,-0.9,1.085
2024-09-23 11:50:02.239,163335.082,-0.02,0.784,-0.621,0.009,-0.008,0.003,-0.027,-0.06,0.012,-0.032,-0.901,1.085
2024-09-23 11:50:02.249,163335.092,-0.02,0.784,-0.62,-0.003,0.044,0.009,-0.103,-0.071,0.008,-0.033,-0.901,1.085
2024-09-23 11:50:02.259,163335.102,-0.02,0.784,-0.62,-0.006,-0.03,-0.0,-0.011,-0.057,0.004,-0.033,-0.902,1.085
2024-09-23 11:50:02.269,163335.112,-0.021,0.784,-0.62,0.001,-0.028,-0.012,-0.014,-0.06,0.01,-0.033,-0.902,1.085
2024-09-23 11:50:02.279,163335.122,-0.021,0.785,-0.62,0.005,0.02,0.01,0.005,-0.046,0.016,-0.034,-0.902,1.085
2024-09-23 11:50:02.289,163335.132,-0.021,0.784,-0.62,0.003,0.003,-0.008,-0.011,-0.034,-0.011,-0.034,-0.902,1.085
2024-09-23 11:50:02.299,163335.142,-0.021,0.785,-0.619,0.003,-0.013,-0.008,-0.085,-0.017,0.016,-0.034,-0.902,1.085
2024-09-23 11:50:02.309,163335.152,-0.021,0.785,-0.619,-0.01,0.003,-0.0,-0.065,-0.02,-0.003,-0.034,-0.903,1.085
2024-09-23 11:50:02.319,163335.162,-0.021,0.786,-0.618,-0.0,-0.051,-0.015,-0.051,0.007,-0.002,-0.035,-0.904,1.085
2024-09-23 11:50:02.329,163335.172,-0.021,0.786,-0.618,0.0,0.005,0.004,-0.092,0.022,-0.018,-0.035,-0.904,1.085
2024-09-23 11:50:02.339,163335.182,-0.021,0.787,-0.617,-0.001,0.006,0.015,-0.144,0.028,-0.003,-0.035,-0.906,1.085
2024-09-23 11:50:02.349,163335.192,-0.021,0.788,-0.616,-0.012,-0.025,0.009,-0.134,0.032,-0.001,-0.034,-0.907,1.085
2024-09-23 11:50:02.359,163335.202,-0.021,0.788,-0.615,-0.014,-0.039,-0.01,-0.126,0.05,0.008,-0.034,-0.908,1.085
2024-09-23 11:50:02.368,163335.212,-0.02,0.789,-0.614,-0.006,-0.006,0.001,-0.158,0.061,-0.011,-0.033,-0.91,1.085
2024-09-23 11:50:02.379,163335.222,-0.02,0.79,-0.612,-0.006,0.003,0.006,-0.246,0.089,0.013,-0.033,-0.912,1.085
2024-09-23 11:50:02.388,163335.232,-0.019,0.792,-0.61,-0.012,-0.017,-0.005,-0.331,0.123,-0.012,-0.032,-0.914,1.085
2024-09-23 11:50:02.398,163335.242,-0.019,0.794,-0.607,-0.01,-0.034,-0.022,-0.397,0.156,-0.006,-0.031,-0.918,1.084
2024-09-23 11:50:02.409,163335.252,-0.018,0.797,-0.604,-0.021,-0.038,-0.045,-0.411,0.171,-0.001,-0.029,-0.922,1.084
2024-09-23 11:50:02.418,163335.262,-0.017,0.799,-0.601,-0.021,-0.058,-0.041,-0.362,0.17,-0.002,-0.028,-0.926,1.084
2024-09-23 11:50:02.428,163335.272,-0.016,0.801,-0.598,-0.01,-0.031,-0.008,-0.294,0.158,0.001,-0.026,-0.929,1.083
2024-09-23 11:50:02.438,163335.282,-0.015,0.802,-0.596,-0.007,0.018,0.01,-0.21,0.143,0.005,-0.025,-0.931,1.083
2024-09-23 11:50:02.448,163335.292,-0.014,0.803,-0.595,0.002,0.038,0.034,-0.113,0.123,0.007,-0.024,-0.933,1.083
2024-09-23 11:50:02.458,163335.302,-0.013,0.804,-0.595,0.003,0.043,0.049,-0.037,0.096,0.017,-0.022,-0.934,1.083
2024-09-23 11:50:02.468,163335.311,-0.013,0.804,-0.595,0.007,0.038,0.032,0.053,0.059,0.018,-0.021,-0.934,1.084
2024-09-23 11:50:02.478,163335.321,-0.012,0.803,-0.596,0.013,0.024,-0.012,0.113,0.032,0.011,-0.021,-0.933,1.084
2024-09-23 11:50:02.488,163335.331,-0.012,0.802,-0.597,0.017,0.016,-0.02,0.147,0.024,0.001,-0.02,-0.931,1.084
2024-09-23 11:50:02.498,163335.341,-0.012,0.801,-0.598,0.021,0.008,0.0,0.145,0.008,-0.007,-0.02,-0.93,1.084
2024-09-23 11:50:02.508,163335.351,-0.012,0.801,-0.599,0.017,0.007,-0.001,0.143,-0.009,-0.011,-0.021,-0.928,1.084
2024-09-23 11:50:02.518,163335.361,-0.012,0.8,-0.6,0.01,-0.001,-0.003,0.153,-0.017,-0.008,-0.021,-0.927,1.084
2024-09-23 11:50:02.528,163335.371,-0.013,0.799,-0.602,0.011,-0.003,0.001,0.198,-0.024,-0.014,-0.021,-0.925,1.084
2024-09-23 11:50:02.538,163335.381,-0.013,0.797,-0.603,0.011,0.004,0.005,0.251,-0.043,-0.011,-0.021,-0.923,1.083
2024-09-23 11:50:02.548,163335.391,-0.013,0.796,-0.605,0.007,0.016,0.017,0.304,-0.055,-0.007,-0.022,-0.92,1.083
2024-09-23 11:50:02.558,163335.401,-0.014,0.794,-0.608,0.012,0.017,0.019,0.346,-0.074,-0.003,-0.023,-0.917,1.084
2024-09-23 11:50:02.568,163335.411,-0.014,0.792,-0.611,0.012,0.025,0.016,0.392,-0.082,-0.007,-0.023,-0.913,1.084
2024-09-23 11:50:02.579,163335.421,-0.015,0.789,-0.614,0.008,0.029,0.021,0.403,-0.084,-0.007,-0.024,-0.91,1.084
2024-09-23 11:50:02.588,163335.431,-0.015,0.787,-0.617,0.008,0.028,0.019,0.358,-0.102,0.015,-0.024,-0.906,1.084
2024-09-23 11:50:02.599,163335.441,-0.015,0.785,-0.619,0.003,0.011,0.012,0.102,-0.044,0.008,-0.025,-0.903,1.085
2024-09-23 11:50:02.607,163335.451,-0.015,0.785,-0.619,-0.002,-0.009,0.002,0.022,-0.019,0.005,-0.025,-0.903,1.085
2024-09-23 11:50:02.617,163335.461,-0.015,0.785,-0.619,-0.021,-0.038,-0.015,-0.032,-0.001,0.027,-0.025,-0.903,1.085
2024-09-23 11:50:02.627,163335.471,-0.015,0.785,-0.619,-0.031,-0.089,-0.05,-0.006,-0.002,0.016,-0.024,-0.903,1.085
2024-09-23 11:50:02.637,163335.481,-0.015,0.785,-0.619,-0.001,-0.07,-0.035,0.001,0.006,0.02,-0.024,-0.903,1.086
2024-09-23 11:50:02.647,163335.491,-0.015,0.785,-0.619,-0.011,0.004,-0.007,0.06,0.0,0.017,-0.024,-0.903,1.086
2024-09-23 11:50:02.658,163335.501,-0.015,0.785,-0.62,-0.002,0.002,0.01,0.093,-0.006,0.012,-0.024,-0.902,1.086
2024-09-23 11:50:02.668,163335.511,-0.014,0.784,-0.62,-0.005,0.011,0.015,0.078,0.002,0.02,-0.023,-0.902,1.087
2024-09-23 11:50:02.678,163335.521,-0.014,0.784,-0.621,-0.004,0.01,0.013,0.06,0.007,0.007,-0.023,-0.901,1.087
2024-09-23 11:50:02.688,163335.531,-0.014,0.784,-0.621,0.0,0.001,0.013,0.014,0.017,0.019,-0.023,-0.9,1.087
2024-09-23 11:50:02.698,163335.541,-0.014,0.783,-0.621,-0.008,-0.003,0.004,0.017,0.023,0.023,-0.022,-0.9,1.087
2024-09-23 11:50:02.708,163335.551,-0.014,0.783,-0.621,-0.008,-0.034,-0.008,0.017,0.034,0.015,-0.022,-0.9,1.088
2024-09-23 11:50:02.718,163335.561,-0.013,0.783,-0.621,-0.006,-0.025,-0.009,-0.024,0.01,0.02,-0.021,-0.9,1.088
2024-09-23 11:50:02.728,163335.571,-0.013,0.783,-0.621,-0.006,-0.011,-0.008,0.003,0.017,0.043,-0.021,-0.9,1.089
2024-09-23 11:50:02.738,163335.581,-0.013,0.783,-0.621,-0.007,-0.023,-0.007,0.048,0.026,0.024,-0.02,-0.9,1.089
2024-09-23 11:50:02.748,163335.591,-0.012,0.783,-0.622,0.006,-0.006,0.012,0.039,0.014,0.028,-0.02,-0.9,1.09
2024-09-23 11:50:02.758,163335.601,-0.012,0.783,-0.622,-0.002,0.018,0.002,0.029,0.013,0.037,-0.019,-0.899,1.09
2024-09-23 11:50:02.768,163335.611,-0.012,0.783,-0.622,-0.006,-0.009,-0.011,0.02,0.025,0.023,-0.019,-0.899,1.091
2024-09-23 11:50:02.778,163335.621,-0.011,0.783,-0.622,0.005,-0.014,0.006,-0.011,0.015,0.029,-0.018,-0.899,1.091
2024-09-23 11:50:02.788,163335.631,-0.011,0.783,-0.622,0.004,-0.001,-0.003,0.01,0.011,0.036,-0.018,-0.899,1.091
2024-09-23 11:50:02.798,163335.641,-0.011,0.783,-0.623,-0.007,-0.016,-0.003,0.016,0.03,0.024,-0.017,-0.899,1.092
2024-09-23 11:50:02.808,163335.651,-0.01,0.783,-0.623,0.007,-0.011,0.01,-0.013,0.026,0.018,-0.017,-0.899,1.092
2024-09-23 11:50:02.818,163335.661,-0.01,0.783,-0.622,0.005,0.016,0.007,-0.023,0.011,0.042,-0.016,-0.899,1.092
2024-09-23 11:50:02.828,163335.671,-0.01,0.783,-0.622,-0.014,-0.014,-0.012,-0.005,0.023,0.03,-0.016,-0.899,1.093
2024-09-23 11:50:02.838,163335.681,-0.009,0.783,-0.622,-0.007,-0.033,-0.004,-0.001,0.008,0.025,-0.015,-0.899,1.093
2024-09-23 11:50:02.848,163335.691,-0.009,0.783,-0.622,-0.001,0.004,-0.002,-0.02,-0.016,0.038,-0.015,-0.899,1.094
2024-09-23 11:50:02.858,163335.701,-0.009,0.783,-0.622,-0.01,0.007,-0.013,0.008,-0.002,0.027,-0.015,-0.899,1.095
2024-09-23 11:50:02.868,163335.711,-0.009,0.783,-0.622,0.01,-0.026,0.004,0.003,0.001,0.013,-0.014,-0.899,1.095
2024-09-23 11:50:02.878,163335.721,-0.009,0.783,-0.622,0.025,0.009,0.012,-0.021,-0.004,0.025,-0.014,-0.899,1.095
2024-09-23 11:50:02.888,163335.731,-0.009,0.783,-0.622,0.002,0.011,-0.011,-0.021,0.006,0.026,-0.014,-0.899,1.096
2024-09-23 11:50:02.897,163335.741,-0.008,0.783,-0.622,0.003,-0.037,-0.005,-0.029,0.033,0.008,-0.013,-0.9,1.096
2024-09-23 11:50:02.907,163335.751,-0.008,0.783,-0.622,0.006,-0.007,0.01,-0.036,0.001,0.023,-0.013,-0.9,1.096
2024-09-23 11:50:02.917,163335.761,-0.008,0.784,-0.621,-0.021,0.008,-0.008,-0.025,0.024,0.04,-0.013,-0.9,1.097
2024-09-23 11:50:02.928,163335.771,-0.007,0.784,-0.621,-0.015,-0.028,-0.003,0.003,0.033,0.018,-0.012,-0.9,1.097
2024-09-23 11:50:02.938,163335.781,-0.007,0.784,-0.621,0.013,-0.01,0.003,-0.044,0.011,0.024,-0.012,-0.901,1.097
2024-09-23 11:50:02.947,163335.791,-0.007,0.784,-0.621,-0.01,0.028,-0.008,-0.052,0.018,0.036,-0.011,-0.901,1.098
2024-09-23 11:50:02.958,163335.801,-0.006,0.784,-0.62,-0.003,-0.033,-0.008,-0.077,0.049,0.022,-0.01,-0.902,1.098
2024-09-23 11:50:02.967,163335.811,-0.006,0.785,-0.619,0.01,-0.027,-0.003,-0.134,0.053,0.006,-0.009,-0.903,1.098
2024-09-23 11:50:02.977,163335.821,-0.005,0.786,-0.618,-0.005,-0.006,0.002,-0.194,0.076,0.032,-0.009,-0.904,1.099
2024-09-23 11:50:02.988,163335.831,-0.005,0.787,-0.617,-0.024,-0.046,-0.006,-0.193,0.103,0.004,-0.007,-0.906,1.099
2024-09-23 11:50:02.998,163335.841,-0.004,0.788,-0.615,-0.014,-0.052,0.008,-0.246,0.089,0.014,-0.007,-0.908,1.099
2024-09-23 11:50:03.007,163335.851,-0.003,0.79,-0.613,-0.008,-0.01,0.01,-0.27,0.096,0.023,-0.006,-0.911,1.099
2024-09-23 11:50:03.017,163335.861,-0.003,0.792,-0.611,-0.02,-0.031,-0.008,-0.34,0.111,0.018,-0.004,-0.914,1.1
2024-09-23 11:50:03.028,163335.871,-0.002,0.794,-0.607,-0.012,-0.037,-0.011,-0.553,0.157,0.003,-0.003,-0.918,1.1
2024-09-23 11:50:03.038,163335.881,-0.001,0.798,-0.602,-0.023,0.002,-0.005,-0.745,0.18,0.019,-0.001,-0.925,1.1
2024-09-23 11:50:03.048,163335.89,0.001,0.803,-0.596,-0.04,-0.054,-0.019,-0.839,0.186,0.057,0.001,-0.932,1.1
2024-09-23 11:50:03.058,163335.9,0.002,0.808,-0.589,-0.049,-0.091,-0.061,-0.794,0.184,0.096,0.004,-0.941,1.102
2024-09-23 11:50:03.067,163335.91,0.004,0.812,-0.583,-0.036,-0.06,-0.062,-0.687,0.142,0.176,0.008,-0.948,1.104
2024-09-23 11:50:03.078,163335.92,0.007,0.816,-0.578,-0.032,0.003,-0.049,-0.585,0.13,0.222,0.012,-0.954,1.108
2024-09-23 11:50:03.087,163335.93,0.01,0.819,-0.574,-0.017,0.037,-0.04,-0.467,0.106,0.271,0.017,-0.959,1.112
2024-09-23 11:50:03.097,163335.94,0.012,0.821,-0.571,0.005,0.046,-0.01,-0.349,0.074,0.267,0.021,-0.963,1.117
2024-09-23 11:50:03.107,163335.95,0.011,0.822,-0.569,0.009,0.067,0.035,-0.135,-0.685,-0.798,0.02,-0.966,1.117
2024-09-23 11:50:03.118,163335.96,0.007,0.826,-0.564,0.032,0.06,0.048,-0.679,-0.36,0.167,0.012,-0.972,1.111
2024-09-23 11:50:03.136,163335.97,0.006,0.829,-0.56,-0.079,0.045,0.055,-0.247,-0.157,-0.049,0.011,-0.977,1.112
2024-09-23 11:50:03.141,163335.98,0.005,0.829,-0.56,-0.226,0.005,0.189,0.183,-0.209,0.034,0.009,-0.977,1.112
2024-09-23 11:50:03.147,163335.99,0.004,0.827,-0.562,0.095,-0.004,0.032,0.279,-0.224,0.004,0.008,-0.975,1.113
2024-09-23 11:50:03.157,163336.0,0.003,0.826,-0.564,-0.052,0.178,0.02,0.364,-0.26,0.03,0.006,-0.971,1.113
2024-09-23 11:50:03.167,163336.01,0.002,0.823,-0.568,-0.02,0.075,0.075,0.508,-0.281,0.024,0.003,-0.967,1.114
2024-09-23 11:50:03.178,163336.02,0.001,0.82,-0.572,0.006,0.007,0.052,0.534,-0.274,0.019,0.001,-0.962,1.114
2024-09-23 11:50:03.188,163336.03,-0.001,0.817,-0.576,0.012,0.082,0.044,0.485,-0.249,0.033,-0.001,-0.957,1.115
2024-09-23 11:50:03.197,163336.04,-0.002,0.815,-0.58,0.029,0.035,0.045,0.456,-0.182,0.023,-0.003,-0.952,1.116
2024-09-23 11:50:03.207,163336.05,-0.002,0.812,-0.583,0.044,-0.024,0.03,0.409,-0.124,0.04,-0.004,-0.948,1.116
2024-09-23 11:50:03.218,163336.06,-0.002,0.81,-0.587,0.058,-0.038,-0.008,0.367,-0.082,0.051,-0.004,-0.944,1.117
2024-09-23 11:50:03.227,163336.07,-0.002,0.808,-0.59,0.055,-0.066,-0.034,0.383,-0.041,0.057,-0.004,-0.94,1.118
2024-09-23 11:50:03.238,163336.08,-0.002,0.805,-0.593,0.055,-0.072,-0.063,0.386,-0.009,0.068,-0.003,-0.936,1.119
2024-09-23 11:50:03.247,163336.09,-0.002,0.803,-0.596,0.082,-0.069,-0.082,0.353,-0.029,0.017,-0.003,-0.933,1.12
2024-09-23 11:50:03.256,163336.1,-0.002,0.801,-0.598,0.105,-0.072,-0.079,0.254,-0.054,-0.064,-0.004,-0.93,1.119
2024-09-23 11:50:03.266,163336.11,-0.003,0.8,-0.6,0.103,-0.052,-0.06,0.197,-0.063,-0.101,-0.005,-0.927,1.118
2024-09-23 11:50:03.277,163336.12,-0.004,0.799,-0.601,0.069,-0.029,-0.028,0.16,-0.057,-0.103,-0.007,-0.926,1.116
2024-09-23 11:50:03.287,163336.13,-0.005,0.798,-0.603,0.038,-0.002,-0.002,0.125,-0.048,-0.079,-0.009,-0.924,1.115
2024-09-23 11:50:03.297,163336.14,-0.006,0.797,-0.603,0.017,0.014,0.009,0.099,-0.046,-0.053,-0.01,-0.923,1.114
2024-09-23 11:50:03.307,163336.15,-0.007,0.797,-0.604,-0.005,0.002,-0.003,0.117,-0.047,-0.032,-0.011,-0.922,1.113
2024-09-23 11:50:03.317,163336.16,-0.007,0.796,-0.605,-0.019,-0.006,0.002,0.164,-0.047,-0.007,-0.012,-0.921,1.113
2024-09-23 11:50:03.327,163336.17,-0.008,0.795,-0.607,-0.025,-0.009,0.004,0.219,-0.049,0.002,-0.013,-0.919,1.113
2024-09-23 11:50:03.337,163336.18,-0.008,0.793,-0.609,-0.02,-0.002,0.001,0.225,-0.034,0.003,-0.013,-0.916,1.113
2024-09-23 11:50:03.347,163336.19,-0.008,0.792,-0.61,-0.014,0.014,0.005,0.21,-0.025,-0.005,-0.013,-0.914,1.113
2024-09-23 11:50:03.357,163336.2,-0.008,0.791,-0.612,-0.004,-0.001,0.006,0.151,-0.01,-0.012,-0.013,-0.912,1.113
2024-09-23 11:50:03.368,163336.21,-0.008,0.79,-0.613,-0.0,-0.005,-0.008,0.071,-0.003,-0.016,-0.014,-0.911,1.113
2024-09-23 11:50:03.377,163336.22,-0.008,0.79,-0.613,0.002,-0.013,-0.019,0.031,0.004,-0.021,-0.014,-0.911,1.112
2024-09-23 11:50:03.387,163336.23,-0.009,0.79,-0.613,0.0,-0.026,-0.026,0.002,0.016,-0.02,-0.014,-0.911,1.112
2024-09-23 11:50:03.397,163336.24,-0.009,0.79,-0.613,-0.003,-0.015,-0.021,0.014,0.02,-0.019,-0.014,-0.911,1.112
2024-09-23 11:50:03.407,163336.25,-0.009,0.79,-0.614,-0.002,-0.015,-0.002,0.076,0.018,-0.02,-0.014,-0.91,1.111
2024-09-23 11:50:03.417,163336.26,-0.009,0.789,-0.614,-0.001,-0.001,0.012,0.138,0.013,-0.015,-0.014,-0.909,1.111
2024-09-23 11:50:03.426,163336.27,-0.009,0.788,-0.616,0.002,0.011,0.008,0.191,-0.003,-0.015,-0.015,-0.908,1.111
2024-09-23 11:50:03.437,163336.28,-0.009,0.787,-0.617,0.011,0.015,0.012,0.224,-0.012,-0.02,-0.015,-0.905,1.11
2024-09-23 11:50:03.447,163336.29,-0.009,0.785,-0.619,0.012,0.02,0.026,0.219,-0.018,-0.019,-0.015,-0.903,1.11
2024-09-23 11:50:03.456,163336.3,-0.01,0.784,-0.621,0.011,0.021,0.021,0.212,-0.02,-0.02,-0.016,-0.901,1.11
2024-09-23 11:50:03.466,163336.31,-0.01,0.783,-0.622,0.01,0.011,0.009,0.216,-0.022,-0.026,-0.016,-0.899,1.11
2024-09-23 11:50:03.477,163336.32,-0.01,0.781,-0.624,0.006,0.006,0.008,0.215,-0.036,-0.011,-0.017,-0.897,1.109
2024-09-23 11:50:03.486,163336.33,-0.011,0.78,-0.626,0.004,0.01,0.003,0.215,-0.047,0.004,-0.017,-0.894,1.109
2024-09-23 11:50:03.497,163336.34,-0.011,0.779,-0.627,0.003,-0.007,0.002,0.15,-0.028,0.019,-0.017,-0.893,1.11
2024-09-23 11:50:03.507,163336.35,-0.011,0.778,-0.628,-0.0,-0.017,0.004,0.049,-0.032,-0.012,-0.017,-0.892,1.11
2024-09-23 11:50:03.516,163336.36,-0.011,0.778,-0.628,-0.009,-0.003,0.011,0.005,-0.019,0.016,-0.017,-0.892,1.11
2024-09-23 11:50:03.526,163336.37,-0.011,0.778,-0.628,-0.025,-0.029,-0.014,-0.039,-0.019,0.019,-0.017,-0.892,1.11
2024-09-23 11:50:03.536,163336.38,-0.011,0.779,-0.627,-0.006,-0.065,-0.038,-0.043,-0.025,0.016,-0.017,-0.893,1.111
2024-09-23 11:50:03.546,163336.39,-0.011,0.779,-0.627,0.003,-0.035,-0.017,-0.055,-0.029,0.031,-0.017,-0.893,1.111
2024-09-23 11:50:03.557,163336.4,-0.011,0.779,-0.627,-0.007,-0.015,-0.008,-0.018,-0.033,0.025,-0.017,-0.893,1.111
2024-09-23 11:50:03.566,163336.41,-0.011,0.78,-0.626,-0.0,-0.012,-0.001,-0.051,-0.051,0.03,-0.017,-0.894,1.112
2024-09-23 11:50:03.577,163336.42,-0.011,0.78,-0.626,-0.003,0.002,0.002,0.001,-0.052,0.031,-0.017,-0.894,1.112
2024-09-23 11:50:03.586,163336.43,-0.011,0.78,-0.626,0.0,-0.009,-0.001,-0.051,-0.058,0.009,-0.018,-0.894,1.113
2024-09-23 11:50:03.596,163336.44,-0.011,0.78,-0.626,0.007,0.003,0.012,-0.016,-0.051,0.019,-0.018,-0.895,1.113
2024-09-23 11:50:03.606,163336.45,-0.012,0.78,-0.625,0.005,0.001,-0.004,-0.071,-0.055,0.002,-0.019,-0.895,1.113
2024-09-23 11:50:03.617,163336.46,-0.012,0.78,-0.625,0.007,-0.023,0.0,-0.032,-0.056,0.014,-0.019,-0.895,1.113
2024-09-23 11:50:03.627,163336.469,-0.012,0.78,-0.625,0.012,-0.018,-0.012,-0.024,-0.053,0.012,-0.02,-0.895,1.113
2024-09-23 11:50:03.636,163336.479,-0.012,0.781,-0.625,0.001,-0.008,-0.009,-0.01,-0.057,0.011,-0.02,-0.895,1.113
2024-09-23 11:50:03.646,163336.489,-0.013,0.781,-0.625,-0.004,0.004,0.001,-0.003,-0.058,0.012,-0.02,-0.895,1.113
2024-09-23 11:50:03.657,163336.499,-0.013,0.781,-0.624,0.001,-0.009,-0.0,-0.118,-0.074,0.016,-0.021,-0.896,1.113
2024-09-23 11:50:03.666,163336.509,-0.013,0.781,-0.624,0.004,-0.002,-0.007,0.021,-0.063,0.025,-0.021,-0.897,1.114
2024-09-23 11:50:03.677,163336.519,-0.014,0.781,-0.624,0.002,-0.025,-0.025,-0.091,-0.068,-0.016,-0.022,-0.897,1.114
2024-09-23 11:50:03.687,163336.529,-0.014,0.782,-0.623,0.0,0.013,0.024,-0.037,-0.07,0.031,-0.022,-0.898,1.114
2024-09-23 11:50:03.696,163336.539,-0.014,0.782,-0.623,0.007,-0.005,0.005,-0.032,-0.065,-0.011,-0.023,-0.898,1.114
2024-09-23 11:50:03.706,163336.549,-0.015,0.783,-0.622,0.004,-0.032,-0.015,-0.115,-0.067,0.01,-0.024,-0.899,1.114
2024-09-23 11:50:03.717,163336.559,-0.015,0.783,-0.622,0.002,0.024,0.001,0.028,-0.06,0.015,-0.024,-0.899,1.115
2024-09-23 11:50:03.726,163336.569,-0.015,0.783,-0.622,0.009,-0.045,-0.024,-0.074,-0.051,-0.019,-0.025,-0.899,1.115
2024-09-23 11:50:03.736,163336.579,-0.016,0.783,-0.622,-0.002,0.022,0.013,0.008,-0.055,0.017,-0.025,-0.9,1.115
2024-09-23 11:50:03.746,163336.589,-0.016,0.783,-0.621,0.005,-0.007,0.001,-0.051,-0.045,-0.01,-0.026,-0.9,1.115
2024-09-23 11:50:03.757,163336.599,-0.016,0.784,-0.621,-0.009,-0.027,-0.001,-0.06,-0.072,0.005,-0.026,-0.9,1.115
2024-09-23 11:50:03.766,163336.609,-0.017,0.784,-0.621,0.002,-0.002,0.006,0.039,-0.073,-0.002,-0.027,-0.9,1.115
2024-09-23 11:50:03.776,163336.619,-0.017,0.784,-0.621,0.013,-0.006,0.007,0.004,-0.064,-0.014,-0.027,-0.9,1.115
2024-09-23 11:50:03.786,163336.629,-0.017,0.783,-0.621,0.004,0.044,0.025,0.032,-0.062,-0.003,-0.028,-0.9,1.115
2024-09-23 11:50:03.796,163336.639,-0.018,0.783,-0.621,0.002,-0.005,0.001,0.004,-0.04,-0.029,-0.029,-0.9,1.114
2024-09-23 11:50:03.806,163336.649,-0.018,0.783,-0.621,-0.003,-0.016,-0.0,-0.04,-0.013,-0.024,-0.029,-0.9,1.114
2024-09-23 11:50:03.816,163336.659,-0.018,0.784,-0.621,0.003,-0.005,-0.0,-0.12,-0.029,-0.04,-0.03,-0.901,1.114
2024-09-23 11:50:03.826,163336.669,-0.019,0.784,-0.62,-0.003,-0.031,-0.01,0.003,-0.008,0.011,-0.03,-0.902,1.113
2024-09-23 11:50:03.836,163336.679,-0.019,0.784,-0.62,0.001,-0.032,-0.02,0.028,0.026,-0.045,-0.03,-0.901,1.113
2024-09-23 11:50:03.846,163336.689,-0.019,0.784,-0.62,0.009,0.004,0.014,-0.078,0.02,-0.031,-0.031,-0.902,1.112
2024-09-23 11:50:03.856,163336.699,-0.019,0.785,-0.62,-0.005,0.036,0.045,-0.037,0.033,0.011,-0.03,-0.902,1.112
2024-09-23 11:50:03.866,163336.709,-0.019,0.785,-0.619,-0.007,-0.059,-0.003,-0.094,0.05,-0.033,-0.03,-0.903,1.112
2024-09-23 11:50:03.876,163336.719,-0.018,0.786,-0.618,-0.012,-0.004,0.002,-0.224,0.077,0.002,-0.03,-0.904,1.112
2024-09-23 11:50:03.886,163336.729,-0.018,0.788,-0.616,-0.016,0.008,-0.012,-0.312,0.105,-0.011,-0.029,-0.907,1.111
2024-09-23 11:50:03.895,163336.739,-0.017,0.79,-0.613,-0.009,-0.066,-0.027,-0.442,0.137,-0.032,-0.028,-0.911,1.111
2024-09-23 11:50:03.905,163336.749,-0.017,0.793,-0.609,-0.019,-0.024,-0.038,-0.468,0.157,-0.008,-0.027,-0.915,1.11
2024-09-23 11:50:03.915,163336.759,-0.016,0.796,-0.606,-0.02,-0.048,-0.063,-0.481,0.173,-0.011,-0.026,-0.92,1.11
2024-09-23 11:50:03.925,163336.769,-0.015,0.798,-0.602,-0.01,-0.073,-0.047,-0.434,0.183,-0.004,-0.024,-0.925,1.11
2024-09-23 11:50:03.935,163336.779,-0.014,0.801,-0.599,-0.007,-0.012,-0.001,-0.366,0.185,-0.006,-0.023,-0.929,1.11
2024-09-23 11:50:03.946,163336.789,-0.013,0.803,-0.596,-0.009,0.012,0.025,-0.295,0.182,-0.007,-0.021,-0.932,1.109
2024-09-23 11:50:03.956,163336.799,-0.012,0.804,-0.594,-0.004,0.031,0.043,-0.209,0.156,0.001,-0.019,-0.934,1.109
2024-09-23 11:50:03.966,163336.809,-0.011,0.805,-0.593,0.001,0.029,0.04,-0.094,0.111,0.01,-0.018,-0.936,1.109
2024-09-23 11:50:03.976,163336.819,-0.01,0.805,-0.593,0.007,0.026,0.004,0.045,0.084,0.007,-0.017,-0.936,1.109
2024-09-23 11:50:03.986,163336.829,-0.01,0.805,-0.594,0.013,0.033,-0.016,0.14,0.056,-0.003,-0.016,-0.935,1.109
2024-09-23 11:50:03.996,163336.839,-0.01,0.804,-0.595,0.019,0.033,0.014,0.171,0.034,-0.008,-0.016,-0.933,1.109
2024-09-23 11:50:04.007,163336.849,-0.009,0.803,-0.597,0.02,0.032,0.019,0.171,0.023,-0.012,-0.016,-0.932,1.109
2024-09-23 11:50:04.016,163336.859,-0.009,0.802,-0.598,0.016,0.024,-0.002,0.15,0.016,-0.015,-0.016,-0.93,1.109
2024-09-23 11:50:04.024,163336.869,-0.009,0.801,-0.599,0.014,0.002,0.002,0.133,0.022,-0.01,-0.016,-0.929,1.109
2024-09-23 11:50:04.034,163336.879,-0.009,0.8,-0.6,0.005,-0.009,0.006,0.128,0.01,-0.006,-0.016,-0.927,1.109
2024-09-23 11:50:04.044,163336.889,-0.009,0.799,-0.601,-0.001,-0.006,-0.006,0.135,-0.008,-0.002,-0.016,-0.926,1.109
2024-09-23 11:50:04.054,163336.899,-0.009,0.798,-0.602,0.0,-0.018,-0.013,0.169,-0.031,0.005,-0.016,-0.924,1.109
2024-09-23 11:50:04.065,163336.909,-0.01,0.797,-0.604,0.004,-0.014,-0.009,0.23,-0.053,0.01,-0.016,-0.922,1.109
2024-09-23 11:50:04.077,163336.919,-0.01,0.796,-0.606,0.005,0.001,-0.004,0.275,-0.081,-0.002,-0.016,-0.92,1.109
2024-09-23 11:50:04.086,163336.929,-0.01,0.794,-0.608,0.01,0.017,0.013,0.302,-0.096,0.002,-0.017,-0.917,1.109
2024-09-23 11:50:04.095,163336.939,-0.011,0.792,-0.61,0.014,0.028,0.026,0.357,-0.105,0.006,-0.018,-0.914,1.109
2024-09-23 11:50:04.106,163336.949,-0.011,0.79,-0.613,0.014,0.022,0.026,0.389,-0.104,0.005,-0.019,-0.91,1.11
2024-09-23 11:50:04.116,163336.959,-0.012,0.788,-0.616,0.008,0.021,0.026,0.252,-0.043,0.02,-0.019,-0.907,1.11
2024-09-23 11:50:04.125,163336.969,-0.012,0.787,-0.617,0.0,0.013,0.024,0.089,-0.039,-0.031,-0.02,-0.906,1.11
2024-09-23 11:50:04.161,163336.979,-0.012,0.787,-0.617,-0.007,-0.004,0.018,-0.042,-0.003,0.03,-0.02,-0.905,1.11
2024-09-23 11:50:04.166,163336.989,-0.012,0.787,-0.617,-0.038,-0.07,-0.048,-0.057,0.003,0.01,-0.02,-0.906,1.11
2024-09-23 11:50:04.173,163336.999,-0.012,0.787,-0.617,-0.008,-0.111,-0.055,-0.028,-0.01,0.019,-0.02,-0.906,1.111
2024-09-23 11:50:04.177,163337.009,-0.012,0.787,-0.616,-0.008,-0.021,-0.016,0.016,-0.014,0.016,-0.019,-0.906,1.111
2024-09-23 11:50:04.180,163337.019,-0.012,0.787,-0.617,-0.003,0.011,-0.002,0.055,-0.012,-0.0,-0.019,-0.906,1.111
2024-09-23 11:50:04.186,163337.029,-0.012,0.787,-0.617,0.011,0.01,0.016,0.049,-0.012,0.004,-0.02,-0.906,1.111
2024-09-23 11:50:04.195,163337.039,-0.012,0.787,-0.617,0.003,0.016,0.009,0.053,0.008,0.009,-0.019,-0.905,1.111
2024-09-23 11:50:04.205,163337.049,-0.012,0.786,-0.618,-0.001,0.0,0.005,0.074,-0.003,0.008,-0.019,-0.905,1.111
2024-09-23 11:50:04.214,163337.058,-0.012,0.786,-0.618,-0.005,-0.005,0.007,0.075,0.006,0.013,-0.019,-0.904,1.112
2024-09-23 11:50:04.224,163337.068,-0.012,0.785,-0.619,-0.001,-0.002,0.01,0.04,0.018,0.019,-0.019,-0.903,1.112
2024-09-23 11:50:04.234,163337.078,-0.012,0.785,-0.619,0.004,-0.005,0.011,0.001,0.019,0.012,-0.019,-0.903,1.112
2024-09-23 11:50:04.244,163337.088,-0.011,0.785,-0.619,-0.004,-0.003,-0.003,-0.033,0.002,0.022,-0.018,-0.903,1.112
2024-09-23 11:50:04.254,163337.098,-0.011,0.785,-0.619,-0.015,-0.031,-0.018,-0.027,-0.0,0.03,-0.018,-0.903,1.113
2024-09-23 11:50:04.265,163337.108,-0.011,0.786,-0.619,-0.011,-0.032,-0.013,-0.028,0.022,0.018,-0.017,-0.904,1.113
2024-09-23 11:50:04.275,163337.118,-0.011,0.786,-0.619,0.011,-0.006,0.0,0.001,-0.019,0.02,-0.017,-0.904,1.113
2024-09-23 11:50:04.284,163337.128,-0.01,0.786,-0.618,-0.002,0.015,-0.017,-0.008,-0.002,0.039,-0.017,-0.904,1.114
2024-09-23 11:50:04.294,163337.138,-0.01,0.786,-0.618,-0.015,-0.011,-0.009,0.007,0.023,0.014,-0.017,-0.904,1.114
2024-09-23 11:50:04.304,163337.148,-0.01,0.786,-0.618,0.017,-0.022,0.021,-0.016,0.008,0.011,-0.016,-0.904,1.114
2024-09-23 11:50:04.314,163337.158,-0.01,0.786,-0.618,0.001,0.031,-0.001,-0.044,0.014,0.035,-0.016,-0.904,1.115
2024-09-23 11:50:04.325,163337.168,-0.01,0.786,-0.618,-0.011,-0.018,-0.017,-0.024,0.004,0.005,-0.015,-0.905,1.115
2024-09-23 11:50:04.335,163337.178,-0.009,0.786,-0.618,0.011,-0.039,0.001,-0.041,0.034,0.02,-0.015,-0.905,1.115
2024-09-23 11:50:04.344,163337.188,-0.009,0.786,-0.618,0.005,0.018,0.0,-0.037,0.023,0.001,-0.015,-0.905,1.115
2024-09-23 11:50:04.355,163337.198,-0.009,0.787,-0.617,0.001,-0.008,0.0,-0.045,-0.005,0.021,-0.015,-0.905,1.116
2024-09-23 11:50:04.365,163337.208,-0.009,0.787,-0.617,-0.013,-0.005,-0.014,-0.021,-0.018,0.03,-0.014,-0.906,1.116
2024-09-23 11:50:04.375,163337.218,-0.009,0.787,-0.617,-0.008,-0.017,-0.006,0.002,-0.02,0.024,-0.014,-0.906,1.116
2024-09-23 11:50:04.385,163337.228,-0.009,0.787,-0.617,0.011,-0.005,0.007,-0.02,-0.005,0.024,-0.014,-0.906,1.117
2024-09-23 11:50:04.395,163337.238,-0.009,0.787,-0.617,0.015,0.019,0.008,-0.037,0.012,0.027,-0.014,-0.906,1.117
2024-09-23 11:50:04.405,163337.248,-0.008,0.787,-0.616,0.006,-0.013,-0.006,-0.047,-0.019,0.036,-0.014,-0.907,1.118
2024-09-23 11:50:04.415,163337.258,-0.008,0.788,-0.616,-0.019,-0.017,-0.028,-0.047,-0.02,0.045,-0.013,-0.907,1.118
2024-09-23 11:50:04.425,163337.268,-0.008,0.788,-0.616,-0.015,-0.026,0.004,-0.051,0.032,0.035,-0.013,-0.908,1.119
2024-09-23 11:50:04.435,163337.278,-0.008,0.788,-0.615,0.015,-0.011,0.017,-0.067,-0.011,0.018,-0.013,-0.908,1.119
2024-09-23 11:50:04.445,163337.288,-0.007,0.789,-0.614,0.001,0.023,-0.016,-0.1,-0.005,0.047,-0.012,-0.909,1.12
2024-09-23 11:50:04.455,163337.298,-0.007,0.789,-0.614,-0.021,-0.037,-0.016,-0.081,0.058,0.026,-0.011,-0.91,1.12
2024-09-23 11:50:04.465,163337.308,-0.007,0.79,-0.613,0.013,-0.05,0.015,-0.143,0.043,-0.034,-0.011,-0.911,1.12
2024-09-23 11:50:04.475,163337.318,-0.006,0.791,-0.611,-0.001,0.026,0.002,-0.213,0.071,0.011,-0.01,-0.913,1.12
2024-09-23 11:50:04.485,163337.328,-0.006,0.793,-0.61,-0.023,-0.039,-0.01,-0.213,0.076,-0.027,-0.01,-0.915,1.12
2024-09-23 11:50:04.495,163337.338,-0.006,0.794,-0.608,-0.005,-0.08,0.031,-0.223,0.09,-0.036,-0.009,-0.917,1.12
2024-09-23 11:50:04.505,163337.348,-0.006,0.795,-0.606,-0.001,-0.01,0.012,-0.255,0.101,-0.056,-0.009,-0.919,1.119
2024-09-23 11:50:04.515,163337.358,-0.005,0.797,-0.604,0.004,-0.022,-0.004,-0.367,0.122,-0.079,-0.009,-0.922,1.118
2024-09-23 11:50:04.525,163337.368,-0.005,0.8,-0.6,-0.002,-0.032,-0.005,-0.625,0.172,-0.125,-0.009,-0.927,1.116
2024-09-23 11:50:04.535,163337.378,-0.005,0.804,-0.594,-0.004,-0.052,-0.002,-0.911,0.221,-0.154,-0.009,-0.935,1.113
2024-09-23 11:50:04.545,163337.388,-0.005,0.811,-0.586,-0.016,-0.069,-0.033,-1.199,0.26,-0.154,-0.009,-0.945,1.11
2024-09-23 11:50:04.555,163337.398,-0.005,0.818,-0.575,-0.017,-0.119,-0.104,-1.444,0.282,-0.165,-0.009,-0.958,1.107
2024-09-23 11:50:04.565,163337.408,-0.005,0.827,-0.562,0.002,-0.142,-0.124,-1.634,0.305,-0.168,-0.008,-0.974,1.104
2024-09-23 11:50:04.575,163337.418,-0.004,0.836,-0.548,0.003,-0.098,-0.118,-1.775,0.322,-0.185,-0.008,-0.991,1.101
2024-09-23 11:50:04.585,163337.428,-0.004,0.846,-0.533,0.012,-0.066,-0.115,-1.884,0.336,-0.17,-0.008,-1.009,1.097
2024-09-23 11:50:04.595,163337.438,-0.004,0.856,-0.516,0.011,-0.053,-0.114,-1.988,0.356,-0.176,-0.007,-1.028,1.094
2024-09-23 11:50:04.605,163337.448,-0.004,0.867,-0.499,0.016,-0.04,-0.106,-2.04,0.345,-0.17,-0.007,-1.049,1.09
2024-09-23 11:50:04.615,163337.458,-0.003,0.877,-0.481,0.024,-0.036,-0.093,-2.041,0.331,-0.166,-0.007,-1.069,1.086
2024-09-23 11:50:04.625,163337.468,-0.003,0.886,-0.463,0.027,-0.034,-0.086,-2.006,0.311,-0.154,-0.007,-1.089,1.083
2024-09-23 11:50:04.634,163337.478,-0.003,0.895,-0.446,0.037,-0.016,-0.081,-1.941,0.289,-0.153,-0.007,-1.109,1.079
2024-09-23 11:50:04.644,163337.488,-0.003,0.903,-0.429,0.04,0.004,-0.072,-1.815,0.258,-0.139,-0.008,-1.128,1.075
2024-09-23 11:50:04.655,163337.498,-0.003,0.911,-0.413,0.037,0.018,-0.064,-1.677,0.245,-0.125,-0.008,-1.145,1.072
2024-09-23 11:50:04.665,163337.508,-0.004,0.917,-0.398,0.039,0.023,-0.055,-1.527,0.228,-0.129,-0.009,-1.161,1.068
2024-09-23 11:50:04.675,163337.518,-0.004,0.923,-0.385,0.056,0.026,-0.032,-1.383,0.199,-0.113,-0.01,-1.176,1.065
2024-09-23 11:50:04.685,163337.528,-0.004,0.928,-0.373,0.06,0.036,-0.017,-1.267,0.18,-0.113,-0.011,-1.189,1.062
2024-09-23 11:50:04.695,163337.538,-0.005,0.932,-0.362,0.068,0.053,-0.007,-1.171,0.181,-0.095,-0.013,-1.201,1.058
2024-09-23 11:50:04.705,163337.548,-0.005,0.936,-0.351,0.083,0.058,0.001,-1.031,0.174,-0.079,-0.014,-1.212,1.055
2024-09-23 11:50:04.715,163337.558,-0.005,0.94,-0.342,0.08,0.05,0.004,-0.896,0.175,-0.051,-0.014,-1.222,1.053
2024-09-23 11:50:04.725,163337.568,-0.005,0.942,-0.335,0.074,0.036,0.003,-0.742,0.163,-0.066,-0.014,-1.23,1.051
2024-09-23 11:50:04.735,163337.578,-0.005,0.945,-0.328,0.074,0.007,-0.012,-0.616,0.158,-0.054,-0.015,-1.236,1.049
2024-09-23 11:50:04.745,163337.588,-0.005,0.946,-0.323,0.078,-0.03,-0.041,-0.495,0.141,-0.061,-0.015,-1.242,1.047
2024-09-23 11:50:04.755,163337.598,-0.005,0.948,-0.319,0.073,-0.036,-0.056,-0.386,0.148,-0.066,-0.016,-1.246,1.045
2024-09-23 11:50:04.765,163337.608,-0.005,0.949,-0.315,0.077,-0.02,-0.054,-0.326,0.154,-0.065,-0.016,-1.25,1.042
2024-09-23 11:50:04.776,163337.618,-0.005,0.95,-0.312,0.08,0.001,-0.044,-0.316,0.146,-0.026,-0.017,-1.253,1.041
2024-09-23 11:50:04.785,163337.628,-0.005,0.951,-0.309,0.071,0.011,-0.025,-0.351,0.129,-0.022,-0.016,-1.256,1.04
2024-09-23 11:50:04.795,163337.637,-0.005,0.952,-0.306,0.079,0.003,0.0,-0.406,0.12,-0.002,-0.015,-1.26,1.039
2024-09-23 11:50:04.804,163337.647,-0.004,0.953,-0.302,0.097,-0.035,0.02,-0.444,0.129,-0.001,-0.014,-1.264,1.039
2024-09-23 11:50:04.815,163337.657,-0.004,0.955,-0.298,0.1,-0.057,0.019,-0.418,0.139,-0.012,-0.013,-1.269,1.039
2024-09-23 11:50:04.824,163337.667,-0.004,0.956,-0.294,0.099,-0.056,0.028,-0.279,0.132,-0.009,-0.012,-1.272,1.038
2024-09-23 11:50:04.834,163337.677,-0.003,0.956,-0.292,0.104,-0.045,0.028,-0.112,0.125,-0.026,-0.012,-1.274,1.038
2024-09-23 11:50:04.844,163337.687,-0.003,0.956,-0.292,0.092,-0.006,0.029,0.083,0.096,-0.057,-0.012,-1.274,1.036
2024-09-23 11:50:04.854,163337.697,-0.004,0.956,-0.294,0.073,0.006,0.012,0.262,0.039,-0.077,-0.013,-1.273,1.034
2024-09-23 11:50:04.864,163337.707,-0.005,0.955,-0.297,0.054,-0.015,-0.015,0.388,-0.026,-0.069,-0.016,-1.269,1.032
2024-09-23 11:50:04.874,163337.717,-0.005,0.954,-0.301,0.036,-0.016,-0.021,0.482,-0.084,-0.074,-0.018,-1.265,1.03
2024-09-23 11:50:04.884,163337.727,-0.007,0.952,-0.306,0.032,0.008,0.009,0.531,-0.143,-0.081,-0.021,-1.26,1.027
2024-09-23 11:50:04.894,163337.737,-0.008,0.95,-0.311,0.022,0.015,0.039,0.559,-0.182,-0.088,-0.025,-1.254,1.025
2024-09-23 11:50:04.905,163337.747,-0.009,0.949,-0.317,0.017,0.01,0.047,0.598,-0.188,-0.087,-0.029,-1.249,1.023
2024-09-23 11:50:04.914,163337.757,-0.011,0.947,-0.322,0.015,-0.006,0.041,0.648,-0.179,-0.075,-0.033,-1.242,1.021
2024-09-23 11:50:04.924,163337.767,-0.012,0.944,-0.329,0.007,-0.008,0.035,0.732,-0.176,-0.07,-0.036,-1.235,1.019
2024-09-23 11:50:04.934,163337.777,-0.013,0.942,-0.336,-0.003,0.016,0.04,0.835,-0.172,-0.07,-0.039,-1.228,1.018
2024-09-23 11:50:04.944,163337.787,-0.014,0.939,-0.345,-0.013,0.03,0.045,0.945,-0.164,-0.058,-0.042,-1.219,1.017
2024-09-23 11:50:04.954,163337.797,-0.015,0.935,-0.354,-0.021,0.031,0.045,1.041,-0.178,-0.043,-0.044,-1.209,1.017
2024-09-23 11:50:04.964,163337.807,-0.016,0.931,-0.364,-0.028,0.039,0.05,1.111,-0.188,-0.031,-0.045,-1.198,1.017
2024-09-23 11:50:04.974,163337.817,-0.017,0.927,-0.374,-0.035,0.039,0.062,1.164,-0.177,-0.029,-0.046,-1.187,1.018
2024-09-23 11:50:04.984,163337.827,-0.018,0.923,-0.385,-0.035,0.012,0.073,1.213,-0.183,-0.034,-0.048,-1.175,1.018
2024-09-23 11:50:04.994,163337.837,-0.019,0.918,-0.397,-0.037,-0.005,0.078,1.268,-0.199,-0.045,-0.049,-1.162,1.019
2024-09-23 11:50:05.004,163337.847,-0.021,0.912,-0.409,-0.059,-0.013,0.072,1.37,-0.212,-0.053,-0.051,-1.149,1.019
2024-09-23 11:50:05.014,163337.857,-0.022,0.906,-0.422,-0.081,-0.018,0.07,1.507,-0.197,-0.045,-0.052,-1.135,1.02
2024-09-23 11:50:05.024,163337.867,-0.023,0.9,-0.436,-0.099,-0.023,0.075,1.628,-0.18,-0.025,-0.053,-1.119,1.021
2024-09-23 11:50:05.034,163337.877,-0.024,0.892,-0.451,-0.104,-0.011,0.093,1.66,-0.153,-0.013,-0.053,-1.103,1.022
2024-09-23 11:50:05.044,163337.887,-0.025,0.885,-0.465,-0.104,0.016,0.114,1.626,-0.153,-0.01,-0.053,-1.086,1.024
2024-09-23 11:50:05.054,163337.897,-0.026,0.877,-0.479,-0.116,0.022,0.118,1.557,-0.175,-0.0,-0.054,-1.07,1.026
2024-09-23 11:50:05.064,163337.907,-0.026,0.87,-0.492,-0.114,0.017,0.105,1.416,-0.193,0.026,-0.054,-1.056,1.028
2024-09-23 11:50:05.074,163337.917,-0.027,0.863,-0.504,-0.109,0.036,0.08,1.309,-0.204,0.057,-0.054,-1.042,1.03
2024-09-23 11:50:05.084,163337.927,-0.028,0.857,-0.515,-0.111,0.057,0.072,1.315,-0.206,0.086,-0.053,-1.029,1.033
2024-09-23 11:50:05.094,163337.937,-0.029,0.851,-0.525,-0.111,0.081,0.071,0.903,-0.306,-0.069,-0.054,-1.018,1.035
2024-09-23 11:50:05.103,163337.947,-0.03,0.846,-0.532,-0.091,0.104,0.065,0.723,-0.299,0.041,-0.057,-1.009,1.035
2024-09-23 11:50:05.114,163337.957,-0.031,0.843,-0.537,-0.092,0.015,0.049,0.632,-0.279,0.104,-0.058,-1.002,1.038
2024-09-23 11:50:05.124,163337.967,-0.032,0.84,-0.542,-0.105,-0.003,-0.004,0.484,-0.221,0.091,-0.058,-0.997,1.04
2024-09-23 11:50:05.134,163337.977,-0.032,0.837,-0.546,-0.023,0.005,-0.021,0.368,-0.187,0.096,-0.058,-0.993,1.042
2024-09-23 11:50:05.144,163337.987,-0.032,0.836,-0.548,-0.02,-0.092,-0.023,0.282,-0.157,0.067,-0.058,-0.989,1.044
2024-09-23 11:50:05.154,163337.997,-0.033,0.834,-0.55,-0.035,-0.05,-0.024,0.183,-0.14,0.023,-0.059,-0.987,1.045
2024-09-23 11:50:05.164,163338.007,-0.033,0.834,-0.551,-0.021,-0.007,-0.036,0.08,-0.111,-0.003,-0.06,-0.986,1.046
2024-09-23 11:50:05.174,163338.017,-0.034,0.834,-0.551,-0.004,-0.014,-0.044,-0.004,-0.093,-0.026,-0.061,-0.985,1.045
2024-09-23 11:50:05.184,163338.027,-0.035,0.834,-0.551,0.012,-0.048,-0.048,-0.043,-0.084,-0.027,-0.063,-0.986,1.045
2024-09-23 11:50:05.194,163338.037,-0.035,0.834,-0.551,0.01,-0.033,-0.042,-0.035,-0.073,-0.037,-0.064,-0.986,1.044
2024-09-23 11:50:05.204,163338.047,-0.036,0.834,-0.551,0.002,-0.013,-0.023,-0.01,-0.067,-0.046,-0.065,-0.986,1.043
2024-09-23 11:50:05.214,163338.057,-0.037,0.834,-0.551,0.0,0.0,-0.012,0.042,-0.082,-0.038,-0.067,-0.986,1.042
2024-09-23 11:50:05.224,163338.067,-0.038,0.834,-0.551,-0.013,0.014,-0.011,0.092,-0.106,-0.035,-0.068,-0.985,1.042
2024-09-23 11:50:05.234,163338.077,-0.038,0.833,-0.552,-0.014,0.005,-0.003,0.166,-0.122,-0.029,-0.07,-0.984,1.042
2024-09-23 11:50:05.244,163338.087,-0.04,0.832,-0.554,-0.009,0.019,0.01,0.223,-0.129,-0.04,-0.071,-0.982,1.041
2024-09-23 11:50:05.254,163338.097,-0.041,0.83,-0.556,-0.009,0.027,0.02,0.285,-0.13,-0.043,-0.073,-0.98,1.041
2024-09-23 11:50:05.264,163338.107,-0.042,0.829,-0.558,-0.015,0.029,0.028,0.321,-0.118,-0.045,-0.074,-0.977,1.04
2024-09-23 11:50:05.274,163338.117,-0.043,0.827,-0.561,-0.007,0.037,0.035,0.331,-0.105,-0.035,-0.076,-0.973,1.04
2024-09-23 11:50:05.284,163338.127,-0.043,0.825,-0.564,-0.012,0.03,0.023,0.338,-0.102,-0.022,-0.077,-0.97,1.04
2024-09-23 11:50:05.294,163338.137,-0.044,0.823,-0.566,-0.026,0.013,0.012,0.327,-0.1,-0.011,-0.078,-0.967,1.04
2024-09-23 11:50:05.303,163338.147,-0.045,0.821,-0.569,-0.028,0.005,0.007,0.303,-0.106,0.011,-0.078,-0.964,1.041
2024-09-23 11:50:05.314,163338.157,-0.045,0.82,-0.571,-0.025,0.0,0.0,0.26,-0.111,0.031,-0.079,-0.961,1.041
2024-09-23 11:50:05.324,163338.167,-0.045,0.818,-0.573,-0.018,-0.011,-0.008,0.224,-0.104,0.045,-0.079,-0.959,1.042
2024-09-23 11:50:05.333,163338.177,-0.046,0.817,-0.574,-0.011,-0.015,-0.004,0.175,-0.079,0.045,-0.079,-0.957,1.043
2024-09-23 11:50:05.344,163338.187,-0.046,0.817,-0.575,-0.009,-0.017,-0.004,0.128,-0.061,0.021,-0.079,-0.956,1.044
2024-09-23 11:50:05.354,163338.197,-0.046,0.816,-0.576,-0.011,-0.022,-0.011,0.069,-0.039,-0.014,-0.08,-0.955,1.044
2024-09-23 11:50:05.363,163338.207,-0.046,0.816,-0.576,0.003,-0.032,-0.011,-0.001,-0.036,-0.029,-0.08,-0.955,1.044
2024-09-23 11:50:05.374,163338.216,-0.047,0.816,-0.576,0.012,-0.04,-0.016,-0.07,-0.045,-0.026,-0.081,-0.955,1.043
2024-09-23 11:50:05.383,163338.226,-0.047,0.817,-0.575,0.005,-0.041,-0.03,-0.102,-0.043,-0.017,-0.082,-0.956,1.043
2024-09-23 11:50:05.393,163338.236,-0.048,0.817,-0.574,0.005,-0.035,-0.026,-0.11,-0.046,-0.019,-0.083,-0.957,1.042
2024-09-23 11:50:05.404,163338.246,-0.048,0.818,-0.573,0.002,-0.035,-0.015,-0.118,-0.043,-0.027,-0.084,-0.958,1.041
2024-09-23 11:50:05.414,163338.256,-0.049,0.819,-0.572,-0.003,-0.007,-0.008,-0.115,-0.035,-0.035,-0.085,-0.959,1.041
2024-09-23 11:50:05.424,163338.266,-0.049,0.819,-0.571,0.006,-0.01,-0.006,-0.116,-0.033,-0.041,-0.086,-0.96,1.04
2024-09-23 11:50:05.433,163338.276,-0.05,0.82,-0.57,0.007,-0.01,-0.004,-0.099,-0.019,-0.041,-0.087,-0.961,1.039
2024-09-23 11:50:05.443,163338.286,-0.05,0.82,-0.57,0.006,0.006,-0.004,-0.073,-0.003,-0.027,-0.088,-0.962,1.038
2024-09-23 11:50:05.453,163338.296,-0.05,0.821,-0.569,0.001,0.004,0.003,-0.054,0.01,-0.008,-0.088,-0.962,1.038
2024-09-23 11:50:05.463,163338.306,-0.05,0.821,-0.569,-0.006,-0.004,0.009,-0.035,0.011,0.003,-0.088,-0.963,1.038
2024-09-23 11:50:05.474,163338.316,-0.05,0.821,-0.569,-0.014,0.007,0.006,-0.033,0.005,0.018,-0.088,-0.963,1.038
2024-09-23 11:50:05.483,163338.326,-0.05,0.821,-0.569,-0.013,0.001,0.003,-0.03,-0.002,0.014,-0.087,-0.963,1.038
2024-09-23 11:50:05.493,163338.336,-0.05,0.821,-0.569,-0.009,-0.001,-0.005,-0.03,-0.014,0.01,-0.087,-0.963,1.039
2024-09-23 11:50:05.503,163338.346,-0.05,0.821,-0.569,-0.004,-0.01,-0.01,-0.03,-0.016,-0.013,-0.088,-0.963,1.038
2024-09-23 11:50:05.513,163338.356,-0.05,0.821,-0.568,0.008,-0.015,-0.009,-0.017,-0.03,-0.03,-0.088,-0.964,1.038
2024-09-23 11:50:05.523,163338.366,-0.051,0.821,-0.568,0.012,0.004,-0.007,-0.003,-0.04,-0.045,-0.089,-0.964,1.038
2024-09-23 11:50:05.533,163338.376,-0.051,0.821,-0.568,0.013,0.001,-0.001,0.043,-0.043,-0.046,-0.09,-0.963,1.037
2024-09-23 11:50:05.544,163338.386,-0.052,0.821,-0.569,0.013,0.003,0.003,0.104,-0.055,-0.051,-0.091,-0.963,1.036
2024-09-23 11:50:05.553,163338.396,-0.053,0.82,-0.57,0.01,0.023,0.006,0.166,-0.065,-0.063,-0.092,-0.961,1.035
2024-09-23 11:50:05.563,163338.406,-0.054,0.819,-0.572,0.008,0.032,0.014,0.212,-0.079,-0.071,-0.094,-0.959,1.034
2024-09-23 11:50:05.573,163338.416,-0.055,0.817,-0.573,0.012,0.032,0.016,0.246,-0.098,-0.069,-0.095,-0.957,1.033
2024-09-23 11:50:05.583,163338.426,-0.056,0.816,-0.575,0.009,0.027,0.008,0.256,-0.113,-0.058,-0.097,-0.954,1.033
2024-09-23 11:50:05.593,163338.436,-0.057,0.815,-0.577,0.011,0.027,0.007,0.15,-0.062,-0.041,-0.098,-0.952,1.032
2024-09-23 11:50:05.603,163338.446,-0.057,0.814,-0.578,0.012,0.025,0.01,-0.007,-0.058,-0.008,-0.099,-0.951,1.032
2024-09-23 11:50:05.613,163338.456,-0.057,0.815,-0.577,-0.026,0.007,-0.04,-0.094,-0.001,0.018,-0.099,-0.952,1.032
2024-09-23 11:50:05.623,163338.466,-0.057,0.815,-0.576,-0.029,-0.087,-0.041,-0.123,0.02,0.027,-0.099,-0.953,1.032
2024-09-23 11:50:05.633,163338.476,-0.057,0.816,-0.575,-0.005,-0.102,-0.013,-0.116,0.054,0.017,-0.098,-0.954,1.033
2024-09-23 11:50:05.643,163338.486,-0.056,0.817,-0.575,-0.033,0.007,-0.011,-0.092,0.072,0.031,-0.097,-0.955,1.033
2024-09-23 11:50:05.653,163338.496,-0.056,0.817,-0.574,-0.012,-0.019,-0.003,-0.087,0.058,0.022,-0.097,-0.956,1.033
2024-09-23 11:50:05.663,163338.506,-0.055,0.818,-0.573,-0.004,-0.024,0.005,-0.05,0.067,0.025,-0.096,-0.957,1.034
2024-09-23 11:50:05.673,163338.516,-0.054,0.818,-0.573,0.004,-0.006,0.006,-0.038,0.044,0.026,-0.095,-0.958,1.034
2024-09-23 11:50:05.683,163338.526,-0.054,0.818,-0.573,0.002,0.011,0.011,-0.001,0.078,0.006,-0.094,-0.958,1.034
2024-09-23 11:50:05.693,163338.536,-0.053,0.818,-0.573,0.007,-0.009,0.016,-0.035,0.105,-0.007,-0.093,-0.958,1.034
2024-09-23 11:50:05.703,163338.546,-0.053,0.818,-0.572,0.014,-0.02,0.011,-0.08,0.088,0.015,-0.092,-0.958,1.034
2024-09-23 11:50:05.713,163338.556,-0.052,0.819,-0.572,-0.015,-0.02,0.002,-0.078,0.084,0.027,-0.091,-0.959,1.034
2024-09-23 11:50:05.723,163338.566,-0.052,0.819,-0.571,0.0,-0.072,0.001,-0.082,0.07,0.033,-0.09,-0.96,1.035
2024-09-23 11:50:05.733,163338.576,-0.051,0.82,-0.571,0.0,-0.035,0.0,-0.096,0.026,0.053,-0.089,-0.961,1.035
2024-09-23 11:50:05.743,163338.586,-0.051,0.82,-0.57,-0.012,0.001,-0.004,-0.098,-0.011,0.066,-0.088,-0.962,1.036
2024-09-23 11:50:05.753,163338.596,-0.05,0.821,-0.569,0.002,-0.019,-0.009,-0.109,-0.043,0.056,-0.088,-0.963,1.037
2024-09-23 11:50:05.763,163338.606,-0.05,0.822,-0.568,0.004,-0.007,-0.014,-0.123,-0.074,0.034,-0.088,-0.964,1.038
2024-09-23 11:50:05.773,163338.616,-0.05,0.822,-0.567,0.011,0.005,-0.014,-0.111,-0.109,0.015,-0.089,-0.965,1.038
2024-09-23 11:50:05.783,163338.626,-0.051,0.823,-0.566,0.021,-0.009,-0.016,-0.062,-0.117,-0.02,-0.09,-0.966,1.038
2024-09-23 11:50:05.793,163338.636,-0.052,0.823,-0.566,0.026,0.002,-0.009,-0.0,-0.129,-0.038,-0.092,-0.966,1.037
2024-09-23 11:50:05.803,163338.646,-0.053,0.823,-0.566,0.022,0.03,0.004,0.069,-0.119,-0.048,-0.094,-0.966,1.036
2024-09-23 11:50:05.813,163338.656,-0.054,0.822,-0.567,0.016,0.035,0.009,0.11,-0.12,-0.047,-0.095,-0.965,1.036
2024-09-23 11:50:05.823,163338.666,-0.055,0.821,-0.568,0.008,0.043,0.014,0.152,-0.128,-0.041,-0.097,-0.963,1.035
2024-09-23 11:50:05.833,163338.676,-0.056,0.82,-0.569,-0.0,0.038,0.006,0.174,-0.123,-0.051,-0.099,-0.962,1.034
2024-09-23 11:50:05.843,163338.686,-0.057,0.819,-0.571,0.001,0.024,0.005,0.176,-0.145,-0.027,-0.1,-0.96,1.034
2024-09-23 11:50:05.853,163338.696,-0.058,0.818,-0.572,0.003,0.016,0.006,0.123,-0.05,-0.033,-0.101,-0.958,1.034
2024-09-23 11:50:05.863,163338.706,-0.059,0.818,-0.572,0.006,0.01,0.007,-0.02,-0.037,-0.02,-0.102,-0.958,1.034
2024-09-23 11:50:05.873,163338.716,-0.059,0.818,-0.572,-0.016,0.025,-0.021,-0.088,0.03,0.004,-0.102,-0.958,1.034
2024-09-23 11:50:05.883,163338.726,-0.058,0.819,-0.571,-0.028,-0.063,-0.045,-0.122,0.038,0.006,-0.102,-0.959,1.034
2024-09-23 11:50:05.893,163338.736,-0.058,0.82,-0.57,-0.002,-0.089,-0.012,-0.099,0.081,0.013,-0.101,-0.961,1.034
2024-09-23 11:50:05.903,163338.746,-0.057,0.82,-0.569,-0.029,0.005,-0.007,-0.077,0.087,0.008,-0.1,-0.962,1.033
2024-09-23 11:50:05.912,163338.756,-0.057,0.821,-0.569,-0.0,-0.018,-0.004,-0.068,0.099,0.001,-0.1,-0.962,1.033
2024-09-23 11:50:05.923,163338.766,-0.056,0.821,-0.568,-0.011,0.004,0.001,-0.057,0.109,0.007,-0.099,-0.963,1.033
2024-09-23 11:50:05.933,163338.776,-0.056,0.821,-0.568,-0.007,-0.004,0.007,-0.039,0.114,-0.01,-0.098,-0.964,1.033
2024-09-23 11:50:05.942,163338.786,-0.055,0.822,-0.568,0.002,-0.013,0.005,-0.057,0.104,-0.012,-0.097,-0.964,1.033
2024-09-23 11:50:05.952,163338.796,-0.054,0.822,-0.567,0.001,0.002,0.0,-0.023,0.138,0.007,-0.095,-0.964,1.033
2024-09-23 11:50:05.962,163338.805,-0.054,0.822,-0.567,-0.001,-0.021,0.003,-0.05,0.116,-0.016,-0.094,-0.965,1.033
2024-09-23 11:50:05.973,163338.815,-0.053,0.822,-0.567,0.003,-0.022,0.017,-0.06,0.101,-0.003,-0.093,-0.965,1.033
2024-09-23 11:50:05.982,163338.825,-0.053,0.822,-0.566,-0.003,-0.016,0.006,-0.02,0.072,0.022,-0.093,-0.966,1.033
2024-09-23 11:50:05.993,163338.835,-0.052,0.822,-0.566,0.009,-0.022,-0.014,-0.003,0.041,0.004,-0.092,-0.966,1.033
2024-09-23 11:50:06.003,163338.845,-0.052,0.822,-0.566,0.002,0.01,0.001,0.024,0.009,0.013,-0.092,-0.966,1.033
2024-09-23 11:50:06.013,163338.855,-0.052,0.822,-0.567,0.007,0.003,0.012,0.056,-0.008,0.004,-0.092,-0.965,1.033
2024-09-23 11:50:06.022,163338.865,-0.052,0.822,-0.567,0.013,-0.009,0.01,0.032,-0.01,-0.007,-0.092,-0.965,1.033
2024-09-23 11:50:06.032,163338.875,-0.052,0.822,-0.567,0.011,0.016,0.011,-0.012,-0.014,-0.008,-0.092,-0.965,1.033
2024-09-23 11:50:06.042,163338.885,-0.052,0.822,-0.567,0.004,-0.013,-0.004,-0.05,-0.034,-0.006,-0.092,-0.965,1.033
2024-09-23 11:50:06.052,163338.895,-0.053,0.822,-0.567,0.002,-0.042,-0.018,-0.067,-0.059,0.001,-0.093,-0.966,1.033
2024-09-23 11:50:06.062,163338.905,-0.053,0.823,-0.566,0.004,-0.025,-0.016,-0.064,-0.084,0.0,-0.094,-0.966,1.032
2024-09-23 11:50:06.072,163338.915,-0.054,0.823,-0.566,0.011,-0.014,-0.01,-0.031,-0.081,0.011,-0.094,-0.967,1.033
2024-09-23 11:50:06.082,163338.925,-0.054,0.823,-0.565,0.007,0.004,-0.006,-0.008,-0.079,0.018,-0.095,-0.967,1.033
2024-09-23 11:50:06.092,163338.935,-0.054,0.823,-0.565,0.001,0.012,-0.002,-0.038,-0.089,0.027,-0.096,-0.967,1.033
2024-09-23 11:50:06.102,163338.945,-0.054,0.824,-0.565,-0.006,0.013,0.007,-0.055,-0.1,0.046,-0.096,-0.968,1.034
2024-09-23 11:50:06.112,163338.955,-0.054,0.824,-0.564,-0.008,-0.018,-0.005,-0.05,-0.087,0.044,-0.096,-0.968,1.035
2024-09-23 11:50:06.122,163338.965,-0.054,0.824,-0.564,-0.002,-0.024,-0.008,-0.038,-0.07,0.04,-0.096,-0.969,1.035
2024-09-23 11:50:06.132,163338.975,-0.054,0.824,-0.563,-0.004,0.001,0.007,-0.063,-0.089,0.041,-0.096,-0.969,1.036
2024-09-23 11:50:06.142,163338.985,-0.055,0.825,-0.563,0.003,-0.002,0.004,-0.018,-0.088,0.047,-0.097,-0.969,1.037
2024-09-23 11:50:06.152,163338.995,-0.055,0.825,-0.563,0.0,-0.01,-0.01,-0.034,-0.1,0.02,-0.097,-0.97,1.038
2024-09-23 11:50:06.162,163339.005,-0.055,0.825,-0.563,0.008,-0.002,0.006,-0.036,-0.091,0.025,-0.097,-0.97,1.038
2024-09-23 11:50:06.172,163339.015,-0.055,0.825,-0.562,0.001,0.006,-0.0,-0.006,-0.071,0.022,-0.098,-0.97,1.038
2024-09-23 11:50:06.183,163339.025,-0.056,0.825,-0.562,0.005,-0.019,-0.009,-0.038,-0.096,0.014,-0.099,-0.97,1.039
2024-09-23 11:50:06.191,163339.035,-0.056,0.825,-0.562,-0.0,0.01,0.001,-0.024,-0.092,0.014,-0.099,-0.971,1.039
2024-09-23 11:50:06.201,163339.045,-0.057,0.825,-0.562,-0.004,-0.008,-0.006,-0.018,-0.11,-0.003,-0.1,-0.971,1.039
2024-09-23 11:50:06.212,163339.055,-0.057,0.825,-0.562,0.01,-0.018,-0.005,0.011,-0.089,-0.001,-0.101,-0.971,1.039
2024-09-23 11:50:06.221,163339.065,-0.058,0.825,-0.562,0.0,0.015,-0.001,0.016,-0.105,-0.013,-0.103,-0.971,1.039
2024-09-23 11:50:06.232,163339.075,-0.058,0.825,-0.562,0.011,-0.002,0.002,0.011,-0.075,-0.022,-0.104,-0.971,1.038
2024-09-23 11:50:06.242,163339.085,-0.059,0.825,-0.561,0.009,0.002,0.004,-0.082,-0.056,-0.028,-0.105,-0.971,1.038
2024-09-23 11:50:06.253,163339.095,-0.059,0.826,-0.561,-0.004,-0.004,-0.003,-0.12,-0.03,-0.009,-0.105,-0.972,1.037
2024-09-23 11:50:06.262,163339.105,-0.059,0.827,-0.56,-0.007,-0.05,-0.019,-0.162,0.001,-0.026,-0.106,-0.973,1.037
2024-09-23 11:50:06.272,163339.115,-0.059,0.828,-0.558,-0.001,-0.057,-0.015,-0.162,0.035,-0.017,-0.106,-0.975,1.036
2024-09-23 11:50:06.282,163339.125,-0.059,0.828,-0.557,-0.023,-0.016,-0.011,-0.124,0.05,-0.023,-0.106,-0.976,1.036
2024-09-23 11:50:06.292,163339.135,-0.059,0.829,-0.556,-0.006,-0.047,-0.003,-0.137,0.06,-0.037,-0.106,-0.977,1.035
2024-09-23 11:50:06.302,163339.145,-0.059,0.83,-0.555,0.0,0.015,0.008,-0.188,0.051,-0.023,-0.106,-0.979,1.034
2024-09-23 11:50:06.313,163339.155,-0.059,0.831,-0.553,-0.008,0.033,-0.013,-0.175,0.022,-0.003,-0.106,-0.981,1.034
2024-09-23 11:50:06.322,163339.165,-0.059,0.832,-0.552,0.0,-0.027,-0.033,-0.067,-0.017,-0.017,-0.107,-0.982,1.033
2024-09-23 11:50:06.332,163339.175,-0.06,0.832,-0.552,0.006,-0.013,-0.005,0.074,-0.051,-0.029,-0.107,-0.982,1.033
2024-09-23 11:50:06.342,163339.185,-0.06,0.831,-0.553,0.016,0.055,0.025,0.186,-0.082,-0.054,-0.108,-0.98,1.032
2024-09-23 11:50:06.352,163339.195,-0.061,0.829,-0.555,0.018,0.08,0.039,0.251,-0.099,-0.061,-0.11,-0.978,1.032
2024-09-23 11:50:06.362,163339.205,-0.062,0.828,-0.557,0.02,0.057,0.038,0.269,-0.11,-0.059,-0.111,-0.975,1.031
2024-09-23 11:50:06.372,163339.215,-0.063,0.826,-0.56,0.019,0.032,0.021,0.253,-0.089,-0.057,-0.113,-0.973,1.031
2024-09-23 11:50:06.382,163339.225,-0.064,0.825,-0.561,0.013,0.017,0.006,0.21,-0.069,-0.022,-0.114,-0.97,1.03
2024-09-23 11:50:06.391,163339.235,-0.065,0.824,-0.563,-0.002,0.005,-0.004,0.111,0.001,-0.029,-0.114,-0.969,1.03
2024-09-23 11:50:06.401,163339.245,-0.065,0.824,-0.563,-0.014,-0.013,-0.001,-0.039,0.028,0.012,-0.114,-0.968,1.03
2024-09-23 11:50:06.412,163339.255,-0.064,0.824,-0.562,-0.033,-0.02,-0.032,-0.141,0.048,0.029,-0.113,-0.969,1.031
2024-09-23 11:50:06.422,163339.265,-0.063,0.825,-0.561,-0.032,-0.103,-0.038,-0.14,0.061,0.044,-0.113,-0.971,1.031
2024-09-23 11:50:06.432,163339.275,-0.063,0.826,-0.56,-0.02,-0.089,-0.023,-0.098,0.067,0.043,-0.111,-0.972,1.031
2024-09-23 11:50:06.442,163339.285,-0.062,0.826,-0.56,-0.019,-0.005,-0.002,-0.018,0.056,0.05,-0.11,-0.972,1.032
2024-09-23 11:50:06.452,163339.295,-0.061,0.826,-0.56,0.002,0.02,0.007,0.05,0.068,0.042,-0.109,-0.972,1.033
2024-09-23 11:50:06.461,163339.305,-0.061,0.826,-0.561,0.003,0.028,0.026,0.053,0.051,0.042,-0.108,-0.972,1.034
2024-09-23 11:50:06.472,163339.315,-0.06,0.826,-0.561,0.006,0.025,0.025,0.073,0.074,0.055,-0.106,-0.971,1.035
2024-09-23 11:50:06.482,163339.325,-0.059,0.825,-0.561,-0.002,-0.002,0.009,0.022,0.064,0.043,-0.105,-0.971,1.036
2024-09-23 11:50:06.491,163339.335,-0.058,0.825,-0.562,-0.0,-0.014,0.001,-0.013,0.077,0.052,-0.103,-0.971,1.037
2024-09-23 11:50:06.501,163339.345,-0.057,0.826,-0.561,-0.014,-0.014,-0.009,-0.034,0.081,0.05,-0.102,-0.971,1.037
2024-09-23 11:50:06.512,163339.355,-0.057,0.826,-0.561,-0.001,-0.042,-0.013,-0.062,0.102,0.029,-0.101,-0.972,1.038
2024-09-23 11:50:06.521,163339.365,-0.056,0.826,-0.561,-0.004,-0.015,-0.01,-0.081,0.103,0.043,-0.099,-0.972,1.039
2024-09-23 11:50:06.531,163339.375,-0.055,0.827,-0.56,-0.004,-0.011,-0.01,-0.075,0.075,0.058,-0.098,-0.973,1.039
2024-09-23 11:50:06.541,163339.384,-0.054,0.827,-0.56,-0.008,-0.019,-0.016,-0.013,0.071,0.046,-0.096,-0.974,1.04
2024-09-23 11:50:06.551,163339.394,-0.053,0.827,-0.56,-0.004,-0.009,0.001,0.019,0.068,0.018,-0.095,-0.974,1.041
2024-09-23 11:50:06.561,163339.404,-0.053,0.827,-0.56,0.015,0.023,0.019,-0.02,0.054,0.024,-0.094,-0.974,1.041
2024-09-23 11:50:06.572,163339.414,-0.052,0.827,-0.559,0.008,0.027,0.006,-0.021,0.059,0.031,-0.093,-0.974,1.041
2024-09-23 11:50:06.582,163339.424,-0.052,0.827,-0.559,-0.001,-0.023,-0.013,-0.038,0.05,0.017,-0.093,-0.974,1.042
2024-09-23 11:50:06.591,163339.434,-0.052,0.828,-0.559,0.003,-0.027,-0.008,-0.051,0.029,0.028,-0.092,-0.975,1.042
2024-09-23 11:50:06.601,163339.444,-0.051,0.828,-0.559,-0.005,0.008,-0.01,-0.041,0.029,0.019,-0.091,-0.975,1.043
2024-09-23 11:50:06.611,163339.454,-0.051,0.828,-0.558,-0.001,-0.021,-0.007,-0.043,0.029,0.017,-0.091,-0.975,1.043
2024-09-23 11:50:06.621,163339.464,-0.051,0.828,-0.558,0.001,0.0,0.005,-0.029,0.054,0.023,-0.09,-0.976,1.043
2024-09-23 11:50:06.632,163339.474,-0.05,0.828,-0.558,-0.004,-0.0,0.001,-0.05,0.043,0.005,-0.09,-0.976,1.043
2024-09-23 11:50:06.641,163339.484,-0.05,0.829,-0.558,0.003,-0.008,-0.002,-0.043,0.049,0.025,-0.089,-0.977,1.044
2024-09-23 11:50:06.651,163339.494,-0.049,0.829,-0.557,-0.01,0.001,-0.005,-0.035,0.02,0.019,-0.088,-0.977,1.044
2024-09-23 11:50:06.661,163339.504,-0.049,0.829,-0.557,0.005,-0.025,-0.001,-0.02,0.007,0.022,-0.088,-0.977,1.044
2024-09-23 11:50:06.671,163339.514,-0.049,0.829,-0.557,0.003,0.011,-0.001,0.014,0.008,0.022,-0.087,-0.977,1.045
2024-09-23 11:50:06.681,163339.524,-0.049,0.829,-0.557,0.005,0.005,0.002,-0.005,0.039,0.016,-0.087,-0.977,1.045
2024-09-23 11:50:06.691,163339.534,-0.048,0.829,-0.557,0.01,0.004,0.01,-0.076,0.028,0.007,-0.087,-0.978,1.045
2024-09-23 11:50:06.702,163339.544,-0.048,0.83,-0.556,-0.007,0.003,-0.007,-0.075,0.054,0.026,-0.086,-0.978,1.045
2024-09-23 11:50:06.711,163339.554,-0.048,0.83,-0.556,-0.019,-0.041,-0.023,-0.058,0.049,0.007,-0.085,-0.979,1.045
2024-09-23 11:50:06.721,163339.564,-0.047,0.83,-0.556,0.002,-0.041,-0.002,-0.026,0.063,0.008,-0.085,-0.979,1.045
2024-09-23 11:50:06.731,163339.574,-0.047,0.83,-0.555,-0.003,0.016,0.009,-0.03,0.066,0.004,-0.084,-0.98,1.045
2024-09-23 11:50:06.741,163339.584,-0.046,0.83,-0.555,0.007,0.006,0.006,-0.041,0.064,0.009,-0.083,-0.98,1.046
2024-09-23 11:50:06.751,163339.594,-0.046,0.831,-0.555,-0.004,0.001,-0.002,-0.027,0.057,0.02,-0.082,-0.98,1.046
2024-09-23 11:50:06.761,163339.604,-0.045,0.831,-0.555,-0.002,-0.017,-0.007,-0.014,0.04,0.016,-0.082,-0.981,1.046
2024-09-23 11:50:06.771,163339.614,-0.045,0.831,-0.555,0.001,-0.003,-0.002,-0.0,0.069,0.01,-0.081,-0.981,1.046
2024-09-23 11:50:06.781,163339.624,-0.045,0.831,-0.554,0.002,0.011,0.008,-0.04,0.072,0.018,-0.08,-0.981,1.046
