Date,TimeStamp,GravityX,GravityY,GravityZ,UserAccelerationX,UserAccelerationY,UserAccelerationZ,RotationRateX,RotationRateY,RotationRateZ,AttitudeRoll,AttitudePitch,AttitudeYaw
2024-10-15 14:03:45.252,74976.688,0.1,0.485,-0.869,0.003,-0.041,0.04,0.07,-0.028,-0.004,0.114,-0.506,0.557
2024-10-15 14:03:45.266,74976.698,0.099,0.484,-0.869,0.084,-0.018,0.035,0.08,-0.06,0.107,0.114,-0.505,0.558
2024-10-15 14:03:45.270,74976.708,0.1,0.483,-0.87,0.033,0.03,0.011,0.045,-0.012,0.166,0.114,-0.505,0.559
2024-10-15 14:03:45.271,74976.718,0.101,0.483,-0.87,-0.045,0.031,0.003,0.021,0.083,0.156,0.115,-0.504,0.561
2024-10-15 14:03:45.273,74976.728,0.102,0.483,-0.87,-0.068,-0.003,0.002,0.044,0.111,0.133,0.117,-0.504,0.563
2024-10-15 14:03:45.283,74976.738,0.104,0.482,-0.87,-0.037,-0.018,0.003,0.023,0.09,0.121,0.119,-0.503,0.564
2024-10-15 14:03:45.292,74976.748,0.105,0.482,-0.87,0.006,-0.012,0.006,-0.001,0.076,0.107,0.12,-0.503,0.565
2024-10-15 14:03:45.303,74976.758,0.106,0.482,-0.87,0.015,-0.022,0.003,-0.076,0.076,0.088,0.122,-0.503,0.566
2024-10-15 14:03:45.313,74976.768,0.107,0.483,-0.869,0.001,-0.035,0.003,-0.107,0.09,0.105,0.123,-0.504,0.568
2024-10-15 14:03:45.323,74976.778,0.109,0.484,-0.868,-0.01,-0.036,0.003,-0.121,0.112,0.125,0.125,-0.505,0.569
2024-10-15 14:03:45.334,74976.788,0.11,0.485,-0.868,-0.014,-0.017,-0.003,-0.132,0.122,0.13,0.127,-0.506,0.571
2024-10-15 14:03:45.343,74976.798,0.112,0.486,-0.867,-0.014,0.001,0.0,-0.148,0.142,0.088,0.129,-0.507,0.572
2024-10-15 14:03:45.355,74976.808,0.113,0.487,-0.866,-0.005,-0.002,0.001,-0.114,0.09,0.068,0.13,-0.509,0.573
2024-10-15 14:03:45.364,74976.818,0.115,0.488,-0.865,0.005,-0.016,0.001,-0.124,0.085,0.089,0.132,-0.51,0.574
2024-10-15 14:03:45.374,74976.828,0.116,0.489,-0.865,0.013,-0.011,0.004,-0.142,0.066,0.143,0.133,-0.511,0.576
2024-10-15 14:03:45.384,74976.838,0.117,0.49,-0.864,0.002,-0.002,0.005,-0.17,0.077,0.16,0.135,-0.512,0.578
2024-10-15 14:03:45.393,74976.848,0.119,0.491,-0.863,-0.013,-0.007,-0.001,-0.223,0.116,0.144,0.137,-0.514,0.579
2024-10-15 14:03:45.405,74976.858,0.121,0.493,-0.861,-0.019,-0.028,-0.005,-0.26,0.142,0.137,0.139,-0.516,0.581
2024-10-15 14:03:45.413,74976.868,0.122,0.495,-0.86,-0.012,-0.036,-0.005,-0.296,0.167,0.134,0.141,-0.518,0.583
2024-10-15 14:03:45.423,74976.878,0.124,0.498,-0.858,-0.007,-0.03,-0.003,-0.389,0.187,0.101,0.144,-0.522,0.585
2024-10-15 14:03:45.433,74976.888,0.127,0.502,-0.856,-0.014,-0.032,-0.0,-0.441,0.245,0.086,0.147,-0.526,0.587
2024-10-15 14:03:45.443,74976.898,0.129,0.505,-0.853,-0.019,-0.042,0.002,-0.405,0.274,0.023,0.15,-0.53,0.588
2024-10-15 14:03:45.455,74976.908,0.132,0.508,-0.851,-0.023,-0.028,0.005,-0.365,0.26,-0.008,0.153,-0.533,0.589
2024-10-15 14:03:45.463,74976.918,0.134,0.511,-0.849,-0.017,-0.005,0.008,-0.328,0.258,-0.012,0.156,-0.537,0.589
2024-10-15 14:03:45.473,74976.928,0.136,0.514,-0.847,-0.003,0.003,0.001,-0.291,0.266,-0.017,0.159,-0.54,0.59
2024-10-15 14:03:45.483,74976.938,0.138,0.516,-0.845,-0.007,-0.007,-0.006,-0.258,0.259,-0.053,0.162,-0.543,0.59
2024-10-15 14:03:45.493,74976.948,0.14,0.519,-0.844,-0.012,-0.01,-0.008,-0.236,0.251,-0.07,0.164,-0.545,0.589
2024-10-15 14:03:45.503,74976.958,0.141,0.521,-0.842,-0.006,-0.006,0.001,-0.237,0.245,-0.107,0.166,-0.548,0.589
2024-10-15 14:03:45.514,74976.968,0.142,0.523,-0.841,0.013,0.001,0.007,-0.169,0.202,-0.184,0.168,-0.55,0.588
2024-10-15 14:03:45.526,74976.978,0.143,0.524,-0.839,0.026,0.004,0.002,-0.162,0.165,-0.275,0.168,-0.552,0.585
2024-10-15 14:03:45.533,74976.988,0.142,0.526,-0.838,0.034,0.01,-0.001,-0.13,0.11,-0.292,0.168,-0.554,0.582
2024-10-15 14:03:45.543,74976.998,0.142,0.527,-0.838,0.037,0.011,0.01,-0.054,0.059,-0.214,0.168,-0.555,0.579
2024-10-15 14:03:45.554,74977.008,0.141,0.527,-0.838,0.029,0.02,0.012,0.033,0.018,-0.096,0.167,-0.556,0.578
2024-10-15 14:03:45.563,74977.018,0.141,0.527,-0.838,0.006,0.048,0.014,0.124,0.028,0.019,0.167,-0.555,0.577
2024-10-15 14:03:45.573,74977.028,0.142,0.525,-0.839,-0.019,0.067,0.009,0.193,0.038,0.105,0.167,-0.553,0.578
2024-10-15 14:03:45.583,74977.038,0.143,0.523,-0.84,-0.03,0.059,0.002,0.21,0.024,0.177,0.168,-0.551,0.579
2024-10-15 14:03:45.593,74977.048,0.144,0.522,-0.841,-0.024,0.036,0.013,0.189,0.023,0.194,0.17,-0.549,0.581
2024-10-15 14:03:45.605,74977.058,0.145,0.52,-0.842,-0.007,0.005,0.017,0.121,0.022,0.159,0.171,-0.547,0.583
2024-10-15 14:03:45.613,74977.067,0.146,0.519,-0.842,-0.0,-0.017,0.011,0.065,0.017,0.113,0.172,-0.546,0.584
2024-10-15 14:03:45.623,74977.077,0.147,0.519,-0.842,0.004,-0.035,0.005,-0.003,0.023,0.072,0.172,-0.545,0.585
2024-10-15 14:03:45.633,74977.087,0.147,0.519,-0.842,0.007,-0.042,-0.0,-0.082,0.012,0.013,0.173,-0.546,0.586
2024-10-15 14:03:45.642,74977.097,0.147,0.52,-0.842,0.009,-0.045,0.0,-0.064,0.009,-0.044,0.173,-0.546,0.586
2024-10-15 14:03:45.653,74977.107,0.147,0.521,-0.841,0.014,-0.04,-0.005,-0.132,-0.038,-0.069,0.173,-0.548,0.585
2024-10-15 14:03:45.662,74977.117,0.146,0.522,-0.84,0.017,-0.024,0.002,-0.162,-0.044,-0.012,0.172,-0.549,0.585
2024-10-15 14:03:45.672,74977.127,0.146,0.523,-0.84,0.008,-0.015,0.009,-0.142,-0.037,0.045,0.172,-0.551,0.586
2024-10-15 14:03:45.682,74977.137,0.146,0.525,-0.839,-0.015,-0.002,0.002,-0.162,0.105,-0.042,0.172,-0.552,0.586
2024-10-15 14:03:45.692,74977.147,0.146,0.526,-0.838,-0.025,0.005,-0.005,-0.116,0.073,-0.153,0.173,-0.554,0.586
2024-10-15 14:03:45.702,74977.157,0.146,0.527,-0.837,-0.008,-0.012,0.001,-0.089,0.015,-0.102,0.173,-0.555,0.584
2024-10-15 14:03:45.712,74977.167,0.145,0.528,-0.837,0.027,-0.004,0.012,-0.067,-0.043,-0.013,0.172,-0.556,0.584
2024-10-15 14:03:45.722,74977.177,0.145,0.528,-0.837,0.021,0.017,0.016,-0.035,-0.022,0.017,0.172,-0.556,0.584
2024-10-15 14:03:45.732,74977.187,0.145,0.528,-0.837,-0.015,0.025,0.012,-0.013,0.014,0.012,0.172,-0.556,0.584
2024-10-15 14:03:45.743,74977.197,0.146,0.528,-0.837,-0.031,0.016,0.006,-0.009,0.028,0.015,0.172,-0.556,0.584
2024-10-15 14:03:45.753,74977.207,0.146,0.528,-0.837,-0.017,0.0,0.007,-0.016,0.022,0.017,0.173,-0.556,0.585
2024-10-15 14:03:45.770,74977.217,0.146,0.528,-0.836,-0.002,-0.014,0.008,-0.038,0.015,0.011,0.173,-0.557,0.585
2024-10-15 14:03:45.774,74977.227,0.146,0.529,-0.836,0.003,-0.017,0.006,-0.056,0.018,0.001,0.173,-0.557,0.585
2024-10-15 14:03:45.783,74977.237,0.146,0.529,-0.836,-0.003,-0.016,0.003,-0.076,0.026,0.003,0.173,-0.558,0.585
2024-10-15 14:03:45.792,74977.247,0.147,0.53,-0.835,-0.006,-0.013,0.002,-0.077,0.032,0.003,0.174,-0.558,0.586
2024-10-15 14:03:45.802,74977.257,0.147,0.531,-0.835,-0.005,-0.009,0.002,-0.081,0.029,-0.004,0.174,-0.559,0.586
2024-10-15 14:03:45.812,74977.267,0.147,0.531,-0.834,-0.004,-0.006,0.006,-0.077,0.017,-0.004,0.175,-0.56,0.586
2024-10-15 14:03:45.823,74977.277,0.147,0.532,-0.834,0.002,-0.006,0.009,-0.07,0.003,-0.007,0.175,-0.561,0.586
2024-10-15 14:03:45.833,74977.287,0.147,0.533,-0.834,0.004,-0.007,0.011,-0.061,-0.006,-0.012,0.175,-0.562,0.586
2024-10-15 14:03:45.843,74977.297,0.147,0.533,-0.833,0.004,-0.003,0.008,-0.046,0.0,-0.009,0.175,-0.562,0.586
2024-10-15 14:03:45.853,74977.307,0.147,0.533,-0.833,0.001,0.001,0.0,-0.029,0.039,-0.005,0.175,-0.562,0.587
2024-10-15 14:03:45.863,74977.317,0.147,0.533,-0.833,-0.005,0.007,-0.01,-0.013,0.042,-0.006,0.175,-0.563,0.587
2024-10-15 14:03:45.873,74977.327,0.148,0.533,-0.833,-0.011,0.011,-0.006,0.006,0.038,0.003,0.175,-0.563,0.587
2024-10-15 14:03:45.883,74977.337,0.148,0.533,-0.833,-0.006,0.012,0.008,0.013,0.026,0.003,0.176,-0.563,0.587
2024-10-15 14:03:45.892,74977.347,0.148,0.533,-0.833,0.002,0.005,0.011,0.014,0.016,0.003,0.176,-0.562,0.587
2024-10-15 14:03:45.903,74977.357,0.148,0.533,-0.833,0.002,-0.009,0.012,0.005,0.021,-0.003,0.176,-0.562,0.587
2024-10-15 14:03:45.913,74977.367,0.148,0.533,-0.833,-0.0,-0.017,0.007,-0.011,0.022,-0.014,0.176,-0.562,0.587
2024-10-15 14:03:45.923,74977.377,0.149,0.533,-0.833,-0.005,-0.011,-0.004,-0.023,0.021,-0.018,0.177,-0.563,0.587
2024-10-15 14:03:45.932,74977.387,0.149,0.534,-0.833,-0.006,-0.006,-0.002,-0.019,0.01,-0.009,0.177,-0.563,0.587
2024-10-15 14:03:45.943,74977.397,0.149,0.534,-0.833,0.002,-0.006,-0.001,-0.015,-0.002,0.004,0.177,-0.563,0.587
2024-10-15 14:03:45.953,74977.407,0.148,0.534,-0.832,0.005,-0.004,0.003,-0.007,-0.014,-0.003,0.176,-0.563,0.587
2024-10-15 14:03:45.963,74977.417,0.148,0.534,-0.832,0.005,0.005,0.007,-0.002,-0.014,-0.009,0.176,-0.563,0.587
2024-10-15 14:03:45.972,74977.427,0.148,0.534,-0.833,-0.002,0.004,0.01,0.032,-0.048,-0.01,0.176,-0.563,0.587
2024-10-15 14:03:45.982,74977.437,0.147,0.533,-0.833,-0.001,0.002,-0.003,0.074,-0.087,-0.003,0.175,-0.563,0.587
2024-10-15 14:03:45.992,74977.447,0.147,0.533,-0.834,0.009,0.01,-0.008,0.097,-0.1,-0.002,0.174,-0.562,0.587
2024-10-15 14:03:46.002,74977.457,0.146,0.532,-0.834,0.012,0.022,-0.002,0.125,-0.056,-0.009,0.173,-0.561,0.586
2024-10-15 14:03:46.012,74977.467,0.146,0.531,-0.835,-0.003,0.014,0.005,0.121,-0.02,-0.006,0.173,-0.559,0.586
2024-10-15 14:03:46.023,74977.477,0.146,0.53,-0.836,-0.015,0.004,0.014,0.126,0.008,0.002,0.172,-0.558,0.586
2024-10-15 14:03:46.032,74977.487,0.146,0.529,-0.836,-0.015,0.005,0.012,0.122,0.015,0.011,0.173,-0.557,0.586
2024-10-15 14:03:46.042,74977.497,0.146,0.528,-0.837,-0.009,0.009,0.005,0.113,0.025,0.012,0.173,-0.556,0.586
2024-10-15 14:03:46.052,74977.507,0.146,0.527,-0.837,-0.004,0.007,0.007,0.098,0.035,0.011,0.173,-0.555,0.586
2024-10-15 14:03:46.063,74977.517,0.147,0.526,-0.838,-0.005,-0.003,0.002,0.065,0.03,0.004,0.173,-0.554,0.586
2024-10-15 14:03:46.072,74977.527,0.147,0.526,-0.838,-0.005,-0.016,0.002,0.035,0.025,0.006,0.174,-0.554,0.586
2024-10-15 14:03:46.082,74977.537,0.147,0.525,-0.838,-0.003,-0.029,0.002,0.029,0.018,0.009,0.174,-0.553,0.586
2024-10-15 14:03:46.092,74977.547,0.147,0.525,-0.838,-0.001,-0.034,-0.004,0.016,0.025,-0.005,0.174,-0.553,0.586
2024-10-15 14:03:46.102,74977.557,0.148,0.525,-0.838,0.0,-0.017,0.001,0.004,0.041,-0.015,0.174,-0.553,0.586
2024-10-15 14:03:46.113,74977.567,0.148,0.525,-0.838,-0.006,0.0,0.011,0.004,0.043,-0.003,0.175,-0.553,0.586
2024-10-15 14:03:46.122,74977.577,0.148,0.525,-0.838,-0.008,0.009,0.007,0.012,0.038,0.004,0.175,-0.553,0.586
2024-10-15 14:03:46.132,74977.587,0.148,0.525,-0.838,-0.004,0.002,0.024,0.008,0.035,0.008,0.175,-0.553,0.586
2024-10-15 14:03:46.142,74977.597,0.149,0.525,-0.838,0.0,-0.015,0.015,0.004,0.022,-0.002,0.176,-0.553,0.586
2024-10-15 14:03:46.152,74977.607,0.149,0.525,-0.838,0.003,-0.019,0.009,-0.005,0.025,0.001,0.176,-0.553,0.586
2024-10-15 14:03:46.163,74977.617,0.149,0.525,-0.838,0.004,-0.008,0.002,-0.016,0.025,0.003,0.176,-0.553,0.586
2024-10-15 14:03:46.172,74977.627,0.149,0.525,-0.838,0.0,0.009,-0.009,0.002,0.01,0.004,0.176,-0.553,0.586
2024-10-15 14:03:46.182,74977.637,0.149,0.525,-0.838,-0.002,0.009,0.004,0.023,0.013,0.005,0.176,-0.553,0.587
2024-10-15 14:03:46.192,74977.646,0.149,0.525,-0.838,0.001,-0.009,0.012,0.019,0.009,-0.012,0.176,-0.553,0.587
2024-10-15 14:03:46.202,74977.656,0.149,0.525,-0.838,-0.003,-0.02,0.019,0.028,0.016,-0.007,0.176,-0.552,0.586
2024-10-15 14:03:46.212,74977.666,0.15,0.524,-0.838,-0.004,-0.009,0.012,0.054,0.025,0.002,0.177,-0.552,0.586
2024-10-15 14:03:46.222,74977.676,0.15,0.524,-0.839,-0.003,0.013,-0.005,0.081,0.027,0.009,0.177,-0.551,0.586
2024-10-15 14:03:46.232,74977.686,0.15,0.523,-0.839,-0.005,0.026,-0.004,0.1,0.03,0.017,0.177,-0.55,0.586
2024-10-15 14:03:46.242,74977.696,0.15,0.522,-0.839,-0.008,0.018,0.009,0.104,0.031,0.021,0.177,-0.549,0.587
2024-10-15 14:03:46.252,74977.706,0.151,0.521,-0.84,-0.005,-0.003,0.013,0.112,0.005,0.021,0.178,-0.548,0.587
2024-10-15 14:03:46.262,74977.716,0.151,0.52,-0.841,0.002,-0.013,0.01,0.214,-0.06,0.01,0.177,-0.547,0.587
2024-10-15 14:03:46.272,74977.726,0.15,0.518,-0.842,0.012,-0.002,0.006,0.313,-0.1,0.013,0.176,-0.544,0.586
2024-10-15 14:03:46.282,74977.736,0.149,0.515,-0.844,0.02,0.027,0.003,0.36,-0.085,0.029,0.175,-0.541,0.586
2024-10-15 14:03:46.292,74977.746,0.149,0.512,-0.846,0.009,0.057,0.005,0.428,-0.069,0.028,0.174,-0.537,0.585
2024-10-15 14:03:46.302,74977.756,0.149,0.508,-0.849,-0.014,0.048,0.009,0.46,-0.057,0.057,0.173,-0.533,0.585
2024-10-15 14:03:46.312,74977.766,0.148,0.504,-0.851,-0.01,0.031,0.017,0.461,-0.072,0.071,0.173,-0.528,0.585
2024-10-15 14:03:46.322,74977.776,0.148,0.5,-0.853,0.007,0.023,0.015,0.445,-0.08,0.069,0.172,-0.524,0.585
2024-10-15 14:03:46.332,74977.786,0.148,0.496,-0.855,0.009,0.005,0.008,0.382,-0.066,0.06,0.171,-0.519,0.585
2024-10-15 14:03:46.342,74977.796,0.147,0.493,-0.857,-0.0,-0.015,0.01,0.344,-0.085,0.052,0.17,-0.516,0.585
2024-10-15 14:03:46.352,74977.806,0.147,0.49,-0.859,-0.007,-0.031,0.013,0.43,-0.147,0.05,0.169,-0.512,0.584
2024-10-15 14:03:46.362,74977.816,0.146,0.486,-0.862,0.007,-0.031,0.001,0.377,-0.132,0.081,0.168,-0.508,0.584
2024-10-15 14:03:46.372,74977.826,0.145,0.483,-0.863,0.015,0.0,-0.001,0.329,-0.091,0.069,0.167,-0.504,0.585
2024-10-15 14:03:46.382,74977.836,0.145,0.48,-0.865,-0.018,0.004,0.012,0.297,-0.044,0.072,0.166,-0.501,0.585
2024-10-15 14:03:46.392,74977.846,0.145,0.478,-0.866,-0.03,-0.014,0.009,0.234,-0.03,0.081,0.166,-0.498,0.585
2024-10-15 14:03:46.402,74977.856,0.145,0.476,-0.867,-0.009,-0.019,0.009,0.173,-0.022,0.071,0.166,-0.496,0.585
2024-10-15 14:03:46.412,74977.866,0.145,0.475,-0.868,0.005,-0.026,0.013,0.117,-0.02,0.059,0.166,-0.495,0.586
2024-10-15 14:03:46.422,74977.876,0.145,0.474,-0.869,0.002,-0.028,0.017,0.095,-0.024,0.046,0.166,-0.494,0.586
2024-10-15 14:03:46.431,74977.886,0.145,0.473,-0.869,0.003,-0.02,0.012,0.109,-0.035,0.049,0.166,-0.493,0.586
2024-10-15 14:03:46.442,74977.896,0.145,0.472,-0.87,0.005,-0.007,0.007,0.127,-0.011,0.047,0.165,-0.491,0.586
2024-10-15 14:03:46.452,74977.906,0.145,0.471,-0.87,0.001,0.005,0.008,0.125,0.012,0.044,0.166,-0.49,0.587
2024-10-15 14:03:46.462,74977.916,0.146,0.469,-0.871,-0.007,0.012,0.013,0.128,0.04,0.049,0.166,-0.489,0.587
2024-10-15 14:03:46.472,74977.926,0.147,0.468,-0.871,-0.011,0.01,0.01,0.105,0.064,0.063,0.167,-0.487,0.587
2024-10-15 14:03:46.481,74977.936,0.148,0.467,-0.872,-0.007,-0.001,0.009,0.07,0.076,0.06,0.168,-0.486,0.588
2024-10-15 14:03:46.491,74977.946,0.149,0.467,-0.872,-0.007,-0.018,0.002,0.025,0.114,0.052,0.169,-0.486,0.588
2024-10-15 14:03:46.501,74977.956,0.15,0.467,-0.872,-0.006,-0.028,-0.004,-0.031,0.134,0.039,0.17,-0.486,0.589
2024-10-15 14:03:46.511,74977.966,0.151,0.467,-0.871,-0.01,-0.027,0.008,-0.087,0.154,0.044,0.172,-0.486,0.589
2024-10-15 14:03:46.521,74977.976,0.153,0.468,-0.87,-0.01,-0.024,0.005,-0.139,0.164,0.048,0.174,-0.487,0.59
2024-10-15 14:03:46.532,74977.986,0.155,0.47,-0.869,-0.009,-0.026,0.001,-0.209,0.175,0.046,0.176,-0.489,0.591
2024-10-15 14:03:46.541,74977.996,0.156,0.472,-0.868,-0.01,-0.033,0.001,-0.293,0.201,0.031,0.178,-0.491,0.591
2024-10-15 14:03:46.552,74978.006,0.158,0.475,-0.866,-0.014,-0.043,0.001,-0.382,0.238,0.015,0.181,-0.495,0.592
2024-10-15 14:03:46.562,74978.016,0.161,0.478,-0.863,-0.021,-0.047,-0.006,-0.465,0.26,0.004,0.184,-0.499,0.593
2024-10-15 14:03:46.571,74978.026,0.163,0.483,-0.861,-0.026,-0.047,-0.008,-0.536,0.269,0.011,0.187,-0.504,0.594
2024-10-15 14:03:46.581,74978.036,0.165,0.487,-0.857,-0.022,-0.044,-0.004,-0.582,0.266,0.02,0.19,-0.509,0.596
2024-10-15 14:03:46.591,74978.046,0.168,0.492,-0.854,-0.016,-0.042,-0.0,-0.608,0.256,0.03,0.194,-0.515,0.597
2024-10-15 14:03:46.601,74978.056,0.17,0.498,-0.851,-0.009,-0.039,0.001,-0.618,0.242,0.033,0.197,-0.521,0.599
2024-10-15 14:03:46.611,74978.066,0.172,0.503,-0.847,-0.007,-0.032,-0.001,-0.612,0.211,0.047,0.2,-0.527,0.601
2024-10-15 14:03:46.621,74978.076,0.174,0.508,-0.844,-0.006,-0.02,-0.006,-0.623,0.182,0.058,0.203,-0.533,0.603
2024-10-15 14:03:46.631,74978.086,0.176,0.513,-0.84,-0.001,0.002,-0.007,-0.584,0.158,0.056,0.206,-0.538,0.605
2024-10-15 14:03:46.641,74978.096,0.177,0.517,-0.837,0.008,0.003,-0.014,-0.539,0.095,0.061,0.208,-0.544,0.607
2024-10-15 14:03:46.651,74978.106,0.178,0.522,-0.834,0.021,-0.007,-0.008,-0.508,0.041,0.063,0.21,-0.549,0.609
2024-10-15 14:03:46.661,74978.116,0.178,0.526,-0.832,0.029,-0.004,-0.003,-0.475,0.004,0.06,0.211,-0.553,0.611
2024-10-15 14:03:46.671,74978.126,0.179,0.529,-0.829,0.023,0.003,-0.004,-0.442,-0.033,0.062,0.212,-0.558,0.612
2024-10-15 14:03:46.681,74978.136,0.179,0.533,-0.827,0.018,0.008,-0.0,-0.39,-0.062,0.074,0.213,-0.562,0.614
2024-10-15 14:03:46.690,74978.146,0.178,0.536,-0.825,0.017,0.012,-0.0,-0.343,-0.086,0.078,0.213,-0.565,0.616
2024-10-15 14:03:46.700,74978.156,0.178,0.538,-0.824,0.015,0.011,0.001,-0.302,-0.117,0.081,0.213,-0.568,0.618
2024-10-15 14:03:46.710,74978.166,0.177,0.54,-0.823,0.01,0.007,0.004,-0.263,-0.132,0.092,0.212,-0.571,0.619
2024-10-15 14:03:46.721,74978.176,0.177,0.542,-0.821,0.007,0.006,0.006,-0.25,-0.144,0.098,0.212,-0.573,0.621
2024-10-15 14:03:46.731,74978.186,0.176,0.544,-0.82,0.002,0.004,0.005,-0.243,-0.155,0.1,0.211,-0.575,0.623
2024-10-15 14:03:46.741,74978.196,0.175,0.546,-0.819,-0.004,-0.005,0.002,-0.241,-0.155,0.113,0.211,-0.577,0.625
2024-10-15 14:03:46.751,74978.206,0.175,0.548,-0.818,-0.007,-0.01,0.006,-0.257,-0.133,0.123,0.21,-0.58,0.627
2024-10-15 14:03:46.761,74978.216,0.175,0.55,-0.817,-0.011,-0.012,0.007,-0.298,-0.098,0.129,0.211,-0.582,0.629
2024-10-15 14:03:46.771,74978.225,0.175,0.552,-0.815,-0.02,-0.013,0.007,-0.318,-0.073,0.14,0.211,-0.585,0.631
2024-10-15 14:03:46.781,74978.235,0.175,0.554,-0.814,-0.028,-0.018,0.0,-0.36,-0.053,0.158,0.212,-0.588,0.634
2024-10-15 14:03:46.791,74978.245,0.175,0.557,-0.812,-0.021,-0.023,-0.001,-0.413,-0.07,0.146,0.213,-0.591,0.636
2024-10-15 14:03:46.801,74978.255,0.175,0.561,-0.809,-0.011,-0.021,-0.011,-0.468,-0.081,0.12,0.214,-0.595,0.639
2024-10-15 14:03:46.811,74978.265,0.176,0.564,-0.807,-0.005,-0.025,-0.013,-0.55,-0.093,0.141,0.214,-0.6,0.642
2024-10-15 14:03:46.821,74978.275,0.175,0.569,-0.803,0.005,-0.036,-0.01,-0.637,-0.133,0.136,0.215,-0.605,0.645
2024-10-15 14:03:46.831,74978.285,0.175,0.574,-0.8,0.006,-0.045,-0.014,-0.681,-0.153,0.101,0.215,-0.612,0.648
2024-10-15 14:03:46.841,74978.295,0.174,0.58,-0.796,-0.0,-0.05,-0.021,-0.721,-0.181,0.096,0.215,-0.618,0.651
2024-10-15 14:03:46.851,74978.305,0.173,0.585,-0.792,0.003,-0.048,-0.015,-0.753,-0.168,0.093,0.215,-0.625,0.654
2024-10-15 14:03:46.861,74978.315,0.173,0.591,-0.788,0.005,-0.043,-0.012,-0.778,-0.172,0.08,0.216,-0.632,0.657
2024-10-15 14:03:46.871,74978.325,0.172,0.597,-0.784,0.004,-0.034,-0.011,-0.783,-0.194,0.087,0.216,-0.64,0.66
2024-10-15 14:03:46.881,74978.335,0.171,0.603,-0.779,0.007,-0.027,-0.012,-0.787,-0.158,0.088,0.216,-0.647,0.663
2024-10-15 14:03:46.891,74978.345,0.17,0.609,-0.775,0.005,-0.021,-0.006,-0.777,-0.131,0.065,0.216,-0.655,0.666
2024-10-15 14:03:46.901,74978.355,0.169,0.615,-0.77,-0.004,-0.019,0.003,-0.756,-0.123,0.058,0.217,-0.662,0.669
2024-10-15 14:03:46.911,74978.365,0.169,0.62,-0.766,-0.008,-0.016,0.004,-0.72,-0.11,0.066,0.217,-0.669,0.672
2024-10-15 14:03:46.921,74978.375,0.169,0.626,-0.762,0.003,-0.001,0.005,-0.673,-0.083,0.058,0.218,-0.676,0.674
2024-10-15 14:03:46.931,74978.385,0.168,0.63,-0.758,0.009,0.007,0.004,-0.6,-0.103,0.027,0.218,-0.682,0.677
2024-10-15 14:03:46.941,74978.395,0.168,0.635,-0.754,0.008,0.011,0.005,-0.583,-0.109,0.04,0.219,-0.688,0.679
2024-10-15 14:03:46.951,74978.405,0.167,0.639,-0.751,0.016,0.02,0.007,-0.514,-0.132,0.005,0.219,-0.693,0.68
2024-10-15 14:03:46.961,74978.415,0.166,0.642,-0.748,0.017,0.021,0.013,-0.425,-0.117,0.011,0.218,-0.697,0.682
2024-10-15 14:03:46.971,74978.425,0.165,0.645,-0.746,0.01,0.015,0.005,-0.415,-0.122,0.0,0.218,-0.702,0.683
2024-10-15 14:03:46.981,74978.435,0.164,0.648,-0.744,0.013,0.02,0.014,-0.346,-0.134,-0.022,0.217,-0.705,0.684
2024-10-15 14:03:46.991,74978.445,0.163,0.651,-0.742,0.006,0.014,0.011,-0.297,-0.165,-0.024,0.216,-0.709,0.684
2024-10-15 14:03:47.001,74978.455,0.161,0.653,-0.74,0.013,0.018,0.006,-0.238,-0.179,-0.043,0.214,-0.711,0.685
2024-10-15 14:03:47.011,74978.465,0.159,0.654,-0.739,0.013,0.023,0.006,-0.176,-0.19,-0.041,0.212,-0.713,0.685
2024-10-15 14:03:47.020,74978.475,0.158,0.656,-0.739,0.006,0.021,0.007,-0.127,-0.179,-0.044,0.211,-0.715,0.684
2024-10-15 14:03:47.030,74978.485,0.156,0.656,-0.738,0.001,0.02,0.014,-0.092,-0.162,-0.052,0.209,-0.716,0.684
2024-10-15 14:03:47.041,74978.495,0.155,0.657,-0.738,-0.008,0.015,0.016,-0.051,-0.159,-0.053,0.207,-0.717,0.684
2024-10-15 14:03:47.051,74978.505,0.153,0.657,-0.738,-0.01,0.007,0.013,-0.018,-0.168,-0.03,0.205,-0.717,0.683
2024-10-15 14:03:47.060,74978.515,0.152,0.657,-0.738,-0.003,0.005,0.013,0.01,-0.165,-0.014,0.203,-0.717,0.683
2024-10-15 14:03:47.071,74978.525,0.151,0.657,-0.738,0.001,0.011,0.017,0.028,-0.163,-0.013,0.201,-0.717,0.683
2024-10-15 14:03:47.080,74978.535,0.149,0.657,-0.739,-0.004,0.006,0.015,0.045,-0.172,-0.016,0.199,-0.717,0.682
2024-10-15 14:03:47.090,74978.545,0.148,0.657,-0.74,-0.006,-0.01,0.024,0.05,-0.152,0.007,0.198,-0.716,0.682
2024-10-15 14:03:47.100,74978.555,0.147,0.656,-0.74,-0.001,-0.023,0.021,0.046,-0.101,0.013,0.196,-0.716,0.682
2024-10-15 14:03:47.110,74978.565,0.147,0.656,-0.74,-0.003,-0.009,-0.007,0.044,-0.085,0.029,0.196,-0.716,0.682
2024-10-15 14:03:47.121,74978.575,0.146,0.656,-0.741,-0.004,0.031,-0.029,0.099,-0.125,0.017,0.195,-0.715,0.682
2024-10-15 14:03:47.130,74978.585,0.145,0.655,-0.742,0.005,0.056,-0.008,0.13,-0.105,0.047,0.194,-0.714,0.682
2024-10-15 14:03:47.140,74978.595,0.145,0.654,-0.743,0.01,0.019,0.032,0.115,-0.085,0.006,0.193,-0.712,0.682
2024-10-15 14:03:47.150,74978.605,0.144,0.653,-0.743,-0.001,-0.044,0.061,0.098,-0.042,-0.003,0.192,-0.711,0.682
2024-10-15 14:03:47.161,74978.615,0.144,0.652,-0.744,-0.012,-0.077,0.026,0.07,-0.01,0.016,0.192,-0.711,0.682
2024-10-15 14:03:47.170,74978.625,0.144,0.652,-0.745,-0.007,-0.025,-0.012,0.089,-0.001,0.028,0.192,-0.71,0.682
2024-10-15 14:03:47.180,74978.635,0.145,0.651,-0.745,-0.006,0.041,-0.018,0.129,-0.001,0.036,0.192,-0.709,0.682
2024-10-15 14:03:47.191,74978.645,0.145,0.65,-0.746,-0.002,0.055,-0.004,0.147,0.005,0.021,0.192,-0.707,0.682
2024-10-15 14:03:47.200,74978.655,0.145,0.649,-0.747,0.0,0.02,0.014,0.156,0.005,-0.006,0.192,-0.706,0.682
2024-10-15 14:03:47.210,74978.665,0.145,0.648,-0.748,-0.003,-0.023,0.021,0.143,0.005,-0.015,0.191,-0.705,0.681
2024-10-15 14:03:47.220,74978.675,0.145,0.647,-0.749,0.005,-0.031,0.008,0.128,-0.005,-0.017,0.191,-0.703,0.681
2024-10-15 14:03:47.230,74978.685,0.145,0.646,-0.75,0.007,-0.005,-0.001,0.128,-0.002,-0.017,0.191,-0.702,0.68
2024-10-15 14:03:47.240,74978.695,0.145,0.645,-0.75,-0.003,0.014,0.005,0.132,0.017,-0.021,0.19,-0.701,0.679
2024-10-15 14:03:47.250,74978.705,0.145,0.644,-0.751,-0.014,0.008,0.016,0.134,0.038,-0.022,0.19,-0.7,0.679
2024-10-15 14:03:47.260,74978.715,0.145,0.643,-0.752,-0.017,-0.011,0.018,0.121,0.054,-0.018,0.19,-0.698,0.678
2024-10-15 14:03:47.270,74978.725,0.145,0.642,-0.753,-0.01,-0.014,0.009,0.074,0.054,-0.018,0.19,-0.698,0.677
2024-10-15 14:03:47.280,74978.735,0.145,0.642,-0.753,-0.006,0.002,-0.002,0.104,0.033,-0.022,0.191,-0.697,0.677
2024-10-15 14:03:47.290,74978.745,0.145,0.641,-0.754,-0.004,0.007,-0.003,0.14,0.019,0.005,0.191,-0.696,0.676
2024-10-15 14:03:47.300,74978.755,0.146,0.64,-0.755,0.003,0.002,0.015,0.137,0.03,0.003,0.191,-0.694,0.676
2024-10-15 14:03:47.310,74978.765,0.146,0.639,-0.755,-0.002,0.007,0.014,0.124,0.048,-0.026,0.191,-0.693,0.676
2024-10-15 14:03:47.320,74978.775,0.146,0.638,-0.756,-0.012,-0.003,0.003,0.11,0.031,-0.018,0.191,-0.692,0.675
2024-10-15 14:03:47.330,74978.785,0.146,0.637,-0.757,-0.004,-0.011,-0.005,0.116,0.004,-0.011,0.191,-0.691,0.674
2024-10-15 14:03:47.340,74978.795,0.146,0.636,-0.757,0.007,-0.008,0.002,0.103,0.014,-0.011,0.19,-0.69,0.674
2024-10-15 14:03:47.350,74978.804,0.146,0.636,-0.758,0.004,-0.006,0.004,0.067,0.022,-0.027,0.19,-0.689,0.673
2024-10-15 14:03:47.360,74978.814,0.146,0.635,-0.758,-0.005,-0.006,0.005,0.04,0.019,-0.036,0.19,-0.689,0.673
2024-10-15 14:03:47.370,74978.824,0.146,0.635,-0.758,-0.007,-0.01,0.002,0.022,0.021,-0.033,0.19,-0.688,0.672
2024-10-15 14:03:47.380,74978.834,0.146,0.635,-0.758,0.001,-0.016,-0.006,-0.017,0.049,-0.027,0.19,-0.688,0.672
2024-10-15 14:03:47.390,74978.844,0.146,0.636,-0.758,0.001,-0.016,-0.011,-0.032,0.037,-0.037,0.19,-0.689,0.671
2024-10-15 14:03:47.400,74978.854,0.146,0.636,-0.758,-0.008,-0.011,-0.007,-0.028,0.015,-0.033,0.19,-0.689,0.671
2024-10-15 14:03:47.410,74978.864,0.146,0.636,-0.758,-0.004,-0.003,-0.004,-0.02,-0.015,-0.024,0.19,-0.689,0.671
2024-10-15 14:03:47.420,74978.874,0.145,0.636,-0.758,0.008,-0.0,-0.008,-0.025,-0.05,-0.014,0.19,-0.69,0.67
2024-10-15 14:03:47.430,74978.884,0.145,0.637,-0.757,0.013,-0.011,-0.017,-0.086,-0.109,-0.01,0.189,-0.69,0.67
2024-10-15 14:03:47.440,74978.894,0.144,0.638,-0.757,0.016,-0.028,-0.022,-0.176,-0.159,-0.026,0.188,-0.692,0.67
2024-10-15 14:03:47.450,74978.904,0.142,0.64,-0.756,0.014,-0.042,-0.026,-0.29,-0.224,-0.049,0.186,-0.694,0.67
2024-10-15 14:03:47.459,74978.914,0.139,0.642,-0.754,0.015,-0.048,-0.039,-0.375,-0.33,-0.062,0.183,-0.697,0.67
2024-10-15 14:03:47.469,74978.924,0.136,0.645,-0.752,0.022,-0.046,-0.041,-0.427,-0.478,-0.066,0.179,-0.701,0.671
2024-10-15 14:03:47.479,74978.934,0.131,0.648,-0.75,0.036,-0.036,-0.047,-0.457,-0.722,-0.091,0.173,-0.706,0.67
2024-10-15 14:03:47.489,74978.944,0.124,0.652,-0.748,0.062,-0.016,-0.069,-0.508,-0.962,-0.114,0.165,-0.71,0.67
2024-10-15 14:03:47.499,74978.954,0.116,0.656,-0.746,0.088,0.006,-0.064,-0.599,-1.115,-0.129,0.154,-0.716,0.67
2024-10-15 14:03:47.510,74978.964,0.106,0.661,-0.743,0.091,0.016,-0.064,-0.641,-1.214,-0.149,0.142,-0.722,0.669
2024-10-15 14:03:47.520,74978.974,0.096,0.666,-0.739,0.06,0.013,-0.105,-0.725,-1.392,-0.135,0.129,-0.729,0.668
2024-10-15 14:03:47.530,74978.984,0.084,0.672,-0.736,0.061,0.015,-0.129,-0.695,-1.314,-0.153,0.114,-0.737,0.667
2024-10-15 14:03:47.540,74978.994,0.076,0.677,-0.732,0.07,-0.002,-0.119,-0.723,-0.852,-0.053,0.103,-0.744,0.667
2024-10-15 14:03:47.550,74979.004,0.071,0.683,-0.727,-0.024,-0.071,-0.09,-0.854,-0.593,0.07,0.097,-0.752,0.668
2024-10-15 14:03:47.560,74979.014,0.067,0.689,-0.722,-0.097,-0.107,-0.148,-0.838,-0.649,0.135,0.092,-0.76,0.67
2024-10-15 14:03:47.571,74979.024,0.063,0.694,-0.717,-0.02,-0.1,-0.151,-0.705,-0.734,0.198,0.088,-0.768,0.673
2024-10-15 14:03:47.580,74979.034,0.06,0.699,-0.713,0.088,-0.052,-0.14,-0.522,-0.691,0.261,0.083,-0.774,0.677
2024-10-15 14:03:47.589,74979.044,0.057,0.701,-0.711,0.112,0.018,-0.136,-0.266,-0.653,0.236,0.08,-0.777,0.681
2024-10-15 14:03:47.600,74979.054,0.054,0.702,-0.71,0.098,0.054,-0.1,0.01,-0.652,0.216,0.075,-0.778,0.684
2024-10-15 14:03:47.610,74979.064,0.05,0.701,-0.711,0.104,0.065,-0.077,0.202,-0.671,0.24,0.071,-0.777,0.687
2024-10-15 14:03:47.620,74979.074,0.047,0.699,-0.713,0.14,0.088,-0.046,0.322,-0.736,0.236,0.066,-0.774,0.69
2024-10-15 14:03:47.629,74979.084,0.044,0.696,-0.716,0.182,0.084,-0.036,0.424,-0.742,0.285,0.061,-0.77,0.693
2024-10-15 14:03:47.639,74979.094,0.041,0.693,-0.72,0.214,0.056,-0.057,0.55,-0.758,0.363,0.056,-0.765,0.697
2024-10-15 14:03:47.649,74979.104,0.038,0.687,-0.726,0.25,0.05,-0.069,0.979,-0.672,0.323,0.052,-0.758,0.701
2024-10-15 14:03:47.660,74979.114,0.034,0.68,-0.733,0.271,0.079,-0.116,1.032,-0.826,0.264,0.047,-0.747,0.704
2024-10-15 14:03:47.669,74979.124,0.03,0.672,-0.74,0.287,0.143,-0.103,1.067,-0.859,0.316,0.04,-0.737,0.707
2024-10-15 14:03:47.679,74979.134,0.027,0.663,-0.748,0.282,0.157,-0.011,1.154,-0.733,0.409,0.035,-0.725,0.711
2024-10-15 14:03:47.689,74979.144,0.023,0.655,-0.756,0.261,0.116,-0.005,1.162,-0.834,0.388,0.031,-0.714,0.715
2024-10-15 14:03:47.700,74979.154,0.019,0.646,-0.763,0.252,0.09,0.044,1.199,-0.96,0.329,0.025,-0.702,0.719
2024-10-15 14:03:47.710,74979.164,0.013,0.636,-0.771,0.28,0.074,0.11,1.24,-1.04,0.319,0.017,-0.69,0.722
2024-10-15 14:03:47.719,74979.174,0.007,0.627,-0.779,0.29,0.071,0.121,1.242,-1.114,0.323,0.009,-0.677,0.726
2024-10-15 14:03:47.729,74979.184,-0.0,0.617,-0.787,0.263,0.089,0.127,1.253,-1.211,0.357,-0.0,-0.665,0.73
2024-10-15 14:03:47.739,74979.194,-0.008,0.607,-0.795,0.232,0.108,0.122,1.345,-1.27,0.408,-0.009,-0.652,0.734
2024-10-15 14:03:47.750,74979.204,-0.015,0.595,-0.803,0.202,0.132,0.115,1.524,-1.278,0.422,-0.019,-0.638,0.739
2024-10-15 14:03:47.760,74979.214,-0.023,0.582,-0.813,0.165,0.152,0.119,1.78,-1.286,0.455,-0.028,-0.621,0.745
2024-10-15 14:03:47.769,74979.224,-0.031,0.567,-0.823,0.132,0.137,0.134,1.913,-1.316,0.514,-0.037,-0.603,0.751
2024-10-15 14:03:47.779,74979.234,-0.039,0.551,-0.834,0.118,0.11,0.173,1.982,-1.338,0.533,-0.047,-0.584,0.757
2024-10-15 14:03:47.789,74979.244,-0.047,0.535,-0.844,0.106,0.067,0.19,1.991,-1.294,0.491,-0.056,-0.564,0.764
2024-10-15 14:03:47.799,74979.254,-0.055,0.518,-0.853,0.09,0.012,0.172,1.956,-1.219,0.419,-0.065,-0.545,0.77
2024-10-15 14:03:47.809,74979.264,-0.064,0.502,-0.863,0.065,-0.046,0.143,1.87,-1.195,0.334,-0.074,-0.526,0.775
2024-10-15 14:03:47.820,74979.274,-0.073,0.487,-0.87,0.036,-0.11,0.144,1.672,-1.226,0.233,-0.083,-0.508,0.779
2024-10-15 14:03:47.829,74979.284,-0.083,0.473,-0.877,0.014,-0.163,0.15,1.533,-1.337,0.095,-0.094,-0.493,0.782
2024-10-15 14:03:47.839,74979.294,-0.095,0.46,-0.883,-0.002,-0.201,0.152,1.534,-1.445,-0.076,-0.108,-0.478,0.783
2024-10-15 14:03:47.849,74979.304,-0.109,0.446,-0.888,-0.02,-0.183,0.152,1.436,-1.409,-0.194,-0.122,-0.462,0.783
2024-10-15 14:03:47.859,74979.314,-0.121,0.434,-0.893,-0.061,-0.111,0.125,1.041,-1.216,0.032,-0.134,-0.449,0.783
2024-10-15 14:03:47.869,74979.324,-0.13,0.43,-0.893,-0.214,-0.133,0.008,-0.142,-1.049,-0.053,-0.145,-0.445,0.783
2024-10-15 14:03:47.879,74979.334,-0.141,0.434,-0.89,-0.49,-0.185,-0.26,-0.514,-1.289,-0.118,-0.157,-0.449,0.78
2024-10-15 14:03:47.889,74979.344,-0.153,0.436,-0.887,-0.656,-0.153,-0.271,0.092,-1.345,0.234,-0.171,-0.451,0.779
2024-10-15 14:03:47.899,74979.354,-0.163,0.432,-0.887,-0.484,0.168,-0.226,0.909,-1.092,0.294,-0.181,-0.447,0.783
2024-10-15 14:03:47.909,74979.364,-0.17,0.422,-0.891,-0.394,0.486,-0.201,1.419,-0.818,0.038,-0.189,-0.435,0.787
2024-10-15 14:03:47.919,74979.374,-0.177,0.409,-0.895,-0.508,0.42,-0.112,1.523,-0.746,0.055,-0.195,-0.421,0.79
2024-10-15 14:03:47.929,74979.384,-0.184,0.396,-0.9,-0.49,0.168,0.001,1.403,-0.954,0.178,-0.202,-0.407,0.793
2024-10-15 14:03:47.939,74979.393,-0.193,0.383,-0.903,-0.323,0.05,0.129,1.376,-1.119,0.079,-0.21,-0.394,0.797
2024-10-15 14:03:47.949,74979.403,-0.203,0.371,-0.906,-0.225,0.047,0.163,1.393,-1.23,-0.046,-0.221,-0.38,0.8
2024-10-15 14:03:47.960,74979.413,-0.215,0.358,-0.908,-0.217,0.043,0.185,1.326,-1.262,-0.071,-0.232,-0.367,0.801
2024-10-15 14:03:47.969,74979.423,-0.226,0.347,-0.91,-0.217,0.013,0.222,1.28,-1.157,0.013,-0.244,-0.354,0.803
2024-10-15 14:03:47.979,74979.433,-0.236,0.335,-0.912,-0.215,-0.036,0.209,1.231,-1.107,0.133,-0.254,-0.342,0.807
2024-10-15 14:03:47.989,74979.443,-0.245,0.325,-0.913,-0.215,-0.047,0.191,1.116,-1.019,0.194,-0.263,-0.331,0.81
2024-10-15 14:03:47.999,74979.453,-0.254,0.316,-0.914,-0.189,-0.024,0.199,0.925,-1.017,0.238,-0.271,-0.322,0.815
2024-10-15 14:03:48.009,74979.463,-0.262,0.309,-0.914,-0.133,-0.018,0.186,0.739,-0.94,0.168,-0.279,-0.314,0.818
2024-10-15 14:03:48.019,74979.473,-0.27,0.304,-0.914,-0.121,-0.028,0.123,0.568,-0.842,0.174,-0.287,-0.308,0.821
2024-10-15 14:03:48.029,74979.483,-0.277,0.299,-0.913,-0.141,-0.04,0.014,0.547,-0.752,0.238,-0.294,-0.304,0.823
2024-10-15 14:03:48.039,74979.493,-0.282,0.295,-0.913,-0.12,-0.022,-0.003,0.605,-0.605,0.278,-0.3,-0.299,0.827
2024-10-15 14:03:48.049,74979.503,-0.286,0.289,-0.913,-0.051,0.034,0.019,0.728,-0.493,0.26,-0.304,-0.294,0.83
2024-10-15 14:03:48.059,74979.513,-0.289,0.283,-0.915,0.036,0.08,0.031,0.926,-0.386,0.246,-0.307,-0.286,0.834
2024-10-15 14:03:48.069,74979.523,-0.292,0.274,-0.916,0.121,0.095,0.056,1.119,-0.293,0.293,-0.308,-0.278,0.839
2024-10-15 14:03:48.079,74979.533,-0.293,0.264,-0.919,0.215,0.099,0.109,1.175,-0.254,0.374,-0.309,-0.268,0.845
2024-10-15 14:03:48.089,74979.543,-0.295,0.255,-0.921,0.307,0.053,0.171,1.152,-0.309,0.376,-0.31,-0.258,0.851
2024-10-15 14:03:48.099,74979.553,-0.297,0.245,-0.923,0.38,-0.01,0.214,1.112,-0.395,0.369,-0.312,-0.248,0.857
2024-10-15 14:03:48.109,74979.563,-0.3,0.236,-0.924,0.438,-0.009,0.231,1.164,-0.464,0.372,-0.314,-0.238,0.864
2024-10-15 14:03:48.119,74979.573,-0.304,0.226,-0.925,0.447,0.04,0.196,1.162,-0.489,0.349,-0.317,-0.228,0.87
2024-10-15 14:03:48.128,74979.583,-0.308,0.217,-0.926,0.386,0.054,0.125,1.115,-0.45,0.28,-0.321,-0.219,0.875
2024-10-15 14:03:48.138,74979.593,-0.311,0.207,-0.928,0.307,0.031,0.025,1.161,-0.383,0.27,-0.323,-0.209,0.881
2024-10-15 14:03:48.149,74979.603,-0.313,0.197,-0.929,0.252,-0.002,-0.074,1.172,-0.277,0.308,-0.325,-0.199,0.887
2024-10-15 14:03:48.159,74979.613,-0.315,0.187,-0.931,0.205,0.011,-0.141,1.259,-0.153,0.35,-0.326,-0.188,0.893
2024-10-15 14:03:48.169,74979.623,-0.315,0.176,-0.933,0.143,0.013,-0.156,1.274,-0.026,0.353,-0.326,-0.177,0.899
2024-10-15 14:03:48.179,74979.633,-0.314,0.166,-0.935,0.096,0.009,-0.155,1.187,0.057,0.293,-0.324,-0.167,0.905
2024-10-15 14:03:48.189,74979.643,-0.313,0.156,-0.937,0.062,-0.004,-0.131,1.048,0.079,0.189,-0.323,-0.157,0.91
2024-10-15 14:03:48.199,74979.653,-0.312,0.147,-0.939,0.041,-0.061,-0.051,1.126,0.043,0.131,-0.321,-0.147,0.914
2024-10-15 14:03:48.208,74979.663,-0.311,0.136,-0.94,0.1,-0.089,0.183,1.155,0.146,0.117,-0.32,-0.137,0.918
2024-10-15 14:03:48.218,74979.673,-0.31,0.126,-0.942,0.296,-0.06,0.233,1.123,0.051,0.077,-0.318,-0.126,0.921
2024-10-15 14:03:48.228,74979.683,-0.311,0.117,-0.943,0.409,-0.189,0.113,0.574,-0.198,-0.051,-0.318,-0.118,0.923
2024-10-15 14:03:48.238,74979.693,-0.313,0.114,-0.943,0.281,-0.329,0.131,0.048,-0.232,-0.215,-0.321,-0.115,0.922
2024-10-15 14:03:48.248,74979.703,-0.315,0.114,-0.942,0.079,-0.258,0.158,0.039,-0.165,-0.216,-0.323,-0.114,0.918
2024-10-15 14:03:48.258,74979.713,-0.317,0.112,-0.942,0.003,-0.111,0.096,0.063,-0.14,-0.149,-0.325,-0.113,0.916
2024-10-15 14:03:48.268,74979.723,-0.318,0.112,-0.941,-0.007,0.013,0.049,-0.06,-0.155,-0.226,-0.326,-0.112,0.913
2024-10-15 14:03:48.278,74979.733,-0.32,0.112,-0.941,-0.092,0.046,0.023,-0.218,-0.137,-0.323,-0.328,-0.112,0.909
2024-10-15 14:03:48.288,74979.743,-0.322,0.113,-0.94,-0.216,0.013,-0.017,-0.262,-0.262,-0.363,-0.33,-0.114,0.904
2024-10-15 14:03:48.298,74979.753,-0.326,0.115,-0.938,-0.333,0.013,0.009,-0.369,-0.38,-0.335,-0.334,-0.115,0.899
2024-10-15 14:03:48.308,74979.763,-0.33,0.118,-0.937,-0.446,0.089,0.065,-0.449,-0.416,-0.263,-0.339,-0.118,0.894
2024-10-15 14:03:48.318,74979.773,-0.334,0.122,-0.935,-0.538,0.139,0.017,-0.5,-0.391,-0.141,-0.343,-0.122,0.89
2024-10-15 14:03:48.328,74979.783,-0.337,0.126,-0.933,-0.593,0.096,0.055,-0.544,-0.32,-0.023,-0.347,-0.127,0.886
2024-10-15 14:03:48.339,74979.793,-0.34,0.131,-0.931,-0.563,0.077,0.093,-0.308,-0.38,0.081,-0.35,-0.131,0.884
2024-10-15 14:03:48.348,74979.803,-0.344,0.133,-0.929,-0.443,0.111,0.053,-0.11,-0.491,0.122,-0.355,-0.133,0.884
2024-10-15 14:03:48.358,74979.813,-0.349,0.134,-0.927,-0.323,0.138,0.037,-0.096,-0.575,0.06,-0.36,-0.135,0.884
2024-10-15 14:03:48.368,74979.823,-0.355,0.135,-0.925,-0.295,0.088,0.009,-0.084,-0.598,0.077,-0.366,-0.136,0.883
2024-10-15 14:03:48.378,74979.833,-0.36,0.137,-0.923,-0.292,0.019,-0.04,-0.142,-0.573,0.196,-0.372,-0.137,0.883
2024-10-15 14:03:48.388,74979.843,-0.365,0.139,-0.921,-0.241,0.007,-0.085,-0.318,-0.528,0.224,-0.377,-0.14,0.883
2024-10-15 14:03:48.398,74979.853,-0.369,0.144,-0.918,-0.192,-0.026,-0.193,-0.455,-0.574,0.081,-0.382,-0.144,0.882
2024-10-15 14:03:48.408,74979.863,-0.374,0.149,-0.915,-0.195,-0.084,-0.251,-0.627,-0.495,-0.007,-0.388,-0.149,0.88
2024-10-15 14:03:48.418,74979.873,-0.378,0.154,-0.913,-0.22,-0.075,-0.169,-0.496,-0.418,-0.043,-0.393,-0.155,0.876
2024-10-15 14:03:48.428,74979.883,-0.382,0.157,-0.911,-0.195,0.038,-0.135,-0.112,-0.308,-0.001,-0.397,-0.157,0.874
2024-10-15 14:03:48.438,74979.893,-0.384,0.156,-0.91,-0.115,0.15,-0.047,0.189,-0.217,0.078,-0.399,-0.157,0.873
2024-10-15 14:03:48.448,74979.903,-0.385,0.154,-0.91,-0.028,0.203,0.005,0.33,-0.142,0.096,-0.401,-0.155,0.874
2024-10-15 14:03:48.458,74979.913,-0.386,0.151,-0.91,0.029,0.149,0.059,0.376,-0.102,0.1,-0.401,-0.152,0.876
2024-10-15 14:03:48.468,74979.923,-0.387,0.148,-0.91,0.095,0.044,0.09,0.383,-0.095,0.117,-0.402,-0.149,0.877
2024-10-15 14:03:48.478,74979.933,-0.388,0.145,-0.91,0.178,-0.039,0.115,0.444,-0.089,0.145,-0.403,-0.146,0.879
2024-10-15 14:03:48.488,74979.943,-0.388,0.142,-0.911,0.265,-0.088,0.118,0.465,-0.08,0.138,-0.403,-0.142,0.881
2024-10-15 14:03:48.498,74979.953,-0.389,0.138,-0.911,0.33,-0.1,0.103,0.494,-0.046,0.115,-0.403,-0.138,0.883
2024-10-15 14:03:48.508,74979.963,-0.389,0.133,-0.912,0.366,-0.115,0.093,0.521,-0.006,0.089,-0.403,-0.134,0.885
2024-10-15 14:03:48.518,74979.972,-0.389,0.129,-0.912,0.408,-0.126,0.096,0.569,-0.01,0.082,-0.403,-0.129,0.887
2024-10-15 14:03:48.528,74979.982,-0.389,0.124,-0.913,0.47,-0.109,0.113,0.567,0.015,0.083,-0.402,-0.124,0.889
2024-10-15 14:03:48.538,74979.992,-0.388,0.12,-0.914,0.524,-0.081,0.108,0.467,0.032,0.086,-0.402,-0.12,0.891
2024-10-15 14:03:48.548,74980.002,-0.388,0.116,-0.914,0.538,-0.082,0.07,0.31,0.004,0.042,-0.401,-0.116,0.892
2024-10-15 14:03:48.558,74980.012,-0.388,0.114,-0.915,0.498,-0.094,0.014,0.201,-0.001,-0.092,-0.401,-0.114,0.893
2024-10-15 14:03:48.568,74980.022,-0.388,0.111,-0.915,0.386,-0.062,-0.071,0.214,0.065,-0.2,-0.401,-0.112,0.891
2024-10-15 14:03:48.578,74980.032,-0.387,0.109,-0.916,0.229,-0.005,-0.182,0.201,0.161,-0.187,-0.4,-0.109,0.889
2024-10-15 14:03:48.588,74980.042,-0.385,0.107,-0.917,0.084,0.06,-0.247,0.158,0.28,-0.128,-0.398,-0.107,0.888
2024-10-15 14:03:48.598,74980.052,-0.382,0.105,-0.918,-0.055,0.086,-0.282,0.167,0.377,-0.084,-0.395,-0.105,0.887
2024-10-15 14:03:48.608,74980.062,-0.378,0.103,-0.92,-0.158,0.08,-0.262,0.273,0.455,-0.019,-0.39,-0.103,0.886
2024-10-15 14:03:48.618,74980.072,-0.374,0.099,-0.922,-0.166,0.1,-0.134,0.503,0.494,0.032,-0.385,-0.099,0.887
2024-10-15 14:03:48.628,74980.082,-0.369,0.094,-0.925,-0.035,0.15,0.121,0.663,0.572,0.088,-0.38,-0.094,0.889
2024-10-15 14:03:48.638,74980.092,-0.364,0.088,-0.927,0.244,0.147,0.182,0.644,0.393,0.014,-0.375,-0.088,0.891
2024-10-15 14:03:48.648,74980.102,-0.362,0.083,-0.928,0.416,-0.018,0.139,0.224,0.149,-0.142,-0.372,-0.084,0.891
2024-10-15 14:03:48.658,74980.112,-0.361,0.082,-0.929,0.315,-0.154,0.148,-0.065,0.061,-0.31,-0.371,-0.082,0.888
2024-10-15 14:03:48.668,74980.122,-0.361,0.081,-0.929,0.071,-0.115,0.115,0.07,0.11,-0.354,-0.371,-0.081,0.884
2024-10-15 14:03:48.678,74980.132,-0.36,0.079,-0.93,-0.072,0.017,0.028,0.161,0.229,-0.255,-0.369,-0.079,0.881
2024-10-15 14:03:48.688,74980.142,-0.358,0.077,-0.931,-0.119,0.067,-0.081,0.007,0.177,-0.251,-0.367,-0.077,0.878
2024-10-15 14:03:48.698,74980.152,-0.357,0.077,-0.931,-0.194,-0.071,-0.106,-0.238,0.118,-0.319,-0.366,-0.077,0.874
2024-10-15 14:03:48.708,74980.162,-0.356,0.078,-0.931,-0.272,-0.157,-0.065,-0.258,0.111,-0.344,-0.365,-0.078,0.87
2024-10-15 14:03:48.718,74980.172,-0.355,0.079,-0.931,-0.303,-0.084,-0.03,-0.106,0.094,-0.337,-0.364,-0.079,0.865
2024-10-15 14:03:48.728,74980.182,-0.355,0.078,-0.932,-0.303,-0.025,0.013,-0.051,0.053,-0.351,-0.364,-0.078,0.861
2024-10-15 14:03:48.737,74980.192,-0.355,0.077,-0.932,-0.315,-0.022,0.081,-0.029,0.033,-0.38,-0.364,-0.077,0.857
2024-10-15 14:03:48.747,74980.202,-0.355,0.076,-0.932,-0.314,-0.031,0.129,-0.057,-0.036,-0.354,-0.364,-0.076,0.853
2024-10-15 14:03:48.758,74980.212,-0.356,0.076,-0.931,-0.276,-0.062,0.102,-0.212,-0.202,-0.301,-0.365,-0.076,0.849
2024-10-15 14:03:48.767,74980.222,-0.359,0.079,-0.93,-0.263,-0.132,0.083,-0.447,-0.308,-0.23,-0.368,-0.079,0.844
2024-10-15 14:03:48.777,74980.232,-0.362,0.082,-0.928,-0.288,-0.113,0.061,-0.434,-0.328,-0.17,-0.372,-0.082,0.84
2024-10-15 14:03:48.787,74980.242,-0.365,0.085,-0.927,-0.296,-0.011,0.006,-0.356,-0.288,-0.106,-0.375,-0.085,0.837
2024-10-15 14:03:48.797,74980.252,-0.368,0.088,-0.926,-0.268,0.066,-0.04,-0.271,-0.279,-0.03,-0.378,-0.088,0.835
2024-10-15 14:03:48.808,74980.262,-0.37,0.09,-0.924,-0.229,0.062,-0.081,-0.321,-0.268,0.009,-0.381,-0.091,0.833
2024-10-15 14:03:48.818,74980.272,-0.373,0.093,-0.923,-0.196,0.076,-0.101,-0.265,-0.267,0.05,-0.384,-0.093,0.831
2024-10-15 14:03:48.828,74980.282,-0.375,0.096,-0.922,-0.158,0.065,-0.078,-0.349,-0.255,0.083,-0.386,-0.096,0.83
2024-10-15 14:03:48.837,74980.292,-0.377,0.1,-0.921,-0.109,0.06,-0.069,-0.304,-0.254,-0.022,-0.389,-0.1,0.829
2024-10-15 14:03:48.847,74980.302,-0.379,0.102,-0.92,-0.09,0.034,-0.128,-0.215,-0.15,-0.04,-0.391,-0.102,0.827
2024-10-15 14:03:48.858,74980.312,-0.38,0.103,-0.919,-0.14,-0.018,-0.175,-0.168,-0.061,0.058,-0.392,-0.104,0.826
2024-10-15 14:03:48.867,74980.322,-0.381,0.105,-0.919,-0.14,-0.008,-0.137,-0.136,-0.015,0.094,-0.393,-0.105,0.825
2024-10-15 14:03:48.877,74980.332,-0.38,0.106,-0.919,-0.071,0.016,-0.058,-0.076,0.047,0.049,-0.393,-0.107,0.825
2024-10-15 14:03:48.887,74980.342,-0.38,0.107,-0.919,0.012,0.02,0.003,0.006,0.067,0.053,-0.392,-0.107,0.825
2024-10-15 14:03:48.897,74980.352,-0.379,0.107,-0.919,0.088,0.006,0.061,0.032,0.045,0.084,-0.391,-0.107,0.825
2024-10-15 14:03:48.907,74980.362,-0.379,0.107,-0.919,0.157,-0.008,0.106,0.031,0.044,0.102,-0.391,-0.107,0.825
2024-10-15 14:03:48.917,74980.372,-0.378,0.107,-0.92,0.201,-0.018,0.133,0.046,0.055,0.126,-0.39,-0.107,0.826
2024-10-15 14:03:48.927,74980.382,-0.378,0.107,-0.92,0.232,-0.026,0.142,0.068,0.044,0.139,-0.39,-0.107,0.827
2024-10-15 14:03:48.937,74980.392,-0.377,0.107,-0.92,0.27,-0.038,0.126,0.061,0.048,0.134,-0.389,-0.107,0.828
2024-10-15 14:03:48.947,74980.402,-0.376,0.107,-0.92,0.303,-0.044,0.098,0.091,0.075,0.119,-0.388,-0.107,0.829
2024-10-15 14:03:48.957,74980.412,-0.375,0.106,-0.921,0.335,-0.051,0.058,0.14,0.127,0.114,-0.387,-0.106,0.83
2024-10-15 14:03:48.967,74980.422,-0.374,0.105,-0.922,0.368,-0.064,0.023,0.204,0.171,0.09,-0.385,-0.105,0.831
2024-10-15 14:03:48.978,74980.432,-0.372,0.103,-0.922,0.386,-0.074,-0.009,0.205,0.177,0.043,-0.383,-0.104,0.832
2024-10-15 14:03:48.987,74980.442,-0.371,0.102,-0.923,0.369,-0.082,-0.025,0.109,0.16,-0.016,-0.382,-0.102,0.832
2024-10-15 14:03:48.997,74980.452,-0.369,0.102,-0.924,0.325,-0.083,-0.036,-0.057,0.141,-0.061,-0.38,-0.102,0.832
2024-10-15 14:03:49.007,74980.462,-0.368,0.102,-0.924,0.272,-0.065,-0.063,-0.142,0.146,-0.093,-0.379,-0.102,0.83
2024-10-15 14:03:49.017,74980.472,-0.366,0.103,-0.925,0.217,-0.024,-0.093,-0.14,0.207,-0.074,-0.377,-0.103,0.828
2024-10-15 14:03:49.027,74980.482,-0.364,0.104,-0.925,0.154,0.039,-0.133,-0.118,0.289,-0.033,-0.375,-0.104,0.827
2024-10-15 14:03:49.037,74980.492,-0.361,0.105,-0.926,0.087,0.08,-0.155,-0.095,0.317,-0.033,-0.372,-0.105,0.826
2024-10-15 14:03:49.047,74980.502,-0.358,0.105,-0.928,0.033,0.085,-0.113,0.162,0.39,0.036,-0.369,-0.105,0.825
2024-10-15 14:03:49.057,74980.512,-0.354,0.103,-0.929,0.075,0.132,0.085,0.26,0.419,0.063,-0.364,-0.103,0.826
2024-10-15 14:03:49.067,74980.522,-0.351,0.1,-0.931,0.269,0.195,0.041,0.38,0.24,-0.126,-0.361,-0.1,0.826
2024-10-15 14:03:49.077,74980.532,-0.35,0.097,-0.932,0.304,0.055,-0.001,0.142,0.16,-0.263,-0.359,-0.097,0.825
2024-10-15 14:03:49.087,74980.542,-0.348,0.095,-0.933,0.083,-0.014,0.069,0.047,0.242,-0.237,-0.357,-0.095,0.823
2024-10-15 14:03:49.097,74980.551,-0.346,0.093,-0.934,-0.071,0.029,0.092,0.169,0.24,-0.136,-0.355,-0.094,0.821
2024-10-15 14:03:49.107,74980.561,-0.344,0.092,-0.934,-0.015,0.05,0.056,0.111,0.149,-0.16,-0.353,-0.092,0.82
2024-10-15 14:03:49.117,74980.571,-0.344,0.091,-0.935,0.015,0.02,0.017,-0.091,0.062,-0.288,-0.352,-0.091,0.817
2024-10-15 14:03:49.127,74980.581,-0.343,0.091,-0.935,-0.114,-0.078,0.02,-0.241,0.055,-0.301,-0.352,-0.091,0.814
2024-10-15 14:03:49.137,74980.591,-0.343,0.093,-0.935,-0.22,-0.103,0.02,-0.225,0.013,-0.241,-0.352,-0.093,0.81
2024-10-15 14:03:49.146,74980.601,-0.344,0.094,-0.934,-0.235,-0.056,0.01,-0.212,-0.066,-0.24,-0.352,-0.094,0.807
2024-10-15 14:03:49.157,74980.611,-0.345,0.095,-0.934,-0.264,-0.044,0.021,-0.243,-0.147,-0.298,-0.354,-0.095,0.803
2024-10-15 14:03:49.167,74980.621,-0.347,0.096,-0.933,-0.341,-0.068,0.019,-0.193,-0.211,-0.324,-0.356,-0.096,0.799
2024-10-15 14:03:49.177,74980.631,-0.349,0.096,-0.932,-0.421,-0.059,0.005,-0.114,-0.217,-0.256,-0.358,-0.097,0.796
2024-10-15 14:03:49.187,74980.641,-0.351,0.096,-0.931,-0.484,-0.009,0.009,-0.031,-0.197,-0.18,-0.361,-0.096,0.793
2024-10-15 14:03:49.197,74980.651,-0.353,0.096,-0.931,-0.517,0.013,0.049,0.036,-0.195,-0.045,-0.363,-0.096,0.792
2024-10-15 14:03:49.206,74980.661,-0.355,0.096,-0.93,-0.484,0.01,0.12,0.028,-0.247,0.038,-0.365,-0.096,0.792
2024-10-15 14:03:49.216,74980.671,-0.358,0.096,-0.929,-0.383,0.027,0.152,0.019,-0.326,0.077,-0.368,-0.096,0.793
2024-10-15 14:03:49.227,74980.681,-0.361,0.096,-0.928,-0.274,0.019,0.146,-0.026,-0.413,0.086,-0.371,-0.096,0.793
2024-10-15 14:03:49.237,74980.691,-0.365,0.097,-0.926,-0.214,-0.029,0.113,-0.093,-0.453,0.11,-0.376,-0.097,0.794
2024-10-15 14:03:49.247,74980.701,-0.369,0.099,-0.924,-0.198,-0.054,0.04,-0.21,-0.448,0.152,-0.38,-0.099,0.794
2024-10-15 14:03:49.257,74980.711,-0.373,0.102,-0.922,-0.192,-0.031,0.007,-0.375,-0.389,0.162,-0.384,-0.102,0.795
2024-10-15 14:03:49.266,74980.721,-0.377,0.106,-0.92,-0.171,-0.031,-0.007,-0.478,-0.382,0.091,-0.388,-0.106,0.794
2024-10-15 14:03:49.277,74980.731,-0.379,0.111,-0.919,-0.184,-0.075,-0.104,-0.494,-0.257,0.183,-0.392,-0.112,0.793
2024-10-15 14:03:49.287,74980.741,-0.381,0.116,-0.917,-0.2,-0.018,-0.144,-0.231,-0.131,0.246,-0.394,-0.116,0.793
2024-10-15 14:03:49.297,74980.751,-0.381,0.117,-0.917,-0.134,0.105,-0.156,0.1,0.038,0.22,-0.394,-0.117,0.795
2024-10-15 14:03:49.306,74980.761,-0.38,0.116,-0.918,-0.03,0.187,-0.139,0.367,0.142,0.207,-0.392,-0.116,0.797
2024-10-15 14:03:49.316,74980.771,-0.378,0.113,-0.919,0.067,0.156,-0.092,0.423,0.158,0.227,-0.391,-0.113,0.8
2024-10-15 14:03:49.327,74980.781,-0.377,0.11,-0.92,0.164,0.082,-0.015,0.338,0.111,0.205,-0.389,-0.11,0.803
2024-10-15 14:03:49.336,74980.791,-0.376,0.108,-0.92,0.241,0.017,0.044,0.238,0.075,0.149,-0.388,-0.108,0.806
2024-10-15 14:03:49.346,74980.801,-0.375,0.106,-0.921,0.3,-0.043,0.06,0.262,0.061,0.127,-0.387,-0.107,0.807
2024-10-15 14:03:49.357,74980.811,-0.374,0.104,-0.921,0.359,-0.079,0.046,0.357,0.055,0.141,-0.386,-0.104,0.81
2024-10-15 14:03:49.367,74980.821,-0.374,0.101,-0.922,0.43,-0.075,0.036,0.465,0.08,0.145,-0.385,-0.101,0.812
2024-10-15 14:03:49.377,74980.831,-0.373,0.097,-0.923,0.491,-0.07,0.028,0.477,0.091,0.096,-0.384,-0.097,0.815
2024-10-15 14:03:49.386,74980.841,-0.372,0.093,-0.924,0.531,-0.098,0.007,0.42,0.079,-0.052,-0.383,-0.093,0.816
2024-10-15 14:03:49.396,74980.851,-0.371,0.089,-0.924,0.524,-0.143,-0.029,0.347,0.105,-0.183,-0.382,-0.089,0.816
2024-10-15 14:03:49.406,74980.861,-0.37,0.086,-0.925,0.464,-0.151,-0.052,0.183,0.171,-0.216,-0.381,-0.086,0.815
2024-10-15 14:03:49.416,74980.871,-0.368,0.084,-0.926,0.383,-0.138,-0.065,-0.067,0.197,-0.2,-0.379,-0.084,0.813
2024-10-15 14:03:49.426,74980.881,-0.367,0.085,-0.926,0.301,-0.134,-0.087,-0.276,0.185,-0.182,-0.377,-0.085,0.81
2024-10-15 14:03:49.436,74980.891,-0.365,0.088,-0.927,0.224,-0.107,-0.108,-0.415,0.144,-0.198,-0.376,-0.088,0.807
2024-10-15 14:03:49.446,74980.901,-0.365,0.09,-0.927,0.127,-0.037,-0.13,-0.267,0.042,-0.25,-0.375,-0.091,0.803
2024-10-15 14:03:49.456,74980.911,-0.364,0.09,-0.927,0.008,0.049,-0.044,0.106,0.216,-0.135,-0.374,-0.09,0.8
2024-10-15 14:03:49.466,74980.921,-0.361,0.087,-0.929,0.02,0.203,0.156,0.527,0.471,-0.036,-0.37,-0.087,0.8
2024-10-15 14:03:49.476,74980.931,-0.356,0.081,-0.931,0.196,0.253,0.025,0.555,0.408,-0.126,-0.366,-0.082,0.802
2024-10-15 14:03:49.486,74980.941,-0.354,0.078,-0.932,0.236,0.01,-0.023,0.056,0.251,-0.298,-0.363,-0.078,0.8
2024-10-15 14:03:49.497,74980.951,-0.352,0.078,-0.933,0.041,-0.162,0.071,-0.353,0.256,-0.315,-0.36,-0.078,0.797
2024-10-15 14:03:49.506,74980.961,-0.349,0.08,-0.934,-0.094,-0.095,0.1,-0.302,0.258,-0.266,-0.358,-0.08,0.793
2024-10-15 14:03:49.516,74980.971,-0.347,0.082,-0.934,-0.078,0.012,0.093,-0.268,0.274,-0.214,-0.356,-0.082,0.789
2024-10-15 14:03:49.526,74980.981,-0.345,0.084,-0.935,-0.086,0.042,0.13,-0.429,0.256,-0.264,-0.353,-0.085,0.786
2024-10-15 14:03:49.536,74980.991,-0.343,0.088,-0.935,-0.142,-0.002,0.133,-0.578,0.173,-0.294,-0.352,-0.088,0.781
2024-10-15 14:03:49.546,74981.001,-0.343,0.093,-0.935,-0.176,-0.076,0.072,-0.652,-0.01,-0.365,-0.351,-0.093,0.776
2024-10-15 14:03:49.556,74981.011,-0.344,0.098,-0.934,-0.269,-0.122,0.038,-0.812,-0.099,-0.402,-0.352,-0.098,0.77
2024-10-15 14:03:49.566,74981.021,-0.345,0.105,-0.933,-0.427,-0.085,0.072,-0.829,-0.038,-0.326,-0.354,-0.105,0.763
2024-10-15 14:03:49.576,74981.031,-0.345,0.111,-0.932,-0.53,-0.016,0.071,-0.711,0.094,-0.185,-0.354,-0.111,0.758
2024-10-15 14:03:49.586,74981.041,-0.343,0.117,-0.932,-0.542,0.018,0.09,-0.63,0.169,-0.063,-0.353,-0.117,0.755
2024-10-15 14:03:49.596,74981.051,-0.342,0.122,-0.932,-0.463,0.012,0.114,-0.534,0.041,-0.014,-0.352,-0.122,0.752
2024-10-15 14:03:49.606,74981.061,-0.343,0.127,-0.931,-0.325,-0.031,0.123,-0.581,-0.101,-0.055,-0.353,-0.128,0.75
2024-10-15 14:03:49.616,74981.071,-0.344,0.132,-0.929,-0.23,-0.047,0.115,-0.587,-0.185,-0.055,-0.355,-0.133,0.747
2024-10-15 14:03:49.626,74981.081,-0.346,0.138,-0.928,-0.237,-0.096,0.078,-0.747,-0.238,0.02,-0.357,-0.139,0.745
2024-10-15 14:03:49.636,74981.091,-0.348,0.146,-0.926,-0.273,-0.087,0.036,-0.822,-0.231,0.127,-0.36,-0.147,0.743
2024-10-15 14:03:49.646,74981.101,-0.35,0.154,-0.924,-0.277,-0.048,-0.036,-0.806,-0.188,0.207,-0.362,-0.155,0.741
2024-10-15 14:03:49.656,74981.111,-0.351,0.162,-0.922,-0.241,-0.052,-0.122,-0.78,-0.156,0.243,-0.364,-0.163,0.74
2024-10-15 14:03:49.666,74981.121,-0.352,0.17,-0.92,-0.176,-0.034,-0.153,-0.748,-0.097,0.206,-0.365,-0.171,0.739
2024-10-15 14:03:49.676,74981.131,-0.353,0.177,-0.919,-0.097,-0.005,-0.17,-0.589,-0.07,0.085,-0.366,-0.178,0.738
2024-10-15 14:03:49.686,74981.14,-0.353,0.182,-0.918,-0.058,0.02,-0.182,-0.502,-0.006,0.045,-0.367,-0.183,0.737
2024-10-15 14:03:49.696,74981.15,-0.353,0.186,-0.917,-0.076,0.087,-0.146,-0.358,0.047,0.066,-0.367,-0.187,0.735
2024-10-15 14:03:49.706,74981.16,-0.352,0.189,-0.917,-0.08,0.172,-0.102,-0.173,0.109,0.084,-0.366,-0.19,0.735
2024-10-15 14:03:49.716,74981.17,-0.35,0.19,-0.917,-0.049,0.192,-0.077,-0.083,0.157,0.122,-0.365,-0.192,0.735
2024-10-15 14:03:49.726,74981.18,-0.349,0.191,-0.917,0.001,0.164,-0.028,-0.047,0.133,0.136,-0.363,-0.193,0.736
2024-10-15 14:03:49.736,74981.19,-0.347,0.192,-0.918,0.065,0.119,0.005,-0.043,0.128,0.135,-0.362,-0.193,0.737
2024-10-15 14:03:49.747,74981.2,-0.346,0.193,-0.918,0.12,0.086,0.015,-0.004,0.139,0.139,-0.36,-0.194,0.738
2024-10-15 14:03:49.756,74981.21,-0.344,0.193,-0.919,0.152,0.059,0.019,0.017,0.154,0.119,-0.359,-0.195,0.739
2024-10-15 14:03:49.766,74981.22,-0.342,0.194,-0.919,0.183,0.03,0.025,0.027,0.189,0.124,-0.357,-0.195,0.741
2024-10-15 14:03:49.776,74981.23,-0.34,0.194,-0.92,0.21,-0.003,0.031,0.009,0.21,0.101,-0.354,-0.195,0.742
2024-10-15 14:03:49.786,74981.24,-0.338,0.194,-0.921,0.24,-0.047,0.043,-0.049,0.235,0.075,-0.352,-0.196,0.742
2024-10-15 14:03:49.796,74981.25,-0.336,0.195,-0.921,0.266,-0.089,0.071,-0.102,0.215,0.037,-0.35,-0.196,0.742
2024-10-15 14:03:49.806,74981.26,-0.334,0.197,-0.922,0.295,-0.125,0.086,-0.221,0.191,0.004,-0.348,-0.198,0.742
2024-10-15 14:03:49.816,74981.27,-0.332,0.199,-0.922,0.302,-0.134,0.098,-0.283,0.18,-0.045,-0.346,-0.2,0.741
2024-10-15 14:03:49.826,74981.28,-0.331,0.202,-0.922,0.286,-0.133,0.09,-0.309,0.17,-0.065,-0.345,-0.203,0.739
2024-10-15 14:03:49.836,74981.29,-0.33,0.204,-0.922,0.272,-0.127,0.074,-0.302,0.157,-0.071,-0.343,-0.206,0.737
2024-10-15 14:03:49.846,74981.3,-0.328,0.206,-0.922,0.26,-0.096,0.051,-0.215,0.179,-0.03,-0.342,-0.208,0.735
2024-10-15 14:03:49.856,74981.31,-0.326,0.208,-0.922,0.23,-0.076,0.005,-0.167,0.211,0.045,-0.34,-0.21,0.735
2024-10-15 14:03:49.866,74981.32,-0.324,0.21,-0.922,0.189,-0.048,-0.043,-0.146,0.251,0.113,-0.338,-0.211,0.735
2024-10-15 14:03:49.876,74981.33,-0.321,0.211,-0.923,0.157,-0.032,-0.078,-0.116,0.271,0.115,-0.335,-0.213,0.735
2024-10-15 14:03:49.886,74981.34,-0.319,0.213,-0.924,0.156,-0.031,-0.108,-0.097,0.262,0.087,-0.332,-0.214,0.736
2024-10-15 14:03:49.896,74981.35,-0.316,0.214,-0.924,0.163,-0.024,-0.138,-0.137,0.246,0.019,-0.33,-0.216,0.736
2024-10-15 14:03:49.906,74981.36,-0.314,0.216,-0.925,0.143,-0.005,-0.145,-0.224,0.226,0.002,-0.327,-0.217,0.735
2024-10-15 14:03:49.915,74981.37,-0.312,0.218,-0.925,0.116,0.02,-0.149,-0.302,0.212,0.029,-0.325,-0.22,0.734
2024-10-15 14:03:49.925,74981.38,-0.31,0.221,-0.925,0.1,0.055,-0.175,-0.408,0.206,0.045,-0.323,-0.223,0.733
2024-10-15 14:03:49.935,74981.39,-0.308,0.226,-0.924,0.058,0.086,-0.209,-0.429,0.193,0.038,-0.322,-0.227,0.732
2024-10-15 14:03:49.945,74981.4,-0.306,0.229,-0.924,-0.021,0.09,-0.2,-0.22,0.162,0.067,-0.32,-0.231,0.732
2024-10-15 14:03:49.956,74981.41,-0.304,0.229,-0.925,-0.049,0.134,-0.053,0.29,0.29,0.062,-0.318,-0.231,0.732
2024-10-15 14:03:49.965,74981.42,-0.301,0.224,-0.927,0.092,0.262,0.114,0.775,0.376,0.004,-0.314,-0.226,0.734
2024-10-15 14:03:49.975,74981.43,-0.298,0.216,-0.93,0.26,0.219,0.068,0.693,0.181,-0.119,-0.31,-0.218,0.736
2024-10-15 14:03:49.985,74981.44,-0.297,0.212,-0.931,0.228,-0.061,0.116,0.212,0.027,-0.135,-0.309,-0.213,0.736
2024-10-15 14:03:49.995,74981.45,-0.298,0.211,-0.931,0.095,-0.196,0.172,-0.04,-0.062,-0.113,-0.31,-0.213,0.735
2024-10-15 14:03:50.006,74981.46,-0.299,0.211,-0.931,0.005,-0.139,0.146,0.042,-0.096,-0.148,-0.311,-0.212,0.734
2024-10-15 14:03:50.015,74981.47,-0.3,0.209,-0.931,-0.048,-0.037,0.092,0.082,-0.077,-0.175,-0.312,-0.211,0.732
2024-10-15 14:03:50.025,74981.48,-0.301,0.209,-0.93,-0.126,0.018,0.046,0.0,-0.087,-0.186,-0.313,-0.21,0.731
2024-10-15 14:03:50.035,74981.49,-0.303,0.209,-0.93,-0.206,-0.015,0.023,-0.16,-0.164,-0.244,-0.315,-0.21,0.728
2024-10-15 14:03:50.045,74981.5,-0.305,0.209,-0.929,-0.273,-0.046,-0.005,-0.19,-0.259,-0.311,-0.318,-0.211,0.725
2024-10-15 14:03:50.055,74981.51,-0.308,0.21,-0.928,-0.363,-0.025,-0.006,-0.097,-0.228,-0.278,-0.321,-0.212,0.722
2024-10-15 14:03:50.066,74981.52,-0.311,0.209,-0.927,-0.437,0.038,0.002,0.163,-0.151,-0.167,-0.323,-0.211,0.72
2024-10-15 14:03:50.075,74981.53,-0.312,0.206,-0.927,-0.447,0.099,0.041,0.37,-0.138,-0.074,-0.325,-0.208,0.72
2024-10-15 14:03:50.085,74981.54,-0.314,0.202,-0.928,-0.384,0.115,0.059,0.396,-0.223,-0.027,-0.326,-0.204,0.721
2024-10-15 14:03:50.095,74981.55,-0.316,0.199,-0.928,-0.314,0.072,0.063,0.33,-0.335,0.044,-0.329,-0.2,0.722
2024-10-15 14:03:50.105,74981.56,-0.32,0.197,-0.927,-0.285,-0.018,0.058,0.135,-0.429,0.093,-0.332,-0.198,0.723
2024-10-15 14:03:50.115,74981.57,-0.324,0.197,-0.926,-0.304,-0.063,0.051,0.006,-0.442,0.14,-0.336,-0.198,0.725
2024-10-15 14:03:50.125,74981.58,-0.327,0.197,-0.924,-0.325,-0.054,0.035,0.029,-0.392,0.217,-0.34,-0.199,0.727
2024-10-15 14:03:50.135,74981.59,-0.33,0.198,-0.923,-0.318,-0.048,-0.013,0.049,-0.367,0.299,-0.343,-0.199,0.729
2024-10-15 14:03:50.145,74981.6,-0.333,0.198,-0.922,-0.284,-0.027,-0.029,0.069,-0.338,0.332,-0.346,-0.2,0.732
2024-10-15 14:03:50.155,74981.61,-0.335,0.199,-0.921,-0.228,0.008,-0.009,0.018,-0.361,0.245,-0.349,-0.2,0.735
2024-10-15 14:03:50.165,74981.62,-0.338,0.2,-0.92,-0.185,0.0,-0.04,-0.041,-0.296,0.212,-0.352,-0.201,0.738
2024-10-15 14:03:50.176,74981.63,-0.34,0.201,-0.919,-0.19,-0.023,-0.057,0.037,-0.226,0.229,-0.354,-0.202,0.74
2024-10-15 14:03:50.185,74981.64,-0.341,0.201,-0.918,-0.17,0.027,-0.056,0.147,-0.132,0.257,-0.355,-0.202,0.742
2024-10-15 14:03:50.195,74981.65,-0.341,0.2,-0.919,-0.106,0.092,-0.027,0.22,-0.084,0.239,-0.356,-0.201,0.745
2024-10-15 14:03:50.205,74981.66,-0.342,0.198,-0.919,-0.035,0.076,0.005,0.245,-0.097,0.223,-0.356,-0.2,0.748
2024-10-15 14:03:50.215,74981.67,-0.342,0.197,-0.919,0.049,0.036,0.044,0.33,-0.098,0.207,-0.356,-0.198,0.751
2024-10-15 14:03:50.225,74981.68,-0.342,0.194,-0.919,0.131,0.033,0.066,0.383,-0.058,0.199,-0.357,-0.195,0.754
2024-10-15 14:03:50.235,74981.69,-0.343,0.191,-0.92,0.183,0.019,0.075,0.411,-0.061,0.21,-0.357,-0.192,0.757
2024-10-15 14:03:50.247,74981.7,-0.343,0.188,-0.92,0.234,-0.035,0.079,0.411,-0.053,0.221,-0.357,-0.189,0.761
2024-10-15 14:03:50.255,74981.71,-0.343,0.185,-0.921,0.3,-0.081,0.053,0.402,-0.043,0.202,-0.356,-0.186,0.764
2024-10-15 14:03:50.265,74981.719,-0.343,0.182,-0.922,0.346,-0.096,0.032,0.386,-0.015,0.162,-0.356,-0.183,0.767
2024-10-15 14:03:50.275,74981.729,-0.343,0.179,-0.922,0.385,-0.109,0.017,0.352,0.006,0.097,-0.356,-0.18,0.769
2024-10-15 14:03:50.285,74981.739,-0.342,0.176,-0.923,0.412,-0.128,0.017,0.306,0.014,0.072,-0.355,-0.177,0.771
2024-10-15 14:03:50.295,74981.749,-0.342,0.174,-0.924,0.436,-0.13,0.042,0.255,0.026,0.062,-0.355,-0.175,0.772
2024-10-15 14:03:50.305,74981.759,-0.342,0.172,-0.924,0.462,-0.127,0.048,0.146,0.031,0.037,-0.354,-0.173,0.773
2024-10-15 14:03:50.315,74981.769,-0.341,0.171,-0.924,0.465,-0.125,0.035,0.011,0.016,0.011,-0.354,-0.172,0.774
2024-10-15 14:03:50.325,74981.779,-0.341,0.172,-0.924,0.428,-0.124,0.027,-0.164,0.02,-0.001,-0.354,-0.173,0.773
2024-10-15 14:03:50.335,74981.789,-0.341,0.174,-0.924,0.36,-0.111,-0.017,-0.314,0.028,-0.025,-0.354,-0.175,0.772
2024-10-15 14:03:50.345,74981.799,-0.341,0.178,-0.923,0.271,-0.082,-0.075,-0.444,0.054,-0.045,-0.353,-0.179,0.77
2024-10-15 14:03:50.355,74981.809,-0.34,0.182,-0.923,0.17,-0.047,-0.139,-0.614,0.096,-0.059,-0.353,-0.183,0.768
2024-10-15 14:03:50.365,74981.819,-0.339,0.188,-0.922,0.05,-0.018,-0.232,-0.723,0.141,-0.062,-0.353,-0.19,0.764
2024-10-15 14:03:50.375,74981.829,-0.338,0.194,-0.921,-0.072,0.018,-0.294,-0.449,0.158,-0.052,-0.352,-0.195,0.761
2024-10-15 14:03:50.387,74981.839,-0.335,0.196,-0.922,-0.146,0.111,-0.151,-0.005,0.525,0.165,-0.348,-0.197,0.761
2024-10-15 14:03:50.395,74981.849,-0.329,0.195,-0.924,-0.005,0.273,0.008,0.325,0.541,0.074,-0.342,-0.196,0.763
2024-10-15 14:03:50.405,74981.859,-0.325,0.192,-0.926,0.209,0.223,-0.064,0.215,0.333,-0.064,-0.338,-0.193,0.764
2024-10-15 14:03:50.414,74981.869,-0.322,0.192,-0.927,0.214,-0.011,0.036,-0.157,0.291,-0.048,-0.335,-0.193,0.763
2024-10-15 14:03:50.425,74981.879,-0.32,0.193,-0.928,0.097,-0.041,0.097,-0.104,0.268,-0.056,-0.332,-0.194,0.762
2024-10-15 14:03:50.435,74981.889,-0.317,0.193,-0.928,0.019,0.018,0.077,-0.053,0.263,-0.039,-0.33,-0.195,0.761
2024-10-15 14:03:50.444,74981.899,-0.315,0.194,-0.929,-0.019,0.063,0.072,-0.067,0.223,-0.079,-0.327,-0.195,0.76
2024-10-15 14:03:50.455,74981.909,-0.314,0.194,-0.929,-0.078,0.047,0.084,-0.08,0.209,-0.086,-0.325,-0.196,0.759
2024-10-15 14:03:50.465,74981.919,-0.312,0.195,-0.93,-0.108,-0.005,0.08,-0.089,0.167,-0.087,-0.324,-0.196,0.758
2024-10-15 14:03:50.474,74981.929,-0.311,0.195,-0.93,-0.121,-0.031,0.065,-0.099,0.113,-0.085,-0.322,-0.197,0.757
2024-10-15 14:03:50.484,74981.939,-0.31,0.196,-0.93,-0.144,-0.044,0.079,-0.133,0.04,-0.11,-0.322,-0.197,0.755
2024-10-15 14:03:50.494,74981.949,-0.311,0.197,-0.93,-0.171,-0.03,0.077,-0.135,-0.046,-0.173,-0.322,-0.198,0.754
2024-10-15 14:03:50.504,74981.959,-0.312,0.197,-0.929,-0.219,-0.02,0.044,-0.116,-0.086,-0.242,-0.323,-0.199,0.751
2024-10-15 14:03:50.515,74981.969,-0.313,0.198,-0.929,-0.293,-0.024,0.034,-0.06,-0.108,-0.273,-0.325,-0.199,0.749
2024-10-15 14:03:50.525,74981.979,-0.314,0.197,-0.929,-0.354,-0.022,0.045,0.056,-0.087,-0.228,-0.326,-0.198,0.746
2024-10-15 14:03:50.534,74981.989,-0.316,0.195,-0.929,-0.367,-0.02,0.078,0.124,-0.094,-0.167,-0.328,-0.197,0.745
2024-10-15 14:03:50.544,74981.999,-0.317,0.194,-0.928,-0.34,-0.031,0.104,0.082,-0.195,-0.115,-0.329,-0.195,0.744
2024-10-15 14:03:50.555,74982.009,-0.32,0.193,-0.928,-0.296,-0.059,0.106,-0.081,-0.325,-0.074,-0.332,-0.195,0.743
2024-10-15 14:03:50.565,74982.019,-0.323,0.195,-0.926,-0.278,-0.085,0.073,-0.244,-0.402,-0.047,-0.336,-0.196,0.742
2024-10-15 14:03:50.574,74982.029,-0.327,0.197,-0.924,-0.309,-0.094,0.047,-0.299,-0.39,-0.008,-0.34,-0.199,0.741
2024-10-15 14:03:50.585,74982.039,-0.33,0.2,-0.922,-0.337,-0.083,0.028,-0.3,-0.334,0.046,-0.344,-0.202,0.74
2024-10-15 14:03:50.594,74982.049,-0.333,0.203,-0.921,-0.319,-0.048,-0.01,-0.296,-0.296,0.115,-0.347,-0.205,0.74
2024-10-15 14:03:50.604,74982.059,-0.336,0.206,-0.919,-0.265,-0.023,-0.024,-0.33,-0.295,0.17,-0.35,-0.208,0.74
2024-10-15 14:03:50.614,74982.069,-0.338,0.211,-0.917,-0.189,-0.021,-0.014,-0.509,-0.373,0.13,-0.353,-0.212,0.74
2024-10-15 14:03:50.624,74982.079,-0.342,0.216,-0.915,-0.136,-0.007,-0.052,-0.601,-0.397,0.09,-0.357,-0.218,0.739
2024-10-15 14:03:50.634,74982.089,-0.344,0.222,-0.912,-0.187,0.033,-0.053,-0.441,-0.284,0.152,-0.361,-0.224,0.738
2024-10-15 14:03:50.644,74982.099,-0.346,0.225,-0.911,-0.231,0.13,-0.092,-0.053,-0.167,0.205,-0.363,-0.227,0.739
2024-10-15 14:03:50.654,74982.109,-0.347,0.225,-0.911,-0.163,0.215,-0.104,0.198,-0.046,0.195,-0.364,-0.226,0.741
2024-10-15 14:03:50.664,74982.119,-0.346,0.223,-0.911,-0.065,0.202,-0.095,0.237,0.011,0.168,-0.363,-0.225,0.744
2024-10-15 14:03:50.674,74982.129,-0.346,0.222,-0.912,-0.015,0.093,-0.081,0.162,-0.062,0.106,-0.363,-0.224,0.745
2024-10-15 14:03:50.684,74982.139,-0.346,0.221,-0.912,0.011,0.026,-0.043,0.191,0.022,0.149,-0.363,-0.222,0.747
2024-10-15 14:03:50.694,74982.149,-0.345,0.219,-0.913,0.055,0.053,0.019,0.306,0.082,0.142,-0.362,-0.221,0.749
2024-10-15 14:03:50.704,74982.159,-0.344,0.216,-0.914,0.138,0.073,0.009,0.406,0.118,0.152,-0.36,-0.218,0.752
2024-10-15 14:03:50.714,74982.169,-0.343,0.213,-0.915,0.21,0.02,0.015,0.396,0.114,0.182,-0.358,-0.214,0.755
2024-10-15 14:03:50.724,74982.179,-0.341,0.21,-0.916,0.264,-0.043,0.016,0.361,0.11,0.195,-0.357,-0.212,0.758
2024-10-15 14:03:50.734,74982.189,-0.34,0.208,-0.917,0.3,-0.074,0.015,0.303,0.103,0.185,-0.355,-0.209,0.761
2024-10-15 14:03:50.744,74982.199,-0.339,0.206,-0.918,0.329,-0.091,0.011,0.259,0.125,0.166,-0.353,-0.207,0.763
2024-10-15 14:03:50.754,74982.209,-0.337,0.204,-0.919,0.366,-0.118,0.011,0.221,0.151,0.157,-0.351,-0.205,0.765
2024-10-15 14:03:50.765,74982.219,-0.335,0.202,-0.92,0.413,-0.145,0.014,0.23,0.155,0.138,-0.349,-0.204,0.767
2024-10-15 14:03:50.774,74982.229,-0.334,0.201,-0.921,0.464,-0.151,0.035,0.187,0.149,0.103,-0.347,-0.202,0.769
2024-10-15 14:03:50.784,74982.239,-0.332,0.2,-0.922,0.497,-0.138,0.036,0.11,0.153,0.029,-0.346,-0.201,0.77
2024-10-15 14:03:50.793,74982.249,-0.331,0.199,-0.923,0.477,-0.119,0.008,-0.015,0.177,-0.023,-0.344,-0.201,0.77
2024-10-15 14:03:50.804,74982.259,-0.329,0.2,-0.923,0.398,-0.104,-0.022,-0.206,0.193,-0.033,-0.342,-0.202,0.769
2024-10-15 14:03:50.814,74982.269,-0.327,0.203,-0.923,0.302,-0.082,-0.066,-0.422,0.176,-0.072,-0.341,-0.204,0.768
2024-10-15 14:03:50.824,74982.279,-0.326,0.207,-0.922,0.202,-0.064,-0.134,-0.609,0.184,-0.096,-0.34,-0.209,0.765
2024-10-15 14:03:50.834,74982.289,-0.324,0.213,-0.922,0.082,-0.041,-0.221,-0.699,0.189,-0.137,-0.338,-0.215,0.761
2024-10-15 14:03:50.844,74982.298,-0.323,0.218,-0.921,-0.047,0.011,-0.289,-0.429,0.249,-0.175,-0.337,-0.22,0.758
2024-10-15 14:03:50.854,74982.308,-0.32,0.218,-0.922,-0.144,0.095,-0.306,0.391,0.439,-0.087,-0.334,-0.22,0.756
2024-10-15 14:03:50.864,74982.318,-0.314,0.21,-0.926,-0.139,0.271,-0.084,1.298,0.847,0.156,-0.327,-0.212,0.759
2024-10-15 14:03:50.874,74982.328,-0.306,0.196,-0.932,0.08,0.463,0.095,1.935,0.818,0.164,-0.317,-0.197,0.766
2024-10-15 14:03:50.884,74982.338,-0.299,0.178,-0.937,0.327,0.368,0.097,1.71,0.591,0.076,-0.309,-0.179,0.773
2024-10-15 14:03:50.894,74982.348,-0.294,0.166,-0.941,0.378,0.076,0.224,1.04,0.424,-0.043,-0.303,-0.166,0.777
2024-10-15 14:03:50.904,74982.358,-0.291,0.159,-0.943,0.299,-0.129,0.226,0.367,0.221,-0.182,-0.299,-0.159,0.778
2024-10-15 14:03:50.914,74982.368,-0.29,0.158,-0.944,0.194,-0.263,0.157,-0.351,0.04,-0.217,-0.298,-0.159,0.776
2024-10-15 14:03:50.924,74982.378,-0.291,0.163,-0.943,0.074,-0.28,0.09,-0.838,-0.079,-0.217,-0.299,-0.164,0.772
2024-10-15 14:03:50.934,74982.388,-0.292,0.171,-0.941,-0.076,-0.219,0.007,-0.946,-0.1,-0.108,-0.301,-0.172,0.768
2024-10-15 14:03:50.944,74982.398,-0.293,0.179,-0.939,-0.207,-0.121,-0.011,-0.795,-0.032,-0.032,-0.302,-0.18,0.765
2024-10-15 14:03:50.954,74982.408,-0.293,0.185,-0.938,-0.269,0.017,-0.004,-0.462,0.04,-0.05,-0.303,-0.186,0.763
2024-10-15 14:03:50.964,74982.418,-0.293,0.188,-0.937,-0.295,0.095,-0.023,-0.274,-0.0,-0.138,-0.303,-0.189,0.761
2024-10-15 14:03:50.974,74982.428,-0.294,0.19,-0.937,-0.314,0.077,0.01,-0.241,-0.136,-0.244,-0.304,-0.191,0.758
2024-10-15 14:03:50.984,74982.438,-0.296,0.191,-0.936,-0.357,0.027,0.065,-0.132,-0.234,-0.286,-0.306,-0.192,0.755
2024-10-15 14:03:50.994,74982.448,-0.299,0.191,-0.935,-0.402,0.021,0.093,0.076,-0.286,-0.215,-0.309,-0.192,0.753
2024-10-15 14:03:51.004,74982.458,-0.302,0.188,-0.935,-0.417,0.056,0.085,0.267,-0.279,-0.173,-0.313,-0.189,0.752
2024-10-15 14:03:51.014,74982.468,-0.305,0.185,-0.934,-0.419,0.054,0.056,0.419,-0.301,-0.193,-0.316,-0.186,0.751
2024-10-15 14:03:51.024,74982.478,-0.308,0.18,-0.934,-0.406,0.003,0.034,0.521,-0.315,-0.172,-0.319,-0.181,0.751
2024-10-15 14:03:51.033,74982.488,-0.311,0.174,-0.934,-0.362,-0.022,0.046,0.492,-0.316,-0.137,-0.322,-0.175,0.751
2024-10-15 14:03:51.043,74982.498,-0.315,0.17,-0.934,-0.31,-0.004,0.068,0.428,-0.341,-0.129,-0.325,-0.17,0.752
2024-10-15 14:03:51.053,74982.508,-0.318,0.166,-0.933,-0.258,-0.012,0.029,0.311,-0.336,-0.143,-0.328,-0.166,0.752
2024-10-15 14:03:51.063,74982.518,-0.321,0.163,-0.933,-0.224,-0.03,-0.016,0.175,-0.27,-0.133,-0.332,-0.164,0.751
2024-10-15 14:03:51.074,74982.528,-0.324,0.162,-0.932,-0.227,-0.054,-0.046,0.027,-0.197,-0.073,-0.334,-0.162,0.751
2024-10-15 14:03:51.084,74982.538,-0.325,0.162,-0.932,-0.226,-0.077,-0.068,-0.09,-0.123,-0.035,-0.336,-0.163,0.75
2024-10-15 14:03:51.093,74982.548,-0.326,0.163,-0.931,-0.182,-0.068,-0.068,-0.157,-0.071,-0.074,-0.337,-0.164,0.749
2024-10-15 14:03:51.104,74982.558,-0.326,0.164,-0.931,-0.124,-0.05,-0.056,-0.168,0.028,-0.096,-0.337,-0.165,0.748
2024-10-15 14:03:51.114,74982.568,-0.326,0.166,-0.931,-0.06,-0.042,-0.021,-0.261,0.101,-0.069,-0.337,-0.166,0.746
2024-10-15 14:03:51.124,74982.578,-0.325,0.169,-0.931,0.025,-0.037,0.033,-0.435,0.101,-0.045,-0.336,-0.17,0.744
2024-10-15 14:03:51.133,74982.588,-0.325,0.173,-0.93,0.105,-0.048,0.024,-0.601,-0.027,-0.172,-0.336,-0.174,0.742
2024-10-15 14:03:51.143,74982.598,-0.325,0.178,-0.929,0.118,-0.047,0.053,-0.567,-0.014,-0.216,-0.337,-0.179,0.738
2024-10-15 14:03:51.155,74982.608,-0.326,0.182,-0.928,0.1,0.017,0.075,-0.512,0.039,-0.23,-0.338,-0.183,0.734
2024-10-15 14:03:51.163,74982.618,-0.326,0.186,-0.927,0.091,0.084,0.06,-0.461,0.09,-0.186,-0.338,-0.187,0.73
2024-10-15 14:03:51.174,74982.628,-0.325,0.19,-0.927,0.106,0.092,0.074,-0.433,0.132,-0.121,-0.337,-0.191,0.727
2024-10-15 14:03:51.184,74982.638,-0.324,0.194,-0.926,0.14,0.047,0.08,-0.472,0.104,-0.103,-0.336,-0.195,0.725
2024-10-15 14:03:51.193,74982.648,-0.323,0.197,-0.926,0.174,0.008,0.061,-0.327,0.102,-0.192,-0.336,-0.198,0.722
2024-10-15 14:03:51.204,74982.658,-0.322,0.199,-0.926,0.173,-0.014,-0.001,-0.184,0.189,-0.183,-0.335,-0.2,0.719
2024-10-15 14:03:51.213,74982.668,-0.321,0.2,-0.926,0.151,0.001,-0.027,-0.172,0.22,-0.114,-0.333,-0.201,0.717
2024-10-15 14:03:51.224,74982.678,-0.319,0.201,-0.926,0.145,-0.0,-0.024,-0.134,0.267,-0.056,-0.331,-0.202,0.716
2024-10-15 14:03:51.234,74982.688,-0.316,0.202,-0.927,0.158,-0.025,-0.052,-0.19,0.298,-0.02,-0.329,-0.204,0.715
2024-10-15 14:03:51.243,74982.698,-0.313,0.204,-0.927,0.175,-0.018,-0.061,-0.23,0.347,-0.01,-0.326,-0.206,0.714
2024-10-15 14:03:51.253,74982.708,-0.31,0.207,-0.928,0.178,-0.044,-0.058,-0.384,0.348,0.035,-0.322,-0.209,0.713
2024-10-15 14:03:51.263,74982.718,-0.307,0.211,-0.928,0.189,-0.066,-0.051,-0.511,0.327,0.049,-0.319,-0.213,0.712
2024-10-15 14:03:51.273,74982.728,-0.304,0.216,-0.928,0.198,-0.057,-0.044,-0.442,0.31,0.019,-0.316,-0.218,0.711
2024-10-15 14:03:51.284,74982.738,-0.301,0.219,-0.928,0.196,-0.026,-0.039,-0.308,0.338,0.004,-0.313,-0.221,0.71
2024-10-15 14:03:51.293,74982.748,-0.297,0.222,-0.929,0.182,0.03,-0.037,-0.145,0.391,0.002,-0.31,-0.224,0.71
2024-10-15 14:03:51.303,74982.758,-0.293,0.222,-0.93,0.15,0.055,-0.045,0.074,0.428,0.057,-0.306,-0.224,0.71
2024-10-15 14:03:51.313,74982.768,-0.289,0.221,-0.931,0.133,0.03,-0.048,0.124,0.425,0.105,-0.301,-0.223,0.711
2024-10-15 14:03:51.323,74982.778,-0.285,0.221,-0.933,0.131,0.013,-0.044,0.072,0.415,0.083,-0.297,-0.222,0.712
2024-10-15 14:03:51.333,74982.788,-0.281,0.22,-0.934,0.113,-0.016,-0.056,0.031,0.377,0.02,-0.292,-0.222,0.713
2024-10-15 14:03:51.343,74982.798,-0.278,0.22,-0.935,0.092,-0.047,-0.066,-0.054,0.322,-0.008,-0.289,-0.222,0.713
2024-10-15 14:03:51.353,74982.808,-0.275,0.221,-0.936,0.069,-0.03,-0.036,-0.003,0.372,0.044,-0.286,-0.223,0.713
2024-10-15 14:03:51.364,74982.818,-0.271,0.221,-0.937,0.082,0.005,0.051,-0.032,0.352,0.151,-0.282,-0.223,0.714
2024-10-15 14:03:51.373,74982.828,-0.268,0.222,-0.937,0.191,0.031,0.071,-0.093,0.206,0.121,-0.279,-0.224,0.715
2024-10-15 14:03:51.383,74982.838,-0.266,0.223,-0.938,0.261,0.019,0.076,-0.153,0.157,0.057,-0.277,-0.225,0.716
2024-10-15 14:03:51.393,74982.848,-0.265,0.226,-0.938,0.204,-0.024,0.053,-0.284,0.132,0.019,-0.275,-0.228,0.716
2024-10-15 14:03:51.403,74982.858,-0.264,0.229,-0.937,0.113,-0.048,0.006,-0.37,0.121,0.057,-0.274,-0.231,0.715
2024-10-15 14:03:51.413,74982.868,-0.263,0.233,-0.936,0.069,-0.055,-0.015,-0.406,0.085,0.031,-0.273,-0.235,0.715
2024-10-15 14:03:51.423,74982.878,-0.262,0.236,-0.936,0.046,-0.057,-0.037,-0.439,0.093,-0.021,-0.273,-0.239,0.714
2024-10-15 14:03:51.433,74982.887,-0.261,0.24,-0.935,0.005,-0.06,-0.042,-0.429,0.152,-0.045,-0.272,-0.243,0.712
2024-10-15 14:03:51.443,74982.897,-0.259,0.245,-0.934,-0.016,-0.075,-0.019,-0.48,0.132,-0.051,-0.271,-0.247,0.711
2024-10-15 14:03:51.453,74982.907,-0.259,0.249,-0.933,0.005,-0.093,-0.022,-0.476,0.07,-0.111,-0.27,-0.251,0.709
2024-10-15 14:03:51.463,74982.917,-0.258,0.253,-0.932,0.009,-0.103,-0.006,-0.452,0.064,-0.157,-0.27,-0.256,0.706
2024-10-15 14:03:51.473,74982.927,-0.258,0.256,-0.931,-0.017,-0.085,0.052,-0.425,0.077,-0.181,-0.27,-0.259,0.704
2024-10-15 14:03:51.483,74982.937,-0.258,0.26,-0.93,-0.025,-0.039,0.058,-0.494,-0.047,-0.268,-0.271,-0.263,0.7
2024-10-15 14:03:51.493,74982.947,-0.26,0.264,-0.929,-0.065,-0.03,-0.0,-0.601,-0.148,-0.373,-0.273,-0.268,0.696
2024-10-15 14:03:51.503,74982.957,-0.262,0.269,-0.927,-0.207,-0.049,0.036,-0.672,-0.036,-0.277,-0.276,-0.273,0.691
2024-10-15 14:03:51.513,74982.967,-0.263,0.275,-0.925,-0.304,-0.037,0.103,-0.634,0.007,-0.1,-0.277,-0.279,0.687
2024-10-15 14:03:51.523,74982.977,-0.263,0.28,-0.923,-0.267,0.035,0.145,-0.535,-0.079,-0.041,-0.278,-0.284,0.686
2024-10-15 14:03:51.533,74982.987,-0.264,0.285,-0.921,-0.189,0.098,0.182,-0.493,-0.16,-0.149,-0.279,-0.289,0.683
2024-10-15 14:03:51.543,74982.997,-0.267,0.288,-0.92,-0.175,0.092,0.188,-0.426,-0.279,-0.212,-0.283,-0.293,0.68
2024-10-15 14:03:51.553,74983.007,-0.271,0.292,-0.917,-0.195,0.051,0.146,-0.381,-0.416,-0.159,-0.287,-0.296,0.678
2024-10-15 14:03:51.563,74983.017,-0.275,0.295,-0.915,-0.219,0.057,0.101,-0.34,-0.489,-0.126,-0.292,-0.299,0.676
2024-10-15 14:03:51.573,74983.027,-0.28,0.297,-0.913,-0.288,0.091,0.051,-0.272,-0.45,-0.118,-0.298,-0.302,0.674
2024-10-15 14:03:51.583,74983.037,-0.284,0.299,-0.911,-0.378,0.106,-0.012,-0.197,-0.361,-0.071,-0.302,-0.304,0.672
2024-10-15 14:03:51.593,74983.047,-0.287,0.3,-0.91,-0.43,0.1,-0.059,-0.143,-0.29,0.036,-0.306,-0.305,0.672
2024-10-15 14:03:51.603,74983.057,-0.289,0.302,-0.909,-0.416,0.086,-0.087,-0.075,-0.212,0.155,-0.308,-0.306,0.673
2024-10-15 14:03:51.613,74983.067,-0.29,0.303,-0.908,-0.361,0.038,-0.119,-0.207,-0.153,0.235,-0.309,-0.308,0.675
2024-10-15 14:03:51.623,74983.077,-0.29,0.307,-0.906,-0.291,-0.024,-0.144,-0.421,-0.102,0.279,-0.31,-0.312,0.676
2024-10-15 14:03:51.633,74983.087,-0.29,0.313,-0.904,-0.233,-0.096,-0.149,-0.702,-0.028,0.306,-0.311,-0.318,0.678
2024-10-15 14:03:51.643,74983.097,-0.29,0.321,-0.902,-0.174,-0.117,-0.172,-0.885,-0.115,0.361,-0.311,-0.327,0.679
2024-10-15 14:03:51.653,74983.107,-0.29,0.331,-0.898,-0.145,-0.089,-0.146,-0.979,-0.11,0.376,-0.312,-0.337,0.68
2024-10-15 14:03:51.663,74983.117,-0.289,0.34,-0.895,-0.155,0.016,-0.062,-0.76,-0.015,0.379,-0.312,-0.346,0.681
2024-10-15 14:03:51.673,74983.127,-0.288,0.346,-0.893,-0.145,0.127,0.007,-0.453,0.031,0.386,-0.312,-0.353,0.683
2024-10-15 14:03:51.683,74983.137,-0.286,0.35,-0.892,-0.065,0.152,0.061,-0.208,0.034,0.414,-0.31,-0.358,0.686
2024-10-15 14:03:51.692,74983.147,-0.284,0.352,-0.892,0.036,0.112,0.115,-0.021,0.025,0.445,-0.308,-0.36,0.69
2024-10-15 14:03:51.703,74983.157,-0.283,0.353,-0.892,0.136,0.042,0.141,0.15,-0.019,0.398,-0.307,-0.361,0.695
2024-10-15 14:03:51.712,74983.167,-0.282,0.352,-0.893,0.231,0.004,0.143,0.329,-0.037,0.311,-0.306,-0.36,0.699
2024-10-15 14:03:51.722,74983.177,-0.281,0.349,-0.894,0.306,-0.015,0.108,0.448,-0.01,0.22,-0.304,-0.357,0.703
2024-10-15 14:03:51.733,74983.187,-0.28,0.345,-0.896,0.343,-0.056,0.049,0.523,0.036,0.143,-0.303,-0.353,0.707
2024-10-15 14:03:51.742,74983.197,-0.279,0.341,-0.898,0.352,-0.123,0.019,0.602,0.036,0.061,-0.302,-0.347,0.71
2024-10-15 14:03:51.752,74983.207,-0.279,0.335,-0.9,0.378,-0.146,0.033,0.734,0.045,-0.006,-0.301,-0.341,0.712
2024-10-15 14:03:51.762,74983.217,-0.278,0.327,-0.903,0.427,-0.106,0.028,0.848,0.107,-0.001,-0.299,-0.334,0.715
2024-10-15 14:03:51.772,74983.227,-0.277,0.32,-0.906,0.45,-0.063,-0.007,0.818,0.179,-0.014,-0.297,-0.326,0.717
2024-10-15 14:03:51.783,74983.237,-0.275,0.313,-0.909,0.425,-0.085,-0.032,0.548,0.261,-0.024,-0.294,-0.319,0.719
2024-10-15 14:03:51.792,74983.247,-0.273,0.31,-0.911,0.373,-0.16,-0.055,0.088,0.261,-0.03,-0.291,-0.316,0.72
2024-10-15 14:03:51.803,74983.257,-0.271,0.312,-0.911,0.337,-0.237,-0.092,-0.496,0.18,-0.058,-0.289,-0.317,0.719
2024-10-15 14:03:51.812,74983.267,-0.27,0.319,-0.908,0.306,-0.275,-0.144,-1.119,0.089,-0.105,-0.289,-0.325,0.716
2024-10-15 14:03:51.822,74983.277,-0.27,0.331,-0.904,0.229,-0.248,-0.211,-1.547,-0.024,-0.152,-0.29,-0.338,0.71
2024-10-15 14:03:51.832,74983.287,-0.271,0.345,-0.899,0.097,-0.151,-0.252,-1.514,-0.065,-0.182,-0.293,-0.352,0.704
2024-10-15 14:03:51.843,74983.297,-0.272,0.356,-0.894,-0.027,0.032,-0.258,-0.983,0.056,-0.168,-0.295,-0.364,0.698
2024-10-15 14:03:51.853,74983.307,-0.271,0.36,-0.893,-0.107,0.241,-0.188,0.027,0.34,-0.14,-0.295,-0.368,0.695
2024-10-15 14:03:51.862,74983.317,-0.266,0.355,-0.896,-0.106,0.392,-0.015,0.977,0.694,-0.043,-0.289,-0.363,0.696
2024-10-15 14:03:51.872,74983.327,-0.261,0.344,-0.902,0.036,0.393,0.022,1.227,0.578,-0.016,-0.281,-0.352,0.699
2024-10-15 14:03:51.882,74983.337,-0.257,0.335,-0.907,0.164,0.144,0.062,0.863,0.374,-0.124,-0.276,-0.341,0.702
2024-10-15 14:03:51.892,74983.347,-0.255,0.328,-0.91,0.178,-0.111,0.18,0.491,0.183,-0.268,-0.273,-0.334,0.702
2024-10-15 14:03:51.902,74983.357,-0.255,0.324,-0.911,0.166,-0.16,0.207,0.257,-0.027,-0.395,-0.273,-0.33,0.699
2024-10-15 14:03:51.912,74983.367,-0.257,0.321,-0.912,0.133,-0.123,0.172,0.207,-0.107,-0.45,-0.275,-0.327,0.696
2024-10-15 14:03:51.923,74983.377,-0.259,0.317,-0.912,0.033,-0.088,0.13,0.296,-0.074,-0.421,-0.277,-0.323,0.692
2024-10-15 14:03:51.932,74983.387,-0.261,0.314,-0.913,-0.048,-0.042,0.049,0.302,-0.051,-0.374,-0.279,-0.319,0.689
2024-10-15 14:03:51.942,74983.397,-0.263,0.311,-0.913,-0.097,-0.017,-0.029,0.101,-0.059,-0.37,-0.28,-0.316,0.686
2024-10-15 14:03:51.952,74983.407,-0.265,0.31,-0.913,-0.167,-0.041,-0.082,-0.185,-0.092,-0.381,-0.282,-0.315,0.683
2024-10-15 14:03:51.962,74983.417,-0.267,0.312,-0.912,-0.253,-0.061,-0.068,-0.365,-0.062,-0.382,-0.284,-0.317,0.678
2024-10-15 14:03:51.972,74983.427,-0.268,0.314,-0.911,-0.314,-0.026,-0.039,-0.428,-0.081,-0.343,-0.286,-0.32,0.674
2024-10-15 14:03:51.982,74983.437,-0.27,0.318,-0.909,-0.352,-0.009,-0.023,-0.475,-0.115,-0.214,-0.289,-0.323,0.67
2024-10-15 14:03:51.992,74983.447,-0.271,0.321,-0.907,-0.367,-0.013,0.037,-0.368,-0.092,-0.079,-0.291,-0.327,0.668
2024-10-15 14:03:52.002,74983.457,-0.272,0.324,-0.906,-0.343,0.021,0.085,-0.191,-0.081,0.01,-0.292,-0.33,0.667
2024-10-15 14:03:52.012,74983.466,-0.273,0.325,-0.905,-0.29,0.076,0.089,-0.139,-0.108,0.017,-0.293,-0.331,0.667
2024-10-15 14:03:52.022,74983.476,-0.274,0.326,-0.905,-0.254,0.076,0.094,-0.156,-0.171,-0.007,-0.295,-0.332,0.667
2024-10-15 14:03:52.032,74983.486,-0.276,0.328,-0.903,-0.254,0.011,0.113,-0.163,-0.257,0.003,-0.297,-0.334,0.667
2024-10-15 14:03:52.042,74983.496,-0.279,0.329,-0.902,-0.249,-0.019,0.116,-0.125,-0.277,0.02,-0.3,-0.335,0.667
2024-10-15 14:03:52.052,74983.506,-0.281,0.33,-0.901,-0.241,0.016,0.107,0.001,-0.271,0.081,-0.302,-0.336,0.668
2024-10-15 14:03:52.062,74983.516,-0.283,0.33,-0.901,-0.225,0.042,0.072,0.058,-0.278,0.179,-0.305,-0.336,0.669
2024-10-15 14:03:52.072,74983.526,-0.285,0.33,-0.9,-0.186,0.053,0.03,0.115,-0.245,0.252,-0.306,-0.336,0.672
2024-10-15 14:03:52.082,74983.536,-0.286,0.33,-0.9,-0.162,0.062,0.002,0.029,-0.189,0.29,-0.308,-0.336,0.675
2024-10-15 14:03:52.092,74983.546,-0.287,0.332,-0.899,-0.146,0.06,-0.007,-0.297,-0.289,0.253,-0.309,-0.338,0.678
2024-10-15 14:03:52.102,74983.556,-0.289,0.337,-0.896,-0.158,0.041,-0.015,-0.593,-0.269,0.329,-0.312,-0.343,0.679
2024-10-15 14:03:52.112,74983.566,-0.289,0.343,-0.894,-0.219,0.007,-0.021,-0.639,-0.166,0.441,-0.313,-0.35,0.681
2024-10-15 14:03:52.122,74983.576,-0.289,0.349,-0.891,-0.225,0.037,-0.002,-0.401,-0.118,0.512,-0.313,-0.357,0.685
2024-10-15 14:03:52.132,74983.586,-0.288,0.353,-0.89,-0.123,0.107,0.044,-0.158,-0.097,0.501,-0.313,-0.361,0.689
2024-10-15 14:03:52.142,74983.596,-0.287,0.355,-0.89,-0.001,0.108,0.058,0.034,-0.113,0.442,-0.312,-0.363,0.694
2024-10-15 14:03:52.152,74983.606,-0.287,0.355,-0.89,0.063,0.035,0.052,0.167,-0.103,0.392,-0.312,-0.363,0.699
2024-10-15 14:03:52.162,74983.616,-0.286,0.355,-0.89,0.105,-0.021,0.06,0.216,-0.052,0.332,-0.311,-0.363,0.703
2024-10-15 14:03:52.172,74983.626,-0.285,0.354,-0.891,0.142,-0.049,0.035,0.246,0.003,0.269,-0.31,-0.361,0.707
2024-10-15 14:03:52.182,74983.636,-0.284,0.352,-0.892,0.168,-0.116,0.0,0.199,0.04,0.213,-0.309,-0.36,0.71
2024-10-15 14:03:52.192,74983.646,-0.283,0.351,-0.892,0.212,-0.178,-0.018,0.125,0.006,0.144,-0.308,-0.359,0.712
2024-10-15 14:03:52.202,74983.656,-0.283,0.35,-0.893,0.261,-0.204,-0.03,0.211,-0.033,0.025,-0.307,-0.358,0.714
2024-10-15 14:03:52.212,74983.666,-0.283,0.348,-0.894,0.304,-0.193,-0.027,0.341,0.025,-0.06,-0.307,-0.355,0.714
2024-10-15 14:03:52.222,74983.676,-0.283,0.344,-0.895,0.337,-0.119,-0.015,0.516,0.121,-0.085,-0.306,-0.351,0.715
2024-10-15 14:03:52.232,74983.686,-0.282,0.338,-0.898,0.349,-0.07,-0.02,0.567,0.197,-0.067,-0.304,-0.345,0.716
2024-10-15 14:03:52.242,74983.696,-0.28,0.334,-0.9,0.361,-0.086,-0.032,0.348,0.194,-0.05,-0.302,-0.341,0.717
2024-10-15 14:03:52.252,74983.706,-0.279,0.332,-0.901,0.366,-0.121,-0.045,-0.012,0.11,-0.086,-0.3,-0.339,0.717
2024-10-15 14:03:52.262,74983.716,-0.279,0.334,-0.9,0.344,-0.165,-0.06,-0.394,0.011,-0.128,-0.3,-0.34,0.715
2024-10-15 14:03:52.272,74983.726,-0.28,0.339,-0.898,0.308,-0.161,-0.073,-0.713,-0.086,-0.16,-0.302,-0.345,0.712
2024-10-15 14:03:52.282,74983.736,-0.281,0.345,-0.896,0.245,-0.074,-0.111,-0.701,-0.136,-0.188,-0.304,-0.352,0.708
2024-10-15 14:03:52.291,74983.746,-0.283,0.35,-0.893,0.148,0.035,-0.155,-0.555,-0.056,-0.162,-0.307,-0.357,0.704
2024-10-15 14:03:52.301,74983.756,-0.283,0.353,-0.892,0.036,0.156,-0.185,-0.334,0.11,-0.118,-0.308,-0.361,0.701
2024-10-15 14:03:52.312,74983.766,-0.282,0.354,-0.892,-0.086,0.244,-0.179,0.056,0.266,-0.044,-0.306,-0.362,0.7
2024-10-15 14:03:52.321,74983.776,-0.28,0.351,-0.894,-0.142,0.237,-0.139,0.814,0.316,-0.148,-0.303,-0.358,0.7
2024-10-15 14:03:52.331,74983.786,-0.276,0.338,-0.9,-0.076,0.197,-0.035,1.752,0.716,-0.201,-0.297,-0.345,0.702
2024-10-15 14:03:52.341,74983.796,-0.27,0.321,-0.908,0.109,0.132,-0.007,1.731,0.568,-0.177,-0.289,-0.327,0.706
2024-10-15 14:03:52.351,74983.806,-0.267,0.309,-0.913,0.231,-0.099,-0.019,0.809,0.206,-0.31,-0.285,-0.314,0.708
2024-10-15 14:03:52.361,74983.816,-0.267,0.304,-0.914,0.163,-0.331,0.085,0.075,-0.002,-0.413,-0.285,-0.309,0.705
2024-10-15 14:03:52.372,74983.826,-0.27,0.304,-0.914,0.073,-0.371,0.101,-0.173,-0.128,-0.534,-0.287,-0.309,0.7
2024-10-15 14:03:52.381,74983.836,-0.272,0.304,-0.913,0.019,-0.234,0.029,-0.206,-0.102,-0.519,-0.29,-0.309,0.695
2024-10-15 14:03:52.391,74983.846,-0.274,0.304,-0.912,-0.074,-0.042,-0.019,-0.134,-0.063,-0.432,-0.292,-0.309,0.689
2024-10-15 14:03:52.402,74983.856,-0.276,0.304,-0.912,-0.174,0.044,-0.038,-0.053,0.032,-0.354,-0.294,-0.309,0.685
2024-10-15 14:03:52.411,74983.866,-0.276,0.303,-0.912,-0.21,0.089,-0.03,0.026,0.11,-0.289,-0.294,-0.308,0.682
2024-10-15 14:03:52.421,74983.876,-0.276,0.303,-0.912,-0.192,0.098,-0.017,-0.092,0.076,-0.197,-0.294,-0.308,0.68
2024-10-15 14:03:52.431,74983.886,-0.276,0.304,-0.912,-0.162,0.05,0.015,-0.324,-0.008,-0.137,-0.294,-0.309,0.678
2024-10-15 14:03:52.441,74983.896,-0.277,0.308,-0.91,-0.153,0.003,0.065,-0.458,-0.036,-0.095,-0.295,-0.313,0.676
2024-10-15 14:03:52.451,74983.906,-0.278,0.312,-0.909,-0.162,-0.002,0.093,-0.534,-0.093,-0.046,-0.296,-0.317,0.674
2024-10-15 14:03:52.460,74983.916,-0.279,0.317,-0.907,-0.175,0.014,0.109,-0.531,-0.139,-0.004,-0.298,-0.322,0.672
2024-10-15 14:03:52.470,74983.926,-0.28,0.321,-0.905,-0.192,0.025,0.123,-0.359,-0.186,-0.018,-0.3,-0.327,0.671
2024-10-15 14:03:52.481,74983.936,-0.282,0.323,-0.903,-0.207,0.04,0.127,-0.08,-0.189,-0.042,-0.303,-0.329,0.67
2024-10-15 14:03:52.491,74983.946,-0.284,0.322,-0.903,-0.202,0.07,0.116,0.196,-0.152,-0.008,-0.304,-0.328,0.671
2024-10-15 14:03:52.501,74983.956,-0.285,0.32,-0.904,-0.192,0.079,0.096,0.315,-0.146,0.057,-0.305,-0.326,0.672
2024-10-15 14:03:52.511,74983.966,-0.286,0.317,-0.904,-0.183,0.056,0.078,0.291,-0.146,0.083,-0.306,-0.323,0.674
2024-10-15 14:03:52.521,74983.976,-0.287,0.315,-0.904,-0.17,0.014,0.054,0.179,-0.142,0.119,-0.307,-0.321,0.676
2024-10-15 14:03:52.531,74983.986,-0.288,0.315,-0.904,-0.157,-0.011,0.035,0.05,-0.13,0.19,-0.308,-0.32,0.678
2024-10-15 14:03:52.541,74983.996,-0.288,0.316,-0.904,-0.14,-0.015,0.02,-0.072,-0.102,0.276,-0.308,-0.321,0.681
2024-10-15 14:03:52.551,74984.006,-0.288,0.317,-0.904,-0.114,0.006,0.0,-0.129,-0.041,0.301,-0.308,-0.323,0.683
2024-10-15 14:03:52.562,74984.016,-0.287,0.32,-0.903,-0.084,0.045,-0.028,-0.244,-0.063,0.243,-0.308,-0.326,0.686
2024-10-15 14:03:52.571,74984.026,-0.287,0.324,-0.902,-0.087,0.072,-0.051,-0.434,-0.052,0.217,-0.308,-0.329,0.687
2024-10-15 14:03:52.581,74984.036,-0.287,0.328,-0.9,-0.132,0.058,-0.019,-0.471,-0.02,0.331,-0.308,-0.335,0.688
2024-10-15 14:03:52.591,74984.046,-0.286,0.334,-0.898,-0.146,0.021,-0.009,-0.468,-0.033,0.429,-0.308,-0.34,0.691
2024-10-15 14:03:52.601,74984.055,-0.285,0.339,-0.897,-0.091,0.027,0.034,-0.355,-0.096,0.429,-0.307,-0.346,0.694
2024-10-15 14:03:52.611,74984.065,-0.284,0.342,-0.896,-0.016,0.052,0.073,-0.168,-0.107,0.338,-0.307,-0.349,0.697
2024-10-15 14:03:52.621,74984.075,-0.284,0.343,-0.895,0.045,0.048,0.091,0.147,-0.055,0.295,-0.307,-0.35,0.7
2024-10-15 14:03:52.631,74984.085,-0.283,0.342,-0.896,0.108,0.004,0.053,0.232,-0.057,0.305,-0.306,-0.349,0.704
2024-10-15 14:03:52.641,74984.095,-0.283,0.341,-0.897,0.163,-0.051,0.014,0.257,-0.011,0.253,-0.306,-0.348,0.707
2024-10-15 14:03:52.651,74984.105,-0.282,0.339,-0.897,0.192,-0.116,0.007,0.291,-0.003,0.155,-0.305,-0.346,0.71
2024-10-15 14:03:52.661,74984.115,-0.282,0.337,-0.899,0.246,-0.184,-0.016,0.318,0.027,0.058,-0.304,-0.343,0.712
2024-10-15 14:03:52.671,74984.125,-0.281,0.334,-0.9,0.327,-0.209,-0.039,0.32,0.054,0.024,-0.303,-0.34,0.714
2024-10-15 14:03:52.681,74984.135,-0.281,0.332,-0.901,0.369,-0.21,-0.058,0.068,0.041,0.014,-0.302,-0.338,0.714
2024-10-15 14:03:52.691,74984.145,-0.281,0.333,-0.9,0.363,-0.201,-0.082,-0.333,-0.042,-0.047,-0.302,-0.34,0.714
2024-10-15 14:03:52.701,74984.155,-0.282,0.337,-0.898,0.309,-0.173,-0.101,-0.567,-0.097,-0.164,-0.304,-0.344,0.711
2024-10-15 14:03:52.710,74984.165,-0.283,0.342,-0.896,0.244,-0.115,-0.14,-0.653,-0.079,-0.191,-0.306,-0.349,0.707
2024-10-15 14:03:52.720,74984.175,-0.284,0.347,-0.894,0.171,0.016,-0.187,-0.628,-0.055,-0.137,-0.308,-0.355,0.703
2024-10-15 14:03:52.731,74984.185,-0.285,0.352,-0.891,0.081,0.146,-0.215,-0.547,-0.04,-0.127,-0.31,-0.36,0.7
2024-10-15 14:03:52.741,74984.195,-0.286,0.355,-0.89,-0.014,0.238,-0.189,-0.203,0.012,-0.175,-0.311,-0.363,0.697
2024-10-15 14:03:52.751,74984.205,-0.287,0.353,-0.891,-0.083,0.282,-0.149,0.7,0.038,-0.482,-0.312,-0.36,0.695
2024-10-15 14:03:52.761,74984.215,-0.286,0.341,-0.896,-0.068,0.29,-0.069,1.582,0.577,-0.434,-0.309,-0.348,0.694
2024-10-15 14:03:52.770,74984.225,-0.282,0.325,-0.903,0.09,0.244,-0.03,1.638,0.488,-0.279,-0.302,-0.331,0.696
2024-10-15 14:03:52.780,74984.235,-0.28,0.312,-0.908,0.288,-0.054,0.009,0.877,0.192,-0.437,-0.299,-0.317,0.696
2024-10-15 14:03:52.790,74984.245,-0.281,0.307,-0.909,0.29,-0.401,0.121,-0.039,-0.201,-0.553,-0.3,-0.312,0.692
2024-10-15 14:03:52.801,74984.255,-0.286,0.308,-0.908,0.164,-0.458,0.138,-0.368,-0.321,-0.676,-0.305,-0.313,0.685
2024-10-15 14:03:52.810,74984.265,-0.29,0.309,-0.906,-0.003,-0.212,0.086,-0.361,-0.171,-0.497,-0.31,-0.314,0.678
2024-10-15 14:03:52.821,74984.275,-0.293,0.311,-0.904,-0.181,0.07,0.003,-0.356,-0.188,-0.335,-0.313,-0.317,0.673
2024-10-15 14:03:52.830,74984.285,-0.295,0.313,-0.903,-0.292,0.188,0.019,-0.281,-0.111,-0.214,-0.316,-0.319,0.669
2024-10-15 14:03:52.840,74984.295,-0.296,0.315,-0.902,-0.351,0.189,0.065,-0.194,-0.095,-0.062,-0.318,-0.321,0.667
2024-10-15 14:03:52.850,74984.305,-0.298,0.316,-0.901,-0.317,0.175,0.095,-0.071,-0.135,0.012,-0.319,-0.322,0.667
2024-10-15 14:03:52.861,74984.315,-0.299,0.316,-0.9,-0.241,0.155,0.146,0.146,-0.166,0.05,-0.32,-0.322,0.668
2024-10-15 14:03:52.871,74984.325,-0.3,0.315,-0.9,-0.186,0.102,0.152,0.197,-0.219,0.085,-0.322,-0.32,0.669
2024-10-15 14:03:52.881,74984.335,-0.302,0.313,-0.9,-0.154,0.04,0.128,0.12,-0.251,0.179,-0.324,-0.319,0.671
2024-10-15 14:03:52.890,74984.345,-0.304,0.314,-0.9,-0.158,-0.044,0.075,-0.03,-0.246,0.274,-0.325,-0.319,0.674
2024-10-15 14:03:52.901,74984.355,-0.305,0.316,-0.898,-0.166,-0.15,-0.006,-0.333,-0.247,0.293,-0.327,-0.322,0.676
2024-10-15 14:03:52.910,74984.365,-0.306,0.321,-0.896,-0.152,-0.195,-0.066,-0.644,-0.198,0.277,-0.329,-0.327,0.677
2024-10-15 14:03:52.920,74984.375,-0.306,0.329,-0.893,-0.139,-0.169,-0.097,-0.938,0.0,0.317,-0.33,-0.336,0.678
2024-10-15 14:03:52.930,74984.385,-0.305,0.34,-0.889,-0.13,-0.138,-0.108,-1.351,-0.049,0.5,-0.33,-0.347,0.678
2024-10-15 14:03:52.940,74984.395,-0.304,0.356,-0.884,-0.131,-0.119,-0.037,-1.682,-0.162,0.598,-0.331,-0.364,0.678
2024-10-15 14:03:52.951,74984.405,-0.303,0.372,-0.877,-0.146,-0.048,0.093,-1.485,-0.156,0.653,-0.332,-0.381,0.679
2024-10-15 14:03:52.960,74984.415,-0.302,0.385,-0.872,-0.108,0.086,0.144,-1.048,-0.179,0.607,-0.333,-0.395,0.681
2024-10-15 14:03:52.970,74984.425,-0.302,0.393,-0.869,-0.001,0.224,0.136,-0.347,-0.187,0.432,-0.334,-0.404,0.684
2024-10-15 14:03:52.980,74984.435,-0.301,0.394,-0.868,0.099,0.245,0.123,0.239,-0.028,0.356,-0.334,-0.405,0.688
2024-10-15 14:03:52.991,74984.445,-0.299,0.392,-0.87,0.183,0.156,0.07,0.512,0.15,0.275,-0.331,-0.403,0.693
2024-10-15 14:03:53.000,74984.455,-0.297,0.388,-0.873,0.238,0.028,-0.006,0.585,0.09,0.155,-0.328,-0.398,0.697
2024-10-15 14:03:53.010,74984.465,-0.296,0.383,-0.875,0.279,-0.148,-0.02,0.51,0.07,0.054,-0.326,-0.393,0.7
2024-10-15 14:03:53.020,74984.475,-0.296,0.38,-0.877,0.344,-0.264,-0.017,0.187,0.009,-0.056,-0.326,-0.39,0.701
2024-10-15 14:03:53.030,74984.485,-0.297,0.379,-0.876,0.339,-0.26,-0.035,-0.159,-0.142,-0.171,-0.327,-0.389,0.7
2024-10-15 14:03:53.039,74984.495,-0.299,0.381,-0.875,0.246,-0.18,-0.046,-0.305,-0.131,-0.249,-0.329,-0.391,0.697
2024-10-15 14:03:53.049,74984.505,-0.3,0.383,-0.874,0.122,-0.027,-0.092,-0.23,0.001,-0.21,-0.331,-0.393,0.693
2024-10-15 14:03:53.060,74984.515,-0.301,0.383,-0.873,0.011,0.155,-0.148,-0.034,0.091,-0.141,-0.332,-0.393,0.691
2024-10-15 14:03:53.070,74984.525,-0.3,0.382,-0.874,-0.044,0.264,-0.127,0.264,0.122,-0.136,-0.331,-0.392,0.69
2024-10-15 14:03:53.081,74984.535,-0.301,0.375,-0.877,-0.026,0.293,-0.051,1.118,0.083,-0.522,-0.33,-0.385,0.689
2024-10-15 14:03:53.090,74984.545,-0.299,0.361,-0.883,0.032,0.259,0.059,1.68,0.589,-0.456,-0.327,-0.369,0.689
2024-10-15 14:03:53.100,74984.555,-0.296,0.346,-0.89,0.208,0.174,0.114,1.407,0.348,-0.355,-0.321,-0.353,0.691
2024-10-15 14:03:53.110,74984.565,-0.296,0.335,-0.894,0.41,-0.181,0.129,0.636,-0.004,-0.537,-0.32,-0.342,0.69
2024-10-15 14:03:53.120,74984.575,-0.3,0.331,-0.895,0.312,-0.527,0.117,-0.092,-0.226,-0.691,-0.323,-0.338,0.684
2024-10-15 14:03:53.130,74984.585,-0.304,0.331,-0.893,0.064,-0.365,0.023,-0.215,-0.132,-0.594,-0.328,-0.337,0.677
2024-10-15 14:03:53.140,74984.595,-0.306,0.332,-0.892,-0.139,-0.017,-0.111,-0.291,-0.006,-0.423,-0.33,-0.338,0.671
2024-10-15 14:03:53.150,74984.605,-0.306,0.333,-0.892,-0.308,0.167,-0.188,-0.339,0.157,-0.339,-0.331,-0.34,0.666
2024-10-15 14:03:53.160,74984.615,-0.305,0.336,-0.891,-0.429,0.126,-0.138,-0.595,0.269,-0.17,-0.33,-0.343,0.662
2024-10-15 14:03:53.170,74984.625,-0.303,0.343,-0.889,-0.391,-0.034,-0.049,-1.002,0.222,-0.051,-0.329,-0.35,0.659
2024-10-15 14:03:53.180,74984.634,-0.302,0.354,-0.885,-0.227,-0.224,0.069,-1.417,0.097,-0.034,-0.329,-0.362,0.654
2024-10-15 14:03:53.190,74984.644,-0.302,0.368,-0.879,-0.091,-0.379,0.138,-1.864,0.069,-0.033,-0.33,-0.377,0.648
2024-10-15 14:03:53.200,74984.654,-0.301,0.386,-0.872,-0.066,-0.423,0.157,-2.208,0.205,0.03,-0.332,-0.396,0.641
2024-10-15 14:03:53.210,74984.664,-0.298,0.407,-0.864,-0.164,-0.41,0.137,-2.493,0.372,0.154,-0.332,-0.419,0.633
2024-10-15 14:03:53.220,74984.674,-0.293,0.43,-0.854,-0.301,-0.374,0.096,-2.745,0.561,0.302,-0.33,-0.444,0.626
2024-10-15 14:03:53.230,74984.684,-0.286,0.455,-0.843,-0.353,-0.298,0.075,-3.009,0.738,0.416,-0.327,-0.473,0.62
2024-10-15 14:03:53.240,74984.694,-0.276,0.483,-0.831,-0.305,-0.213,0.107,-3.313,0.955,0.506,-0.321,-0.504,0.613
2024-10-15 14:03:53.250,74984.704,-0.265,0.513,-0.817,-0.221,-0.138,0.172,-3.638,1.165,0.584,-0.314,-0.539,0.607
2024-10-15 14:03:53.260,74984.714,-0.252,0.545,-0.8,-0.163,-0.099,0.182,-3.94,1.351,0.647,-0.305,-0.577,0.6
2024-10-15 14:03:53.270,74984.724,-0.236,0.578,-0.781,-0.154,-0.071,0.143,-3.974,1.488,0.787,-0.294,-0.617,0.594
2024-10-15 14:03:53.279,74984.734,-0.22,0.61,-0.761,-0.119,0.005,0.105,-3.814,1.399,1.041,-0.281,-0.656,0.591
2024-10-15 14:03:53.290,74984.744,-0.203,0.641,-0.74,0.004,0.227,0.091,-3.882,1.262,1.078,-0.268,-0.696,0.591
2024-10-15 14:03:53.300,74984.754,-0.188,0.67,-0.718,0.151,0.506,0.084,-3.412,1.088,0.865,-0.256,-0.734,0.591
2024-10-15 14:03:53.309,74984.764,-0.176,0.693,-0.699,0.185,0.533,0.014,-2.668,0.934,0.663,-0.246,-0.766,0.591
2024-10-15 14:03:53.319,74984.774,-0.166,0.71,-0.685,0.166,0.419,-0.034,-1.918,0.789,0.533,-0.237,-0.789,0.591
2024-10-15 14:03:53.330,74984.784,-0.158,0.72,-0.675,0.167,0.303,0.044,-0.975,0.568,0.353,-0.229,-0.804,0.593
2024-10-15 14:03:53.339,74984.794,-0.153,0.725,-0.672,0.207,0.17,0.091,-0.257,0.437,0.12,-0.224,-0.811,0.594
2024-10-15 14:03:53.350,74984.804,-0.15,0.725,-0.673,0.253,0.156,0.116,0.29,0.405,-0.046,-0.219,-0.811,0.595
2024-10-15 14:03:53.359,74984.814,-0.148,0.721,-0.677,0.232,0.216,0.112,0.763,0.292,-0.208,-0.216,-0.805,0.595
2024-10-15 14:03:53.369,74984.824,-0.149,0.714,-0.684,0.207,0.213,0.097,1.197,0.188,-0.325,-0.214,-0.795,0.594
2024-10-15 14:03:53.379,74984.834,-0.15,0.704,-0.694,0.208,0.153,0.084,1.576,0.116,-0.426,-0.213,-0.781,0.593
2024-10-15 14:03:53.390,74984.844,-0.153,0.691,-0.706,0.205,0.108,0.052,1.848,0.009,-0.504,-0.213,-0.763,0.591
2024-10-15 14:03:53.400,74984.854,-0.157,0.676,-0.72,0.199,0.099,0.033,2.088,-0.125,-0.545,-0.215,-0.743,0.59
2024-10-15 14:03:53.410,74984.864,-0.162,0.659,-0.734,0.194,0.107,0.017,2.375,-0.177,-0.544,-0.217,-0.72,0.589
2024-10-15 14:03:53.420,74984.874,-0.166,0.64,-0.75,0.173,0.108,0.01,2.435,-0.083,-0.487,-0.218,-0.695,0.59
2024-10-15 14:03:53.430,74984.884,-0.169,0.621,-0.765,0.138,0.099,0.01,2.345,0.018,-0.484,-0.218,-0.671,0.59
2024-10-15 14:03:53.439,74984.894,-0.172,0.602,-0.779,0.087,0.05,-0.025,2.33,0.041,-0.567,-0.218,-0.647,0.59
2024-10-15 14:03:53.450,74984.904,-0.175,0.584,-0.793,0.044,-0.043,-0.042,2.078,0.059,-0.54,-0.218,-0.624,0.589
2024-10-15 14:03:53.460,74984.914,-0.178,0.568,-0.804,0.054,-0.064,-0.017,1.81,0.08,-0.5,-0.218,-0.604,0.588
2024-10-15 14:03:53.469,74984.924,-0.18,0.553,-0.813,0.063,-0.072,-0.029,1.613,0.087,-0.517,-0.218,-0.586,0.587
2024-10-15 14:03:53.479,74984.934,-0.182,0.54,-0.822,0.038,-0.121,-0.038,1.4,0.075,-0.477,-0.218,-0.57,0.585
2024-10-15 14:03:53.489,74984.944,-0.184,0.528,-0.829,0.023,-0.155,-0.002,1.179,-0.021,-0.422,-0.219,-0.557,0.583
2024-10-15 14:03:53.499,74984.954,-0.186,0.518,-0.834,0.026,-0.16,0.045,1.038,0.023,-0.43,-0.22,-0.545,0.581
2024-10-15 14:03:53.509,74984.964,-0.189,0.508,-0.84,0.018,-0.134,0.065,1.215,0.079,-0.387,-0.221,-0.533,0.579
2024-10-15 14:03:53.519,74984.974,-0.189,0.499,-0.846,-0.028,-0.056,0.004,0.785,0.183,-0.323,-0.22,-0.522,0.578
2024-10-15 14:03:53.530,74984.984,-0.189,0.493,-0.849,-0.13,0.07,-0.135,0.579,0.242,-0.359,-0.219,-0.515,0.575
2024-10-15 14:03:53.540,74984.994,-0.188,0.487,-0.853,-0.306,0.025,-0.146,0.546,0.273,-0.314,-0.217,-0.509,0.573
2024-10-15 14:03:53.550,74985.004,-0.187,0.483,-0.855,-0.35,-0.071,-0.094,0.255,0.284,-0.117,-0.215,-0.505,0.572
2024-10-15 14:03:53.559,74985.014,-0.185,0.482,-0.856,-0.224,-0.022,-0.05,0.04,0.22,0.06,-0.213,-0.503,0.572
2024-10-15 14:03:53.569,74985.024,-0.183,0.483,-0.856,-0.144,-0.036,-0.068,-0.206,0.208,0.114,-0.21,-0.504,0.572
2024-10-15 14:03:53.580,74985.034,-0.181,0.486,-0.855,-0.141,-0.065,-0.067,-0.338,0.118,0.093,-0.208,-0.507,0.573
2024-10-15 14:03:53.589,74985.044,-0.18,0.489,-0.854,-0.134,-0.05,-0.038,-0.345,0.055,0.14,-0.207,-0.511,0.573
2024-10-15 14:03:53.599,74985.054,-0.178,0.492,-0.852,-0.08,-0.043,-0.052,-0.38,0.136,0.199,-0.206,-0.515,0.574
2024-10-15 14:03:53.609,74985.064,-0.176,0.497,-0.85,-0.056,-0.068,-0.064,-0.636,0.089,0.229,-0.204,-0.52,0.576
2024-10-15 14:03:53.619,74985.074,-0.174,0.503,-0.846,-0.102,-0.129,-0.053,-0.722,0.032,0.27,-0.203,-0.527,0.577
2024-10-15 14:03:53.629,74985.084,-0.173,0.509,-0.843,-0.128,-0.175,0.012,-0.572,-0.048,0.311,-0.202,-0.534,0.579
2024-10-15 14:03:53.639,74985.094,-0.172,0.513,-0.841,-0.075,-0.15,0.066,-0.316,-0.113,0.334,-0.202,-0.539,0.581
2024-10-15 14:03:53.649,74985.104,-0.171,0.515,-0.84,0.03,-0.067,0.07,-0.037,-0.167,0.286,-0.201,-0.541,0.584
2024-10-15 14:03:53.659,74985.114,-0.171,0.515,-0.84,0.109,-0.024,0.056,0.26,-0.089,0.193,-0.201,-0.541,0.588
2024-10-15 14:03:53.669,74985.124,-0.171,0.512,-0.842,0.154,-0.032,0.014,0.398,-0.075,0.084,-0.201,-0.538,0.59
2024-10-15 14:03:53.679,74985.134,-0.172,0.509,-0.844,0.182,-0.046,0.029,0.493,-0.085,0.014,-0.201,-0.534,0.591
2024-10-15 14:03:53.689,74985.144,-0.173,0.504,-0.846,0.222,-0.049,0.019,0.569,-0.124,-0.074,-0.201,-0.528,0.592
2024-10-15 14:03:53.699,74985.154,-0.174,0.499,-0.849,0.219,-0.015,0.003,0.517,-0.134,-0.145,-0.203,-0.523,0.592
2024-10-15 14:03:53.709,74985.164,-0.176,0.494,-0.851,0.157,0.074,0.007,0.564,-0.121,-0.199,-0.204,-0.517,0.592
2024-10-15 14:03:53.720,74985.174,-0.178,0.488,-0.854,0.068,0.122,-0.016,0.763,-0.073,-0.242,-0.206,-0.51,0.591
2024-10-15 14:03:53.729,74985.184,-0.181,0.48,-0.859,0.013,0.121,-0.032,1.152,-0.231,-0.381,-0.208,-0.5,0.59
2024-10-15 14:03:53.739,74985.194,-0.183,0.467,-0.865,0.03,0.132,0.007,1.603,0.31,-0.422,-0.208,-0.486,0.588
2024-10-15 14:03:53.749,74985.204,-0.181,0.453,-0.873,0.112,0.098,0.058,1.294,0.313,-0.149,-0.204,-0.471,0.589
2024-10-15 14:03:53.759,74985.213,-0.181,0.445,-0.877,0.191,-0.052,0.031,0.673,-0.161,-0.387,-0.204,-0.461,0.588
2024-10-15 14:03:53.769,74985.223,-0.184,0.438,-0.88,0.146,-0.143,0.027,0.645,0.21,-0.467,-0.206,-0.453,0.584
2024-10-15 14:03:53.779,74985.233,-0.183,0.434,-0.882,0.035,-0.056,-0.014,0.209,0.179,-0.28,-0.205,-0.448,0.582
2024-10-15 14:03:53.789,74985.243,-0.184,0.433,-0.883,0.006,0.075,-0.053,-0.082,0.135,-0.505,-0.205,-0.447,0.578
2024-10-15 14:03:53.799,74985.253,-0.184,0.433,-0.883,-0.13,0.127,-0.018,-0.144,0.296,-0.365,-0.205,-0.447,0.572
2024-10-15 14:03:53.809,74985.263,-0.182,0.434,-0.882,-0.26,0.145,0.024,-0.38,0.202,-0.14,-0.204,-0.449,0.569
2024-10-15 14:03:53.819,74985.273,-0.182,0.438,-0.88,-0.265,0.153,0.037,-0.553,0.104,-0.131,-0.204,-0.454,0.567
2024-10-15 14:03:53.829,74985.283,-0.181,0.442,-0.879,-0.314,0.113,0.068,-0.274,0.184,-0.005,-0.203,-0.458,0.565
2024-10-15 14:03:53.839,74985.293,-0.179,0.444,-0.878,-0.291,0.022,0.036,-0.089,0.135,0.193,-0.201,-0.46,0.565
2024-10-15 14:03:53.849,74985.303,-0.177,0.445,-0.878,-0.157,-0.031,-0.023,-0.07,0.04,0.252,-0.199,-0.461,0.568
2024-10-15 14:03:53.859,74985.313,-0.176,0.447,-0.877,-0.055,-0.072,-0.045,-0.321,0.042,0.25,-0.198,-0.463,0.57
2024-10-15 14:03:53.869,74985.323,-0.174,0.451,-0.875,-0.022,-0.156,-0.117,-0.638,0.018,0.136,-0.197,-0.468,0.571
2024-10-15 14:03:53.879,74985.333,-0.174,0.458,-0.872,-0.017,-0.251,-0.207,-0.937,0.081,0.072,-0.197,-0.476,0.571
2024-10-15 14:03:53.889,74985.343,-0.173,0.469,-0.866,-0.021,-0.306,-0.208,-1.601,-0.055,0.157,-0.197,-0.489,0.569
2024-10-15 14:03:53.898,74985.353,-0.173,0.486,-0.857,-0.051,-0.248,-0.128,-2.029,-0.129,0.22,-0.199,-0.507,0.567
2024-10-15 14:03:53.909,74985.363,-0.172,0.503,-0.847,-0.117,-0.173,0.003,-1.844,-0.026,0.257,-0.201,-0.527,0.565
2024-10-15 14:03:53.919,74985.373,-0.171,0.516,-0.839,-0.12,-0.097,0.078,-1.256,0.042,0.31,-0.201,-0.543,0.565
2024-10-15 14:03:53.929,74985.383,-0.169,0.525,-0.834,0.001,0.025,0.128,-0.652,0.07,0.323,-0.2,-0.553,0.566
2024-10-15 14:03:53.939,74985.393,-0.167,0.529,-0.832,0.169,0.118,0.178,-0.138,0.052,0.223,-0.198,-0.557,0.569
2024-10-15 14:03:53.949,74985.403,-0.166,0.528,-0.833,0.268,0.097,0.147,0.238,0.071,0.036,-0.196,-0.557,0.57
2024-10-15 14:03:53.959,74985.413,-0.165,0.525,-0.835,0.27,-0.005,0.127,0.374,0.097,-0.129,-0.195,-0.553,0.571
2024-10-15 14:03:53.969,74985.423,-0.166,0.522,-0.837,0.228,-0.084,0.11,0.292,0.024,-0.225,-0.195,-0.55,0.569
2024-10-15 14:03:53.979,74985.433,-0.167,0.52,-0.838,0.168,-0.081,0.087,0.117,-0.057,-0.323,-0.197,-0.547,0.567
2024-10-15 14:03:53.988,74985.443,-0.169,0.519,-0.838,0.065,0.0,0.089,0.029,-0.017,-0.343,-0.199,-0.546,0.563
2024-10-15 14:03:53.998,74985.453,-0.171,0.518,-0.838,-0.032,0.066,0.033,-0.035,0.05,-0.262,-0.201,-0.545,0.559
2024-10-15 14:03:54.008,74985.463,-0.171,0.519,-0.837,-0.065,0.073,-0.054,-0.312,0.046,-0.16,-0.202,-0.546,0.557
2024-10-15 14:03:54.019,74985.473,-0.172,0.523,-0.835,-0.057,0.019,-0.069,-0.532,0.009,-0.121,-0.203,-0.55,0.554
2024-10-15 14:03:54.028,74985.483,-0.172,0.528,-0.831,-0.03,-0.099,-0.087,-0.882,0.096,-0.114,-0.204,-0.557,0.551
2024-10-15 14:03:54.039,74985.493,-0.171,0.537,-0.826,-0.001,-0.193,-0.078,-1.179,0.304,-0.056,-0.204,-0.567,0.547
2024-10-15 14:03:54.049,74985.503,-0.169,0.548,-0.819,0.021,-0.226,-0.095,-1.581,0.294,-0.057,-0.203,-0.58,0.544
2024-10-15 14:03:54.058,74985.513,-0.166,0.562,-0.81,-0.026,-0.224,-0.058,-1.788,0.392,-0.103,-0.202,-0.597,0.539
2024-10-15 14:03:54.068,74985.523,-0.163,0.576,-0.801,-0.131,-0.163,0.023,-1.771,0.581,-0.026,-0.2,-0.614,0.533
2024-10-15 14:03:54.079,74985.533,-0.157,0.591,-0.791,-0.189,-0.109,0.064,-1.976,0.682,0.125,-0.196,-0.632,0.529
2024-10-15 14:03:54.088,74985.543,-0.151,0.608,-0.78,-0.164,-0.096,0.108,-2.236,0.725,0.204,-0.191,-0.653,0.526
2024-10-15 14:03:54.100,74985.553,-0.144,0.626,-0.767,-0.171,-0.139,0.131,-2.377,0.709,0.237,-0.186,-0.676,0.524
2024-10-15 14:03:54.109,74985.563,-0.137,0.644,-0.752,-0.196,-0.159,0.138,-2.414,0.712,0.282,-0.18,-0.7,0.521
2024-10-15 14:03:54.118,74985.573,-0.13,0.663,-0.737,-0.159,-0.095,0.086,-2.457,0.733,0.352,-0.174,-0.725,0.52
2024-10-15 14:03:54.128,74985.583,-0.122,0.681,-0.722,-0.126,0.005,0.008,-2.241,0.788,0.358,-0.167,-0.749,0.519
2024-10-15 14:03:54.138,74985.593,-0.113,0.696,-0.709,-0.15,0.048,-0.018,-1.895,0.828,0.37,-0.158,-0.77,0.519
2024-10-15 14:03:54.148,74985.603,-0.105,0.709,-0.698,-0.159,0.061,0.0,-1.617,0.846,0.39,-0.149,-0.788,0.521
2024-10-15 14:03:54.158,74985.613,-0.096,0.719,-0.688,-0.115,0.094,0.024,-1.355,0.829,0.351,-0.139,-0.803,0.523
2024-10-15 14:03:54.168,74985.623,-0.088,0.728,-0.68,-0.071,0.107,0.053,-1.169,0.808,0.298,-0.129,-0.816,0.525
2024-10-15 14:03:54.178,74985.633,-0.081,0.736,-0.672,-0.036,0.106,0.078,-1.055,0.719,0.27,-0.12,-0.827,0.527
2024-10-15 14:03:54.188,74985.643,-0.075,0.743,-0.665,0.0,0.099,0.095,-0.985,0.572,0.299,-0.112,-0.838,0.53
2024-10-15 14:03:54.198,74985.653,-0.069,0.749,-0.659,0.034,0.093,0.071,-0.85,0.408,0.321,-0.105,-0.847,0.533
2024-10-15 14:03:54.208,74985.663,-0.065,0.754,-0.654,0.049,0.141,0.013,-0.402,0.252,0.297,-0.099,-0.854,0.537
2024-10-15 14:03:54.218,74985.673,-0.061,0.755,-0.653,0.042,0.221,0.002,0.086,0.186,0.261,-0.093,-0.856,0.541
2024-10-15 14:03:54.228,74985.683,-0.058,0.753,-0.655,0.041,0.28,0.006,0.509,0.172,0.191,-0.089,-0.853,0.545
2024-10-15 14:03:54.238,74985.693,-0.056,0.749,-0.661,0.04,0.274,0.028,0.835,0.142,0.154,-0.085,-0.846,0.548
2024-10-15 14:03:54.248,74985.703,-0.054,0.743,-0.667,0.058,0.196,0.068,0.988,0.029,0.14,-0.081,-0.837,0.551
2024-10-15 14:03:54.258,74985.713,-0.053,0.736,-0.675,0.101,0.115,0.103,1.05,-0.066,0.136,-0.079,-0.827,0.555
2024-10-15 14:03:54.268,74985.723,-0.053,0.729,-0.683,0.147,0.064,0.104,1.069,-0.156,0.13,-0.078,-0.817,0.558
2024-10-15 14:03:54.278,74985.733,-0.054,0.721,-0.691,0.17,0.05,0.078,1.219,-0.226,0.1,-0.078,-0.806,0.561
2024-10-15 14:03:54.288,74985.743,-0.055,0.712,-0.7,0.177,0.047,0.032,1.469,-0.288,0.062,-0.078,-0.792,0.563
2024-10-15 14:03:54.298,74985.753,-0.057,0.701,-0.711,0.186,0.066,-0.017,1.523,-0.244,0.015,-0.079,-0.777,0.566
2024-10-15 14:03:54.308,74985.763,-0.058,0.69,-0.721,0.174,0.104,-0.068,1.622,-0.198,-0.053,-0.081,-0.762,0.567
2024-10-15 14:03:54.318,74985.773,-0.06,0.678,-0.733,0.136,0.06,-0.102,1.703,-0.177,-0.072,-0.082,-0.745,0.568
2024-10-15 14:03:54.328,74985.783,-0.062,0.665,-0.744,0.148,-0.018,-0.114,1.724,-0.093,-0.101,-0.083,-0.728,0.569
2024-10-15 14:03:54.338,74985.793,-0.063,0.653,-0.755,0.172,-0.07,-0.103,1.427,-0.108,-0.159,-0.084,-0.712,0.569
2024-10-15 14:03:54.348,74985.802,-0.065,0.644,-0.762,0.155,-0.11,-0.054,0.964,-0.046,-0.151,-0.085,-0.7,0.569
2024-10-15 14:03:54.358,74985.812,-0.066,0.638,-0.767,0.132,-0.137,-0.021,0.606,-0.058,-0.156,-0.086,-0.692,0.568
2024-10-15 14:03:54.368,74985.822,-0.068,0.634,-0.77,0.098,-0.167,-0.049,0.371,-0.101,-0.133,-0.088,-0.687,0.567
2024-10-15 14:03:54.378,74985.832,-0.069,0.632,-0.772,0.072,-0.16,-0.065,0.312,-0.102,-0.037,-0.089,-0.684,0.566
2024-10-15 14:03:54.388,74985.842,-0.07,0.629,-0.774,0.086,-0.1,-0.063,0.396,-0.088,-0.069,-0.09,-0.68,0.566
2024-10-15 14:03:54.398,74985.852,-0.071,0.625,-0.777,0.059,-0.041,-0.081,0.607,-0.02,-0.071,-0.091,-0.675,0.566
2024-10-15 14:03:54.408,74985.862,-0.072,0.619,-0.782,0.027,0.018,-0.059,0.833,-0.049,-0.12,-0.091,-0.668,0.565
2024-10-15 14:03:54.417,74985.872,-0.073,0.612,-0.788,0.028,0.052,0.001,1.103,-0.012,-0.143,-0.092,-0.658,0.565
2024-10-15 14:03:54.428,74985.882,-0.074,0.602,-0.795,0.039,0.074,0.029,1.439,0.021,-0.211,-0.092,-0.645,0.564
2024-10-15 14:03:54.438,74985.892,-0.075,0.589,-0.805,0.028,0.095,0.057,1.685,0.076,-0.263,-0.093,-0.63,0.563
2024-10-15 14:03:54.448,74985.902,-0.076,0.574,-0.815,-0.007,0.123,0.1,1.811,0.154,-0.304,-0.092,-0.612,0.561
2024-10-15 14:03:54.458,74985.912,-0.076,0.559,-0.826,-0.058,0.144,0.128,1.893,0.181,-0.325,-0.092,-0.593,0.56
2024-10-15 14:03:54.468,74985.922,-0.076,0.544,-0.836,-0.127,0.132,0.126,1.764,0.108,-0.291,-0.091,-0.575,0.558
2024-10-15 14:03:54.478,74985.932,-0.077,0.531,-0.844,-0.196,0.132,0.126,1.145,0.146,-0.079,-0.091,-0.56,0.557
2024-10-15 14:03:54.488,74985.942,-0.074,0.524,-0.848,-0.284,0.081,0.078,0.453,0.333,0.3,-0.087,-0.552,0.559
2024-10-15 14:03:54.498,74985.952,-0.071,0.522,-0.85,-0.382,-0.127,-0.149,0.129,-0.025,0.281,-0.083,-0.55,0.563
2024-10-15 14:03:54.508,74985.962,-0.071,0.523,-0.85,-0.313,-0.367,-0.103,-0.227,-0.304,0.317,-0.083,-0.55,0.566
2024-10-15 14:03:54.518,74985.972,-0.072,0.527,-0.847,-0.143,-0.39,-0.073,-0.788,-0.378,0.517,-0.084,-0.555,0.571
2024-10-15 14:03:54.527,74985.982,-0.073,0.535,-0.842,-0.084,-0.253,-0.107,-0.86,-0.655,0.643,-0.086,-0.564,0.577
2024-10-15 14:03:54.538,74985.992,-0.075,0.542,-0.837,-0.154,-0.172,-0.111,-0.759,-0.698,0.718,-0.089,-0.573,0.584
2024-10-15 14:03:54.547,74986.002,-0.076,0.549,-0.833,-0.195,-0.034,-0.08,-0.647,-0.432,0.614,-0.091,-0.581,0.591
2024-10-15 14:03:54.558,74986.012,-0.075,0.554,-0.829,-0.193,0.094,-0.057,-0.407,-0.194,0.518,-0.091,-0.587,0.598
2024-10-15 14:03:54.568,74986.022,-0.074,0.556,-0.828,-0.103,0.028,-0.057,-0.182,-0.119,0.511,-0.089,-0.59,0.604
2024-10-15 14:03:54.577,74986.032,-0.072,0.558,-0.827,0.07,-0.104,-0.045,-0.093,-0.106,0.532,-0.087,-0.592,0.611
2024-10-15 14:03:54.588,74986.042,-0.07,0.559,-0.826,0.245,-0.131,-0.014,-0.063,-0.223,0.45,-0.085,-0.593,0.617
2024-10-15 14:03:54.598,74986.052,-0.07,0.559,-0.826,0.368,-0.079,0.052,0.002,-0.289,0.286,-0.085,-0.594,0.622
2024-10-15 14:03:54.608,74986.062,-0.072,0.559,-0.826,0.442,-0.004,0.11,0.182,-0.275,0.054,-0.087,-0.593,0.624
2024-10-15 14:03:54.617,74986.072,-0.074,0.556,-0.828,0.444,0.073,0.091,0.428,-0.183,-0.126,-0.089,-0.59,0.624
2024-10-15 14:03:54.627,74986.082,-0.076,0.552,-0.83,0.348,0.159,0.025,0.577,-0.049,-0.152,-0.091,-0.585,0.623
2024-10-15 14:03:54.637,74986.092,-0.076,0.546,-0.834,0.208,0.198,0.003,0.709,0.019,-0.069,-0.091,-0.578,0.623
2024-10-15 14:03:54.648,74986.102,-0.077,0.54,-0.838,0.12,0.108,-0.017,0.69,-0.036,-0.034,-0.091,-0.571,0.623
2024-10-15 14:03:54.657,74986.112,-0.077,0.535,-0.841,0.131,0.001,-0.053,0.539,-0.075,-0.103,-0.092,-0.565,0.623
2024-10-15 14:03:54.667,74986.122,-0.08,0.53,-0.844,0.153,-0.009,-0.044,0.688,-0.239,-0.198,-0.094,-0.559,0.622
2024-10-15 14:03:54.678,74986.132,-0.082,0.524,-0.848,0.147,0.019,-0.002,0.807,0.038,-0.187,-0.096,-0.551,0.62
2024-10-15 14:03:54.687,74986.142,-0.082,0.516,-0.853,0.182,0.116,0.042,1.003,0.133,-0.161,-0.095,-0.542,0.619
2024-10-15 14:03:54.697,74986.152,-0.081,0.508,-0.857,0.173,0.076,0.066,0.655,0.139,-0.237,-0.095,-0.533,0.618
2024-10-15 14:03:54.707,74986.162,-0.082,0.504,-0.86,0.059,0.013,0.098,0.196,0.057,-0.255,-0.095,-0.529,0.615
2024-10-15 14:03:54.718,74986.172,-0.083,0.504,-0.86,-0.152,-0.026,0.179,-0.066,-0.051,-0.246,-0.096,-0.528,0.613
2024-10-15 14:03:54.727,74986.182,-0.085,0.505,-0.859,-0.308,-0.066,0.078,-0.123,-0.142,-0.193,-0.098,-0.529,0.61
2024-10-15 14:03:54.738,74986.192,-0.087,0.505,-0.859,-0.434,0.005,0.011,0.085,-0.089,-0.094,-0.101,-0.529,0.608
2024-10-15 14:03:54.747,74986.202,-0.087,0.504,-0.86,-0.531,0.044,-0.033,0.126,-0.043,0.033,-0.101,-0.528,0.608
2024-10-15 14:03:54.757,74986.212,-0.087,0.503,-0.86,-0.559,0.004,-0.065,-0.055,-0.148,0.281,-0.101,-0.527,0.61
2024-10-15 14:03:54.767,74986.222,-0.088,0.506,-0.858,-0.433,-0.127,-0.024,-0.452,-0.458,0.417,-0.103,-0.53,0.613
2024-10-15 14:03:54.777,74986.232,-0.09,0.511,-0.855,-0.227,-0.209,-0.029,-0.557,-0.582,0.559,-0.105,-0.536,0.619
2024-10-15 14:03:54.787,74986.242,-0.092,0.516,-0.851,-0.12,-0.155,-0.096,-0.652,-0.59,0.605,-0.108,-0.543,0.625
2024-10-15 14:03:54.797,74986.252,-0.093,0.523,-0.847,-0.071,-0.076,-0.129,-0.707,-0.354,0.485,-0.109,-0.55,0.63
2024-10-15 14:03:54.807,74986.262,-0.095,0.529,-0.843,-0.054,-0.068,-0.151,-0.616,-0.522,0.374,-0.112,-0.557,0.634
2024-10-15 14:03:54.817,74986.272,-0.097,0.535,-0.839,-0.081,-0.126,-0.043,-0.722,-0.469,0.389,-0.115,-0.564,0.638
2024-10-15 14:03:54.827,74986.282,-0.098,0.54,-0.836,-0.057,-0.02,0.038,-0.326,-0.276,0.327,-0.117,-0.57,0.641
2024-10-15 14:03:54.837,74986.292,-0.098,0.541,-0.835,-0.015,0.049,0.046,0.108,-0.081,0.291,-0.117,-0.572,0.645
2024-10-15 14:03:54.847,74986.302,-0.097,0.54,-0.836,0.117,0.017,0.056,0.24,-0.082,0.331,-0.115,-0.57,0.649
2024-10-15 14:03:54.857,74986.312,-0.096,0.538,-0.837,0.306,0.013,0.126,0.195,-0.147,0.256,-0.114,-0.568,0.653
2024-10-15 14:03:54.867,74986.322,-0.096,0.537,-0.838,0.485,0.03,0.129,0.126,-0.115,0.019,-0.115,-0.567,0.654
2024-10-15 14:03:54.877,74986.332,-0.098,0.536,-0.839,0.513,0.017,0.044,0.122,-0.114,-0.25,-0.116,-0.565,0.653
2024-10-15 14:03:54.887,74986.342,-0.1,0.534,-0.839,0.368,0.042,0.018,0.175,-0.021,-0.341,-0.119,-0.564,0.65
2024-10-15 14:03:54.897,74986.352,-0.102,0.532,-0.841,0.172,0.106,0.01,0.342,0.066,-0.226,-0.12,-0.561,0.647
2024-10-15 14:03:54.907,74986.362,-0.102,0.528,-0.843,0.02,0.126,-0.026,0.476,0.077,-0.102,-0.12,-0.556,0.645
2024-10-15 14:03:54.917,74986.372,-0.102,0.524,-0.846,-0.019,0.086,-0.001,0.566,0.062,-0.072,-0.12,-0.551,0.645
2024-10-15 14:03:54.927,74986.381,-0.102,0.519,-0.849,0.024,0.021,0.033,0.604,-0.066,-0.112,-0.12,-0.545,0.645
2024-10-15 14:03:54.937,74986.391,-0.102,0.513,-0.852,0.098,0.003,0.026,0.662,0.254,-0.199,-0.12,-0.539,0.644
2024-10-15 14:03:54.947,74986.401,-0.101,0.507,-0.856,0.173,0.085,-0.027,0.715,0.291,-0.245,-0.117,-0.532,0.642
2024-10-15 14:03:54.957,74986.411,-0.1,0.502,-0.859,0.165,0.042,-0.048,0.441,0.171,-0.262,-0.116,-0.525,0.64
2024-10-15 14:03:54.967,74986.421,-0.1,0.499,-0.861,0.073,0.007,0.021,0.18,0.146,-0.246,-0.116,-0.522,0.638
2024-10-15 14:03:54.977,74986.431,-0.101,0.497,-0.862,-0.06,0.059,0.065,0.165,0.078,-0.189,-0.116,-0.52,0.636
2024-10-15 14:03:54.987,74986.441,-0.101,0.496,-0.863,-0.136,0.089,0.098,0.145,0.115,-0.19,-0.116,-0.519,0.634
2024-10-15 14:03:54.997,74986.451,-0.101,0.494,-0.863,-0.222,0.117,0.006,0.11,0.048,-0.196,-0.116,-0.517,0.632
2024-10-15 14:03:55.007,74986.461,-0.102,0.493,-0.864,-0.377,0.08,0.018,0.116,-0.089,-0.148,-0.117,-0.516,0.63
2024-10-15 14:03:55.016,74986.471,-0.103,0.492,-0.864,-0.465,-0.031,0.028,0.034,-0.151,0.036,-0.119,-0.515,0.629
2024-10-15 14:03:55.027,74986.481,-0.104,0.493,-0.864,-0.397,-0.11,-0.018,-0.094,-0.312,0.28,-0.12,-0.515,0.631
2024-10-15 14:03:55.036,74986.491,-0.106,0.495,-0.863,-0.235,-0.143,-0.086,-0.298,-0.409,0.412,-0.122,-0.518,0.635
2024-10-15 14:03:55.047,74986.501,-0.107,0.498,-0.86,-0.091,-0.137,-0.148,-0.472,-0.41,0.462,-0.124,-0.522,0.639
2024-10-15 14:03:55.057,74986.511,-0.107,0.504,-0.857,-0.02,-0.141,-0.193,-0.706,-0.223,0.412,-0.125,-0.529,0.643
2024-10-15 14:03:55.067,74986.521,-0.109,0.511,-0.853,0.0,-0.182,-0.229,-0.828,-0.478,0.32,-0.127,-0.536,0.646
2024-10-15 14:03:55.077,74986.531,-0.112,0.519,-0.847,-0.02,-0.222,-0.088,-0.977,-0.564,0.207,-0.131,-0.546,0.648
2024-10-15 14:03:55.087,74986.541,-0.115,0.526,-0.842,-0.017,-0.099,0.03,-0.656,-0.316,0.133,-0.136,-0.554,0.649
2024-10-15 14:03:55.097,74986.551,-0.116,0.53,-0.84,0.012,0.003,0.086,-0.153,-0.159,0.145,-0.137,-0.559,0.65
2024-10-15 14:03:55.107,74986.561,-0.117,0.53,-0.84,0.131,0.028,0.086,0.048,-0.161,0.181,-0.138,-0.559,0.651
2024-10-15 14:03:55.117,74986.571,-0.117,0.529,-0.84,0.252,0.046,0.151,0.232,-0.125,0.111,-0.138,-0.558,0.653
2024-10-15 14:03:55.127,74986.581,-0.118,0.527,-0.842,0.336,0.041,0.148,0.355,-0.122,-0.024,-0.139,-0.555,0.654
2024-10-15 14:03:55.137,74986.591,-0.119,0.524,-0.843,0.348,0.009,0.111,0.345,-0.143,-0.13,-0.14,-0.551,0.654
2024-10-15 14:03:55.147,74986.601,-0.121,0.521,-0.845,0.295,0.021,0.058,0.295,-0.079,-0.185,-0.142,-0.548,0.653
2024-10-15 14:03:55.156,74986.611,-0.122,0.518,-0.846,0.157,0.056,-0.028,0.281,0.035,-0.225,-0.144,-0.545,0.651
2024-10-15 14:03:55.167,74986.621,-0.123,0.515,-0.848,0.011,0.076,-0.05,0.356,0.125,-0.197,-0.144,-0.542,0.649
2024-10-15 14:03:55.177,74986.631,-0.123,0.512,-0.85,-0.042,0.058,-0.03,0.36,0.111,-0.162,-0.143,-0.538,0.648
2024-10-15 14:03:55.187,74986.641,-0.123,0.509,-0.852,-0.014,0.044,0.027,0.392,0.002,-0.207,-0.143,-0.534,0.646
2024-10-15 14:03:55.196,74986.651,-0.124,0.504,-0.855,0.042,0.048,0.073,0.575,0.184,-0.266,-0.144,-0.529,0.644
2024-10-15 14:03:55.206,74986.661,-0.122,0.498,-0.858,0.101,0.064,0.041,0.751,0.381,-0.226,-0.142,-0.522,0.642
2024-10-15 14:03:55.216,74986.671,-0.12,0.493,-0.862,0.158,0.049,-0.02,0.457,0.262,-0.156,-0.139,-0.515,0.641
2024-10-15 14:03:55.227,74986.681,-0.12,0.49,-0.863,0.107,0.006,0.01,0.067,0.084,-0.263,-0.138,-0.512,0.639
2024-10-15 14:03:55.236,74986.691,-0.121,0.49,-0.863,-0.072,0.037,0.035,0.013,0.154,-0.314,-0.139,-0.512,0.636
2024-10-15 14:03:55.246,74986.701,-0.121,0.489,-0.864,-0.216,0.091,-0.006,0.115,0.143,-0.263,-0.139,-0.511,0.633
2024-10-15 14:03:55.256,74986.711,-0.121,0.487,-0.865,-0.281,0.082,-0.019,0.177,0.085,-0.2,-0.139,-0.509,0.63
2024-10-15 14:03:55.266,74986.721,-0.121,0.485,-0.866,-0.32,0.024,0.058,0.187,0.017,-0.127,-0.139,-0.507,0.629
2024-10-15 14:03:55.276,74986.731,-0.122,0.485,-0.866,-0.344,-0.075,0.11,-0.032,-0.13,-0.022,-0.14,-0.506,0.628
2024-10-15 14:03:55.286,74986.741,-0.123,0.486,-0.865,-0.318,-0.129,0.077,-0.258,-0.23,0.148,-0.141,-0.507,0.629
2024-10-15 14:03:55.296,74986.751,-0.125,0.489,-0.863,-0.243,-0.141,-0.04,-0.488,-0.333,0.271,-0.143,-0.511,0.63
2024-10-15 14:03:55.306,74986.761,-0.126,0.494,-0.86,-0.144,-0.116,-0.145,-0.59,-0.335,0.306,-0.146,-0.517,0.633
2024-10-15 14:03:55.316,74986.771,-0.126,0.5,-0.857,-0.044,-0.095,-0.195,-0.446,-0.192,0.246,-0.146,-0.523,0.635
2024-10-15 14:03:55.326,74986.781,-0.129,0.503,-0.855,0.016,-0.12,-0.215,-0.285,-0.517,0.147,-0.15,-0.527,0.637
2024-10-15 14:03:55.336,74986.791,-0.132,0.507,-0.852,0.019,-0.139,-0.051,-0.541,-0.412,0.215,-0.154,-0.531,0.638
2024-10-15 14:03:55.346,74986.801,-0.134,0.511,-0.849,0.031,-0.041,0.003,-0.428,-0.185,0.1,-0.156,-0.536,0.639
2024-10-15 14:03:55.356,74986.811,-0.135,0.514,-0.847,0.003,-0.038,-0.011,-0.198,-0.108,0.052,-0.158,-0.539,0.639
2024-10-15 14:03:55.366,74986.821,-0.135,0.515,-0.846,0.098,-0.051,-0.008,-0.133,-0.117,0.144,-0.158,-0.541,0.64
2024-10-15 14:03:55.376,74986.831,-0.135,0.516,-0.846,0.23,-0.024,0.078,-0.05,-0.133,0.133,-0.159,-0.542,0.642
2024-10-15 14:03:55.386,74986.841,-0.136,0.516,-0.846,0.309,-0.015,0.111,0.138,-0.132,0.028,-0.16,-0.542,0.643
2024-10-15 14:03:55.396,74986.851,-0.138,0.514,-0.847,0.336,-0.022,0.138,0.319,-0.18,-0.079,-0.161,-0.54,0.643
2024-10-15 14:03:55.406,74986.861,-0.139,0.511,-0.848,0.33,0.004,0.117,0.43,-0.1,-0.168,-0.163,-0.536,0.642
2024-10-15 14:03:55.416,74986.871,-0.141,0.506,-0.851,0.246,0.059,0.069,0.551,-0.037,-0.244,-0.164,-0.531,0.641
2024-10-15 14:03:55.426,74986.881,-0.142,0.501,-0.854,0.099,0.089,0.012,0.671,-0.004,-0.26,-0.165,-0.524,0.639
2024-10-15 14:03:55.436,74986.891,-0.143,0.494,-0.857,0.006,0.122,-0.028,0.75,0.057,-0.236,-0.166,-0.517,0.637
2024-10-15 14:03:55.446,74986.901,-0.144,0.487,-0.861,-0.023,0.157,-0.083,0.765,0.211,-0.281,-0.165,-0.509,0.636
2024-10-15 14:03:55.456,74986.911,-0.143,0.481,-0.865,-0.049,0.126,-0.129,0.655,0.386,-0.42,-0.163,-0.501,0.633
2024-10-15 14:03:55.466,74986.921,-0.141,0.474,-0.869,-0.014,-0.006,-0.13,0.69,0.38,-0.46,-0.161,-0.494,0.63
2024-10-15 14:03:55.476,74986.931,-0.141,0.468,-0.872,0.116,-0.18,-0.036,0.456,0.089,-0.445,-0.161,-0.487,0.626
2024-10-15 14:03:55.486,74986.941,-0.143,0.465,-0.874,0.206,-0.164,0.093,0.259,0.109,-0.541,-0.162,-0.483,0.621
2024-10-15 14:03:55.496,74986.951,-0.144,0.462,-0.875,0.045,0.04,0.145,0.204,0.122,-0.502,-0.164,-0.48,0.615
2024-10-15 14:03:55.508,74986.96,-0.146,0.459,-0.876,-0.184,0.164,0.109,0.23,0.065,-0.347,-0.165,-0.477,0.611
2024-10-15 14:03:55.516,74986.97,-0.147,0.457,-0.877,-0.259,0.231,0.123,0.274,-0.028,-0.237,-0.166,-0.474,0.608
2024-10-15 14:03:55.526,74986.98,-0.148,0.454,-0.879,-0.351,0.247,0.12,0.348,-0.046,-0.128,-0.167,-0.471,0.607
2024-10-15 14:03:55.536,74986.99,-0.149,0.451,-0.88,-0.402,0.179,0.082,0.295,-0.039,0.003,-0.167,-0.468,0.607
2024-10-15 14:03:55.547,74987.0,-0.149,0.449,-0.881,-0.377,-0.01,0.004,0.011,-0.193,0.197,-0.168,-0.466,0.608
2024-10-15 14:03:55.556,74987.01,-0.15,0.451,-0.88,-0.281,-0.166,-0.072,-0.267,-0.346,0.363,-0.169,-0.468,0.611
2024-10-15 14:03:55.566,74987.02,-0.152,0.455,-0.878,-0.134,-0.183,-0.136,-0.395,-0.411,0.46,-0.171,-0.472,0.615
2024-10-15 14:03:55.576,74987.03,-0.153,0.459,-0.875,-0.004,-0.161,-0.178,-0.482,-0.376,0.518,-0.173,-0.477,0.619
2024-10-15 14:03:55.586,74987.04,-0.153,0.465,-0.872,0.104,-0.143,-0.178,-0.558,-0.238,0.394,-0.174,-0.484,0.624
2024-10-15 14:03:55.596,74987.05,-0.156,0.468,-0.87,0.154,-0.157,-0.178,-0.33,-0.474,0.065,-0.177,-0.488,0.625
2024-10-15 14:03:55.606,74987.06,-0.159,0.473,-0.867,0.079,-0.179,-0.081,-0.579,-0.415,0.129,-0.181,-0.493,0.625
2024-10-15 14:03:55.616,74987.07,-0.162,0.478,-0.864,0.023,-0.092,0.032,-0.445,-0.375,0.169,-0.185,-0.498,0.626
2024-10-15 14:03:55.626,74987.08,-0.163,0.481,-0.861,0.015,-0.103,0.073,-0.282,-0.202,0.171,-0.187,-0.502,0.627
2024-10-15 14:03:55.636,74987.09,-0.164,0.483,-0.86,0.098,-0.104,0.078,-0.195,-0.209,0.162,-0.189,-0.504,0.628
2024-10-15 14:03:55.646,74987.1,-0.165,0.485,-0.859,0.177,-0.074,0.109,-0.094,-0.215,0.184,-0.19,-0.506,0.63
2024-10-15 14:03:55.656,74987.11,-0.166,0.485,-0.858,0.264,-0.044,0.107,-0.032,-0.207,0.083,-0.192,-0.507,0.631
2024-10-15 14:03:55.666,74987.12,-0.168,0.486,-0.858,0.292,0.005,0.031,-0.033,-0.11,-0.072,-0.193,-0.507,0.631
2024-10-15 14:03:55.676,74987.13,-0.169,0.485,-0.858,0.232,0.088,-0.032,0.167,-0.025,-0.149,-0.194,-0.506,0.63
2024-10-15 14:03:55.686,74987.14,-0.17,0.483,-0.859,0.122,0.127,-0.031,0.261,-0.02,-0.141,-0.195,-0.504,0.629
2024-10-15 14:03:55.696,74987.15,-0.17,0.48,-0.861,0.067,0.138,0.024,0.352,0.053,-0.155,-0.195,-0.501,0.628
2024-10-15 14:03:55.706,74987.16,-0.171,0.477,-0.862,0.029,0.113,0.023,0.296,0.041,-0.177,-0.195,-0.497,0.627
2024-10-15 14:03:55.716,74987.17,-0.171,0.474,-0.864,-0.026,0.062,0.032,0.267,0.083,-0.267,-0.196,-0.494,0.625
2024-10-15 14:03:55.726,74987.18,-0.171,0.472,-0.865,-0.052,0.019,0.029,0.226,0.292,-0.409,-0.195,-0.491,0.622
2024-10-15 14:03:55.736,74987.19,-0.171,0.468,-0.867,-0.064,-0.062,-0.054,0.309,0.241,-0.419,-0.194,-0.487,0.618
2024-10-15 14:03:55.746,74987.2,-0.171,0.466,-0.868,0.012,-0.175,-0.021,0.084,0.092,-0.362,-0.195,-0.485,0.614
2024-10-15 14:03:55.756,74987.21,-0.172,0.465,-0.868,0.092,-0.101,0.089,-0.087,0.053,-0.384,-0.196,-0.484,0.61
2024-10-15 14:03:55.766,74987.22,-0.174,0.466,-0.868,-0.044,0.071,0.109,-0.126,-0.0,-0.324,-0.198,-0.484,0.606
2024-10-15 14:03:55.776,74987.23,-0.175,0.466,-0.867,-0.179,0.189,0.118,-0.115,-0.133,-0.128,-0.2,-0.485,0.603
2024-10-15 14:03:55.785,74987.24,-0.177,0.467,-0.867,-0.202,0.288,0.138,0.049,-0.154,0.02,-0.201,-0.486,0.602
2024-10-15 14:03:55.795,74987.25,-0.178,0.466,-0.867,-0.246,0.309,0.095,0.172,-0.122,0.104,-0.202,-0.484,0.603
2024-10-15 14:03:55.806,74987.26,-0.178,0.465,-0.867,-0.281,0.203,0.004,0.106,-0.172,0.184,-0.203,-0.483,0.605
2024-10-15 14:03:55.816,74987.27,-0.179,0.465,-0.867,-0.223,0.035,-0.054,0.003,-0.271,0.309,-0.204,-0.483,0.608
2024-10-15 14:03:55.826,74987.28,-0.18,0.466,-0.866,-0.114,-0.116,-0.12,-0.185,-0.322,0.369,-0.205,-0.485,0.612
2024-10-15 14:03:55.835,74987.29,-0.181,0.469,-0.864,-0.025,-0.174,-0.164,-0.396,-0.303,0.337,-0.206,-0.488,0.615
2024-10-15 14:03:55.846,74987.3,-0.182,0.474,-0.862,0.032,-0.188,-0.18,-0.571,-0.142,0.247,-0.208,-0.494,0.617
2024-10-15 14:03:55.855,74987.31,-0.184,0.478,-0.859,0.077,-0.186,-0.14,-0.322,-0.515,0.092,-0.211,-0.498,0.618
2024-10-15 14:03:55.865,74987.32,-0.187,0.482,-0.856,0.079,-0.173,-0.022,-0.596,-0.463,0.195,-0.215,-0.503,0.618
2024-10-15 14:03:55.875,74987.33,-0.19,0.487,-0.852,0.069,-0.047,0.035,-0.391,-0.438,0.133,-0.22,-0.509,0.619
2024-10-15 14:03:55.885,74987.34,-0.192,0.489,-0.851,0.003,-0.014,0.028,-0.153,-0.199,0.103,-0.223,-0.512,0.62
2024-10-15 14:03:55.896,74987.35,-0.193,0.49,-0.85,0.025,-0.052,0.021,0.051,-0.14,0.143,-0.224,-0.512,0.621
2024-10-15 14:03:55.905,74987.36,-0.193,0.49,-0.85,0.092,-0.084,0.072,0.018,-0.071,0.179,-0.224,-0.512,0.623
2024-10-15 14:03:55.915,74987.37,-0.193,0.49,-0.85,0.176,-0.086,0.086,0.007,0.01,0.096,-0.223,-0.512,0.625
2024-10-15 14:03:55.925,74987.38,-0.193,0.49,-0.85,0.212,-0.103,0.063,0.119,0.004,-0.025,-0.223,-0.512,0.625
2024-10-15 14:03:55.935,74987.39,-0.193,0.488,-0.851,0.223,-0.118,0.025,0.167,0.018,-0.134,-0.223,-0.51,0.625
2024-10-15 14:03:55.945,74987.4,-0.193,0.487,-0.852,0.181,-0.036,0.02,0.197,0.099,-0.18,-0.223,-0.508,0.623
2024-10-15 14:03:55.955,74987.41,-0.193,0.484,-0.853,0.08,0.064,0.017,0.261,0.13,-0.223,-0.223,-0.505,0.622
2024-10-15 14:03:55.965,74987.42,-0.193,0.481,-0.855,-0.008,0.119,0.008,0.336,0.221,-0.216,-0.222,-0.502,0.62
2024-10-15 14:03:55.975,74987.43,-0.192,0.478,-0.857,-0.042,0.148,-0.012,0.334,0.278,-0.181,-0.22,-0.498,0.619
2024-10-15 14:03:55.985,74987.44,-0.19,0.475,-0.859,-0.049,0.139,0.008,0.318,0.296,-0.226,-0.218,-0.495,0.617
