Date,TimeStamp,GravityX,GravityY,GravityZ,UserAccelerationX,UserAccelerationY,UserAccelerationZ,RotationRateX,RotationRateY,RotationRateZ,AttitudeRoll,AttitudePitch,AttitudeYaw
2024-10-15 13:50:03.425,74154.865,-0.263,-0.278,-0.924,-0.017,0.044,-0.022,-0.031,0.079,0.063,-0.278,0.281,1.55
2024-10-15 13:50:03.439,74154.875,-0.263,-0.278,-0.924,-0.019,-0.015,-0.03,0.007,0.017,0.014,-0.278,0.281,1.55
2024-10-15 13:50:03.441,74154.885,-0.263,-0.278,-0.924,0.005,-0.005,-0.02,0.054,0.088,-0.046,-0.277,0.282,1.55
2024-10-15 13:50:03.443,74154.895,-0.262,-0.279,-0.924,-0.007,0.003,-0.015,0.064,0.097,0.013,-0.276,0.282,1.55
2024-10-15 13:50:03.452,74154.905,-0.261,-0.279,-0.924,-0.025,0.019,-0.016,0.005,0.038,0.019,-0.276,0.283,1.55
2024-10-15 13:50:03.462,74154.915,-0.261,-0.279,-0.924,0.007,0.001,-0.001,-0.005,-0.0,-0.055,-0.275,0.283,1.55
2024-10-15 13:50:03.472,74154.925,-0.261,-0.279,-0.924,0.03,-0.03,0.013,0.02,0.053,-0.03,-0.275,0.283,1.55
2024-10-15 13:50:03.482,74154.935,-0.26,-0.279,-0.924,0.0,-0.016,0.006,0.039,0.057,0.003,-0.274,0.283,1.55
2024-10-15 13:50:03.492,74154.945,-0.26,-0.28,-0.924,-0.015,0.014,-0.002,0.037,0.064,-0.002,-0.274,0.283,1.55
2024-10-15 13:50:03.503,74154.955,-0.259,-0.28,-0.924,-0.002,0.002,-0.003,0.028,0.043,0.019,-0.274,0.284,1.55
2024-10-15 13:50:03.513,74154.965,-0.259,-0.28,-0.924,0.008,-0.008,0.002,0.038,0.037,0.01,-0.273,0.284,1.55
2024-10-15 13:50:03.524,74154.975,-0.259,-0.28,-0.924,0.009,-0.007,0.012,0.052,0.051,0.004,-0.273,0.284,1.55
2024-10-15 13:50:03.532,74154.985,-0.258,-0.281,-0.924,0.002,-0.001,0.016,0.063,0.025,0.012,-0.273,0.285,1.55
2024-10-15 13:50:03.544,74154.995,-0.259,-0.281,-0.924,-0.005,0.003,0.015,0.043,-0.031,0.035,-0.273,0.285,1.551
2024-10-15 13:50:03.553,74155.005,-0.259,-0.282,-0.924,0.002,-0.005,0.014,0.015,-0.048,0.028,-0.273,0.286,1.551
2024-10-15 13:50:03.563,74155.015,-0.259,-0.282,-0.924,0.01,-0.016,0.008,0.009,-0.038,0.02,-0.274,0.286,1.552
2024-10-15 13:50:03.574,74155.025,-0.26,-0.282,-0.924,0.002,-0.02,0.005,0.016,-0.002,0.004,-0.274,0.286,1.552
2024-10-15 13:50:03.582,74155.035,-0.259,-0.282,-0.924,-0.007,-0.01,0.003,0.028,0.03,-0.026,-0.274,0.286,1.552
2024-10-15 13:50:03.593,74155.045,-0.259,-0.282,-0.924,-0.009,0.001,0.003,0.047,0.032,-0.039,-0.273,0.286,1.551
2024-10-15 13:50:03.602,74155.055,-0.259,-0.283,-0.924,-0.01,0.002,0.004,0.061,0.046,-0.048,-0.273,0.287,1.551
2024-10-15 13:50:03.612,74155.065,-0.258,-0.284,-0.924,-0.007,0.002,0.005,0.073,0.084,-0.049,-0.272,0.288,1.551
2024-10-15 13:50:03.624,74155.075,-0.257,-0.285,-0.924,-0.011,0.009,0.002,0.081,0.117,-0.049,-0.271,0.289,1.551
2024-10-15 13:50:03.632,74155.085,-0.255,-0.286,-0.924,-0.019,0.009,-0.003,0.08,0.152,-0.03,-0.27,0.29,1.55
2024-10-15 13:50:03.643,74155.095,-0.254,-0.286,-0.924,-0.021,0.007,-0.002,0.043,0.186,0.033,-0.268,0.29,1.55
2024-10-15 13:50:03.653,74155.105,-0.253,-0.286,-0.924,-0.018,0.003,-0.002,-0.112,-0.141,0.458,-0.268,0.29,1.552
2024-10-15 13:50:03.662,74155.115,-0.256,-0.283,-0.924,0.0,-0.017,0.005,-0.312,-0.161,0.027,-0.27,0.287,1.554
2024-10-15 13:50:03.673,74155.125,-0.256,-0.281,-0.925,0.089,-0.089,0.039,-0.108,0.011,-0.067,-0.271,0.285,1.553
2024-10-15 13:50:03.682,74155.135,-0.256,-0.28,-0.925,0.014,-0.049,0.028,-0.017,0.045,0.052,-0.27,0.284,1.553
2024-10-15 13:50:03.692,74155.145,-0.256,-0.28,-0.925,-0.049,0.077,-0.001,0.028,0.067,-0.006,-0.27,0.284,1.553
2024-10-15 13:50:03.702,74155.155,-0.255,-0.281,-0.925,-0.019,0.038,0.001,0.043,0.028,-0.038,-0.269,0.285,1.553
2024-10-15 13:50:03.712,74155.165,-0.255,-0.281,-0.925,-0.007,-0.014,-0.004,0.053,0.022,-0.033,-0.269,0.285,1.553
2024-10-15 13:50:03.723,74155.175,-0.255,-0.282,-0.925,0.012,-0.006,0.009,0.058,0.033,-0.019,-0.269,0.286,1.553
2024-10-15 13:50:03.732,74155.185,-0.254,-0.282,-0.925,-0.004,0.006,0.015,0.027,0.019,-0.02,-0.268,0.286,1.553
2024-10-15 13:50:03.743,74155.195,-0.254,-0.283,-0.925,-0.005,0.004,0.017,-0.015,-0.008,-0.019,-0.268,0.286,1.553
2024-10-15 13:50:03.752,74155.205,-0.254,-0.282,-0.925,0.004,-0.011,0.019,-0.032,-0.01,-0.019,-0.268,0.286,1.552
2024-10-15 13:50:03.762,74155.215,-0.254,-0.282,-0.925,0.003,-0.014,0.016,-0.005,0.007,-0.022,-0.268,0.286,1.552
2024-10-15 13:50:03.773,74155.225,-0.254,-0.282,-0.925,-0.007,0.003,0.009,0.036,0.027,-0.021,-0.268,0.286,1.552
2024-10-15 13:50:03.782,74155.235,-0.254,-0.283,-0.925,-0.016,0.02,0.006,0.065,0.028,-0.027,-0.268,0.287,1.552
2024-10-15 13:50:03.792,74155.245,-0.253,-0.284,-0.925,-0.014,0.024,0.006,0.062,0.041,-0.026,-0.267,0.288,1.552
2024-10-15 13:50:03.802,74155.255,-0.253,-0.284,-0.925,-0.009,0.019,0.006,0.041,0.037,-0.012,-0.267,0.288,1.552
2024-10-15 13:50:03.811,74155.265,-0.253,-0.284,-0.925,-0.006,0.011,0.009,0.016,0.028,0.002,-0.267,0.288,1.552
2024-10-15 13:50:03.821,74155.275,-0.252,-0.285,-0.925,-0.001,0.004,0.015,-0.001,0.022,0.008,-0.266,0.288,1.552
2024-10-15 13:50:03.831,74155.285,-0.252,-0.284,-0.925,0.005,0.0,0.016,-0.004,0.02,0.007,-0.266,0.288,1.552
2024-10-15 13:50:03.841,74155.295,-0.252,-0.285,-0.925,0.005,0.002,0.013,0.009,0.016,-0.002,-0.266,0.289,1.552
2024-10-15 13:50:03.851,74155.305,-0.252,-0.285,-0.925,0.003,0.005,0.012,0.017,0.013,-0.006,-0.266,0.289,1.552
2024-10-15 13:50:03.861,74155.315,-0.252,-0.285,-0.925,0.002,0.006,0.012,0.022,0.011,-0.006,-0.266,0.289,1.552
2024-10-15 13:50:03.871,74155.325,-0.252,-0.285,-0.925,0.0,0.001,0.012,0.023,0.012,-0.01,-0.266,0.289,1.552
2024-10-15 13:50:03.881,74155.335,-0.252,-0.285,-0.925,0.001,-0.004,0.012,0.02,0.006,0.0,-0.266,0.289,1.552
2024-10-15 13:50:03.891,74155.345,-0.252,-0.285,-0.925,0.002,0.001,0.012,0.008,0.0,-0.004,-0.266,0.289,1.552
2024-10-15 13:50:03.901,74155.355,-0.252,-0.285,-0.925,0.006,0.001,0.012,-0.001,0.002,-0.006,-0.266,0.289,1.552
2024-10-15 13:50:03.911,74155.365,-0.252,-0.285,-0.925,0.008,-0.002,0.009,0.007,-0.003,-0.003,-0.266,0.289,1.552
2024-10-15 13:50:03.922,74155.375,-0.252,-0.285,-0.925,0.006,0.003,0.009,0.019,-0.001,-0.006,-0.266,0.289,1.552
2024-10-15 13:50:03.940,74155.385,-0.252,-0.286,-0.925,0.002,0.008,0.007,0.017,0.004,-0.006,-0.266,0.29,1.552
2024-10-15 13:50:03.945,74155.395,-0.252,-0.286,-0.925,0.0,0.005,0.004,0.01,0.011,0.002,-0.266,0.29,1.552
2024-10-15 13:50:03.951,74155.404,-0.252,-0.286,-0.925,-0.003,0.0,0.005,-0.001,0.012,0.0,-0.266,0.29,1.552
2024-10-15 13:50:03.962,74155.414,-0.252,-0.286,-0.925,-0.005,-0.002,0.008,-0.011,0.015,0.004,-0.266,0.29,1.552
2024-10-15 13:50:03.972,74155.424,-0.251,-0.286,-0.925,-0.003,-0.007,0.01,-0.028,0.012,0.003,-0.265,0.29,1.552
2024-10-15 13:50:03.982,74155.434,-0.251,-0.285,-0.925,-0.001,-0.009,0.013,-0.021,0.018,-0.0,-0.265,0.289,1.552
2024-10-15 13:50:03.992,74155.444,-0.251,-0.285,-0.925,0.001,-0.007,0.01,0.006,0.016,-0.009,-0.265,0.289,1.552
2024-10-15 13:50:04.002,74155.454,-0.251,-0.285,-0.925,0.001,0.002,0.007,0.022,0.013,-0.012,-0.265,0.289,1.552
2024-10-15 13:50:04.012,74155.464,-0.251,-0.286,-0.925,0.003,0.012,0.008,0.023,0.019,-0.009,-0.265,0.29,1.552
2024-10-15 13:50:04.022,74155.474,-0.251,-0.286,-0.925,0.003,0.011,0.004,0.015,0.015,0.003,-0.265,0.29,1.552
2024-10-15 13:50:04.032,74155.484,-0.251,-0.286,-0.925,0.001,0.003,0.002,0.001,0.012,0.007,-0.264,0.29,1.552
2024-10-15 13:50:04.042,74155.494,-0.25,-0.286,-0.925,0.003,0.002,0.007,-0.018,0.004,0.012,-0.264,0.29,1.552
2024-10-15 13:50:04.052,74155.504,-0.251,-0.286,-0.925,0.004,-0.001,0.011,-0.025,0.002,0.011,-0.264,0.29,1.552
2024-10-15 13:50:04.062,74155.514,-0.251,-0.285,-0.925,0.006,-0.003,0.013,-0.026,-0.002,0.014,-0.265,0.289,1.552
2024-10-15 13:50:04.072,74155.524,-0.251,-0.285,-0.925,0.004,-0.001,0.013,-0.005,0.003,0.011,-0.265,0.289,1.552
2024-10-15 13:50:04.082,74155.534,-0.251,-0.285,-0.925,0.003,0.005,0.009,0.016,0.01,0.008,-0.265,0.289,1.552
2024-10-15 13:50:04.092,74155.544,-0.251,-0.285,-0.925,0.004,0.008,0.005,0.023,0.004,0.008,-0.265,0.289,1.552
2024-10-15 13:50:04.102,74155.554,-0.251,-0.285,-0.925,0.003,0.006,0.006,0.021,-0.006,0.004,-0.265,0.289,1.552
2024-10-15 13:50:04.111,74155.564,-0.251,-0.286,-0.925,0.006,0.002,0.008,0.021,-0.006,0.003,-0.265,0.29,1.552
2024-10-15 13:50:04.121,74155.574,-0.251,-0.286,-0.925,0.004,-0.001,0.008,0.02,-0.005,0.007,-0.265,0.29,1.552
2024-10-15 13:50:04.131,74155.584,-0.251,-0.286,-0.925,0.001,-0.001,0.007,0.01,-0.003,0.003,-0.265,0.29,1.553
2024-10-15 13:50:04.142,74155.594,-0.251,-0.286,-0.925,-0.001,-0.004,0.005,0.003,-0.008,0.004,-0.265,0.29,1.553
2024-10-15 13:50:04.151,74155.604,-0.251,-0.286,-0.925,-0.002,-0.006,0.004,0.0,-0.004,0.001,-0.265,0.29,1.553
2024-10-15 13:50:04.162,74155.614,-0.251,-0.286,-0.925,-0.003,-0.005,0.004,-0.005,0.003,0.006,-0.265,0.29,1.553
2024-10-15 13:50:04.171,74155.624,-0.251,-0.286,-0.925,-0.003,-0.003,0.005,-0.002,0.007,0.004,-0.265,0.29,1.553
2024-10-15 13:50:04.182,74155.634,-0.251,-0.286,-0.925,-0.001,-0.004,0.007,-0.001,0.009,0.007,-0.265,0.29,1.553
2024-10-15 13:50:04.192,74155.644,-0.251,-0.286,-0.925,0.001,-0.002,0.009,0.007,-0.001,0.003,-0.265,0.29,1.553
2024-10-15 13:50:04.201,74155.654,-0.251,-0.286,-0.925,0.003,-0.0,0.008,0.009,0.01,-0.003,-0.265,0.29,1.553
2024-10-15 13:50:04.211,74155.664,-0.251,-0.286,-0.925,0.0,0.002,0.004,0.013,0.009,0.002,-0.265,0.29,1.553
2024-10-15 13:50:04.221,74155.674,-0.25,-0.286,-0.925,-0.005,0.002,0.001,0.016,0.014,0.001,-0.264,0.29,1.553
2024-10-15 13:50:04.231,74155.684,-0.25,-0.286,-0.925,-0.004,0.004,0.003,0.006,0.012,0.001,-0.264,0.29,1.553
2024-10-15 13:50:04.242,74155.694,-0.25,-0.286,-0.925,-0.002,0.005,0.005,-0.01,0.007,0.011,-0.264,0.29,1.553
2024-10-15 13:50:04.251,74155.704,-0.25,-0.286,-0.925,0.0,0.0,0.007,-0.023,0.007,0.017,-0.264,0.29,1.553
2024-10-15 13:50:04.261,74155.714,-0.25,-0.286,-0.925,0.002,-0.006,0.007,-0.027,0.009,0.022,-0.264,0.29,1.553
2024-10-15 13:50:04.271,74155.724,-0.25,-0.286,-0.925,0.002,-0.004,0.011,-0.015,-0.005,0.018,-0.264,0.29,1.553
2024-10-15 13:50:04.281,74155.734,-0.25,-0.286,-0.925,0.002,-0.002,0.014,-0.009,0.0,0.008,-0.264,0.29,1.553
2024-10-15 13:50:04.291,74155.744,-0.25,-0.286,-0.925,0.005,0.002,0.015,0.01,0.004,0.006,-0.264,0.29,1.554
2024-10-15 13:50:04.301,74155.754,-0.25,-0.286,-0.925,0.002,0.004,0.014,0.009,-0.005,0.003,-0.264,0.29,1.554
2024-10-15 13:50:04.311,74155.764,-0.25,-0.286,-0.925,0.004,0.003,0.013,0.007,-0.01,-0.003,-0.264,0.29,1.554
2024-10-15 13:50:04.321,74155.774,-0.251,-0.286,-0.925,0.009,-0.001,0.014,-0.004,-0.02,-0.01,-0.265,0.29,1.554
2024-10-15 13:50:04.331,74155.784,-0.251,-0.286,-0.925,0.008,-0.002,0.012,-0.007,-0.022,-0.009,-0.265,0.29,1.554
2024-10-15 13:50:04.341,74155.794,-0.251,-0.286,-0.925,0.006,0.002,0.014,-0.013,-0.024,-0.006,-0.265,0.29,1.553
2024-10-15 13:50:04.351,74155.804,-0.251,-0.286,-0.925,0.004,0.006,0.017,-0.02,-0.02,-0.007,-0.265,0.29,1.553
2024-10-15 13:50:04.361,74155.814,-0.251,-0.285,-0.925,0.003,0.007,0.015,-0.029,-0.019,0.003,-0.265,0.289,1.553
2024-10-15 13:50:04.371,74155.824,-0.252,-0.285,-0.925,0.001,0.004,0.013,-0.04,-0.025,0.011,-0.266,0.289,1.553
2024-10-15 13:50:04.381,74155.834,-0.252,-0.284,-0.925,0.002,0.003,0.016,-0.061,-0.02,0.024,-0.266,0.288,1.553
2024-10-15 13:50:04.391,74155.844,-0.252,-0.284,-0.925,0.004,0.0,0.014,-0.073,-0.011,0.03,-0.266,0.288,1.553
2024-10-15 13:50:04.401,74155.854,-0.252,-0.283,-0.925,0.002,-0.007,0.012,-0.085,-0.01,0.03,-0.266,0.287,1.553
2024-10-15 13:50:04.411,74155.864,-0.252,-0.282,-0.926,0.001,-0.009,0.011,-0.1,0.001,0.026,-0.266,0.286,1.553
2024-10-15 13:50:04.421,74155.874,-0.252,-0.281,-0.926,0.004,-0.009,0.013,-0.122,0.002,0.025,-0.266,0.285,1.553
2024-10-15 13:50:04.431,74155.884,-0.252,-0.28,-0.926,0.009,-0.013,0.014,-0.14,-0.002,0.023,-0.266,0.284,1.553
2024-10-15 13:50:04.441,74155.894,-0.253,-0.278,-0.927,0.016,-0.021,0.018,-0.164,-0.008,0.022,-0.266,0.282,1.553
2024-10-15 13:50:04.451,74155.904,-0.253,-0.277,-0.927,0.025,-0.024,0.021,-0.176,-0.009,0.028,-0.266,0.28,1.553
2024-10-15 13:50:04.461,74155.914,-0.253,-0.275,-0.928,0.033,-0.024,0.021,-0.198,-0.003,0.034,-0.266,0.279,1.553
2024-10-15 13:50:04.471,74155.924,-0.253,-0.273,-0.928,0.042,-0.022,0.02,-0.206,-0.009,0.033,-0.266,0.277,1.552
2024-10-15 13:50:04.481,74155.934,-0.253,-0.271,-0.929,0.052,-0.023,0.02,-0.207,-0.014,0.029,-0.266,0.274,1.552
2024-10-15 13:50:04.491,74155.944,-0.253,-0.269,-0.929,0.06,-0.014,0.022,-0.223,-0.04,0.023,-0.266,0.272,1.552
2024-10-15 13:50:04.501,74155.954,-0.254,-0.267,-0.93,0.067,-0.008,0.025,-0.207,-0.033,0.003,-0.267,0.27,1.551
2024-10-15 13:50:04.511,74155.964,-0.254,-0.265,-0.93,0.07,-0.003,0.018,-0.216,-0.021,-0.016,-0.267,0.268,1.551
2024-10-15 13:50:04.521,74155.974,-0.254,-0.263,-0.931,0.069,-0.024,0.007,-0.253,-0.008,0.009,-0.267,0.266,1.55
2024-10-15 13:50:04.531,74155.984,-0.254,-0.261,-0.931,0.07,-0.045,-0.005,-0.282,-0.012,0.031,-0.267,0.264,1.549
2024-10-15 13:50:04.541,74155.993,-0.254,-0.258,-0.932,0.076,-0.045,-0.019,-0.279,-0.002,0.041,-0.266,0.261,1.549
2024-10-15 13:50:04.551,74156.003,-0.254,-0.255,-0.933,0.081,-0.037,-0.029,-0.273,-0.003,0.036,-0.266,0.258,1.549
2024-10-15 13:50:04.561,74156.013,-0.254,-0.253,-0.934,0.093,-0.02,-0.022,-0.292,0.003,0.022,-0.266,0.255,1.548
2024-10-15 13:50:04.571,74156.023,-0.254,-0.25,-0.934,0.109,-0.013,-0.007,-0.382,0.02,0.034,-0.266,0.252,1.547
2024-10-15 13:50:04.581,74156.033,-0.254,-0.245,-0.936,0.123,-0.017,0.001,-0.477,0.018,0.062,-0.265,0.248,1.547
2024-10-15 13:50:04.591,74156.043,-0.254,-0.241,-0.937,0.128,-0.029,0.004,-0.503,0.016,0.035,-0.265,0.243,1.546
2024-10-15 13:50:04.601,74156.053,-0.254,-0.236,-0.938,0.134,-0.035,-0.009,-0.452,0.051,0.005,-0.264,0.238,1.545
2024-10-15 13:50:04.611,74156.063,-0.253,-0.232,-0.939,0.128,-0.023,-0.032,-0.345,0.072,0.014,-0.263,0.235,1.544
2024-10-15 13:50:04.621,74156.073,-0.252,-0.23,-0.94,0.115,0.002,-0.043,-0.232,0.07,0.017,-0.262,0.232,1.543
2024-10-15 13:50:04.631,74156.083,-0.252,-0.228,-0.941,0.115,0.015,-0.05,-0.175,0.091,0.028,-0.261,0.23,1.543
2024-10-15 13:50:04.641,74156.093,-0.251,-0.226,-0.941,0.12,0.02,-0.065,-0.191,0.151,0.062,-0.26,0.228,1.543
2024-10-15 13:50:04.650,74156.103,-0.249,-0.224,-0.942,0.117,0.02,-0.07,-0.276,0.186,0.117,-0.259,0.226,1.543
2024-10-15 13:50:04.661,74156.113,-0.248,-0.22,-0.943,0.121,0.016,-0.055,-0.363,0.173,0.146,-0.257,0.222,1.544
2024-10-15 13:50:04.671,74156.123,-0.247,-0.216,-0.945,0.14,0.014,-0.037,-0.399,0.163,0.11,-0.255,0.218,1.544
2024-10-15 13:50:04.681,74156.133,-0.245,-0.212,-0.946,0.16,0.006,-0.038,-0.396,0.161,0.103,-0.254,0.214,1.544
2024-10-15 13:50:04.691,74156.143,-0.244,-0.208,-0.947,0.178,0.005,-0.046,-0.371,0.166,0.111,-0.252,0.21,1.544
2024-10-15 13:50:04.701,74156.153,-0.243,-0.205,-0.948,0.185,-0.0,-0.056,-0.314,0.175,0.128,-0.25,0.206,1.544
2024-10-15 13:50:04.711,74156.163,-0.241,-0.202,-0.949,0.176,-0.015,-0.072,-0.268,0.198,0.139,-0.249,0.203,1.545
2024-10-15 13:50:04.720,74156.173,-0.239,-0.199,-0.95,0.163,-0.021,-0.077,-0.274,0.21,0.154,-0.247,0.2,1.546
2024-10-15 13:50:04.730,74156.183,-0.238,-0.195,-0.951,0.147,-0.024,-0.068,-0.369,0.19,0.166,-0.245,0.197,1.546
2024-10-15 13:50:04.740,74156.193,-0.237,-0.191,-0.953,0.141,-0.056,-0.051,-0.556,0.13,0.188,-0.243,0.192,1.547
2024-10-15 13:50:04.750,74156.203,-0.236,-0.184,-0.954,0.139,-0.104,-0.032,-0.802,0.093,0.263,-0.242,0.185,1.548
2024-10-15 13:50:04.761,74156.213,-0.236,-0.174,-0.956,0.123,-0.127,-0.01,-1.077,0.088,0.368,-0.242,0.175,1.548
2024-10-15 13:50:04.771,74156.223,-0.236,-0.162,-0.958,0.094,-0.12,0.012,-1.35,0.085,0.415,-0.241,0.162,1.549
2024-10-15 13:50:04.780,74156.233,-0.235,-0.146,-0.961,0.082,-0.112,0.017,-1.599,0.067,0.419,-0.24,0.147,1.55
2024-10-15 13:50:04.791,74156.243,-0.236,-0.13,-0.963,0.092,-0.144,0.019,-1.669,-0.059,0.312,-0.24,0.13,1.55
2024-10-15 13:50:04.800,74156.253,-0.237,-0.114,-0.965,0.097,-0.18,0.009,-1.461,-0.108,0.127,-0.241,0.114,1.548
2024-10-15 13:50:04.810,74156.263,-0.238,-0.101,-0.966,0.084,-0.132,-0.021,-1.09,-0.074,0.022,-0.242,0.102,1.546
2024-10-15 13:50:04.820,74156.273,-0.239,-0.093,-0.967,0.04,-0.019,-0.025,-0.721,-0.054,-0.049,-0.242,0.093,1.543
2024-10-15 13:50:04.830,74156.283,-0.239,-0.087,-0.967,-0.019,0.044,-0.036,-0.506,-0.013,-0.086,-0.242,0.087,1.541
2024-10-15 13:50:04.840,74156.293,-0.239,-0.083,-0.968,-0.059,0.022,-0.053,-0.465,0.024,-0.078,-0.242,0.083,1.539
2024-10-15 13:50:04.850,74156.303,-0.238,-0.078,-0.968,-0.084,-0.029,-0.054,-0.53,0.01,-0.057,-0.242,0.078,1.536
2024-10-15 13:50:04.860,74156.313,-0.238,-0.073,-0.968,-0.098,-0.067,-0.042,-0.63,0.001,-0.054,-0.241,0.073,1.534
2024-10-15 13:50:04.870,74156.323,-0.239,-0.067,-0.969,-0.1,-0.067,-0.021,-0.657,-0.09,-0.103,-0.242,0.067,1.532
2024-10-15 13:50:04.880,74156.333,-0.24,-0.061,-0.969,-0.115,-0.064,-0.006,-0.66,-0.151,-0.152,-0.243,0.061,1.529
2024-10-15 13:50:04.891,74156.343,-0.241,-0.055,-0.969,-0.134,-0.041,-0.012,-0.634,-0.141,-0.154,-0.244,0.055,1.526
2024-10-15 13:50:04.900,74156.353,-0.242,-0.049,-0.969,-0.182,0.023,-0.018,-0.595,-0.101,-0.122,-0.245,0.049,1.523
2024-10-15 13:50:04.910,74156.363,-0.243,-0.043,-0.969,-0.249,0.052,-0.027,-0.611,-0.085,-0.054,-0.246,0.043,1.521
2024-10-15 13:50:04.920,74156.373,-0.244,-0.037,-0.969,-0.28,0.049,-0.026,-0.659,-0.09,-0.001,-0.247,0.037,1.519
2024-10-15 13:50:04.930,74156.383,-0.245,-0.031,-0.969,-0.271,0.055,-0.01,-0.717,-0.123,0.048,-0.248,0.031,1.517
2024-10-15 13:50:04.940,74156.393,-0.246,-0.023,-0.969,-0.259,0.063,0.006,-0.769,-0.175,0.092,-0.249,0.023,1.516
2024-10-15 13:50:04.950,74156.403,-0.248,-0.015,-0.969,-0.256,0.096,0.011,-0.781,-0.218,0.133,-0.251,0.015,1.515
2024-10-15 13:50:04.960,74156.413,-0.25,-0.007,-0.968,-0.272,0.144,0.02,-0.786,-0.194,0.212,-0.253,0.007,1.515
2024-10-15 13:50:04.970,74156.423,-0.252,0.001,-0.968,-0.308,0.154,0.028,-0.794,-0.145,0.314,-0.255,-0.001,1.516
2024-10-15 13:50:04.980,74156.433,-0.253,0.01,-0.967,-0.335,0.125,0.032,-0.874,-0.085,0.472,-0.256,-0.01,1.517
2024-10-15 13:50:04.990,74156.443,-0.254,0.02,-0.967,-0.328,0.083,0.051,-0.957,-0.227,0.592,-0.257,-0.02,1.52
2024-10-15 13:50:05.000,74156.453,-0.257,0.032,-0.966,-0.297,0.1,0.092,-1.106,-0.322,0.673,-0.26,-0.032,1.524
2024-10-15 13:50:05.010,74156.463,-0.26,0.045,-0.965,-0.254,0.219,0.105,-1.357,-0.285,0.744,-0.263,-0.045,1.527
2024-10-15 13:50:05.021,74156.473,-0.262,0.062,-0.963,-0.287,0.293,0.054,-1.822,-0.328,0.845,-0.266,-0.062,1.531
2024-10-15 13:50:05.030,74156.483,-0.265,0.085,-0.96,-0.376,0.148,-0.03,-2.333,-0.449,1.051,-0.269,-0.085,1.534
2024-10-15 13:50:05.040,74156.493,-0.269,0.112,-0.957,-0.398,-0.108,-0.036,-2.708,-0.565,1.266,-0.274,-0.112,1.539
2024-10-15 13:50:05.050,74156.503,-0.273,0.142,-0.952,-0.305,-0.202,0.075,-2.694,-0.515,1.258,-0.279,-0.142,1.544
2024-10-15 13:50:05.060,74156.513,-0.275,0.168,-0.947,-0.183,-0.041,0.268,-2.228,-0.338,1.041,-0.283,-0.169,1.548
2024-10-15 13:50:05.070,74156.523,-0.276,0.188,-0.943,-0.112,0.128,0.385,-1.388,-0.261,0.813,-0.285,-0.189,1.552
2024-10-15 13:50:05.080,74156.533,-0.277,0.199,-0.94,-0.066,0.193,0.402,-0.643,-0.305,0.655,-0.287,-0.201,1.556
2024-10-15 13:50:05.090,74156.543,-0.278,0.205,-0.938,-0.018,0.245,0.382,-0.204,-0.211,0.491,-0.288,-0.206,1.56
2024-10-15 13:50:05.100,74156.553,-0.278,0.207,-0.938,-0.027,0.285,0.355,-0.078,0.036,0.501,-0.288,-0.209,1.565
2024-10-15 13:50:05.109,74156.563,-0.276,0.21,-0.938,-0.105,0.218,0.333,-0.107,0.193,0.543,-0.286,-0.211,1.57
2024-10-15 13:50:05.119,74156.573,-0.272,0.212,-0.938,-0.161,0.105,0.286,-0.163,0.353,0.567,-0.282,-0.214,1.575
2024-10-15 13:50:05.129,74156.582,-0.267,0.216,-0.939,-0.141,0.018,0.253,-0.321,0.493,0.621,-0.277,-0.218,1.58
2024-10-15 13:50:05.140,74156.592,-0.261,0.222,-0.939,-0.063,-0.049,0.227,-0.555,0.489,0.746,-0.271,-0.224,1.585
2024-10-15 13:50:05.149,74156.602,-0.255,0.23,-0.939,0.018,-0.136,0.205,-0.747,0.352,0.836,-0.265,-0.232,1.591
2024-10-15 13:50:05.160,74156.612,-0.251,0.24,-0.938,0.103,-0.195,0.194,-0.841,0.125,0.8,-0.261,-0.242,1.597
2024-10-15 13:50:05.169,74156.622,-0.249,0.25,-0.936,0.181,-0.199,0.166,-1.017,-0.152,0.707,-0.26,-0.253,1.603
2024-10-15 13:50:05.180,74156.632,-0.25,0.262,-0.932,0.229,-0.18,0.128,-1.219,-0.366,0.612,-0.262,-0.266,1.606
2024-10-15 13:50:05.190,74156.642,-0.252,0.276,-0.927,0.22,-0.167,0.092,-1.378,-0.448,0.541,-0.266,-0.28,1.608
2024-10-15 13:50:05.200,74156.652,-0.255,0.289,-0.923,0.16,-0.183,0.055,-0.992,-0.493,0.474,-0.27,-0.293,1.61
2024-10-15 13:50:05.210,74156.662,-0.257,0.297,-0.92,0.086,-0.171,0.018,-0.78,-0.174,0.048,-0.273,-0.301,1.611
2024-10-15 13:50:05.220,74156.672,-0.256,0.301,-0.918,0.019,-0.048,-0.093,-0.304,0.351,0.126,-0.272,-0.306,1.61
2024-10-15 13:50:05.230,74156.682,-0.251,0.308,-0.918,-0.119,0.011,-0.271,-1.055,0.609,0.502,-0.267,-0.313,1.611
2024-10-15 13:50:05.240,74156.692,-0.243,0.323,-0.915,-0.183,-0.206,-0.246,-1.709,0.705,0.688,-0.26,-0.329,1.613
2024-10-15 13:50:05.250,74156.702,-0.235,0.341,-0.91,-0.165,-0.268,-0.254,-1.747,0.573,0.855,-0.252,-0.348,1.617
2024-10-15 13:50:05.260,74156.712,-0.227,0.357,-0.906,-0.103,-0.305,-0.254,-1.409,0.441,0.658,-0.246,-0.365,1.621
2024-10-15 13:50:05.271,74156.722,-0.222,0.369,-0.903,-0.018,-0.071,-0.252,-0.961,0.406,0.317,-0.241,-0.378,1.623
2024-10-15 13:50:05.280,74156.732,-0.218,0.375,-0.901,-0.044,0.132,-0.211,-0.406,0.359,0.069,-0.237,-0.385,1.623
2024-10-15 13:50:05.289,74156.742,-0.214,0.376,-0.901,-0.115,0.145,-0.227,0.105,0.533,-0.048,-0.233,-0.386,1.623
2024-10-15 13:50:05.299,74156.752,-0.208,0.374,-0.904,-0.162,0.077,-0.228,0.294,0.688,-0.134,-0.227,-0.384,1.622
2024-10-15 13:50:05.310,74156.762,-0.202,0.372,-0.906,-0.199,-0.015,-0.171,0.171,0.781,-0.096,-0.22,-0.381,1.621
2024-10-15 13:50:05.319,74156.772,-0.195,0.371,-0.908,-0.243,-0.138,-0.158,-0.044,0.747,0.007,-0.212,-0.38,1.621
2024-10-15 13:50:05.329,74156.782,-0.189,0.372,-0.909,-0.251,-0.215,-0.092,-0.204,0.774,0.02,-0.205,-0.382,1.621
2024-10-15 13:50:05.339,74156.792,-0.181,0.375,-0.909,-0.239,-0.202,-0.046,-0.308,0.832,-0.041,-0.197,-0.384,1.62
2024-10-15 13:50:05.349,74156.802,-0.174,0.377,-0.91,-0.243,-0.147,-0.036,-0.2,0.832,-0.128,-0.189,-0.387,1.619
2024-10-15 13:50:05.359,74156.812,-0.167,0.377,-0.911,-0.253,-0.089,-0.046,0.068,0.831,-0.28,-0.182,-0.387,1.617
2024-10-15 13:50:05.369,74156.822,-0.161,0.374,-0.913,-0.247,-0.047,-0.084,0.469,0.868,-0.438,-0.174,-0.384,1.613
2024-10-15 13:50:05.379,74156.832,-0.154,0.367,-0.917,-0.244,-0.01,-0.083,0.902,0.97,-0.595,-0.167,-0.376,1.609
2024-10-15 13:50:05.389,74156.842,-0.147,0.357,-0.922,-0.247,0.003,-0.063,1.061,1.117,-0.785,-0.158,-0.365,1.602
2024-10-15 13:50:05.400,74156.852,-0.14,0.347,-0.928,-0.268,-0.022,-0.059,0.918,1.222,-0.926,-0.149,-0.354,1.593
2024-10-15 13:50:05.409,74156.862,-0.131,0.338,-0.932,-0.295,-0.095,-0.067,0.552,1.225,-1.016,-0.14,-0.345,1.582
2024-10-15 13:50:05.419,74156.872,-0.124,0.334,-0.934,-0.293,-0.234,-0.078,0.106,1.178,-1.028,-0.132,-0.341,1.57
2024-10-15 13:50:05.429,74156.882,-0.116,0.334,-0.936,-0.258,-0.354,-0.077,-0.298,1.196,-1.052,-0.124,-0.34,1.559
2024-10-15 13:50:05.439,74156.892,-0.108,0.337,-0.935,-0.219,-0.388,-0.062,-0.713,1.265,-1.036,-0.115,-0.344,1.545
2024-10-15 13:50:05.449,74156.902,-0.1,0.344,-0.934,-0.204,-0.391,-0.023,-0.909,1.178,-0.999,-0.107,-0.351,1.532
2024-10-15 13:50:05.459,74156.912,-0.093,0.351,-0.932,-0.193,-0.367,0.048,-0.716,1.084,-1.131,-0.1,-0.358,1.518
2024-10-15 13:50:05.469,74156.922,-0.087,0.354,-0.931,-0.157,-0.27,0.08,-0.33,1.098,-1.302,-0.094,-0.362,1.503
2024-10-15 13:50:05.479,74156.932,-0.082,0.355,-0.931,-0.121,-0.15,0.088,-0.021,1.204,-1.483,-0.088,-0.363,1.487
2024-10-15 13:50:05.489,74156.942,-0.075,0.353,-0.933,-0.113,-0.078,0.079,0.212,1.354,-1.603,-0.081,-0.36,1.469
2024-10-15 13:50:05.499,74156.952,-0.068,0.349,-0.935,-0.136,-0.079,0.054,0.222,1.427,-1.62,-0.073,-0.357,1.451
2024-10-15 13:50:05.509,74156.962,-0.06,0.347,-0.936,-0.142,-0.118,0.026,0.086,1.412,-1.621,-0.064,-0.354,1.434
2024-10-15 13:50:05.519,74156.972,-0.053,0.346,-0.937,-0.099,-0.151,0.037,-0.003,1.35,-1.661,-0.057,-0.353,1.415
2024-10-15 13:50:05.529,74156.982,-0.046,0.345,-0.937,-0.04,-0.16,0.051,-0.117,1.327,-1.693,-0.049,-0.353,1.396
2024-10-15 13:50:05.539,74156.992,-0.04,0.346,-0.937,0.013,-0.136,0.062,-0.272,1.31,-1.679,-0.042,-0.354,1.376
2024-10-15 13:50:05.549,74157.002,-0.033,0.349,-0.936,0.054,-0.109,0.084,-0.511,1.293,-1.644,-0.036,-0.357,1.357
2024-10-15 13:50:05.559,74157.012,-0.027,0.355,-0.934,0.07,-0.111,0.109,-0.79,1.259,-1.6,-0.029,-0.363,1.339
2024-10-15 13:50:05.569,74157.022,-0.021,0.364,-0.931,0.076,-0.109,0.144,-1.147,1.201,-1.468,-0.023,-0.372,1.322
2024-10-15 13:50:05.579,74157.032,-0.015,0.376,-0.927,0.082,-0.116,0.169,-1.548,1.186,-1.295,-0.016,-0.385,1.306
2024-10-15 13:50:05.590,74157.042,-0.009,0.392,-0.92,0.084,-0.103,0.161,-1.926,1.232,-1.108,-0.01,-0.402,1.292
2024-10-15 13:50:05.599,74157.052,-0.001,0.411,-0.912,0.065,-0.058,0.129,-2.232,1.299,-0.94,-0.001,-0.423,1.28
2024-10-15 13:50:05.609,74157.062,0.007,0.432,-0.902,0.049,0.008,0.084,-2.45,1.404,-0.807,0.008,-0.447,1.27
2024-10-15 13:50:05.619,74157.072,0.017,0.455,-0.89,0.041,0.062,0.061,-2.611,1.562,-0.684,0.019,-0.472,1.262
2024-10-15 13:50:05.629,74157.082,0.029,0.478,-0.878,0.05,0.077,0.073,-2.757,1.729,-0.534,0.033,-0.499,1.256
2024-10-15 13:50:05.639,74157.092,0.042,0.503,-0.863,0.073,0.056,0.111,-2.95,1.825,-0.38,0.049,-0.528,1.252
2024-10-15 13:50:05.649,74157.102,0.056,0.53,-0.846,0.118,0.027,0.175,-3.145,1.847,-0.223,0.066,-0.558,1.25
2024-10-15 13:50:05.659,74157.112,0.07,0.557,-0.828,0.18,-0.001,0.216,-3.295,1.728,-0.116,0.085,-0.59,1.251
2024-10-15 13:50:05.669,74157.122,0.083,0.584,-0.807,0.243,-0.039,0.211,-3.464,1.561,-0.017,0.103,-0.624,1.254
2024-10-15 13:50:05.679,74157.132,0.095,0.613,-0.785,0.29,-0.073,0.19,-3.711,1.348,-0.016,0.12,-0.659,1.259
2024-10-15 13:50:05.689,74157.142,0.106,0.642,-0.759,0.301,-0.062,0.176,-3.882,1.257,0.066,0.138,-0.698,1.266
2024-10-15 13:50:05.699,74157.152,0.115,0.671,-0.732,0.264,-0.03,0.183,-3.965,1.139,0.145,0.156,-0.736,1.275
2024-10-15 13:50:05.708,74157.162,0.124,0.7,-0.703,0.246,-0.022,0.18,-4.029,1.044,0.152,0.175,-0.775,1.286
2024-10-15 13:50:05.718,74157.171,0.132,0.728,-0.673,0.234,-0.031,0.166,-4.036,0.941,0.046,0.193,-0.815,1.298
2024-10-15 13:50:05.728,74157.181,0.137,0.754,-0.643,0.209,-0.014,0.175,-3.919,0.731,-0.077,0.21,-0.854,1.31
2024-10-15 13:50:05.739,74157.191,0.14,0.777,-0.613,0.181,0.025,0.185,-3.535,0.538,-0.153,0.225,-0.891,1.32
2024-10-15 13:50:05.749,74157.201,0.142,0.797,-0.587,0.158,0.147,0.215,-2.828,0.478,-0.192,0.237,-0.922,1.329
2024-10-15 13:50:05.759,74157.211,0.143,0.811,-0.567,0.12,0.333,0.216,-2.004,0.505,-0.248,0.247,-0.946,1.336
2024-10-15 13:50:05.769,74157.221,0.143,0.82,-0.554,0.065,0.494,0.173,-1.186,0.498,-0.33,0.253,-0.962,1.338
2024-10-15 13:50:05.779,74157.231,0.143,0.826,-0.546,0.009,0.567,0.11,-0.562,0.366,-0.365,0.256,-0.971,1.335
2024-10-15 13:50:05.789,74157.241,0.141,0.828,-0.543,-0.012,0.544,0.065,-0.189,0.092,-0.332,0.255,-0.976,1.331
2024-10-15 13:50:05.798,74157.251,0.138,0.829,-0.542,0.008,0.488,0.043,0.139,-0.168,-0.279,0.25,-0.977,1.326
2024-10-15 13:50:05.808,74157.261,0.135,0.827,-0.545,0.042,0.443,0.043,0.466,-0.326,-0.222,0.243,-0.974,1.32
2024-10-15 13:50:05.818,74157.271,0.131,0.824,-0.55,0.052,0.404,0.073,0.644,-0.385,-0.24,0.234,-0.969,1.314
2024-10-15 13:50:05.828,74157.281,0.127,0.821,-0.557,0.039,0.359,0.101,0.727,-0.414,-0.313,0.224,-0.963,1.306
2024-10-15 13:50:05.838,74157.291,0.122,0.817,-0.563,0.011,0.27,0.131,0.738,-0.546,-0.279,0.213,-0.957,1.298
2024-10-15 13:50:05.849,74157.301,0.116,0.814,-0.569,0.004,0.11,0.124,0.557,-0.763,-0.136,0.201,-0.951,1.293
2024-10-15 13:50:05.858,74157.311,0.111,0.811,-0.574,0.045,-0.025,0.114,0.432,-0.99,-0.031,0.19,-0.946,1.29
2024-10-15 13:50:05.869,74157.321,0.104,0.808,-0.579,0.088,-0.047,0.128,0.515,-1.163,-0.036,0.178,-0.942,1.288
2024-10-15 13:50:05.878,74157.331,0.097,0.805,-0.585,0.087,-0.018,0.087,0.579,-1.268,-0.082,0.164,-0.936,1.285
2024-10-15 13:50:05.889,74157.341,0.088,0.802,-0.591,0.064,0.008,0.034,0.605,-1.304,-0.058,0.148,-0.931,1.282
2024-10-15 13:50:05.898,74157.351,0.08,0.798,-0.597,0.043,0.036,0.053,0.802,-1.236,-0.101,0.133,-0.924,1.28
2024-10-15 13:50:05.908,74157.361,0.072,0.793,-0.605,0.019,0.062,0.093,0.985,-1.049,-0.214,0.119,-0.915,1.275
2024-10-15 13:50:05.919,74157.371,0.064,0.786,-0.615,-0.027,0.095,0.084,1.381,-0.912,-0.306,0.104,-0.904,1.269
2024-10-15 13:50:05.929,74157.381,0.057,0.776,-0.628,-0.062,0.143,0.049,1.796,-0.784,-0.218,0.09,-0.888,1.262
2024-10-15 13:50:05.938,74157.391,0.051,0.764,-0.643,-0.046,0.122,0.008,1.859,-0.618,-0.147,0.079,-0.87,1.257
2024-10-15 13:50:05.949,74157.401,0.046,0.753,-0.656,-0.015,0.12,0.009,1.544,-0.436,-0.108,0.071,-0.853,1.253
2024-10-15 13:50:05.959,74157.411,0.044,0.745,-0.666,-0.018,0.083,0.0,1.083,-0.25,0.016,0.066,-0.84,1.251
2024-10-15 13:50:05.968,74157.421,0.043,0.739,-0.673,-0.024,-0.028,-0.031,0.663,-0.092,0.148,0.064,-0.831,1.251
2024-10-15 13:50:05.978,74157.431,0.045,0.735,-0.676,-0.012,-0.13,-0.072,0.376,0.031,0.29,0.066,-0.826,1.254
2024-10-15 13:50:05.989,74157.441,0.048,0.733,-0.678,0.006,-0.192,-0.112,0.207,0.136,0.401,0.07,-0.823,1.259
2024-10-15 13:50:05.999,74157.451,0.052,0.731,-0.68,0.027,-0.196,-0.119,0.242,0.195,0.402,0.076,-0.82,1.264
2024-10-15 13:50:06.009,74157.461,0.056,0.729,-0.682,0.041,-0.136,-0.13,0.348,0.352,0.294,0.082,-0.817,1.269
2024-10-15 13:50:06.018,74157.471,0.061,0.726,-0.685,0.024,-0.018,-0.14,0.603,0.484,0.225,0.089,-0.812,1.272
2024-10-15 13:50:06.028,74157.481,0.066,0.721,-0.69,-0.027,0.078,-0.13,0.901,0.586,0.191,0.096,-0.805,1.274
2024-10-15 13:50:06.039,74157.491,0.072,0.713,-0.698,-0.06,0.086,-0.151,1.305,0.701,0.109,0.103,-0.794,1.275
2024-10-15 13:50:06.048,74157.501,0.078,0.703,-0.707,-0.081,0.117,-0.145,1.54,0.834,0.012,0.109,-0.779,1.274
2024-10-15 13:50:06.058,74157.511,0.084,0.692,-0.717,-0.098,0.121,-0.132,1.477,0.838,-0.034,0.116,-0.764,1.271
2024-10-15 13:50:06.069,74157.521,0.089,0.682,-0.726,-0.092,0.066,-0.115,1.217,0.596,-0.014,0.121,-0.751,1.268
2024-10-15 13:50:06.078,74157.531,0.092,0.674,-0.733,-0.039,-0.053,-0.06,0.954,0.414,-0.002,0.125,-0.74,1.267
2024-10-15 13:50:06.088,74157.541,0.095,0.668,-0.738,0.019,-0.12,0.001,0.833,0.53,-0.02,0.128,-0.731,1.265
2024-10-15 13:50:06.098,74157.551,0.099,0.662,-0.743,-0.016,-0.047,0.031,0.866,0.545,0.04,0.133,-0.723,1.263
2024-10-15 13:50:06.108,74157.561,0.104,0.656,-0.748,-0.092,-0.021,0.057,0.674,0.456,0.102,0.138,-0.715,1.263
2024-10-15 13:50:06.118,74157.571,0.108,0.651,-0.751,-0.075,-0.072,0.055,0.557,0.429,0.102,0.142,-0.709,1.263
2024-10-15 13:50:06.128,74157.581,0.111,0.647,-0.755,-0.027,-0.001,0.065,0.606,0.392,0.108,0.146,-0.703,1.264
2024-10-15 13:50:06.138,74157.591,0.115,0.642,-0.758,-0.02,0.021,0.077,0.656,0.293,0.108,0.15,-0.697,1.264
2024-10-15 13:50:06.148,74157.601,0.117,0.636,-0.763,-0.003,0.006,0.074,0.762,0.222,0.043,0.152,-0.69,1.263
2024-10-15 13:50:06.158,74157.611,0.119,0.63,-0.768,0.021,0.047,0.078,0.954,0.243,-0.028,0.154,-0.681,1.262
2024-10-15 13:50:06.168,74157.621,0.121,0.621,-0.774,0.037,0.115,0.057,1.198,0.276,-0.086,0.154,-0.671,1.259
2024-10-15 13:50:06.178,74157.631,0.122,0.612,-0.781,0.04,0.159,0.049,1.266,0.231,-0.094,0.155,-0.659,1.255
2024-10-15 13:50:06.188,74157.641,0.123,0.602,-0.789,0.046,0.136,0.052,1.158,0.225,-0.086,0.155,-0.647,1.252
2024-10-15 13:50:06.198,74157.651,0.125,0.594,-0.795,0.052,0.099,0.072,0.921,0.224,-0.067,0.155,-0.636,1.249
2024-10-15 13:50:06.208,74157.661,0.126,0.588,-0.799,0.024,0.054,0.081,0.647,0.17,0.004,0.156,-0.629,1.247
2024-10-15 13:50:06.218,74157.671,0.127,0.584,-0.802,0.015,-0.023,0.085,0.445,0.131,0.069,0.157,-0.623,1.246
2024-10-15 13:50:06.228,74157.681,0.129,0.58,-0.804,0.026,-0.06,0.089,0.38,0.119,0.104,0.159,-0.619,1.247
2024-10-15 13:50:06.238,74157.691,0.13,0.577,-0.806,0.015,-0.028,0.091,0.392,0.109,0.087,0.16,-0.615,1.247
2024-10-15 13:50:06.248,74157.701,0.131,0.574,-0.808,-0.003,0.016,0.079,0.446,0.083,0.067,0.161,-0.611,1.247
2024-10-15 13:50:06.258,74157.711,0.133,0.57,-0.811,-0.006,0.046,0.068,0.508,0.088,0.061,0.162,-0.606,1.247
2024-10-15 13:50:06.268,74157.721,0.134,0.565,-0.814,-0.004,0.061,0.063,0.549,0.122,0.053,0.163,-0.601,1.247
2024-10-15 13:50:06.278,74157.731,0.135,0.561,-0.817,-0.014,0.069,0.051,0.486,0.15,0.042,0.164,-0.596,1.246
2024-10-15 13:50:06.288,74157.741,0.136,0.558,-0.819,-0.025,0.029,0.036,0.361,0.078,0.062,0.165,-0.591,1.246
2024-10-15 13:50:06.298,74157.751,0.137,0.555,-0.821,-0.014,-0.046,0.02,0.341,0.016,0.077,0.165,-0.588,1.246
2024-10-15 13:50:06.307,74157.76,0.138,0.552,-0.823,0.009,-0.075,0.011,0.328,0.01,0.101,0.166,-0.584,1.247
2024-10-15 13:50:06.317,74157.77,0.138,0.549,-0.824,0.005,-0.039,0.013,0.287,-0.005,0.158,0.166,-0.581,1.247
2024-10-15 13:50:06.327,74157.78,0.139,0.547,-0.826,-0.017,-0.007,0.023,0.281,-0.057,0.185,0.167,-0.578,1.249
2024-10-15 13:50:06.338,74157.79,0.139,0.544,-0.828,-0.024,0.008,0.035,0.306,-0.087,0.182,0.167,-0.575,1.251
2024-10-15 13:50:06.348,74157.8,0.14,0.541,-0.829,-0.003,0.048,0.045,0.367,-0.05,0.188,0.167,-0.571,1.252
2024-10-15 13:50:06.358,74157.81,0.141,0.537,-0.832,0.01,0.108,0.036,0.368,-0.014,0.242,0.168,-0.567,1.254
2024-10-15 13:50:06.368,74157.82,0.142,0.534,-0.833,0.006,0.112,0.018,0.271,-0.03,0.312,0.169,-0.564,1.256
2024-10-15 13:50:06.378,74157.83,0.143,0.532,-0.834,0.012,0.064,0.019,0.112,-0.072,0.366,0.17,-0.561,1.26
2024-10-15 13:50:06.388,74157.84,0.145,0.531,-0.835,0.029,0.007,0.044,-0.034,-0.134,0.418,0.172,-0.56,1.264
2024-10-15 13:50:06.398,74157.85,0.145,0.531,-0.835,0.036,-0.039,0.064,-0.088,-0.214,0.402,0.173,-0.56,1.269
2024-10-15 13:50:06.407,74157.86,0.145,0.531,-0.835,0.034,-0.052,0.072,-0.051,-0.251,0.341,0.173,-0.56,1.274
2024-10-15 13:50:06.417,74157.87,0.145,0.531,-0.835,0.029,-0.026,0.068,0.066,-0.242,0.264,0.172,-0.56,1.277
2024-10-15 13:50:06.428,74157.88,0.144,0.529,-0.836,0.019,0.016,0.069,0.213,-0.19,0.221,0.171,-0.558,1.28
2024-10-15 13:50:06.438,74157.89,0.144,0.527,-0.837,0.002,0.034,0.054,0.219,-0.222,0.208,0.17,-0.555,1.282
2024-10-15 13:50:06.447,74157.9,0.143,0.525,-0.839,0.002,0.028,0.033,0.203,-0.27,0.211,0.169,-0.553,1.284
2024-10-15 13:50:06.457,74157.91,0.142,0.523,-0.84,0.025,-0.016,0.03,0.18,-0.289,0.171,0.167,-0.551,1.286
2024-10-15 13:50:06.467,74157.92,0.14,0.522,-0.841,0.034,-0.027,0.044,0.047,-0.351,0.172,0.165,-0.549,1.287
2024-10-15 13:50:06.478,74157.93,0.137,0.522,-0.842,0.031,-0.024,0.072,-0.043,-0.428,0.163,0.162,-0.549,1.289
2024-10-15 13:50:06.489,74157.94,0.134,0.522,-0.842,0.05,-0.054,0.1,-0.067,-0.45,0.15,0.158,-0.549,1.291
2024-10-15 13:50:06.497,74157.95,0.131,0.522,-0.842,0.066,-0.063,0.104,-0.06,-0.453,0.097,0.155,-0.55,1.293
2024-10-15 13:50:06.507,74157.96,0.128,0.523,-0.843,0.059,-0.011,0.093,-0.054,-0.481,0.038,0.15,-0.55,1.294
2024-10-15 13:50:06.518,74157.97,0.124,0.523,-0.843,0.049,0.015,0.08,0.019,-0.475,-0.043,0.146,-0.55,1.294
2024-10-15 13:50:06.528,74157.98,0.119,0.523,-0.844,0.036,0.012,0.058,0.119,-0.42,-0.124,0.141,-0.55,1.293
2024-10-15 13:50:06.537,74157.99,0.115,0.521,-0.846,0.016,0.027,0.037,0.305,-0.389,-0.177,0.135,-0.548,1.291
2024-10-15 13:50:06.547,74158.0,0.111,0.518,-0.848,-0.001,0.008,-0.0,0.336,-0.435,-0.13,0.13,-0.545,1.288
2024-10-15 13:50:06.557,74158.01,0.106,0.516,-0.85,-0.001,-0.055,-0.051,0.23,-0.545,-0.074,0.124,-0.542,1.287
2024-10-15 13:50:06.567,74158.02,0.101,0.515,-0.851,0.001,-0.096,-0.065,0.053,-0.585,-0.028,0.118,-0.541,1.286
2024-10-15 13:50:06.577,74158.03,0.096,0.515,-0.852,-0.016,-0.114,-0.022,-0.027,-0.534,-0.02,0.113,-0.541,1.286
2024-10-15 13:50:06.588,74158.04,0.092,0.515,-0.852,-0.031,-0.069,0.035,0.006,-0.454,-0.055,0.108,-0.541,1.285
2024-10-15 13:50:06.597,74158.05,0.088,0.515,-0.853,-0.023,0.004,0.061,0.004,-0.377,-0.075,0.103,-0.541,1.285
2024-10-15 13:50:06.607,74158.06,0.085,0.515,-0.853,0.015,0.04,0.057,-0.026,-0.372,-0.094,0.099,-0.541,1.284
2024-10-15 13:50:06.617,74158.07,0.081,0.516,-0.853,0.053,0.03,0.046,-0.066,-0.401,-0.123,0.094,-0.542,1.282
2024-10-15 13:50:06.627,74158.08,0.077,0.516,-0.853,0.064,0.003,0.02,-0.036,-0.383,-0.172,0.09,-0.542,1.281
2024-10-15 13:50:06.637,74158.09,0.073,0.516,-0.853,0.05,0.014,0.004,0.069,-0.311,-0.239,0.085,-0.543,1.278
2024-10-15 13:50:06.647,74158.1,0.069,0.515,-0.854,0.019,0.036,-0.006,0.186,-0.259,-0.272,0.08,-0.541,1.275
2024-10-15 13:50:06.657,74158.11,0.065,0.514,-0.855,-0.008,0.036,-0.023,0.202,-0.248,-0.307,0.076,-0.54,1.272
2024-10-15 13:50:06.667,74158.12,0.061,0.512,-0.857,-0.019,0.008,-0.021,0.194,-0.255,-0.34,0.072,-0.538,1.268
2024-10-15 13:50:06.677,74158.13,0.058,0.511,-0.858,-0.023,-0.015,-0.031,0.253,-0.22,-0.341,0.067,-0.536,1.264
2024-10-15 13:50:06.687,74158.14,0.054,0.509,-0.859,-0.031,-0.029,-0.038,0.298,-0.16,-0.357,0.063,-0.533,1.259
2024-10-15 13:50:06.697,74158.15,0.051,0.506,-0.861,-0.033,-0.015,-0.024,0.365,-0.136,-0.408,0.059,-0.53,1.255
2024-10-15 13:50:06.707,74158.16,0.048,0.503,-0.863,-0.031,0.007,-0.01,0.305,-0.051,-0.463,0.056,-0.527,1.25
2024-10-15 13:50:06.717,74158.17,0.046,0.503,-0.863,-0.017,0.006,-0.008,-0.239,0.037,-0.368,0.053,-0.527,1.245
2024-10-15 13:50:06.727,74158.18,0.045,0.506,-0.861,-0.017,-0.054,-0.009,-0.429,-0.017,-0.096,0.052,-0.531,1.242
2024-10-15 13:50:06.737,74158.19,0.045,0.508,-0.86,-0.047,-0.107,-0.107,0.038,0.082,-0.116,0.052,-0.533,1.241
2024-10-15 13:50:06.747,74158.2,0.045,0.506,-0.861,-0.034,0.009,-0.118,0.449,0.222,-0.36,0.052,-0.531,1.238
2024-10-15 13:50:06.757,74158.21,0.044,0.503,-0.863,-0.017,0.168,-0.059,0.304,0.043,-0.349,0.051,-0.527,1.234
2024-10-15 13:50:06.767,74158.22,0.042,0.502,-0.864,0.005,0.103,-0.022,0.03,-0.164,-0.202,0.049,-0.525,1.231
2024-10-15 13:50:06.777,74158.23,0.04,0.502,-0.864,0.05,-0.044,0.01,-0.003,-0.082,-0.147,0.047,-0.526,1.229
2024-10-15 13:50:06.787,74158.24,0.039,0.501,-0.865,0.015,-0.01,0.005,0.168,0.036,-0.09,0.046,-0.525,1.227
2024-10-15 13:50:06.798,74158.25,0.04,0.499,-0.865,-0.057,0.076,0.0,0.224,0.143,-0.06,0.046,-0.523,1.226
2024-10-15 13:50:06.808,74158.26,0.041,0.497,-0.867,-0.072,0.106,-0.012,0.245,0.185,-0.049,0.047,-0.521,1.225
2024-10-15 13:50:06.817,74158.27,0.042,0.495,-0.868,-0.068,0.086,-0.012,0.191,0.173,-0.018,0.049,-0.518,1.225
2024-10-15 13:50:06.827,74158.28,0.044,0.494,-0.868,-0.052,0.031,-0.018,0.112,0.142,0.007,0.05,-0.517,1.225
2024-10-15 13:50:06.837,74158.29,0.045,0.493,-0.869,-0.033,0.004,-0.027,0.091,0.18,0.03,0.052,-0.516,1.225
2024-10-15 13:50:06.846,74158.3,0.047,0.492,-0.869,-0.034,0.004,-0.033,0.097,0.226,0.055,0.054,-0.515,1.225
2024-10-15 13:50:06.857,74158.31,0.05,0.492,-0.869,-0.042,-0.002,-0.024,0.046,0.223,0.048,0.057,-0.514,1.226
2024-10-15 13:50:06.867,74158.32,0.051,0.492,-0.869,-0.03,-0.03,-0.003,-0.003,0.144,0.027,0.059,-0.514,1.226
2024-10-15 13:50:06.877,74158.33,0.052,0.492,-0.869,-0.005,-0.06,-0.0,-0.035,0.075,0.009,0.06,-0.514,1.227
2024-10-15 13:50:06.887,74158.339,0.053,0.492,-0.869,0.008,-0.058,-0.02,-0.102,0.095,0.007,0.061,-0.515,1.227
2024-10-15 13:50:06.897,74158.349,0.054,0.493,-0.868,-0.006,-0.017,-0.062,-0.103,0.153,0.07,0.062,-0.516,1.227
2024-10-15 13:50:06.907,74158.359,0.056,0.494,-0.868,-0.049,-0.001,-0.094,-0.109,0.175,0.152,0.065,-0.517,1.229
2024-10-15 13:50:06.917,74158.369,0.059,0.495,-0.867,-0.071,-0.035,-0.1,-0.193,0.181,0.186,0.068,-0.518,1.231
2024-10-15 13:50:06.927,74158.379,0.061,0.498,-0.865,-0.056,-0.046,-0.09,-0.414,0.159,0.218,0.071,-0.521,1.233
2024-10-15 13:50:06.937,74158.389,0.063,0.502,-0.862,-0.035,-0.073,-0.07,-0.696,0.01,0.269,0.073,-0.526,1.236
2024-10-15 13:50:06.947,74158.399,0.064,0.508,-0.859,-0.034,-0.143,-0.052,-0.749,-0.067,0.249,0.074,-0.533,1.24
2024-10-15 13:50:06.957,74158.409,0.064,0.514,-0.856,-0.037,-0.148,0.012,-0.453,-0.066,0.067,0.075,-0.539,1.243
2024-10-15 13:50:06.967,74158.419,0.064,0.516,-0.854,-0.034,-0.076,0.057,-0.108,0.053,-0.156,0.075,-0.542,1.242
2024-10-15 13:50:06.977,74158.429,0.064,0.516,-0.854,-0.015,0.013,0.067,0.151,0.253,-0.32,0.075,-0.542,1.239
2024-10-15 13:50:06.987,74158.439,0.065,0.514,-0.855,-0.005,0.089,0.029,0.188,0.239,-0.261,0.075,-0.54,1.236
2024-10-15 13:50:06.997,74158.449,0.065,0.514,-0.855,0.016,0.016,-0.02,0.011,0.146,-0.22,0.076,-0.54,1.233
2024-10-15 13:50:07.007,74158.459,0.065,0.514,-0.856,0.081,-0.081,0.014,0.115,0.121,-0.272,0.076,-0.539,1.23
2024-10-15 13:50:07.017,74158.469,0.065,0.511,-0.857,0.11,0.008,0.055,0.451,0.172,-0.277,0.075,-0.537,1.226
2024-10-15 13:50:07.026,74158.479,0.065,0.507,-0.86,0.125,0.141,0.069,0.602,0.178,-0.322,0.075,-0.532,1.223
2024-10-15 13:50:07.037,74158.489,0.064,0.502,-0.863,0.164,0.193,0.127,0.66,0.072,-0.397,0.074,-0.526,1.218
2024-10-15 13:50:07.047,74158.499,0.062,0.496,-0.866,0.176,0.182,0.184,0.72,-0.107,-0.369,0.071,-0.519,1.213
2024-10-15 13:50:07.056,74158.509,0.059,0.49,-0.87,0.163,0.141,0.161,0.729,-0.186,-0.296,0.068,-0.512,1.208
2024-10-15 13:50:07.067,74158.519,0.056,0.483,-0.874,0.112,0.128,0.089,0.867,-0.142,-0.229,0.064,-0.504,1.205
2024-10-15 13:50:07.076,74158.529,0.054,0.475,-0.879,0.024,0.135,0.073,1.169,-0.019,-0.238,0.062,-0.495,1.202
2024-10-15 13:50:07.087,74158.539,0.053,0.464,-0.884,-0.029,0.133,0.08,1.347,0.107,-0.403,0.06,-0.482,1.197
2024-10-15 13:50:07.097,74158.549,0.052,0.452,-0.89,-0.032,0.136,0.058,1.267,-0.004,-0.422,0.058,-0.469,1.191
2024-10-15 13:50:07.107,74158.559,0.05,0.442,-0.896,-0.018,0.0,0.042,0.976,-0.162,-0.296,0.055,-0.458,1.187
2024-10-15 13:50:07.116,74158.569,0.047,0.435,-0.899,0.002,-0.153,0.022,0.791,-0.257,-0.241,0.052,-0.45,1.183
2024-10-15 13:50:07.127,74158.579,0.043,0.428,-0.903,-0.035,-0.139,-0.007,0.771,-0.215,-0.202,0.048,-0.442,1.18
2024-10-15 13:50:07.137,74158.589,0.041,0.421,-0.906,-0.098,-0.075,-0.025,0.756,-0.129,-0.208,0.045,-0.434,1.178
2024-10-15 13:50:07.146,74158.599,0.039,0.414,-0.909,-0.119,-0.026,-0.022,0.778,-0.105,-0.222,0.043,-0.427,1.175
2024-10-15 13:50:07.156,74158.609,0.037,0.407,-0.913,-0.135,-0.022,-0.025,0.767,-0.053,-0.201,0.041,-0.419,1.172
2024-10-15 13:50:07.166,74158.619,0.036,0.4,-0.916,-0.134,-0.04,-0.033,0.7,-0.071,-0.193,0.039,-0.412,1.17
2024-10-15 13:50:07.176,74158.629,0.035,0.394,-0.918,-0.136,-0.012,-0.047,0.69,-0.084,-0.237,0.038,-0.405,1.167
2024-10-15 13:50:07.187,74158.639,0.033,0.387,-0.922,-0.145,0.014,-0.054,0.964,-0.105,-0.202,0.036,-0.397,1.165
2024-10-15 13:50:07.197,74158.649,0.031,0.378,-0.925,-0.129,0.061,-0.066,0.903,-0.142,-0.229,0.034,-0.388,1.162
2024-10-15 13:50:07.206,74158.659,0.028,0.37,-0.928,-0.081,0.038,0.036,0.736,-0.247,-0.221,0.031,-0.379,1.159
2024-10-15 13:50:07.216,74158.669,0.025,0.365,-0.931,-0.044,-0.076,0.092,0.493,-0.214,-0.174,0.027,-0.373,1.157
2024-10-15 13:50:07.226,74158.679,0.023,0.361,-0.932,-0.027,-0.133,0.037,0.185,-0.128,-0.096,0.025,-0.37,1.155
2024-10-15 13:50:07.236,74158.689,0.022,0.361,-0.932,-0.076,-0.144,-0.054,-0.103,-0.034,-0.003,0.024,-0.369,1.155
2024-10-15 13:50:07.246,74158.699,0.023,0.363,-0.931,-0.107,-0.182,-0.151,-0.345,0.094,0.075,0.024,-0.372,1.155
2024-10-15 13:50:07.256,74158.709,0.025,0.368,-0.929,-0.088,-0.199,-0.205,-0.738,0.182,0.116,0.026,-0.377,1.156
2024-10-15 13:50:07.266,74158.719,0.027,0.377,-0.926,-0.059,-0.195,-0.199,-1.089,0.102,0.21,0.029,-0.386,1.158
2024-10-15 13:50:07.276,74158.729,0.028,0.386,-0.922,-0.055,-0.286,-0.123,-0.941,0.134,0.152,0.031,-0.397,1.161
2024-10-15 13:50:07.287,74158.739,0.031,0.393,-0.919,-0.049,-0.268,-0.027,-0.612,0.333,-0.036,0.033,-0.404,1.162
2024-10-15 13:50:07.296,74158.749,0.034,0.398,-0.917,-0.002,-0.034,0.054,-0.455,0.379,-0.126,0.037,-0.41,1.161
2024-10-15 13:50:07.306,74158.759,0.036,0.402,-0.915,0.109,0.079,0.123,-0.354,0.239,-0.136,0.039,-0.414,1.16
2024-10-15 13:50:07.316,74158.769,0.037,0.405,-0.914,0.248,0.048,0.158,-0.194,0.081,-0.115,0.041,-0.417,1.158
2024-10-15 13:50:07.326,74158.779,0.037,0.406,-0.913,0.348,0.097,0.152,-0.07,-0.031,-0.095,0.04,-0.418,1.157
2024-10-15 13:50:07.336,74158.789,0.036,0.406,-0.913,0.361,0.214,0.138,0.118,-0.024,-0.052,0.04,-0.418,1.156
2024-10-15 13:50:07.346,74158.799,0.036,0.404,-0.914,0.277,0.279,0.131,0.273,0.013,0.015,0.039,-0.416,1.156
2024-10-15 13:50:07.356,74158.809,0.036,0.401,-0.915,0.162,0.29,0.085,0.246,-0.018,0.081,0.04,-0.413,1.156
2024-10-15 13:50:07.366,74158.819,0.036,0.399,-0.916,0.103,0.223,0.033,0.262,-0.16,0.084,0.039,-0.411,1.157
2024-10-15 13:50:07.376,74158.829,0.034,0.395,-0.918,0.084,0.109,0.025,0.748,-0.123,-0.095,0.037,-0.406,1.157
2024-10-15 13:50:07.386,74158.839,0.034,0.386,-0.922,0.07,0.109,0.06,1.237,0.174,-0.339,0.037,-0.396,1.154
2024-10-15 13:50:07.396,74158.849,0.034,0.374,-0.927,0.062,0.252,0.073,1.211,0.099,-0.334,0.036,-0.383,1.15
2024-10-15 13:50:07.406,74158.859,0.033,0.365,-0.931,0.061,0.125,0.064,0.726,-0.164,-0.242,0.035,-0.373,1.147
2024-10-15 13:50:07.416,74158.869,0.029,0.361,-0.932,0.122,-0.186,0.119,0.221,-0.496,-0.187,0.031,-0.369,1.144
2024-10-15 13:50:07.426,74158.879,0.023,0.359,-0.933,0.106,-0.23,0.073,0.117,-0.551,-0.043,0.025,-0.367,1.143
2024-10-15 13:50:07.436,74158.889,0.019,0.358,-0.934,-0.023,-0.101,-0.018,0.163,-0.245,0.086,0.021,-0.366,1.143
2024-10-15 13:50:07.447,74158.899,0.019,0.356,-0.934,-0.193,0.098,-0.096,0.205,-0.03,0.234,0.02,-0.364,1.145
2024-10-15 13:50:07.456,74158.909,0.02,0.354,-0.935,-0.318,0.15,-0.095,0.14,0.025,0.301,0.021,-0.362,1.148
2024-10-15 13:50:07.466,74158.919,0.021,0.353,-0.935,-0.304,0.078,-0.033,0.094,-0.025,0.277,0.022,-0.361,1.151
2024-10-15 13:50:07.476,74158.928,0.021,0.353,-0.936,-0.253,-0.0,0.044,0.023,-0.006,0.221,0.023,-0.36,1.153
2024-10-15 13:50:07.486,74158.938,0.022,0.353,-0.935,-0.205,-0.094,0.083,-0.216,-0.031,0.146,0.023,-0.361,1.155
2024-10-15 13:50:07.496,74158.948,0.022,0.357,-0.934,-0.183,-0.201,0.048,-0.509,-0.091,0.165,0.023,-0.365,1.157
2024-10-15 13:50:07.506,74158.958,0.022,0.363,-0.932,-0.183,-0.345,-0.019,-0.757,-0.132,0.156,0.023,-0.371,1.159
2024-10-15 13:50:07.516,74158.968,0.021,0.37,-0.929,-0.163,-0.374,-0.093,-0.855,-0.12,0.075,0.022,-0.379,1.16
2024-10-15 13:50:07.526,74158.978,0.021,0.38,-0.925,-0.155,-0.302,-0.107,-1.309,0.079,0.269,0.023,-0.39,1.162
2024-10-15 13:50:07.536,74158.988,0.022,0.395,-0.918,-0.147,-0.241,-0.143,-2.02,-0.351,0.666,0.024,-0.406,1.168
2024-10-15 13:50:07.546,74158.998,0.02,0.414,-0.91,-0.158,-0.233,-0.12,-1.975,-0.58,0.683,0.022,-0.427,1.176
2024-10-15 13:50:07.556,74159.008,0.018,0.428,-0.903,-0.105,-0.163,0.102,-1.222,-0.409,0.425,0.02,-0.443,1.183
2024-10-15 13:50:07.566,74159.018,0.017,0.436,-0.9,-0.062,0.237,0.162,-0.512,-0.113,0.186,0.019,-0.451,1.186
2024-10-15 13:50:07.576,74159.028,0.017,0.439,-0.898,-0.07,0.456,0.097,-0.281,-0.093,0.13,0.019,-0.455,1.188
2024-10-15 13:50:07.586,74159.038,0.016,0.442,-0.897,-0.035,0.231,-0.047,-0.312,-0.172,0.059,0.018,-0.458,1.189
2024-10-15 13:50:07.595,74159.048,0.015,0.444,-0.896,0.077,-0.07,-0.137,-0.014,-0.126,-0.128,0.016,-0.46,1.189
2024-10-15 13:50:07.605,74159.058,0.013,0.442,-0.897,0.155,-0.144,-0.153,0.319,0.093,-0.292,0.015,-0.458,1.186
2024-10-15 13:50:07.616,74159.068,0.013,0.439,-0.898,0.207,-0.034,-0.171,0.307,0.094,-0.366,0.014,-0.455,1.182
2024-10-15 13:50:07.625,74159.078,0.012,0.438,-0.899,0.277,0.004,-0.118,0.052,-0.07,-0.343,0.013,-0.453,1.178
2024-10-15 13:50:07.636,74159.088,0.009,0.438,-0.899,0.383,-0.074,-0.025,-0.117,-0.17,-0.302,0.01,-0.453,1.175
2024-10-15 13:50:07.646,74159.098,0.006,0.439,-0.898,0.437,-0.018,0.067,-0.122,-0.205,-0.242,0.007,-0.455,1.171
2024-10-15 13:50:07.656,74159.108,0.003,0.44,-0.898,0.374,0.137,0.084,0.038,-0.176,-0.151,0.004,-0.455,1.169
2024-10-15 13:50:07.666,74159.118,0.002,0.438,-0.899,0.265,0.253,0.079,0.429,-0.122,-0.128,0.002,-0.453,1.168
2024-10-15 13:50:07.675,74159.128,0.0,0.431,-0.902,0.173,0.312,0.068,0.95,0.022,-0.207,0.0,-0.446,1.166
2024-10-15 13:50:07.686,74159.138,-0.0,0.422,-0.907,0.115,0.332,0.046,1.097,0.113,-0.275,-0.0,-0.436,1.163
2024-10-15 13:50:07.696,74159.148,-0.001,0.413,-0.911,0.116,0.257,0.026,0.74,-0.12,-0.17,-0.001,-0.426,1.16
2024-10-15 13:50:07.706,74159.158,-0.004,0.409,-0.913,0.148,-0.005,0.033,0.341,-0.442,-0.09,-0.004,-0.421,1.159
2024-10-15 13:50:07.716,74159.168,-0.009,0.406,-0.914,0.181,-0.222,0.091,0.235,-0.499,-0.211,-0.01,-0.418,1.158
2024-10-15 13:50:07.725,74159.178,-0.015,0.404,-0.915,0.141,-0.146,0.135,0.258,-0.524,-0.21,-0.016,-0.416,1.155
2024-10-15 13:50:07.735,74159.188,-0.02,0.402,-0.916,0.019,-0.043,0.098,0.252,-0.608,-0.069,-0.022,-0.413,1.154
2024-10-15 13:50:07.746,74159.198,-0.026,0.399,-0.917,-0.081,-0.046,0.072,0.31,-0.57,-0.026,-0.028,-0.41,1.153
2024-10-15 13:50:07.755,74159.208,-0.031,0.396,-0.918,-0.147,0.04,0.098,0.295,-0.522,0.016,-0.034,-0.407,1.153
2024-10-15 13:50:07.766,74159.218,-0.036,0.394,-0.918,-0.199,0.145,0.091,0.156,-0.583,0.145,-0.039,-0.405,1.154
2024-10-15 13:50:07.775,74159.228,-0.041,0.393,-0.919,-0.235,0.132,0.054,0.093,-0.627,0.193,-0.044,-0.404,1.156
2024-10-15 13:50:07.785,74159.238,-0.045,0.391,-0.919,-0.273,0.076,0.012,0.344,-0.498,0.176,-0.049,-0.402,1.158
2024-10-15 13:50:07.795,74159.248,-0.048,0.387,-0.921,-0.328,0.072,-0.027,0.562,-0.343,0.092,-0.053,-0.397,1.16
2024-10-15 13:50:07.805,74159.258,-0.051,0.382,-0.923,-0.34,0.066,-0.065,0.492,-0.289,0.018,-0.055,-0.392,1.161
2024-10-15 13:50:07.815,74159.268,-0.054,0.378,-0.924,-0.352,-0.042,-0.057,0.366,-0.279,0.035,-0.058,-0.388,1.161
2024-10-15 13:50:07.825,74159.278,-0.056,0.375,-0.925,-0.337,-0.155,-0.037,0.253,-0.232,0.026,-0.06,-0.385,1.162
2024-10-15 13:50:07.835,74159.288,-0.058,0.374,-0.926,-0.243,-0.201,-0.035,0.034,-0.212,-0.025,-0.062,-0.383,1.162
2024-10-15 13:50:07.845,74159.298,-0.059,0.376,-0.925,-0.163,-0.238,-0.035,-0.498,-0.04,0.0,-0.064,-0.385,1.162
2024-10-15 13:50:07.855,74159.308,-0.06,0.384,-0.921,-0.098,-0.276,-0.065,-1.27,-0.274,0.306,-0.065,-0.394,1.163
2024-10-15 13:50:07.865,74159.318,-0.062,0.398,-0.915,-0.071,-0.352,-0.135,-1.557,-0.437,0.357,-0.068,-0.409,1.165
2024-10-15 13:50:07.875,74159.328,-0.064,0.41,-0.91,-0.042,-0.345,-0.064,-1.034,-0.327,0.222,-0.071,-0.422,1.168
2024-10-15 13:50:07.885,74159.338,-0.066,0.417,-0.906,0.004,-0.051,-0.023,-0.535,-0.253,0.086,-0.073,-0.43,1.169
2024-10-15 13:50:07.895,74159.348,-0.068,0.42,-0.905,0.052,0.141,0.006,-0.171,-0.232,-0.08,-0.076,-0.434,1.168
2024-10-15 13:50:07.905,74159.358,-0.071,0.42,-0.905,0.131,0.154,0.045,0.076,-0.166,-0.247,-0.078,-0.434,1.167
2024-10-15 13:50:07.915,74159.368,-0.073,0.418,-0.905,0.192,0.106,0.037,0.322,-0.013,-0.324,-0.081,-0.432,1.164
2024-10-15 13:50:07.925,74159.378,-0.074,0.415,-0.907,0.234,0.086,-0.01,0.22,-0.0,-0.249,-0.082,-0.428,1.161
2024-10-15 13:50:07.935,74159.388,-0.076,0.414,-0.907,0.282,-0.045,-0.052,-0.007,-0.071,-0.243,-0.083,-0.427,1.158
2024-10-15 13:50:07.945,74159.398,-0.078,0.415,-0.907,0.359,-0.181,0.0,-0.175,-0.132,-0.274,-0.085,-0.428,1.155
2024-10-15 13:50:07.955,74159.408,-0.08,0.417,-0.905,0.407,-0.153,0.042,-0.327,-0.127,-0.255,-0.088,-0.43,1.152
2024-10-15 13:50:07.965,74159.418,-0.082,0.42,-0.904,0.37,-0.045,0.037,-0.398,-0.108,-0.169,-0.09,-0.434,1.149
2024-10-15 13:50:07.975,74159.428,-0.084,0.423,-0.902,0.277,0.036,0.034,-0.204,-0.224,-0.148,-0.093,-0.437,1.147
2024-10-15 13:50:07.985,74159.438,-0.086,0.422,-0.902,0.192,0.089,0.038,0.426,0.076,-0.421,-0.095,-0.436,1.145
2024-10-15 13:50:07.995,74159.448,-0.086,0.416,-0.906,0.123,0.236,0.084,0.822,0.4,-0.483,-0.094,-0.429,1.14
2024-10-15 13:50:08.005,74159.458,-0.084,0.409,-0.909,0.046,0.365,0.036,0.44,0.134,-0.175,-0.093,-0.422,1.137
2024-10-15 13:50:08.015,74159.468,-0.085,0.408,-0.909,0.02,0.123,0.031,-0.055,-0.227,-0.084,-0.094,-0.42,1.136
2024-10-15 13:50:08.025,74159.478,-0.088,0.409,-0.908,0.056,-0.085,0.157,-0.16,-0.203,-0.137,-0.097,-0.421,1.135
2024-10-15 13:50:08.035,74159.488,-0.09,0.41,-0.908,-0.004,0.072,0.188,-0.113,-0.15,0.007,-0.099,-0.422,1.134
2024-10-15 13:50:08.045,74159.498,-0.091,0.411,-0.907,-0.144,0.201,0.139,-0.06,-0.117,0.056,-0.1,-0.423,1.134
2024-10-15 13:50:08.055,74159.508,-0.092,0.411,-0.907,-0.246,0.213,0.125,0.008,-0.099,0.056,-0.101,-0.423,1.135
2024-10-15 13:50:08.065,74159.517,-0.092,0.411,-0.907,-0.297,0.202,0.084,0.034,-0.125,0.084,-0.101,-0.423,1.135
2024-10-15 13:50:08.075,74159.527,-0.093,0.41,-0.907,-0.321,0.133,0.033,0.202,-0.127,0.037,-0.102,-0.422,1.136
2024-10-15 13:50:08.085,74159.537,-0.094,0.407,-0.908,-0.36,0.087,0.02,0.363,-0.038,0.012,-0.103,-0.419,1.137
2024-10-15 13:50:08.094,74159.547,-0.094,0.404,-0.91,-0.376,0.053,0.018,0.402,-0.018,0.042,-0.103,-0.416,1.137
2024-10-15 13:50:08.105,74159.557,-0.094,0.4,-0.912,-0.358,-0.013,-0.01,0.349,-0.013,0.04,-0.103,-0.412,1.138
2024-10-15 13:50:08.115,74159.567,-0.094,0.397,-0.913,-0.324,-0.088,-0.037,0.333,0.015,0.015,-0.103,-0.409,1.139
2024-10-15 13:50:08.125,74159.577,-0.094,0.395,-0.914,-0.26,-0.13,-0.075,0.218,0.05,-0.016,-0.102,-0.406,1.139
2024-10-15 13:50:08.135,74159.587,-0.093,0.395,-0.914,-0.187,-0.184,-0.108,-0.294,0.06,0.085,-0.101,-0.406,1.139
2024-10-15 13:50:08.145,74159.597,-0.094,0.4,-0.912,-0.112,-0.23,-0.121,-0.835,-0.463,0.311,-0.103,-0.412,1.141
2024-10-15 13:50:08.155,74159.607,-0.098,0.408,-0.908,-0.044,-0.33,-0.05,-0.586,-0.487,0.097,-0.107,-0.42,1.143
2024-10-15 13:50:08.165,74159.617,-0.1,0.41,-0.907,0.029,-0.222,0.055,-0.008,-0.044,-0.106,-0.11,-0.423,1.142
2024-10-15 13:50:08.175,74159.627,-0.1,0.409,-0.907,-0.032,0.117,-0.024,0.082,0.032,0.008,-0.11,-0.422,1.142
2024-10-15 13:50:08.185,74159.637,-0.101,0.41,-0.907,-0.086,0.063,-0.14,-0.212,-0.113,0.019,-0.11,-0.422,1.142
2024-10-15 13:50:08.195,74159.647,-0.102,0.413,-0.905,0.033,-0.195,-0.147,-0.374,-0.057,-0.089,-0.112,-0.425,1.141
2024-10-15 13:50:08.205,74159.657,-0.102,0.416,-0.904,0.139,-0.211,-0.121,-0.325,0.098,-0.168,-0.112,-0.429,1.139
2024-10-15 13:50:08.216,74159.667,-0.101,0.418,-0.903,0.144,-0.122,-0.089,-0.204,0.21,-0.258,-0.112,-0.431,1.137
2024-10-15 13:50:08.225,74159.677,-0.101,0.42,-0.902,0.163,-0.087,-0.052,-0.241,0.21,-0.294,-0.111,-0.433,1.133
2024-10-15 13:50:08.235,74159.687,-0.1,0.422,-0.901,0.242,-0.133,-0.028,-0.308,0.173,-0.309,-0.111,-0.435,1.13
2024-10-15 13:50:08.244,74159.697,-0.1,0.424,-0.9,0.326,-0.161,0.041,-0.341,0.137,-0.303,-0.111,-0.438,1.126
2024-10-15 13:50:08.254,74159.707,-0.1,0.427,-0.899,0.36,-0.088,0.079,-0.378,0.097,-0.23,-0.111,-0.442,1.122
2024-10-15 13:50:08.264,74159.717,-0.1,0.43,-0.897,0.367,0.032,0.119,-0.352,0.075,-0.206,-0.111,-0.445,1.12
2024-10-15 13:50:08.274,74159.727,-0.101,0.432,-0.896,0.339,0.182,0.141,-0.083,0.118,-0.221,-0.112,-0.447,1.117
2024-10-15 13:50:08.284,74159.737,-0.1,0.431,-0.897,0.254,0.346,0.125,0.307,0.285,-0.251,-0.111,-0.446,1.114
2024-10-15 13:50:08.294,74159.747,-0.098,0.427,-0.899,0.159,0.462,0.088,0.583,0.391,-0.218,-0.108,-0.441,1.112
2024-10-15 13:50:08.304,74159.757,-0.095,0.422,-0.902,0.087,0.465,0.068,0.488,0.331,-0.084,-0.105,-0.435,1.111
2024-10-15 13:50:08.315,74159.767,-0.094,0.419,-0.903,0.085,0.306,0.086,0.116,-0.055,0.099,-0.103,-0.432,1.112
2024-10-15 13:50:08.325,74159.777,-0.095,0.418,-0.903,0.09,0.082,0.106,0.087,-0.227,0.095,-0.104,-0.432,1.113
2024-10-15 13:50:08.335,74159.787,-0.096,0.417,-0.904,0.042,0.025,0.165,0.328,-0.06,0.073,-0.105,-0.43,1.114
2024-10-15 13:50:08.345,74159.797,-0.096,0.413,-0.906,-0.072,0.151,0.162,0.401,-0.084,0.185,-0.105,-0.426,1.116
2024-10-15 13:50:08.355,74159.807,-0.096,0.41,-0.907,-0.172,0.115,0.091,0.338,-0.208,0.224,-0.106,-0.423,1.119
2024-10-15 13:50:08.365,74159.817,-0.097,0.407,-0.908,-0.191,-0.031,0.07,0.337,-0.174,0.155,-0.107,-0.419,1.121
2024-10-15 13:50:08.374,74159.827,-0.098,0.405,-0.909,-0.195,-0.022,0.065,0.254,-0.241,0.083,-0.108,-0.417,1.123
2024-10-15 13:50:08.384,74159.837,-0.101,0.403,-0.91,-0.229,-0.025,-0.02,0.254,-0.283,0.016,-0.11,-0.414,1.124
2024-10-15 13:50:08.395,74159.847,-0.103,0.4,-0.911,-0.301,-0.11,-0.113,0.407,-0.16,-0.012,-0.112,-0.411,1.124
2024-10-15 13:50:08.404,74159.857,-0.104,0.395,-0.913,-0.367,-0.127,-0.191,0.557,-0.04,0.038,-0.113,-0.406,1.125
2024-10-15 13:50:08.414,74159.867,-0.104,0.39,-0.915,-0.396,-0.151,-0.227,0.505,-0.044,0.078,-0.113,-0.401,1.126
2024-10-15 13:50:08.424,74159.877,-0.104,0.387,-0.916,-0.327,-0.204,-0.17,0.282,-0.09,0.032,-0.113,-0.397,1.127
2024-10-15 13:50:08.434,74159.887,-0.105,0.386,-0.916,-0.176,-0.244,-0.085,-0.223,-0.104,0.068,-0.114,-0.396,1.128
2024-10-15 13:50:08.444,74159.897,-0.106,0.391,-0.914,-0.056,-0.293,-0.05,-0.884,-0.353,0.237,-0.116,-0.402,1.129
2024-10-15 13:50:08.454,74159.907,-0.11,0.401,-0.91,0.004,-0.339,-0.016,-1.032,-0.574,0.179,-0.12,-0.412,1.13
2024-10-15 13:50:08.464,74159.917,-0.114,0.409,-0.906,0.034,-0.318,0.027,-0.627,-0.402,0.011,-0.125,-0.421,1.13
2024-10-15 13:50:08.475,74159.927,-0.116,0.413,-0.903,0.028,-0.099,-0.018,-0.293,-0.107,-0.065,-0.128,-0.425,1.129
2024-10-15 13:50:08.484,74159.937,-0.117,0.415,-0.902,-0.018,0.068,-0.085,-0.346,-0.065,-0.063,-0.129,-0.428,1.128
2024-10-15 13:50:08.494,74159.947,-0.119,0.419,-0.9,0.001,-0.014,-0.082,-0.493,-0.118,-0.153,-0.131,-0.432,1.126
2024-10-15 13:50:08.504,74159.957,-0.12,0.424,-0.898,0.12,-0.15,-0.014,-0.609,-0.015,-0.19,-0.133,-0.437,1.123
2024-10-15 13:50:08.514,74159.967,-0.121,0.43,-0.895,0.219,-0.181,0.015,-0.816,-0.097,-0.201,-0.135,-0.444,1.12
2024-10-15 13:50:08.524,74159.977,-0.123,0.438,-0.891,0.227,-0.263,0.001,-0.987,-0.193,-0.272,-0.138,-0.453,1.116
2024-10-15 13:50:08.534,74159.987,-0.126,0.446,-0.886,0.256,-0.356,-0.01,-0.985,-0.167,-0.345,-0.142,-0.462,1.111
2024-10-15 13:50:08.544,74159.997,-0.129,0.453,-0.882,0.258,-0.261,-0.036,-0.744,-0.076,-0.317,-0.145,-0.47,1.106
2024-10-15 13:50:08.554,74160.007,-0.13,0.458,-0.879,0.173,-0.014,-0.048,-0.453,0.026,-0.263,-0.147,-0.476,1.102
2024-10-15 13:50:08.564,74160.017,-0.131,0.46,-0.878,0.124,0.249,-0.036,-0.092,0.136,-0.246,-0.148,-0.478,1.098
2024-10-15 13:50:08.574,74160.027,-0.13,0.459,-0.879,0.094,0.446,-0.003,0.333,0.312,-0.24,-0.147,-0.477,1.096
2024-10-15 13:50:08.584,74160.037,-0.128,0.454,-0.882,0.044,0.591,-0.001,0.719,0.476,-0.195,-0.144,-0.471,1.094
2024-10-15 13:50:08.594,74160.047,-0.124,0.447,-0.886,-0.024,0.625,0.02,0.894,0.489,-0.196,-0.139,-0.463,1.094
2024-10-15 13:50:08.604,74160.057,-0.121,0.438,-0.891,-0.01,0.519,0.116,0.858,0.419,-0.152,-0.135,-0.454,1.093
2024-10-15 13:50:08.614,74160.067,-0.118,0.432,-0.894,0.047,0.364,0.187,0.628,0.222,0.009,-0.132,-0.446,1.093
2024-10-15 13:50:08.624,74160.077,-0.117,0.427,-0.896,0.073,0.174,0.233,0.356,0.017,0.092,-0.13,-0.442,1.094
2024-10-15 13:50:08.634,74160.087,-0.117,0.425,-0.898,0.076,0.06,0.291,0.247,-0.116,0.107,-0.13,-0.439,1.096
2024-10-15 13:50:08.644,74160.097,-0.118,0.423,-0.899,0.033,0.062,0.293,0.289,-0.19,0.114,-0.131,-0.436,1.098
2024-10-15 13:50:08.654,74160.106,-0.119,0.419,-0.9,-0.058,0.041,0.218,0.442,-0.13,-0.001,-0.132,-0.433,1.099
2024-10-15 13:50:08.664,74160.116,-0.12,0.415,-0.902,-0.143,0.041,0.119,0.517,-0.096,-0.035,-0.133,-0.428,1.099
2024-10-15 13:50:08.674,74160.126,-0.121,0.41,-0.904,-0.22,-0.016,-0.053,0.589,-0.056,-0.039,-0.133,-0.422,1.1
2024-10-15 13:50:08.684,74160.136,-0.122,0.404,-0.906,-0.281,-0.104,-0.16,0.639,-0.004,-0.083,-0.133,-0.416,1.1
2024-10-15 13:50:08.693,74160.146,-0.122,0.399,-0.909,-0.307,-0.14,-0.18,0.61,0.014,-0.104,-0.133,-0.41,1.1
2024-10-15 13:50:08.703,74160.156,-0.122,0.393,-0.911,-0.285,-0.176,-0.16,0.525,-0.029,-0.112,-0.134,-0.404,1.099
2024-10-15 13:50:08.713,74160.166,-0.123,0.389,-0.913,-0.25,-0.229,-0.109,0.35,0.058,-0.054,-0.134,-0.4,1.099
2024-10-15 13:50:08.724,74160.176,-0.122,0.388,-0.914,-0.213,-0.202,-0.014,-0.115,0.091,0.211,-0.132,-0.398,1.1
2024-10-15 13:50:08.734,74160.186,-0.12,0.392,-0.912,-0.158,-0.145,0.137,-0.63,0.005,0.275,-0.131,-0.403,1.102
2024-10-15 13:50:08.744,74160.196,-0.118,0.399,-0.909,-0.103,-0.15,0.166,-0.806,0.213,0.266,-0.13,-0.41,1.104
2024-10-15 13:50:08.754,74160.206,-0.115,0.406,-0.907,-0.157,-0.035,0.016,-0.747,0.348,0.387,-0.126,-0.418,1.106
2024-10-15 13:50:08.764,74160.216,-0.11,0.413,-0.904,-0.26,0.082,-0.191,-0.576,0.382,0.398,-0.121,-0.426,1.11
2024-10-15 13:50:08.774,74160.226,-0.105,0.417,-0.903,-0.236,0.117,-0.229,-0.264,0.403,0.295,-0.115,-0.43,1.113
2024-10-15 13:50:08.784,74160.236,-0.1,0.418,-0.903,-0.167,0.176,-0.195,0.047,0.476,0.235,-0.11,-0.432,1.116
2024-10-15 13:50:08.794,74160.246,-0.094,0.417,-0.904,-0.109,0.203,-0.141,0.216,0.508,0.183,-0.104,-0.43,1.118
2024-10-15 13:50:08.804,74160.256,-0.089,0.415,-0.905,-0.064,0.136,-0.045,0.183,0.442,0.142,-0.098,-0.428,1.12
2024-10-15 13:50:08.814,74160.266,-0.085,0.414,-0.906,0.002,-0.004,0.054,0.034,0.306,0.085,-0.094,-0.427,1.122
2024-10-15 13:50:08.823,74160.276,-0.083,0.415,-0.906,0.103,-0.124,0.14,-0.088,0.145,0.022,-0.091,-0.428,1.122
2024-10-15 13:50:08.833,74160.286,-0.082,0.415,-0.906,0.168,-0.165,0.162,-0.036,0.002,-0.053,-0.091,-0.428,1.122
2024-10-15 13:50:08.844,74160.296,-0.083,0.415,-0.906,0.186,-0.146,0.152,0.177,-0.046,-0.166,-0.091,-0.428,1.121
2024-10-15 13:50:08.854,74160.306,-0.084,0.412,-0.907,0.185,-0.059,0.148,0.44,-0.057,-0.254,-0.093,-0.424,1.119
2024-10-15 13:50:08.864,74160.316,-0.086,0.407,-0.909,0.175,0.027,0.145,0.589,-0.162,-0.285,-0.095,-0.419,1.116
2024-10-15 13:50:08.873,74160.326,-0.09,0.401,-0.912,0.192,0.007,0.143,0.592,-0.317,-0.326,-0.098,-0.413,1.114
2024-10-15 13:50:08.884,74160.336,-0.095,0.396,-0.914,0.223,-0.045,0.156,0.548,-0.419,-0.288,-0.103,-0.407,1.111
2024-10-15 13:50:08.893,74160.346,-0.1,0.391,-0.915,0.229,-0.083,0.16,0.343,-0.471,-0.233,-0.108,-0.402,1.109
2024-10-15 13:50:08.903,74160.356,-0.105,0.389,-0.915,0.201,-0.117,0.161,0.124,-0.493,-0.171,-0.114,-0.399,1.107
2024-10-15 13:50:08.913,74160.366,-0.11,0.388,-0.915,0.156,-0.137,0.153,-0.062,-0.425,-0.102,-0.119,-0.399,1.105
2024-10-15 13:50:08.923,74160.376,-0.113,0.39,-0.914,0.124,-0.114,0.12,-0.235,-0.344,-0.037,-0.123,-0.4,1.104
2024-10-15 13:50:08.933,74160.386,-0.117,0.392,-0.912,0.082,-0.058,0.077,-0.328,-0.334,-0.018,-0.127,-0.403,1.104
2024-10-15 13:50:08.944,74160.396,-0.117,0.396,-0.911,0.063,-0.02,0.035,-0.742,0.167,-0.122,-0.128,-0.407,1.102
2024-10-15 13:50:08.953,74160.406,-0.117,0.403,-0.907,0.059,0.014,-0.021,-0.627,-0.053,-0.023,-0.128,-0.415,1.1
2024-10-15 13:50:08.964,74160.416,-0.116,0.406,-0.906,-0.094,-0.012,-0.358,0.029,0.22,0.17,-0.128,-0.418,1.101
2024-10-15 13:50:08.973,74160.426,-0.112,0.405,-0.907,-0.154,0.104,-0.578,0.192,0.573,0.102,-0.123,-0.417,1.102
2024-10-15 13:50:08.984,74160.436,-0.107,0.403,-0.909,-0.073,0.318,-0.192,0.169,0.265,0.19,-0.118,-0.415,1.104
2024-10-15 13:50:08.993,74160.446,-0.105,0.403,-0.909,-0.03,0.099,-0.066,-0.05,0.206,0.192,-0.115,-0.415,1.106
2024-10-15 13:50:09.003,74160.456,-0.102,0.405,-0.908,0.182,0.005,0.105,-0.418,0.089,0.441,-0.112,-0.417,1.109
2024-10-15 13:50:09.013,74160.466,-0.101,0.411,-0.906,0.175,-0.046,0.232,-0.647,-0.352,0.519,-0.111,-0.424,1.114
2024-10-15 13:50:09.023,74160.476,-0.103,0.416,-0.904,0.24,-0.138,0.35,-0.284,-0.166,-0.026,-0.113,-0.429,1.116
2024-10-15 13:50:09.033,74160.486,-0.103,0.417,-0.903,0.324,-0.003,0.301,0.018,-0.003,0.054,-0.114,-0.43,1.116
2024-10-15 13:50:09.043,74160.496,-0.104,0.417,-0.903,0.092,0.089,-0.076,-0.196,-0.141,0.093,-0.114,-0.431,1.117
2024-10-15 13:50:09.053,74160.506,-0.105,0.419,-0.902,-0.025,-0.155,-0.225,-0.065,-0.17,0.129,-0.115,-0.432,1.118
2024-10-15 13:50:09.063,74160.516,-0.105,0.419,-0.902,-0.022,-0.188,-0.22,0.09,-0.116,0.016,-0.116,-0.432,1.119
2024-10-15 13:50:09.073,74160.526,-0.107,0.417,-0.903,0.006,-0.031,-0.109,0.344,-0.206,-0.172,-0.118,-0.43,1.118
2024-10-15 13:50:09.083,74160.536,-0.11,0.413,-0.904,0.047,0.076,-0.048,0.369,-0.156,-0.242,-0.121,-0.426,1.117
2024-10-15 13:50:09.093,74160.546,-0.112,0.41,-0.905,-0.001,0.056,-0.081,0.357,-0.21,-0.232,-0.123,-0.422,1.114
2024-10-15 13:50:09.103,74160.556,-0.115,0.406,-0.907,-0.081,0.047,-0.158,0.5,-0.085,-0.194,-0.126,-0.418,1.113
2024-10-15 13:50:09.113,74160.566,-0.115,0.4,-0.909,-0.2,0.033,-0.175,0.729,0.139,-0.207,-0.126,-0.411,1.111
2024-10-15 13:50:09.123,74160.576,-0.115,0.393,-0.912,-0.208,0.16,-0.156,0.729,0.101,-0.179,-0.125,-0.404,1.11
2024-10-15 13:50:09.133,74160.586,-0.115,0.386,-0.915,-0.179,0.07,-0.116,0.665,0.086,-0.278,-0.125,-0.397,1.109
2024-10-15 13:50:09.143,74160.596,-0.115,0.381,-0.918,-0.102,-0.035,-0.053,0.5,0.088,-0.261,-0.125,-0.39,1.107
2024-10-15 13:50:09.153,74160.606,-0.115,0.377,-0.919,-0.094,-0.094,-0.033,0.268,0.068,-0.207,-0.125,-0.386,1.105
2024-10-15 13:50:09.163,74160.616,-0.115,0.375,-0.92,-0.117,-0.154,-0.001,-0.006,0.079,-0.159,-0.125,-0.385,1.103
2024-10-15 13:50:09.173,74160.626,-0.115,0.376,-0.919,-0.133,-0.162,0.049,-0.23,0.052,-0.077,-0.124,-0.386,1.101
2024-10-15 13:50:09.183,74160.636,-0.115,0.379,-0.918,-0.124,-0.159,0.102,-0.352,-0.004,-0.022,-0.124,-0.389,1.101
2024-10-15 13:50:09.193,74160.646,-0.115,0.383,-0.917,-0.101,-0.152,0.147,-0.429,-0.029,0.036,-0.125,-0.393,1.1
2024-10-15 13:50:09.203,74160.656,-0.115,0.387,-0.915,-0.08,-0.089,0.16,-0.486,-0.038,0.103,-0.125,-0.397,1.1
2024-10-15 13:50:09.213,74160.666,-0.115,0.391,-0.913,-0.067,0.013,0.134,-0.461,0.008,0.155,-0.125,-0.402,1.101
2024-10-15 13:50:09.223,74160.676,-0.114,0.396,-0.911,-0.057,0.11,0.069,-0.432,0.022,0.228,-0.124,-0.407,1.102
2024-10-15 13:50:09.233,74160.686,-0.112,0.4,-0.91,-0.044,0.152,0.004,-0.421,0.044,0.305,-0.123,-0.411,1.105
2024-10-15 13:50:09.243,74160.695,-0.11,0.404,-0.908,-0.011,0.156,-0.019,-0.475,0.077,0.39,-0.121,-0.416,1.108
2024-10-15 13:50:09.253,74160.705,-0.108,0.409,-0.906,0.028,0.139,0.013,-0.589,0.017,0.501,-0.119,-0.422,1.112
2024-10-15 13:50:09.263,74160.715,-0.106,0.416,-0.903,0.079,0.079,0.06,-0.676,-0.062,0.562,-0.117,-0.429,1.117
2024-10-15 13:50:09.273,74160.725,-0.105,0.422,-0.901,0.151,0.039,0.125,-0.526,-0.181,0.538,-0.116,-0.436,1.122
2024-10-15 13:50:09.283,74160.735,-0.105,0.426,-0.899,0.212,0.045,0.188,-0.13,-0.168,0.308,-0.116,-0.44,1.127
2024-10-15 13:50:09.293,74160.745,-0.105,0.425,-0.899,0.265,0.1,0.217,0.277,0.015,0.129,-0.116,-0.439,1.129
2024-10-15 13:50:09.303,74160.755,-0.104,0.422,-0.901,0.256,0.166,0.117,0.349,0.059,0.094,-0.115,-0.436,1.131
2024-10-15 13:50:09.313,74160.765,-0.103,0.42,-0.902,0.165,0.08,-0.076,0.118,-0.031,0.147,-0.114,-0.434,1.132
2024-10-15 13:50:09.323,74160.775,-0.103,0.42,-0.902,0.081,-0.108,-0.198,0.051,-0.069,0.112,-0.114,-0.433,1.134
2024-10-15 13:50:09.333,74160.785,-0.103,0.419,-0.902,0.046,-0.157,-0.184,0.106,-0.064,0.194,-0.114,-0.432,1.135
2024-10-15 13:50:09.343,74160.795,-0.103,0.419,-0.902,0.029,-0.085,-0.088,-0.007,-0.206,0.1,-0.114,-0.432,1.137
2024-10-15 13:50:09.353,74160.805,-0.105,0.418,-0.902,0.119,-0.053,0.131,0.08,-0.235,0.018,-0.116,-0.432,1.138
2024-10-15 13:50:09.363,74160.815,-0.107,0.418,-0.902,0.183,-0.012,0.173,0.125,-0.245,0.031,-0.118,-0.431,1.138
2024-10-15 13:50:09.373,74160.825,-0.11,0.416,-0.903,0.099,0.047,0.123,0.244,-0.244,-0.019,-0.121,-0.429,1.139
2024-10-15 13:50:09.382,74160.835,-0.111,0.413,-0.904,0.028,0.061,0.065,0.304,-0.12,-0.031,-0.123,-0.426,1.139
2024-10-15 13:50:09.392,74160.845,-0.113,0.411,-0.905,-0.056,0.092,-0.015,0.23,-0.19,-0.081,-0.124,-0.423,1.138
2024-10-15 13:50:09.402,74160.855,-0.115,0.409,-0.905,-0.143,0.029,-0.125,0.218,-0.127,-0.168,-0.126,-0.421,1.137
2024-10-15 13:50:09.412,74160.865,-0.116,0.406,-0.906,-0.232,-0.072,-0.217,0.376,-0.002,-0.206,-0.128,-0.418,1.136
2024-10-15 13:50:09.422,74160.875,-0.117,0.402,-0.908,-0.323,-0.066,-0.229,0.445,0.101,-0.264,-0.128,-0.414,1.134
2024-10-15 13:50:09.432,74160.885,-0.117,0.398,-0.91,-0.329,-0.106,-0.141,0.356,0.027,-0.331,-0.128,-0.409,1.131
2024-10-15 13:50:09.443,74160.895,-0.118,0.394,-0.911,-0.242,-0.187,-0.006,0.313,0.06,-0.401,-0.129,-0.405,1.128
2024-10-15 13:50:09.452,74160.905,-0.119,0.392,-0.912,-0.152,-0.206,0.091,0.17,0.078,-0.417,-0.13,-0.402,1.124
2024-10-15 13:50:09.462,74160.915,-0.12,0.391,-0.913,-0.134,-0.17,0.082,-0.048,0.051,-0.363,-0.131,-0.401,1.119
2024-10-15 13:50:09.472,74160.925,-0.121,0.391,-0.912,-0.164,-0.148,0.028,-0.223,0.045,-0.279,-0.132,-0.402,1.116
2024-10-15 13:50:09.482,74160.935,-0.121,0.393,-0.911,-0.169,-0.111,-0.001,-0.255,0.172,-0.274,-0.132,-0.404,1.113
2024-10-15 13:50:09.492,74160.945,-0.12,0.395,-0.911,-0.179,0.002,-0.028,-0.188,0.266,-0.186,-0.131,-0.406,1.11
2024-10-15 13:50:09.503,74160.955,-0.118,0.397,-0.91,-0.217,0.084,-0.06,-0.194,0.277,-0.106,-0.129,-0.408,1.108
2024-10-15 13:50:09.512,74160.965,-0.116,0.398,-0.91,-0.203,0.05,-0.042,-0.208,0.321,-0.091,-0.127,-0.41,1.107
2024-10-15 13:50:09.522,74160.975,-0.113,0.4,-0.909,-0.14,0.05,0.034,-0.267,0.318,0.004,-0.124,-0.412,1.106
2024-10-15 13:50:09.532,74160.985,-0.11,0.404,-0.908,-0.054,0.067,0.123,-0.424,0.213,0.127,-0.121,-0.416,1.106
2024-10-15 13:50:09.542,74160.995,-0.108,0.408,-0.906,0.089,0.036,0.204,-0.607,0.073,0.212,-0.119,-0.421,1.107
2024-10-15 13:50:09.552,74161.005,-0.107,0.415,-0.904,0.229,0.026,0.246,-0.709,-0.051,0.28,-0.118,-0.428,1.109
2024-10-15 13:50:09.563,74161.015,-0.107,0.421,-0.901,0.286,0.065,0.216,-0.61,-0.064,0.319,-0.118,-0.435,1.111
2024-10-15 13:50:09.572,74161.025,-0.105,0.426,-0.899,0.252,0.131,0.119,-0.408,0.001,0.354,-0.117,-0.44,1.114
2024-10-15 13:50:09.583,74161.035,-0.104,0.429,-0.897,0.197,0.214,0.009,-0.234,0.02,0.401,-0.115,-0.444,1.118
2024-10-15 13:50:09.592,74161.045,-0.102,0.431,-0.896,0.172,0.237,-0.085,-0.069,-0.025,0.393,-0.113,-0.446,1.122
2024-10-15 13:50:09.602,74161.055,-0.101,0.431,-0.897,0.196,0.195,-0.093,0.129,-0.024,0.333,-0.112,-0.446,1.126
2024-10-15 13:50:09.612,74161.065,-0.099,0.43,-0.897,0.256,0.19,-0.044,0.217,0.026,0.285,-0.11,-0.444,1.13
2024-10-15 13:50:09.623,74161.075,-0.098,0.429,-0.898,0.278,0.168,-0.011,0.088,-0.076,0.345,-0.109,-0.443,1.134
2024-10-15 13:50:09.632,74161.085,-0.098,0.429,-0.898,0.251,0.064,-0.023,-0.05,-0.306,0.409,-0.109,-0.443,1.138
2024-10-15 13:50:09.641,74161.095,-0.1,0.43,-0.897,0.227,-0.064,0.009,0.021,-0.33,0.264,-0.111,-0.444,1.142
2024-10-15 13:50:09.651,74161.105,-0.101,0.429,-0.898,0.22,-0.057,0.064,0.214,-0.231,0.175,-0.112,-0.443,1.144
2024-10-15 13:50:09.661,74161.115,-0.103,0.426,-0.899,0.107,0.05,-0.049,0.391,-0.24,0.209,-0.114,-0.44,1.146
2024-10-15 13:50:09.671,74161.125,-0.104,0.423,-0.9,-0.06,-0.007,-0.195,0.439,-0.243,0.041,-0.115,-0.436,1.149
2024-10-15 13:50:09.682,74161.135,-0.106,0.418,-0.902,-0.088,-0.068,-0.124,0.556,-0.168,-0.101,-0.117,-0.431,1.149
2024-10-15 13:50:09.692,74161.145,-0.108,0.413,-0.904,-0.059,-0.072,-0.094,0.476,-0.198,-0.132,-0.119,-0.426,1.148
2024-10-15 13:50:09.702,74161.155,-0.111,0.409,-0.906,-0.127,-0.18,-0.083,0.479,-0.188,-0.275,-0.122,-0.421,1.147
2024-10-15 13:50:09.712,74161.165,-0.114,0.404,-0.908,-0.126,-0.245,-0.023,0.425,-0.138,-0.364,-0.125,-0.416,1.144
2024-10-15 13:50:09.722,74161.175,-0.117,0.4,-0.909,-0.124,-0.2,-0.022,0.387,-0.198,-0.36,-0.128,-0.412,1.14
2024-10-15 13:50:09.732,74161.185,-0.12,0.396,-0.911,-0.143,-0.186,-0.049,0.522,-0.111,-0.426,-0.131,-0.407,1.137
2024-10-15 13:50:09.742,74161.195,-0.122,0.39,-0.913,-0.167,-0.117,-0.05,0.69,0.048,-0.474,-0.133,-0.4,1.133
2024-10-15 13:50:09.752,74161.205,-0.123,0.383,-0.916,-0.2,0.036,-0.046,0.697,0.087,-0.436,-0.133,-0.393,1.129
2024-10-15 13:50:09.762,74161.215,-0.124,0.376,-0.918,-0.217,0.058,-0.045,0.556,0.066,-0.381,-0.134,-0.386,1.125
2024-10-15 13:50:09.772,74161.225,-0.124,0.371,-0.92,-0.203,0.026,-0.015,0.462,0.05,-0.317,-0.134,-0.38,1.122
2024-10-15 13:50:09.782,74161.235,-0.125,0.367,-0.922,-0.197,0.033,0.031,0.343,0.104,-0.227,-0.135,-0.376,1.12
2024-10-15 13:50:09.792,74161.245,-0.125,0.365,-0.923,-0.189,0.075,0.093,0.137,0.045,-0.061,-0.134,-0.373,1.119
2024-10-15 13:50:09.802,74161.255,-0.125,0.365,-0.923,-0.164,0.072,0.148,-0.075,-0.025,0.007,-0.134,-0.373,1.119
2024-10-15 13:50:09.812,74161.265,-0.125,0.366,-0.922,-0.093,0.01,0.193,-0.123,-0.042,0.04,-0.135,-0.374,1.119
2024-10-15 13:50:09.822,74161.275,-0.125,0.367,-0.922,-0.049,0.018,0.184,-0.154,0.021,0.093,-0.135,-0.376,1.119
2024-10-15 13:50:09.832,74161.284,-0.124,0.369,-0.921,-0.059,0.046,0.11,-0.283,0.049,0.132,-0.134,-0.378,1.12
2024-10-15 13:50:09.842,74161.294,-0.123,0.372,-0.92,-0.09,0.023,0.04,-0.4,0.06,0.184,-0.133,-0.381,1.121
2024-10-15 13:50:09.852,74161.304,-0.121,0.377,-0.918,-0.073,-0.029,-0.009,-0.479,0.106,0.212,-0.132,-0.386,1.123
2024-10-15 13:50:09.862,74161.314,-0.12,0.382,-0.916,-0.03,-0.024,-0.025,-0.607,0.087,0.286,-0.13,-0.392,1.125
2024-10-15 13:50:09.872,74161.324,-0.118,0.388,-0.914,-0.001,-0.012,0.006,-0.729,0.04,0.356,-0.128,-0.399,1.127
2024-10-15 13:50:09.882,74161.334,-0.116,0.396,-0.911,0.04,-0.015,0.071,-0.819,-0.004,0.416,-0.127,-0.407,1.13
2024-10-15 13:50:09.892,74161.344,-0.115,0.404,-0.908,0.084,0.013,0.126,-0.782,-0.073,0.465,-0.126,-0.416,1.134
2024-10-15 13:50:09.902,74161.354,-0.114,0.41,-0.905,0.121,0.055,0.145,-0.476,-0.092,0.413,-0.125,-0.423,1.138
2024-10-15 13:50:09.912,74161.364,-0.113,0.413,-0.904,0.173,0.106,0.123,-0.07,0.066,0.235,-0.124,-0.426,1.141
2024-10-15 13:50:09.922,74161.374,-0.111,0.413,-0.904,0.246,0.227,0.061,0.143,0.104,0.143,-0.122,-0.425,1.143
2024-10-15 13:50:09.931,74161.384,-0.11,0.411,-0.905,0.273,0.233,-0.048,0.231,0.129,0.079,-0.121,-0.424,1.145
2024-10-15 13:50:09.942,74161.394,-0.108,0.409,-0.906,0.278,0.069,-0.138,0.154,0.113,0.076,-0.119,-0.422,1.146
2024-10-15 13:50:09.952,74161.404,-0.107,0.409,-0.906,0.252,-0.055,-0.174,0.005,-0.002,0.09,-0.118,-0.421,1.147
2024-10-15 13:50:09.962,74161.414,-0.107,0.409,-0.906,0.202,-0.167,-0.13,-0.099,-0.089,0.15,-0.118,-0.422,1.148
2024-10-15 13:50:09.972,74161.424,-0.108,0.411,-0.905,0.166,-0.202,-0.045,-0.225,-0.336,0.307,-0.119,-0.423,1.15
2024-10-15 13:50:09.982,74161.434,-0.111,0.413,-0.904,0.165,-0.148,0.138,-0.142,-0.443,-0.116,-0.123,-0.426,1.151
2024-10-15 13:50:09.992,74161.444,-0.115,0.412,-0.904,0.275,-0.045,0.253,0.233,-0.298,0.02,-0.126,-0.425,1.15
2024-10-15 13:50:10.002,74161.454,-0.118,0.41,-0.905,0.081,0.133,-0.007,0.361,-0.33,-0.102,-0.129,-0.422,1.151
2024-10-15 13:50:10.012,74161.464,-0.121,0.405,-0.906,-0.122,0.094,-0.142,0.564,-0.13,-0.17,-0.132,-0.417,1.15
2024-10-15 13:50:10.021,74161.474,-0.122,0.4,-0.908,-0.187,0.083,-0.202,0.596,-0.021,-0.227,-0.133,-0.411,1.148
2024-10-15 13:50:10.031,74161.484,-0.123,0.394,-0.911,-0.252,0.078,-0.22,0.563,-0.019,-0.282,-0.135,-0.405,1.147
2024-10-15 13:50:10.041,74161.494,-0.124,0.389,-0.913,-0.274,-0.088,-0.174,0.496,0.068,-0.333,-0.135,-0.399,1.144
2024-10-15 13:50:10.051,74161.504,-0.125,0.384,-0.915,-0.249,-0.176,-0.092,0.379,-0.028,-0.313,-0.136,-0.395,1.141
2024-10-15 13:50:10.061,74161.514,-0.126,0.381,-0.916,-0.232,-0.238,-0.016,0.398,0.085,-0.445,-0.137,-0.39,1.138
2024-10-15 13:50:10.071,74161.524,-0.127,0.376,-0.918,-0.204,-0.217,0.072,0.396,0.129,-0.496,-0.138,-0.386,1.133
2024-10-15 13:50:10.081,74161.534,-0.128,0.372,-0.919,-0.211,-0.159,0.075,0.287,0.208,-0.501,-0.138,-0.382,1.128
2024-10-15 13:50:10.091,74161.544,-0.128,0.37,-0.92,-0.218,-0.174,0.046,0.066,0.18,-0.445,-0.138,-0.379,1.124
2024-10-15 13:50:10.101,74161.554,-0.127,0.37,-0.92,-0.228,-0.157,0.031,-0.101,0.187,-0.353,-0.137,-0.379,1.119
2024-10-15 13:50:10.111,74161.564,-0.127,0.371,-0.92,-0.206,-0.117,0.051,-0.165,0.237,-0.303,-0.137,-0.38,1.116
2024-10-15 13:50:10.121,74161.574,-0.125,0.372,-0.92,-0.173,-0.011,0.083,-0.182,0.261,-0.205,-0.135,-0.381,1.113
2024-10-15 13:50:10.131,74161.584,-0.124,0.374,-0.919,-0.156,0.082,0.089,-0.3,0.238,-0.099,-0.134,-0.383,1.111
2024-10-15 13:50:10.141,74161.594,-0.122,0.377,-0.918,-0.106,0.097,0.11,-0.387,0.172,-0.008,-0.132,-0.387,1.11
2024-10-15 13:50:10.151,74161.604,-0.12,0.381,-0.917,-0.027,0.1,0.154,-0.375,0.164,0.044,-0.13,-0.391,1.109
2024-10-15 13:50:10.161,74161.614,-0.118,0.384,-0.916,0.049,0.145,0.161,-0.357,0.171,0.176,-0.129,-0.394,1.11
2024-10-15 13:50:10.171,74161.624,-0.116,0.388,-0.914,0.078,0.204,0.148,-0.391,0.123,0.284,-0.126,-0.398,1.112
2024-10-15 13:50:10.181,74161.634,-0.114,0.392,-0.913,0.115,0.207,0.119,-0.385,0.103,0.391,-0.124,-0.402,1.115
2024-10-15 13:50:10.191,74161.644,-0.111,0.396,-0.912,0.174,0.206,0.076,-0.373,0.062,0.456,-0.122,-0.407,1.119
2024-10-15 13:50:10.201,74161.654,-0.109,0.4,-0.91,0.203,0.206,0.019,-0.376,-0.009,0.533,-0.119,-0.411,1.124
2024-10-15 13:50:10.211,74161.664,-0.107,0.404,-0.909,0.208,0.165,-0.024,-0.365,-0.114,0.583,-0.118,-0.415,1.13
2024-10-15 13:50:10.221,74161.674,-0.106,0.407,-0.907,0.209,0.111,-0.039,-0.206,-0.196,0.579,-0.117,-0.419,1.136
2024-10-15 13:50:10.231,74161.684,-0.106,0.408,-0.907,0.2,0.075,-0.009,0.126,-0.146,0.378,-0.117,-0.42,1.141
2024-10-15 13:50:10.241,74161.694,-0.106,0.405,-0.908,0.218,0.071,0.03,0.452,0.069,0.143,-0.116,-0.417,1.144
2024-10-15 13:50:10.251,74161.704,-0.104,0.402,-0.91,0.201,0.095,-0.026,0.347,0.087,0.128,-0.114,-0.413,1.146
2024-10-15 13:50:10.262,74161.714,-0.104,0.4,-0.911,0.139,-0.053,-0.148,0.147,-0.069,0.112,-0.113,-0.411,1.148
2024-10-15 13:50:10.271,74161.724,-0.104,0.399,-0.911,0.119,-0.253,-0.157,-0.016,-0.132,0.139,-0.114,-0.411,1.149
2024-10-15 13:50:10.281,74161.734,-0.106,0.4,-0.911,0.114,-0.272,-0.084,-0.093,-0.307,0.096,-0.115,-0.411,1.15
2024-10-15 13:50:10.291,74161.744,-0.108,0.4,-0.91,0.136,-0.18,0.066,0.076,-0.277,-0.139,-0.119,-0.412,1.15
2024-10-15 13:50:10.300,74161.754,-0.111,0.399,-0.91,0.14,-0.069,0.078,0.196,-0.232,-0.043,-0.121,-0.41,1.149
2024-10-15 13:50:10.311,74161.764,-0.114,0.396,-0.911,-0.0,0.045,-0.005,0.349,-0.263,-0.148,-0.124,-0.407,1.148
2024-10-15 13:50:10.321,74161.774,-0.116,0.392,-0.913,-0.066,0.064,0.008,0.525,-0.11,-0.166,-0.127,-0.403,1.147
2024-10-15 13:50:10.331,74161.784,-0.117,0.386,-0.915,-0.107,0.131,-0.008,0.676,-0.066,-0.144,-0.128,-0.396,1.147
2024-10-15 13:50:10.341,74161.794,-0.118,0.38,-0.917,-0.168,0.14,-0.048,0.675,-0.008,-0.189,-0.128,-0.389,1.146
2024-10-15 13:50:10.351,74161.804,-0.119,0.374,-0.92,-0.211,0.037,-0.063,0.552,0.045,-0.215,-0.129,-0.383,1.144
2024-10-15 13:50:10.361,74161.814,-0.12,0.369,-0.922,-0.206,-0.022,-0.073,0.434,-0.035,-0.185,-0.129,-0.378,1.143
2024-10-15 13:50:10.371,74161.824,-0.12,0.365,-0.923,-0.212,-0.161,-0.072,0.446,0.103,-0.349,-0.13,-0.373,1.141
2024-10-15 13:50:10.381,74161.834,-0.12,0.361,-0.925,-0.2,-0.159,0.001,0.244,0.174,-0.346,-0.129,-0.369,1.137
2024-10-15 13:50:10.392,74161.844,-0.121,0.36,-0.925,-0.197,-0.138,0.029,-0.248,-0.04,-0.233,-0.13,-0.369,1.134
2024-10-15 13:50:10.401,74161.854,-0.122,0.364,-0.923,-0.195,-0.306,0.043,-0.467,-0.025,-0.297,-0.131,-0.372,1.131
2024-10-15 13:50:10.410,74161.864,-0.123,0.367,-0.922,-0.196,-0.288,0.092,-0.341,0.143,-0.362,-0.132,-0.376,1.127
2024-10-15 13:50:10.421,74161.873,-0.122,0.369,-0.921,-0.234,-0.096,0.056,-0.209,0.317,-0.305,-0.131,-0.378,1.123
2024-10-15 13:50:10.430,74161.883,-0.12,0.371,-0.921,-0.274,-0.002,-0.032,-0.293,0.292,-0.219,-0.129,-0.38,1.12
2024-10-15 13:50:10.441,74161.893,-0.118,0.374,-0.92,-0.26,-0.024,-0.048,-0.334,0.29,-0.232,-0.128,-0.383,1.117
2024-10-15 13:50:10.451,74161.903,-0.116,0.377,-0.919,-0.185,-0.015,-0.02,-0.336,0.319,-0.136,-0.126,-0.386,1.115
2024-10-15 13:50:10.461,74161.913,-0.113,0.38,-0.918,-0.133,0.032,-0.019,-0.452,0.285,0.013,-0.123,-0.39,1.113
2024-10-15 13:50:10.471,74161.923,-0.111,0.385,-0.916,-0.093,0.049,0.023,-0.576,0.219,0.093,-0.12,-0.395,1.113
2024-10-15 13:50:10.481,74161.933,-0.109,0.391,-0.914,0.023,0.048,0.105,-0.639,0.147,0.146,-0.118,-0.401,1.114
2024-10-15 13:50:10.490,74161.943,-0.107,0.397,-0.912,0.153,0.107,0.144,-0.696,0.094,0.209,-0.117,-0.408,1.115
2024-10-15 13:50:10.500,74161.953,-0.105,0.403,-0.909,0.211,0.173,0.142,-0.685,0.048,0.31,-0.115,-0.415,1.117
2024-10-15 13:50:10.510,74161.963,-0.104,0.41,-0.906,0.227,0.183,0.106,-0.62,-0.009,0.37,-0.114,-0.422,1.12
2024-10-15 13:50:10.521,74161.973,-0.102,0.415,-0.904,0.257,0.172,0.05,-0.448,-0.066,0.406,-0.113,-0.428,1.123
2024-10-15 13:50:10.531,74161.983,-0.101,0.418,-0.903,0.286,0.173,0.005,-0.2,-0.068,0.359,-0.112,-0.432,1.127
2024-10-15 13:50:10.540,74161.993,-0.101,0.419,-0.902,0.314,0.22,-0.008,0.049,-0.097,0.317,-0.111,-0.433,1.131
2024-10-15 13:50:10.550,74162.003,-0.1,0.418,-0.903,0.328,0.245,-0.026,0.24,-0.072,0.245,-0.111,-0.432,1.134
2024-10-15 13:50:10.560,74162.013,-0.1,0.416,-0.904,0.318,0.193,-0.058,0.412,-0.015,0.145,-0.11,-0.429,1.137
2024-10-15 13:50:10.570,74162.023,-0.099,0.412,-0.906,0.26,0.126,-0.098,0.442,0.018,0.094,-0.109,-0.424,1.138
2024-10-15 13:50:10.581,74162.033,-0.099,0.408,-0.907,0.191,0.006,-0.141,0.286,-0.089,0.09,-0.109,-0.421,1.14
2024-10-15 13:50:10.590,74162.043,-0.1,0.407,-0.908,0.134,-0.135,-0.121,0.084,-0.252,0.216,-0.11,-0.419,1.142
2024-10-15 13:50:10.600,74162.053,-0.103,0.407,-0.908,0.115,-0.247,0.037,-0.03,-0.364,-0.053,-0.113,-0.419,1.143
2024-10-15 13:50:10.610,74162.063,-0.106,0.406,-0.908,0.191,-0.219,0.212,0.179,-0.24,-0.098,-0.116,-0.418,1.142
2024-10-15 13:50:10.620,74162.073,-0.109,0.404,-0.908,0.097,-0.076,0.078,0.197,-0.299,-0.117,-0.119,-0.416,1.141
2024-10-15 13:50:10.630,74162.083,-0.111,0.401,-0.909,-0.078,-0.076,-0.069,0.484,-0.165,-0.138,-0.122,-0.413,1.14
2024-10-15 13:50:10.640,74162.093,-0.112,0.396,-0.912,-0.171,-0.064,-0.153,0.673,0.026,-0.124,-0.123,-0.407,1.139
2024-10-15 13:50:10.651,74162.103,-0.113,0.389,-0.914,-0.231,0.063,-0.125,0.684,-0.015,-0.154,-0.123,-0.4,1.139
2024-10-15 13:50:10.660,74162.113,-0.114,0.383,-0.917,-0.181,0.056,-0.026,0.529,0.009,-0.204,-0.123,-0.393,1.138
2024-10-15 13:50:10.670,74162.123,-0.115,0.379,-0.918,-0.103,-0.018,0.056,0.29,-0.085,-0.215,-0.124,-0.389,1.136
2024-10-15 13:50:10.680,74162.133,-0.116,0.377,-0.919,-0.096,-0.067,0.069,0.178,-0.084,-0.236,-0.126,-0.387,1.134
2024-10-15 13:50:10.690,74162.143,-0.118,0.375,-0.919,-0.164,-0.12,0.046,0.193,0.011,-0.243,-0.127,-0.385,1.132
2024-10-15 13:50:10.700,74162.153,-0.118,0.373,-0.92,-0.248,-0.082,0.007,0.145,0.059,-0.215,-0.128,-0.383,1.129
2024-10-15 13:50:10.710,74162.163,-0.118,0.372,-0.921,-0.292,-0.082,-0.029,0.152,0.062,-0.235,-0.128,-0.381,1.127
2024-10-15 13:50:10.720,74162.173,-0.118,0.369,-0.922,-0.272,-0.09,-0.005,0.269,0.182,-0.366,-0.128,-0.378,1.124
2024-10-15 13:50:10.730,74162.183,-0.117,0.366,-0.923,-0.211,-0.04,0.025,0.35,0.337,-0.402,-0.127,-0.375,1.12
2024-10-15 13:50:10.740,74162.193,-0.116,0.363,-0.925,-0.174,-0.001,0.009,0.202,0.305,-0.301,-0.125,-0.371,1.117
2024-10-15 13:50:10.750,74162.203,-0.114,0.362,-0.925,-0.15,-0.084,-0.006,0.007,0.248,-0.267,-0.123,-0.37,1.114
2024-10-15 13:50:10.760,74162.213,-0.113,0.362,-0.925,-0.101,-0.13,0.028,-0.123,0.264,-0.187,-0.121,-0.37,1.112
2024-10-15 13:50:10.770,74162.223,-0.111,0.364,-0.925,-0.057,-0.068,0.046,-0.38,0.216,0.011,-0.119,-0.373,1.11
2024-10-15 13:50:10.781,74162.233,-0.109,0.369,-0.923,-0.035,-0.043,0.047,-0.542,0.14,0.106,-0.117,-0.377,1.111
2024-10-15 13:50:10.790,74162.243,-0.107,0.374,-0.921,0.006,-0.036,0.063,-0.58,0.105,0.151,-0.116,-0.383,1.111
2024-10-15 13:50:10.800,74162.253,-0.106,0.379,-0.919,0.062,0.033,0.061,-0.48,0.147,0.213,-0.114,-0.389,1.112
2024-10-15 13:50:10.810,74162.263,-0.103,0.383,-0.918,0.1,0.182,0.069,-0.387,0.115,0.301,-0.112,-0.393,1.115
2024-10-15 13:50:10.820,74162.273,-0.101,0.387,-0.917,0.151,0.282,0.083,-0.261,0.009,0.325,-0.11,-0.397,1.118
2024-10-15 13:50:10.830,74162.283,-0.1,0.389,-0.916,0.236,0.288,0.086,-0.109,-0.024,0.331,-0.109,-0.399,1.121
2024-10-15 13:50:10.840,74162.293,-0.099,0.39,-0.915,0.298,0.28,0.059,-0.167,-0.039,0.45,-0.108,-0.401,1.125
2024-10-15 13:50:10.850,74162.303,-0.098,0.393,-0.914,0.3,0.247,0.017,-0.479,-0.334,0.715,-0.107,-0.404,1.131
2024-10-15 13:50:10.860,74162.313,-0.1,0.399,-0.912,0.282,0.1,0.035,-0.486,-0.531,0.693,-0.109,-0.41,1.138
2024-10-15 13:50:10.870,74162.323,-0.102,0.402,-0.91,0.317,0.045,0.153,0.057,-0.406,0.305,-0.112,-0.413,1.144
2024-10-15 13:50:10.880,74162.333,-0.103,0.398,-0.912,0.285,0.199,0.134,0.688,0.179,0.034,-0.112,-0.409,1.145
2024-10-15 13:50:10.890,74162.343,-0.101,0.393,-0.914,0.082,0.278,-0.169,0.375,-0.067,0.349,-0.11,-0.404,1.148
2024-10-15 13:50:10.900,74162.353,-0.102,0.391,-0.915,-0.138,-0.114,-0.422,0.1,-0.303,0.121,-0.111,-0.402,1.151
2024-10-15 13:50:10.910,74162.363,-0.104,0.39,-0.915,0.029,-0.518,-0.122,0.104,-0.234,-0.158,-0.114,-0.401,1.151
2024-10-15 13:50:10.920,74162.373,-0.107,0.39,-0.915,0.171,-0.368,0.053,-0.067,-0.286,-0.099,-0.117,-0.401,1.15
2024-10-15 13:50:10.929,74162.383,-0.111,0.391,-0.914,0.011,-0.328,-0.03,-0.188,-0.379,-0.125,-0.12,-0.402,1.148
2024-10-15 13:50:10.939,74162.393,-0.115,0.392,-0.913,-0.106,-0.401,-0.017,-0.079,-0.344,-0.238,-0.125,-0.403,1.146
2024-10-15 13:50:10.950,74162.403,-0.119,0.392,-0.912,-0.087,-0.19,0.027,0.151,-0.288,-0.249,-0.129,-0.402,1.143
2024-10-15 13:50:10.959,74162.413,-0.122,0.389,-0.913,-0.108,0.049,0.022,0.333,-0.2,-0.241,-0.133,-0.4,1.141
2024-10-15 13:50:10.970,74162.423,-0.124,0.385,-0.915,-0.152,0.168,0.016,0.539,-0.097,-0.221,-0.135,-0.395,1.139
2024-10-15 13:50:10.980,74162.433,-0.125,0.38,-0.917,-0.169,0.266,0.02,0.479,0.009,-0.2,-0.136,-0.39,1.138
2024-10-15 13:50:10.990,74162.443,-0.126,0.376,-0.918,-0.158,0.276,0.007,0.291,-0.092,-0.06,-0.136,-0.386,1.137
2024-10-15 13:50:11.000,74162.453,-0.127,0.374,-0.919,-0.155,0.168,-0.03,0.222,-0.12,-0.023,-0.138,-0.383,1.137
2024-10-15 13:50:11.010,74162.462,-0.128,0.371,-0.92,-0.149,0.064,-0.02,0.373,0.07,-0.064,-0.138,-0.38,1.137
2024-10-15 13:50:11.020,74162.472,-0.127,0.368,-0.921,-0.159,0.154,0.016,0.303,0.066,0.006,-0.137,-0.377,1.137
2024-10-15 13:50:11.031,74162.482,-0.127,0.366,-0.922,-0.159,0.099,0.019,0.096,-0.044,0.017,-0.137,-0.375,1.138
2024-10-15 13:50:11.040,74162.492,-0.127,0.365,-0.922,-0.104,-0.076,0.041,0.023,-0.033,-0.061,-0.137,-0.374,1.137
2024-10-15 13:50:11.050,74162.502,-0.128,0.365,-0.922,-0.082,-0.126,0.065,-0.002,0.018,-0.091,-0.138,-0.374,1.137
2024-10-15 13:50:11.059,74162.512,-0.128,0.365,-0.922,-0.103,-0.124,0.051,0.0,0.086,-0.137,-0.137,-0.374,1.135
2024-10-15 13:50:11.069,74162.522,-0.127,0.365,-0.922,-0.118,-0.146,0.046,0.0,0.232,-0.27,-0.137,-0.373,1.133
2024-10-15 13:50:11.080,74162.532,-0.125,0.365,-0.922,-0.112,-0.165,0.006,-0.16,0.276,-0.29,-0.135,-0.374,1.13
2024-10-15 13:50:11.090,74162.542,-0.124,0.368,-0.922,-0.125,-0.224,-0.07,-0.504,0.324,-0.256,-0.134,-0.377,1.127
2024-10-15 13:50:11.099,74162.552,-0.121,0.374,-0.919,-0.139,-0.279,-0.077,-0.969,0.417,-0.127,-0.131,-0.384,1.124
2024-10-15 13:50:11.109,74162.562,-0.117,0.385,-0.915,-0.152,-0.256,-0.022,-1.342,0.438,-0.005,-0.128,-0.395,1.121
2024-10-15 13:50:11.119,74162.572,-0.113,0.397,-0.911,-0.144,-0.211,-0.023,-1.354,0.541,0.029,-0.123,-0.409,1.12
2024-10-15 13:50:11.129,74162.582,-0.107,0.409,-0.906,-0.127,-0.066,-0.068,-1.165,0.634,0.02,-0.118,-0.421,1.118
2024-10-15 13:50:11.139,74162.592,-0.102,0.418,-0.903,-0.127,0.095,-0.087,-0.881,0.566,-0.018,-0.113,-0.431,1.117
2024-10-15 13:50:11.149,74162.602,-0.098,0.425,-0.9,-0.083,0.168,-0.075,-0.53,0.471,-0.079,-0.108,-0.438,1.116
2024-10-15 13:50:11.160,74162.612,-0.094,0.428,-0.899,-0.001,0.207,-0.056,-0.186,0.375,-0.111,-0.104,-0.442,1.114
2024-10-15 13:50:11.170,74162.622,-0.092,0.428,-0.899,0.056,0.231,-0.005,0.016,0.232,-0.11,-0.102,-0.442,1.113
2024-10-15 13:50:11.180,74162.632,-0.091,0.428,-0.899,0.104,0.183,0.085,0.077,0.062,-0.07,-0.101,-0.442,1.112
2024-10-15 13:50:11.189,74162.642,-0.091,0.427,-0.9,0.168,0.094,0.18,0.012,-0.105,-0.047,-0.101,-0.441,1.111
2024-10-15 13:50:11.199,74162.652,-0.093,0.427,-0.899,0.2,0.046,0.224,0.007,-0.244,-0.007,-0.103,-0.441,1.111
2024-10-15 13:50:11.209,74162.662,-0.096,0.427,-0.899,0.183,0.033,0.221,0.022,-0.328,0.026,-0.106,-0.441,1.111
2024-10-15 13:50:11.219,74162.672,-0.099,0.427,-0.899,0.168,0.023,0.204,0.041,-0.382,-0.001,-0.11,-0.441,1.111
2024-10-15 13:50:11.229,74162.682,-0.102,0.426,-0.899,0.142,0.052,0.173,0.074,-0.408,0.009,-0.113,-0.44,1.111
2024-10-15 13:50:11.239,74162.692,-0.106,0.425,-0.899,0.101,0.057,0.113,0.117,-0.406,0.025,-0.117,-0.439,1.112
2024-10-15 13:50:11.249,74162.702,-0.109,0.424,-0.899,0.068,0.045,0.069,0.137,-0.38,0.015,-0.121,-0.438,1.112
2024-10-15 13:50:11.259,74162.712,-0.113,0.423,-0.899,0.042,0.036,0.059,0.156,-0.326,0.004,-0.125,-0.437,1.112
2024-10-15 13:50:11.269,74162.722,-0.115,0.421,-0.9,0.022,0.029,0.045,0.158,-0.252,0.024,-0.127,-0.435,1.113
2024-10-15 13:50:11.280,74162.732,-0.117,0.42,-0.9,-0.002,0.008,0.013,0.125,-0.18,0.024,-0.129,-0.434,1.113
2024-10-15 13:50:11.289,74162.742,-0.118,0.419,-0.9,-0.029,-0.011,-0.013,0.13,-0.12,-0.001,-0.131,-0.432,1.113
2024-10-15 13:50:11.299,74162.752,-0.119,0.418,-0.901,-0.036,-0.019,-0.025,0.221,-0.071,-0.047,-0.132,-0.431,1.114
2024-10-15 13:50:11.309,74162.762,-0.12,0.415,-0.902,-0.027,-0.01,-0.029,0.282,-0.003,-0.114,-0.132,-0.428,1.113
2024-10-15 13:50:11.319,74162.772,-0.12,0.413,-0.903,-0.024,0.01,-0.023,0.177,0.152,-0.1,-0.132,-0.425,1.112
2024-10-15 13:50:11.329,74162.782,-0.119,0.412,-0.903,-0.025,-0.016,-0.006,-0.069,0.037,-0.071,-0.131,-0.425,1.111
2024-10-15 13:50:11.339,74162.792,-0.119,0.412,-0.903,-0.042,-0.088,-0.033,0.15,0.03,-0.052,-0.131,-0.425,1.111
2024-10-15 13:50:11.349,74162.802,-0.118,0.41,-0.904,-0.064,-0.046,-0.134,0.271,0.245,-0.053,-0.13,-0.422,1.11
2024-10-15 13:50:11.359,74162.812,-0.116,0.408,-0.906,-0.05,0.121,-0.056,0.171,0.168,0.033,-0.128,-0.42,1.111
2024-10-15 13:50:11.369,74162.822,-0.115,0.407,-0.906,-0.062,0.059,0.013,0.132,0.102,0.055,-0.126,-0.419,1.111
2024-10-15 13:50:11.379,74162.832,-0.114,0.406,-0.907,-0.0,0.001,0.031,0.137,0.122,0.068,-0.125,-0.418,1.112
2024-10-15 13:50:11.388,74162.842,-0.112,0.405,-0.908,0.032,0.061,0.064,0.12,0.115,0.113,-0.123,-0.416,1.113
2024-10-15 13:50:11.398,74162.852,-0.111,0.404,-0.908,0.013,0.084,0.051,0.105,0.125,0.146,-0.121,-0.415,1.115
2024-10-15 13:50:11.408,74162.862,-0.109,0.404,-0.908,0.001,0.087,0.021,-0.184,0.138,0.34,-0.119,-0.416,1.117
2024-10-15 13:50:11.419,74162.872,-0.107,0.409,-0.906,0.015,0.057,0.002,-0.791,-0.185,0.676,-0.117,-0.421,1.122
2024-10-15 13:50:11.428,74162.882,-0.106,0.418,-0.902,0.065,-0.044,0.067,-0.92,-0.313,0.651,-0.117,-0.431,1.128
2024-10-15 13:50:11.438,74162.892,-0.106,0.425,-0.899,0.141,-0.068,0.191,-0.478,-0.278,0.555,-0.118,-0.439,1.134
2024-10-15 13:50:11.449,74162.902,-0.107,0.427,-0.898,0.14,0.144,0.124,0.013,-0.202,0.473,-0.118,-0.442,1.139
2024-10-15 13:50:11.459,74162.912,-0.106,0.426,-0.899,0.112,0.245,0.006,0.456,-0.058,0.302,-0.117,-0.44,1.144
2024-10-15 13:50:11.469,74162.922,-0.105,0.42,-0.901,0.085,0.209,-0.09,0.813,-0.038,0.169,-0.116,-0.434,1.147
2024-10-15 13:50:11.479,74162.932,-0.105,0.412,-0.905,0.041,0.118,-0.212,1.051,0.17,-0.071,-0.115,-0.424,1.149
2024-10-15 13:50:11.489,74162.942,-0.103,0.402,-0.91,0.051,-0.015,-0.224,1.039,0.274,-0.064,-0.113,-0.414,1.149
2024-10-15 13:50:11.499,74162.952,-0.102,0.394,-0.913,0.011,-0.123,-0.255,0.624,-0.09,0.041,-0.111,-0.405,1.151
2024-10-15 13:50:11.509,74162.962,-0.104,0.389,-0.915,0.017,-0.391,-0.199,0.524,-0.216,-0.079,-0.113,-0.4,1.151
2024-10-15 13:50:11.519,74162.972,-0.106,0.384,-0.917,0.125,-0.461,-0.001,0.478,-0.181,-0.157,-0.115,-0.395,1.15
2024-10-15 13:50:11.529,74162.982,-0.109,0.381,-0.918,0.149,-0.221,0.13,0.307,-0.346,-0.191,-0.118,-0.391,1.149
2024-10-15 13:50:11.539,74162.992,-0.113,0.378,-0.919,0.146,-0.128,0.126,0.363,-0.361,-0.157,-0.122,-0.387,1.148
2024-10-15 13:50:11.549,74163.002,-0.116,0.373,-0.92,0.077,-0.107,0.062,0.491,-0.241,-0.217,-0.126,-0.383,1.146
2024-10-15 13:50:11.559,74163.012,-0.119,0.368,-0.922,-0.007,0.078,-0.009,0.564,-0.221,-0.195,-0.129,-0.377,1.145
2024-10-15 13:50:11.569,74163.022,-0.122,0.363,-0.924,-0.075,0.166,-0.076,0.573,-0.178,-0.2,-0.131,-0.371,1.143
2024-10-15 13:50:11.579,74163.032,-0.124,0.357,-0.926,-0.095,0.159,-0.118,0.622,-0.084,-0.207,-0.133,-0.365,1.142
2024-10-15 13:50:11.589,74163.042,-0.125,0.351,-0.928,-0.155,0.177,-0.139,0.619,0.038,-0.119,-0.133,-0.359,1.141
2024-10-15 13:50:11.599,74163.051,-0.125,0.346,-0.93,-0.211,0.151,-0.113,0.492,0.024,-0.09,-0.133,-0.353,1.141
2024-10-15 13:50:11.609,74163.061,-0.125,0.342,-0.931,-0.237,0.07,-0.033,0.359,0.041,-0.17,-0.133,-0.349,1.14
2024-10-15 13:50:11.619,74163.071,-0.125,0.339,-0.932,-0.221,-0.014,0.076,0.181,0.032,-0.149,-0.133,-0.346,1.139
2024-10-15 13:50:11.629,74163.081,-0.125,0.338,-0.933,-0.185,-0.096,0.148,-0.06,-0.023,-0.116,-0.134,-0.345,1.137
2024-10-15 13:50:11.639,74163.091,-0.126,0.34,-0.932,-0.166,-0.178,0.182,-0.258,-0.037,-0.105,-0.134,-0.346,1.136
2024-10-15 13:50:11.649,74163.101,-0.127,0.342,-0.931,-0.149,-0.188,0.182,-0.351,-0.009,-0.081,-0.135,-0.349,1.135
2024-10-15 13:50:11.659,74163.111,-0.127,0.346,-0.93,-0.143,-0.152,0.136,-0.38,0.063,-0.065,-0.135,-0.353,1.133
2024-10-15 13:50:11.669,74163.121,-0.126,0.349,-0.929,-0.134,-0.095,0.072,-0.358,0.165,-0.067,-0.135,-0.356,1.132
2024-10-15 13:50:11.679,74163.131,-0.124,0.352,-0.928,-0.138,-0.029,-0.013,-0.346,0.229,0.027,-0.133,-0.36,1.131
2024-10-15 13:50:11.688,74163.141,-0.121,0.356,-0.927,-0.144,-0.011,-0.089,-0.375,0.276,0.117,-0.13,-0.364,1.132
2024-10-15 13:50:11.698,74163.151,-0.118,0.36,-0.926,-0.115,-0.015,-0.093,-0.456,0.289,0.175,-0.127,-0.368,1.133
2024-10-15 13:50:11.708,74163.161,-0.115,0.365,-0.924,-0.045,-0.011,-0.058,-0.62,0.261,0.238,-0.124,-0.373,1.134
2024-10-15 13:50:11.718,74163.171,-0.112,0.372,-0.922,0.039,-0.021,0.006,-0.828,0.194,0.321,-0.121,-0.381,1.136
2024-10-15 13:50:11.728,74163.181,-0.109,0.381,-0.918,0.118,-0.047,0.067,-0.997,0.074,0.394,-0.118,-0.39,1.139
2024-10-15 13:50:11.738,74163.191,-0.108,0.39,-0.915,0.187,-0.058,0.101,-0.923,-0.079,0.41,-0.117,-0.401,1.142
2024-10-15 13:50:11.748,74163.201,-0.107,0.397,-0.911,0.23,-0.028,0.098,-0.545,-0.101,0.355,-0.117,-0.408,1.145
2024-10-15 13:50:11.758,74163.211,-0.106,0.401,-0.91,0.257,0.086,0.08,-0.146,0.02,0.231,-0.116,-0.412,1.148
2024-10-15 13:50:11.768,74163.221,-0.105,0.401,-0.91,0.272,0.231,0.044,0.177,0.056,0.142,-0.115,-0.412,1.15
2024-10-15 13:50:11.779,74163.231,-0.104,0.399,-0.911,0.266,0.232,-0.024,0.255,0.115,0.101,-0.114,-0.41,1.151
2024-10-15 13:50:11.788,74163.241,-0.103,0.397,-0.912,0.277,0.123,-0.082,0.165,-0.031,0.114,-0.113,-0.408,1.153
2024-10-15 13:50:11.799,74163.251,-0.103,0.396,-0.913,0.248,0.023,-0.093,0.087,-0.097,0.09,-0.113,-0.407,1.154
2024-10-15 13:50:11.808,74163.261,-0.104,0.395,-0.913,0.223,-0.068,-0.072,0.068,-0.136,0.073,-0.113,-0.406,1.155
2024-10-15 13:50:11.817,74163.271,-0.105,0.394,-0.913,0.149,-0.045,-0.051,0.204,-0.171,0.225,-0.115,-0.405,1.157
2024-10-15 13:50:11.828,74163.281,-0.107,0.393,-0.913,0.065,-0.029,0.035,0.099,-0.335,-0.007,-0.116,-0.404,1.159
2024-10-15 13:50:11.838,74163.291,-0.111,0.391,-0.914,0.187,0.025,0.265,0.24,-0.455,-0.169,-0.121,-0.402,1.157
2024-10-15 13:50:11.848,74163.301,-0.114,0.388,-0.914,0.208,0.043,0.138,0.351,-0.205,-0.126,-0.125,-0.399,1.156
2024-10-15 13:50:11.858,74163.311,-0.117,0.385,-0.916,-0.033,0.028,-0.011,0.33,-0.257,-0.165,-0.127,-0.395,1.155
2024-10-15 13:50:11.868,74163.321,-0.12,0.381,-0.917,-0.205,0.005,-0.151,0.44,-0.164,-0.226,-0.13,-0.391,1.154
2024-10-15 13:50:11.879,74163.331,-0.121,0.376,-0.919,-0.262,-0.12,-0.206,0.555,0.004,-0.32,-0.131,-0.386,1.152
2024-10-15 13:50:11.888,74163.341,-0.123,0.371,-0.921,-0.279,-0.074,-0.182,0.502,0.004,-0.331,-0.132,-0.38,1.149
2024-10-15 13:50:11.898,74163.351,-0.124,0.367,-0.922,-0.289,-0.147,-0.127,0.328,0.023,-0.352,-0.133,-0.375,1.146
2024-10-15 13:50:11.908,74163.361,-0.125,0.364,-0.923,-0.234,-0.21,-0.05,0.121,-0.041,-0.317,-0.135,-0.373,1.143
2024-10-15 13:50:11.918,74163.371,-0.127,0.363,-0.923,-0.226,-0.21,0.008,0.018,0.002,-0.387,-0.136,-0.372,1.139
2024-10-15 13:50:11.928,74163.381,-0.128,0.362,-0.923,-0.221,-0.179,0.051,0.028,0.093,-0.435,-0.137,-0.371,1.135
2024-10-15 13:50:11.938,74163.391,-0.128,0.362,-0.924,-0.254,-0.078,0.05,0.047,0.215,-0.347,-0.137,-0.37,1.13
2024-10-15 13:50:11.948,74163.401,-0.127,0.361,-0.924,-0.259,-0.006,0.049,-0.03,0.214,-0.287,-0.136,-0.369,1.127
2024-10-15 13:50:11.958,74163.411,-0.126,0.361,-0.924,-0.233,0.013,0.067,-0.075,0.207,-0.215,-0.135,-0.37,1.124
2024-10-15 13:50:11.968,74163.421,-0.124,0.362,-0.924,-0.179,0.044,0.101,-0.236,0.193,-0.051,-0.134,-0.371,1.123
2024-10-15 13:50:11.978,74163.431,-0.123,0.365,-0.923,-0.12,0.088,0.125,-0.326,0.167,0.086,-0.132,-0.374,1.123
2024-10-15 13:50:11.988,74163.441,-0.12,0.368,-0.922,-0.074,0.128,0.151,-0.337,0.194,0.147,-0.13,-0.377,1.123
2024-10-15 13:50:11.998,74163.451,-0.118,0.372,-0.921,-0.002,0.15,0.127,-0.423,0.196,0.211,-0.127,-0.381,1.125
2024-10-15 13:50:12.009,74163.461,-0.115,0.377,-0.919,0.071,0.138,0.084,-0.524,0.149,0.274,-0.125,-0.386,1.127
2024-10-15 13:50:12.018,74163.471,-0.113,0.382,-0.917,0.126,0.097,0.06,-0.557,0.126,0.322,-0.123,-0.392,1.129
2024-10-15 13:50:12.028,74163.481,-0.111,0.388,-0.915,0.167,0.084,0.05,-0.568,0.096,0.392,-0.12,-0.398,1.132
2024-10-15 13:50:12.038,74163.491,-0.108,0.393,-0.913,0.19,0.094,0.037,-0.586,0.021,0.461,-0.118,-0.404,1.136
2024-10-15 13:50:12.048,74163.501,-0.107,0.399,-0.911,0.2,0.09,0.022,-0.564,-0.055,0.513,-0.117,-0.411,1.141
2024-10-15 13:50:12.058,74163.511,-0.105,0.405,-0.908,0.225,0.084,0.021,-0.524,-0.158,0.584,-0.116,-0.417,1.146
2024-10-15 13:50:12.068,74163.521,-0.105,0.41,-0.906,0.252,0.117,0.029,-0.444,-0.262,0.633,-0.115,-0.422,1.152
2024-10-15 13:50:12.078,74163.531,-0.105,0.414,-0.904,0.266,0.175,0.067,-0.261,-0.377,0.65,-0.116,-0.426,1.159
2024-10-15 13:50:12.088,74163.541,-0.106,0.415,-0.904,0.282,0.213,0.111,0.049,-0.273,0.427,-0.117,-0.428,1.164
2024-10-15 13:50:12.098,74163.551,-0.106,0.414,-0.904,0.274,0.238,0.106,0.36,-0.103,0.286,-0.117,-0.426,1.169
2024-10-15 13:50:12.108,74163.561,-0.106,0.41,-0.906,0.177,0.196,-0.057,0.4,-0.117,0.263,-0.116,-0.423,1.172
2024-10-15 13:50:12.118,74163.571,-0.106,0.407,-0.907,0.046,-0.043,-0.226,0.355,-0.184,0.126,-0.117,-0.419,1.175
2024-10-15 13:50:12.128,74163.581,-0.108,0.404,-0.908,0.003,-0.28,-0.193,0.291,-0.137,-0.176,-0.118,-0.416,1.175
2024-10-15 13:50:12.138,74163.591,-0.11,0.402,-0.909,0.005,-0.351,-0.115,0.131,-0.162,-0.229,-0.12,-0.414,1.173
2024-10-15 13:50:12.148,74163.601,-0.113,0.401,-0.909,-0.121,-0.434,-0.151,0.012,-0.224,-0.297,-0.124,-0.413,1.17
2024-10-15 13:50:12.158,74163.611,-0.116,0.401,-0.909,-0.201,-0.509,-0.11,0.034,-0.177,-0.385,-0.127,-0.412,1.166
2024-10-15 13:50:12.168,74163.621,-0.119,0.399,-0.909,-0.191,-0.354,-0.059,0.137,-0.138,-0.398,-0.13,-0.411,1.162
2024-10-15 13:50:12.178,74163.631,-0.122,0.397,-0.91,-0.2,-0.141,-0.03,0.29,-0.087,-0.403,-0.133,-0.408,1.158
2024-10-15 13:50:12.188,74163.64,-0.124,0.393,-0.911,-0.203,0.016,-0.023,0.5,0.042,-0.461,-0.135,-0.404,1.154
2024-10-15 13:50:12.198,74163.65,-0.125,0.387,-0.914,-0.216,0.171,-0.034,0.67,0.192,-0.469,-0.135,-0.397,1.15
2024-10-15 13:50:12.208,74163.66,-0.124,0.38,-0.917,-0.235,0.247,-0.064,0.676,0.241,-0.376,-0.135,-0.39,1.146
2024-10-15 13:50:12.218,74163.67,-0.123,0.374,-0.919,-0.236,0.209,-0.055,0.547,0.224,-0.332,-0.133,-0.383,1.144
2024-10-15 13:50:12.228,74163.68,-0.122,0.369,-0.921,-0.205,0.124,0.006,0.428,0.248,-0.314,-0.132,-0.378,1.141
2024-10-15 13:50:12.237,74163.69,-0.121,0.366,-0.923,-0.173,0.077,0.078,0.287,0.242,-0.203,-0.13,-0.374,1.139
2024-10-15 13:50:12.248,74163.7,-0.119,0.364,-0.924,-0.142,0.041,0.127,0.117,0.241,-0.149,-0.129,-0.372,1.137
2024-10-15 13:50:12.257,74163.71,-0.118,0.363,-0.924,-0.112,0.001,0.164,-0.059,0.214,-0.096,-0.127,-0.372,1.136
2024-10-15 13:50:12.267,74163.72,-0.116,0.364,-0.924,-0.084,-0.016,0.169,-0.238,0.155,-0.035,-0.125,-0.373,1.135
2024-10-15 13:50:12.278,74163.73,-0.115,0.367,-0.923,-0.051,-0.032,0.146,-0.346,0.168,0.041,-0.124,-0.376,1.134
2024-10-15 13:50:12.288,74163.74,-0.113,0.371,-0.922,-0.038,-0.022,0.105,-0.415,0.164,0.112,-0.122,-0.38,1.135
2024-10-15 13:50:12.297,74163.75,-0.111,0.375,-0.92,-0.049,0.012,0.057,-0.441,0.17,0.15,-0.12,-0.384,1.136
2024-10-15 13:50:12.307,74163.76,-0.109,0.379,-0.919,-0.038,0.047,0.025,-0.453,0.174,0.217,-0.118,-0.389,1.137
2024-10-15 13:50:12.318,74163.77,-0.106,0.384,-0.917,0.002,0.079,-0.001,-0.498,0.155,0.299,-0.115,-0.394,1.139
2024-10-15 13:50:12.327,74163.78,-0.104,0.389,-0.915,0.05,0.09,-0.01,-0.514,0.12,0.34,-0.113,-0.399,1.142
2024-10-15 13:50:12.337,74163.79,-0.101,0.394,-0.914,0.107,0.102,0.011,-0.522,0.078,0.39,-0.11,-0.405,1.145
2024-10-15 13:50:12.347,74163.8,-0.099,0.399,-0.911,0.17,0.101,0.036,-0.564,-0.02,0.453,-0.109,-0.411,1.149
2024-10-15 13:50:12.357,74163.81,-0.098,0.405,-0.909,0.221,0.059,0.041,-0.52,-0.137,0.459,-0.108,-0.417,1.153
2024-10-15 13:50:12.367,74163.82,-0.098,0.409,-0.907,0.263,0.024,0.045,-0.293,-0.242,0.383,-0.108,-0.421,1.158
2024-10-15 13:50:12.378,74163.83,-0.099,0.41,-0.907,0.281,0.022,0.04,0.093,-0.116,0.174,-0.109,-0.423,1.161
2024-10-15 13:50:12.388,74163.84,-0.099,0.408,-0.907,0.275,0.052,0.001,0.212,0.062,0.025,-0.108,-0.421,1.162
2024-10-15 13:50:12.398,74163.85,-0.099,0.408,-0.908,0.217,0.014,-0.111,-0.032,-0.172,0.099,-0.108,-0.42,1.163
2024-10-15 13:50:12.407,74163.86,-0.1,0.408,-0.907,0.161,-0.189,-0.203,-0.067,-0.13,-0.082,-0.11,-0.421,1.163
2024-10-15 13:50:12.417,74163.87,-0.102,0.409,-0.907,0.179,-0.359,-0.147,-0.167,-0.143,-0.113,-0.112,-0.421,1.161
2024-10-15 13:50:12.427,74163.88,-0.104,0.411,-0.906,0.111,-0.277,-0.13,-0.292,-0.365,-0.126,-0.115,-0.424,1.16
2024-10-15 13:50:12.437,74163.89,-0.108,0.413,-0.904,0.054,-0.317,-0.07,-0.049,-0.348,-0.155,-0.119,-0.425,1.158
2024-10-15 13:50:12.448,74163.9,-0.112,0.412,-0.904,0.055,-0.227,0.039,0.189,-0.194,-0.279,-0.123,-0.424,1.156
2024-10-15 13:50:12.457,74163.91,-0.115,0.41,-0.905,0.073,0.072,0.168,0.173,-0.25,-0.3,-0.126,-0.422,1.153
2024-10-15 13:50:12.467,74163.92,-0.118,0.408,-0.905,0.087,0.137,0.111,0.095,-0.238,-0.344,-0.13,-0.42,1.15
2024-10-15 13:50:12.477,74163.93,-0.122,0.407,-0.905,-0.028,0.077,-0.032,0.13,-0.19,-0.286,-0.134,-0.419,1.146
2024-10-15 13:50:12.487,74163.94,-0.124,0.404,-0.906,-0.217,0.104,-0.2,0.475,-0.029,-0.26,-0.136,-0.416,1.144
2024-10-15 13:50:12.497,74163.95,-0.124,0.397,-0.909,-0.341,0.174,-0.231,0.896,0.35,-0.411,-0.135,-0.408,1.141
2024-10-15 13:50:12.508,74163.96,-0.122,0.388,-0.914,-0.353,0.325,-0.116,0.946,0.346,-0.381,-0.133,-0.398,1.138
2024-10-15 13:50:12.517,74163.97,-0.121,0.38,-0.917,-0.276,0.243,-0.034,0.669,0.216,-0.366,-0.131,-0.39,1.135
2024-10-15 13:50:12.527,74163.98,-0.12,0.374,-0.919,-0.162,-0.015,0.056,0.49,0.16,-0.345,-0.13,-0.384,1.132
2024-10-15 13:50:12.537,74163.99,-0.12,0.37,-0.921,-0.149,-0.08,0.125,0.368,0.146,-0.295,-0.13,-0.379,1.13
2024-10-15 13:50:12.547,74164.0,-0.12,0.367,-0.922,-0.196,-0.081,0.159,0.263,0.177,-0.255,-0.129,-0.376,1.127
2024-10-15 13:50:12.557,74164.01,-0.119,0.365,-0.924,-0.23,-0.049,0.168,0.164,0.193,-0.183,-0.128,-0.373,1.125
2024-10-15 13:50:12.568,74164.02,-0.118,0.364,-0.924,-0.245,-0.03,0.153,0.035,0.206,-0.141,-0.127,-0.372,1.124
2024-10-15 13:50:12.577,74164.03,-0.116,0.364,-0.924,-0.212,-0.035,0.138,-0.057,0.247,-0.11,-0.125,-0.372,1.122
2024-10-15 13:50:12.587,74164.04,-0.114,0.365,-0.924,-0.177,-0.014,0.114,-0.203,0.252,-0.018,-0.123,-0.373,1.121
2024-10-15 13:50:12.597,74164.05,-0.112,0.367,-0.923,-0.14,-0.042,0.058,-0.352,0.24,0.041,-0.12,-0.376,1.121
2024-10-15 13:50:12.607,74164.06,-0.109,0.371,-0.922,-0.081,-0.073,0.023,-0.491,0.208,0.07,-0.118,-0.38,1.121
2024-10-15 13:50:12.617,74164.07,-0.107,0.376,-0.92,-0.002,-0.069,0.007,-0.613,0.188,0.146,-0.116,-0.386,1.121
2024-10-15 13:50:12.627,74164.08,-0.105,0.383,-0.918,0.069,-0.026,0.005,-0.722,0.144,0.242,-0.114,-0.393,1.123
2024-10-15 13:50:12.637,74164.09,-0.103,0.39,-0.915,0.106,0.023,0.011,-0.796,0.112,0.338,-0.112,-0.401,1.125
2024-10-15 13:50:12.647,74164.1,-0.1,0.398,-0.912,0.138,0.071,0.027,-0.875,0.022,0.436,-0.11,-0.409,1.128
2024-10-15 13:50:12.657,74164.11,-0.099,0.406,-0.909,0.166,0.102,0.046,-0.632,-0.147,0.48,-0.109,-0.418,1.132
2024-10-15 13:50:12.667,74164.12,-0.099,0.41,-0.907,0.188,0.112,0.067,-0.276,-0.151,0.399,-0.108,-0.423,1.137
2024-10-15 13:50:12.677,74164.13,-0.099,0.411,-0.906,0.246,0.187,0.077,0.121,-0.087,0.232,-0.108,-0.424,1.14
2024-10-15 13:50:12.687,74164.14,-0.098,0.409,-0.907,0.265,0.283,0.047,0.417,0.086,0.11,-0.107,-0.421,1.142
2024-10-15 13:50:12.697,74164.15,-0.097,0.405,-0.909,0.257,0.22,-0.044,0.474,0.11,0.06,-0.106,-0.417,1.144
2024-10-15 13:50:12.707,74164.16,-0.096,0.401,-0.911,0.236,0.086,-0.123,0.287,0.019,0.053,-0.105,-0.413,1.145
2024-10-15 13:50:12.717,74164.17,-0.096,0.4,-0.912,0.225,-0.092,-0.142,0.084,-0.047,0.075,-0.105,-0.411,1.145
2024-10-15 13:50:12.727,74164.18,-0.096,0.4,-0.912,0.189,-0.208,-0.109,-0.069,-0.048,0.079,-0.105,-0.411,1.146
2024-10-15 13:50:12.737,74164.19,-0.096,0.401,-0.911,0.118,-0.213,-0.067,-0.218,-0.163,0.193,-0.105,-0.413,1.148
2024-10-15 13:50:12.747,74164.2,-0.098,0.403,-0.91,0.09,-0.186,0.021,-0.231,-0.321,0.035,-0.107,-0.415,1.149
2024-10-15 13:50:12.757,74164.21,-0.1,0.404,-0.909,0.197,-0.144,0.179,0.01,-0.18,0.099,-0.11,-0.416,1.149
2024-10-15 13:50:12.767,74164.22,-0.102,0.404,-0.909,0.189,0.044,0.112,0.117,-0.284,0.172,-0.111,-0.416,1.151
2024-10-15 13:50:12.777,74164.229,-0.103,0.402,-0.91,0.056,0.135,0.04,0.319,-0.204,0.131,-0.113,-0.414,1.153
2024-10-15 13:50:12.787,74164.239,-0.104,0.398,-0.911,0.04,0.163,0.036,0.497,-0.138,0.086,-0.114,-0.41,1.154
2024-10-15 13:50:12.797,74164.249,-0.105,0.394,-0.913,-0.004,0.223,0.0,0.386,-0.14,0.011,-0.115,-0.405,1.156
2024-10-15 13:50:12.807,74164.259,-0.107,0.391,-0.914,-0.077,0.084,-0.05,0.278,-0.207,-0.083,-0.117,-0.402,1.155
2024-10-15 13:50:12.816,74164.269,-0.109,0.389,-0.915,-0.156,-0.101,-0.118,0.308,-0.103,-0.131,-0.119,-0.399,1.155
2024-10-15 13:50:12.827,74164.279,-0.11,0.385,-0.916,-0.253,-0.22,-0.155,0.321,-0.039,-0.192,-0.12,-0.396,1.153
2024-10-15 13:50:12.836,74164.289,-0.112,0.383,-0.917,-0.286,-0.22,-0.131,0.199,-0.074,-0.263,-0.121,-0.393,1.151
2024-10-15 13:50:12.846,74164.299,-0.113,0.381,-0.918,-0.245,-0.271,-0.075,0.122,-0.089,-0.338,-0.123,-0.391,1.148
2024-10-15 13:50:12.856,74164.309,-0.116,0.38,-0.918,-0.201,-0.261,-0.001,0.029,-0.084,-0.379,-0.125,-0.39,1.144
2024-10-15 13:50:12.866,74164.319,-0.118,0.379,-0.918,-0.184,-0.188,0.037,-0.016,-0.085,-0.326,-0.128,-0.389,1.141
2024-10-15 13:50:12.877,74164.329,-0.12,0.379,-0.917,-0.191,-0.09,0.048,-0.005,-0.068,-0.314,-0.13,-0.389,1.137
2024-10-15 13:50:12.887,74164.339,-0.121,0.378,-0.918,-0.205,-0.012,0.041,0.168,0.012,-0.361,-0.131,-0.388,1.134
2024-10-15 13:50:12.897,74164.349,-0.122,0.375,-0.919,-0.194,0.078,0.024,0.355,0.109,-0.395,-0.132,-0.385,1.13
2024-10-15 13:50:12.907,74164.359,-0.122,0.371,-0.921,-0.177,0.125,-0.01,0.503,0.178,-0.411,-0.132,-0.38,1.126
2024-10-15 13:50:12.916,74164.369,-0.122,0.366,-0.923,-0.16,0.113,-0.036,0.458,0.134,-0.354,-0.132,-0.375,1.123
2024-10-15 13:50:12.926,74164.379,-0.123,0.362,-0.924,-0.129,0.033,-0.057,0.325,0.074,-0.316,-0.132,-0.37,1.12
2024-10-15 13:50:12.936,74164.389,-0.123,0.359,-0.925,-0.081,-0.038,-0.034,0.19,0.069,-0.3,-0.132,-0.367,1.117
2024-10-15 13:50:12.946,74164.399,-0.123,0.358,-0.926,-0.042,-0.041,-0.002,-0.025,0.071,-0.158,-0.132,-0.366,1.115
2024-10-15 13:50:12.957,74164.409,-0.123,0.359,-0.925,-0.019,-0.042,0.026,-0.332,-0.002,-0.029,-0.132,-0.368,1.114
2024-10-15 13:50:12.966,74164.419,-0.124,0.364,-0.923,0.044,-0.078,0.08,-0.581,-0.098,0.017,-0.133,-0.372,1.113
2024-10-15 13:50:12.976,74164.429,-0.125,0.37,-0.921,0.138,-0.046,0.126,-0.615,-0.161,0.057,-0.135,-0.378,1.112
2024-10-15 13:50:12.986,74164.439,-0.126,0.375,-0.919,0.197,0.065,0.14,-0.46,-0.131,0.089,-0.136,-0.384,1.112
2024-10-15 13:50:12.996,74164.449,-0.126,0.378,-0.917,0.188,0.192,0.1,-0.262,-0.095,0.119,-0.137,-0.388,1.113
2024-10-15 13:50:13.006,74164.459,-0.127,0.38,-0.916,0.151,0.274,0.038,-0.124,-0.084,0.137,-0.138,-0.39,1.114
2024-10-15 13:50:13.016,74164.469,-0.127,0.381,-0.916,0.139,0.264,-0.032,-0.097,-0.052,0.187,-0.138,-0.391,1.116
2024-10-15 13:50:13.026,74164.479,-0.127,0.383,-0.915,0.136,0.204,-0.075,-0.208,-0.084,0.253,-0.137,-0.393,1.118
2024-10-15 13:50:13.037,74164.489,-0.127,0.386,-0.914,0.119,0.105,-0.074,-0.444,-0.222,0.408,-0.138,-0.396,1.121
2024-10-15 13:50:13.046,74164.499,-0.128,0.392,-0.911,0.131,-0.001,-0.01,-0.708,-0.415,0.546,-0.139,-0.403,1.125
2024-10-15 13:50:13.057,74164.509,-0.13,0.4,-0.907,0.158,-0.057,0.109,-0.809,-0.587,0.626,-0.142,-0.411,1.13
2024-10-15 13:50:13.066,74164.519,-0.133,0.407,-0.904,0.161,-0.013,0.224,-0.624,-0.533,0.492,-0.146,-0.419,1.135
2024-10-15 13:50:13.079,74164.529,-0.136,0.411,-0.901,0.144,0.08,0.246,-0.127,-0.409,0.297,-0.149,-0.424,1.139
2024-10-15 13:50:13.086,74164.539,-0.137,0.41,-0.902,0.046,0.166,0.067,0.355,-0.106,0.1,-0.151,-0.423,1.141
2024-10-15 13:50:13.096,74164.549,-0.137,0.407,-0.903,-0.094,0.136,-0.182,0.422,0.035,0.12,-0.151,-0.419,1.143
2024-10-15 13:50:13.106,74164.559,-0.137,0.404,-0.905,-0.201,0.016,-0.323,0.26,-0.084,0.124,-0.15,-0.416,1.145
2024-10-15 13:50:13.116,74164.569,-0.137,0.401,-0.906,-0.151,-0.192,-0.203,0.294,-0.037,-0.02,-0.15,-0.413,1.146
2024-10-15 13:50:13.126,74164.579,-0.137,0.398,-0.907,0.001,-0.207,0.002,0.431,0.107,-0.16,-0.15,-0.409,1.146
2024-10-15 13:50:13.136,74164.589,-0.136,0.393,-0.909,0.009,-0.085,0.079,0.544,0.309,-0.316,-0.149,-0.404,1.144
2024-10-15 13:50:13.146,74164.599,-0.134,0.388,-0.912,-0.052,-0.059,0.07,0.463,0.481,-0.359,-0.146,-0.398,1.141
2024-10-15 13:50:13.156,74164.609,-0.131,0.385,-0.914,-0.096,-0.097,0.01,0.186,0.499,-0.249,-0.142,-0.395,1.138
2024-10-15 13:50:13.166,74164.619,-0.127,0.384,-0.915,-0.108,-0.194,-0.047,-0.061,0.482,-0.16,-0.138,-0.394,1.136
2024-10-15 13:50:13.176,74164.629,-0.123,0.385,-0.915,-0.118,-0.241,-0.103,-0.153,0.544,-0.122,-0.134,-0.395,1.134
2024-10-15 13:50:13.186,74164.639,-0.118,0.386,-0.915,-0.147,-0.137,-0.153,-0.185,0.594,-0.088,-0.128,-0.396,1.133
2024-10-15 13:50:13.196,74164.649,-0.113,0.388,-0.915,-0.192,-0.01,-0.181,-0.184,0.608,-0.017,-0.123,-0.398,1.132
2024-10-15 13:50:13.207,74164.659,-0.107,0.389,-0.915,-0.191,0.079,-0.13,-0.16,0.595,0.012,-0.117,-0.4,1.132
2024-10-15 13:50:13.216,74164.669,-0.102,0.391,-0.915,-0.149,0.126,-0.038,-0.227,0.521,0.057,-0.111,-0.402,1.132
2024-10-15 13:50:13.226,74164.679,-0.098,0.393,-0.914,-0.111,0.123,0.029,-0.268,0.385,0.119,-0.106,-0.404,1.133
2024-10-15 13:50:13.236,74164.689,-0.094,0.396,-0.913,-0.067,0.113,0.075,-0.326,0.262,0.177,-0.103,-0.407,1.134
2024-10-15 13:50:13.246,74164.699,-0.092,0.4,-0.912,-0.021,0.108,0.115,-0.398,0.081,0.218,-0.1,-0.411,1.136
2024-10-15 13:50:13.256,74164.709,-0.091,0.404,-0.91,0.01,0.099,0.158,-0.422,-0.128,0.232,-0.1,-0.416,1.138
2024-10-15 13:50:13.266,74164.719,-0.092,0.408,-0.908,0.037,0.054,0.169,-0.391,-0.29,0.224,-0.101,-0.42,1.14
2024-10-15 13:50:13.276,74164.729,-0.094,0.411,-0.907,0.053,0.04,0.15,-0.325,-0.431,0.22,-0.104,-0.424,1.142
2024-10-15 13:50:13.286,74164.739,-0.098,0.414,-0.905,0.041,0.043,0.123,-0.234,-0.563,0.192,-0.108,-0.427,1.144
2024-10-15 13:50:13.296,74164.749,-0.103,0.415,-0.904,0.031,0.031,0.115,-0.068,-0.623,0.159,-0.113,-0.428,1.145
2024-10-15 13:50:13.306,74164.759,-0.108,0.416,-0.903,0.04,0.019,0.132,0.036,-0.618,0.106,-0.119,-0.429,1.147
2024-10-15 13:50:13.316,74164.769,-0.113,0.416,-0.903,0.042,0.005,0.138,0.005,-0.602,0.069,-0.124,-0.429,1.148
2024-10-15 13:50:13.326,74164.779,-0.118,0.416,-0.902,0.017,-0.008,0.106,-0.037,-0.598,0.065,-0.13,-0.429,1.148
2024-10-15 13:50:13.336,74164.789,-0.123,0.416,-0.901,-0.005,-0.052,0.056,0.002,-0.539,0.019,-0.136,-0.429,1.149
2024-10-15 13:50:13.346,74164.799,-0.127,0.416,-0.901,-0.01,-0.059,0.018,0.096,-0.428,-0.053,-0.141,-0.429,1.149
2024-10-15 13:50:13.356,74164.809,-0.131,0.414,-0.901,-0.019,-0.006,0.004,0.217,-0.338,-0.092,-0.145,-0.427,1.148
2024-10-15 13:50:13.366,74164.818,-0.135,0.412,-0.901,-0.028,0.016,-0.003,0.294,-0.313,-0.131,-0.148,-0.424,1.147
2024-10-15 13:50:13.376,74164.828,-0.138,0.408,-0.902,-0.017,-0.01,-0.003,0.38,-0.277,-0.202,-0.152,-0.421,1.146
2024-10-15 13:50:13.386,74164.838,-0.141,0.404,-0.904,0.008,-0.011,0.013,0.513,-0.231,-0.264,-0.155,-0.416,1.144
2024-10-15 13:50:13.396,74164.848,-0.144,0.398,-0.906,0.023,0.009,0.029,0.649,-0.207,-0.284,-0.158,-0.41,1.142
2024-10-15 13:50:13.413,74164.858,-0.147,0.392,-0.908,0.038,0.007,0.052,0.677,-0.249,-0.274,-0.161,-0.403,1.141
2024-10-15 13:50:13.418,74164.868,-0.149,0.387,-0.91,0.057,-0.008,0.083,0.09,0.234,-0.119,-0.162,-0.398,1.139
2024-10-15 13:50:13.426,74164.878,-0.147,0.392,-0.908,0.064,-0.034,0.174,-0.696,-0.051,0.267,-0.161,-0.402,1.139
2024-10-15 13:50:13.436,74164.888,-0.147,0.396,-0.906,0.016,-0.195,0.138,-0.15,-0.078,0.237,-0.161,-0.407,1.141
2024-10-15 13:50:13.445,74164.898,-0.145,0.395,-0.907,0.013,-0.104,-0.228,0.236,0.427,0.016,-0.158,-0.407,1.143
2024-10-15 13:50:13.456,74164.908,-0.141,0.393,-0.908,0.065,0.383,-0.08,0.215,0.327,0.065,-0.154,-0.404,1.143
2024-10-15 13:50:13.466,74164.918,-0.138,0.392,-0.91,0.028,0.229,-0.028,0.179,0.251,0.105,-0.151,-0.403,1.145
2024-10-15 13:50:13.476,74164.928,-0.135,0.39,-0.911,0.127,0.058,-0.074,0.204,0.313,0.087,-0.148,-0.401,1.146
2024-10-15 13:50:13.485,74164.938,-0.132,0.388,-0.912,0.149,0.093,-0.012,0.222,0.268,0.109,-0.144,-0.399,1.147
2024-10-15 13:50:13.495,74164.948,-0.13,0.387,-0.913,0.111,0.024,-0.02,0.178,0.158,0.119,-0.141,-0.397,1.149
2024-10-15 13:50:13.505,74164.958,-0.128,0.386,-0.914,0.113,-0.053,-0.036,0.108,0.103,0.199,-0.139,-0.396,1.151
2024-10-15 13:50:13.515,74164.968,-0.127,0.386,-0.914,0.099,-0.149,-0.027,-0.1,-0.048,0.355,-0.138,-0.396,1.154
2024-10-15 13:50:13.525,74164.978,-0.127,0.388,-0.913,0.124,-0.185,0.089,-0.288,-0.271,0.069,-0.139,-0.399,1.156
2024-10-15 13:50:13.535,74164.988,-0.13,0.39,-0.912,0.231,-0.188,0.149,-0.101,-0.297,-0.03,-0.141,-0.4,1.156
2024-10-15 13:50:13.545,74164.998,-0.133,0.39,-0.911,0.146,-0.146,0.009,-0.027,-0.363,-0.153,-0.145,-0.401,1.155
2024-10-15 13:50:13.555,74165.008,-0.137,0.389,-0.911,0.012,-0.124,-0.103,0.277,-0.259,-0.228,-0.149,-0.4,1.153
2024-10-15 13:50:13.565,74165.018,-0.139,0.385,-0.912,-0.075,-0.094,-0.219,0.473,-0.137,-0.19,-0.152,-0.396,1.151
2024-10-15 13:50:13.575,74165.028,-0.141,0.38,-0.914,-0.166,-0.03,-0.21,0.577,-0.11,-0.303,-0.153,-0.39,1.149
2024-10-15 13:50:13.585,74165.038,-0.144,0.374,-0.916,-0.145,0.035,-0.171,0.583,-0.118,-0.37,-0.156,-0.384,1.147
2024-10-15 13:50:13.596,74165.048,-0.146,0.368,-0.918,-0.127,0.009,-0.169,0.595,-0.07,-0.416,-0.158,-0.377,1.144
2024-10-15 13:50:13.605,74165.058,-0.148,0.362,-0.92,-0.144,0.011,-0.165,0.672,0.02,-0.418,-0.159,-0.37,1.14
2024-10-15 13:50:13.615,74165.068,-0.149,0.354,-0.923,-0.19,0.016,-0.12,0.856,0.156,-0.477,-0.16,-0.362,1.137
2024-10-15 13:50:13.625,74165.078,-0.148,0.346,-0.927,-0.202,0.043,-0.044,0.848,0.299,-0.53,-0.159,-0.353,1.133
2024-10-15 13:50:13.635,74165.088,-0.147,0.338,-0.929,-0.19,0.045,0.0,0.554,0.227,-0.426,-0.157,-0.345,1.129
2024-10-15 13:50:13.645,74165.098,-0.147,0.334,-0.931,-0.174,-0.071,0.017,0.123,0.051,-0.323,-0.157,-0.341,1.126
2024-10-15 13:50:13.655,74165.108,-0.148,0.334,-0.931,-0.134,-0.191,0.073,-0.1,0.047,-0.275,-0.158,-0.341,1.123
2024-10-15 13:50:13.665,74165.118,-0.148,0.335,-0.931,-0.099,-0.131,0.137,-0.141,0.06,-0.087,-0.158,-0.342,1.12
2024-10-15 13:50:13.676,74165.128,-0.148,0.336,-0.93,-0.098,-0.042,0.164,-0.173,0.039,0.037,-0.158,-0.343,1.12
2024-10-15 13:50:13.685,74165.138,-0.147,0.338,-0.93,-0.087,-0.005,0.172,-0.113,0.028,0.167,-0.157,-0.345,1.121
2024-10-15 13:50:13.695,74165.148,-0.146,0.339,-0.929,-0.068,0.064,0.194,-0.098,-0.033,0.357,-0.156,-0.346,1.123
2024-10-15 13:50:13.705,74165.158,-0.145,0.342,-0.929,-0.02,0.086,0.218,-0.314,-0.108,0.43,-0.155,-0.349,1.127
2024-10-15 13:50:13.715,74165.168,-0.145,0.346,-0.927,0.035,0.178,0.217,-0.419,-0.184,0.469,-0.155,-0.353,1.131
2024-10-15 13:50:13.726,74165.178,-0.145,0.35,-0.925,0.072,0.286,0.214,-0.423,-0.23,0.536,-0.156,-0.358,1.136
2024-10-15 13:50:13.735,74165.188,-0.146,0.355,-0.923,0.158,0.233,0.143,-0.447,-0.269,0.538,-0.157,-0.363,1.141
2024-10-15 13:50:13.745,74165.198,-0.146,0.36,-0.922,0.205,0.2,0.019,-0.354,-0.235,0.556,-0.157,-0.368,1.146
2024-10-15 13:50:13.755,74165.208,-0.146,0.364,-0.92,0.176,0.151,-0.087,-0.299,-0.228,0.566,-0.158,-0.372,1.151
2024-10-15 13:50:13.765,74165.218,-0.147,0.367,-0.919,0.143,0.075,-0.172,-0.159,-0.268,0.482,-0.158,-0.375,1.157
2024-10-15 13:50:13.775,74165.228,-0.147,0.367,-0.918,0.135,0.036,-0.158,0.162,-0.103,0.216,-0.159,-0.376,1.16
2024-10-15 13:50:13.785,74165.238,-0.147,0.364,-0.92,0.159,0.023,-0.131,0.443,0.075,0.015,-0.158,-0.373,1.162
2024-10-15 13:50:13.795,74165.248,-0.146,0.36,-0.921,0.132,0.01,-0.188,0.449,0.062,-0.047,-0.157,-0.368,1.163
2024-10-15 13:50:13.805,74165.258,-0.146,0.357,-0.923,0.094,-0.187,-0.23,0.28,-0.012,-0.029,-0.157,-0.365,1.163
2024-10-15 13:50:13.815,74165.268,-0.147,0.355,-0.923,0.11,-0.372,-0.159,0.124,-0.169,0.009,-0.158,-0.363,1.163
2024-10-15 13:50:13.825,74165.278,-0.149,0.354,-0.923,0.11,-0.364,0.001,0.099,-0.282,-0.055,-0.16,-0.362,1.163
2024-10-15 13:50:13.835,74165.288,-0.152,0.352,-0.923,0.157,-0.235,0.182,0.251,-0.285,-0.214,-0.163,-0.36,1.162
2024-10-15 13:50:13.845,74165.298,-0.155,0.349,-0.924,0.185,-0.034,0.208,0.371,-0.163,-0.227,-0.166,-0.356,1.16
2024-10-15 13:50:13.855,74165.308,-0.157,0.345,-0.925,0.088,0.122,0.091,0.443,-0.16,-0.233,-0.168,-0.352,1.158
2024-10-15 13:50:13.865,74165.318,-0.159,0.339,-0.927,-0.033,0.172,-0.034,0.713,-0.026,-0.22,-0.17,-0.346,1.157
2024-10-15 13:50:13.875,74165.328,-0.159,0.331,-0.93,-0.131,0.203,-0.079,0.967,0.18,-0.282,-0.169,-0.337,1.156
2024-10-15 13:50:13.885,74165.338,-0.158,0.322,-0.934,-0.182,0.283,-0.054,0.851,0.231,-0.305,-0.168,-0.328,1.154
2024-10-15 13:50:13.895,74165.348,-0.157,0.315,-0.936,-0.192,0.191,-0.022,0.431,0.073,-0.209,-0.167,-0.321,1.153
2024-10-15 13:50:13.905,74165.358,-0.158,0.313,-0.937,-0.179,-0.084,-0.003,0.121,-0.06,-0.267,-0.167,-0.318,1.151
2024-10-15 13:50:13.915,74165.368,-0.159,0.311,-0.937,-0.216,-0.236,0.044,0.127,0.058,-0.292,-0.168,-0.316,1.148
2024-10-15 13:50:13.925,74165.378,-0.159,0.31,-0.937,-0.286,-0.156,0.074,0.027,0.04,-0.229,-0.168,-0.315,1.146
2024-10-15 13:50:13.935,74165.388,-0.16,0.31,-0.937,-0.335,-0.127,0.074,-0.116,0.018,-0.239,-0.169,-0.315,1.143
2024-10-15 13:50:13.945,74165.398,-0.16,0.311,-0.937,-0.305,-0.141,0.114,-0.19,0.018,-0.211,-0.17,-0.316,1.141
2024-10-15 13:50:13.955,74165.407,-0.161,0.312,-0.936,-0.259,-0.093,0.143,-0.181,0.089,-0.251,-0.17,-0.318,1.138
2024-10-15 13:50:13.965,74165.417,-0.16,0.314,-0.936,-0.218,-0.025,0.123,-0.194,0.165,-0.19,-0.169,-0.319,1.135
2024-10-15 13:50:13.975,74165.427,-0.159,0.316,-0.935,-0.2,0.003,0.038,-0.396,0.117,-0.086,-0.169,-0.322,1.133
2024-10-15 13:50:13.985,74165.437,-0.158,0.321,-0.934,-0.188,-0.06,-0.03,-0.552,0.1,-0.024,-0.168,-0.326,1.132
2024-10-15 13:50:13.995,74165.447,-0.158,0.326,-0.932,-0.114,-0.089,-0.036,-0.672,0.046,0.037,-0.168,-0.332,1.131
2024-10-15 13:50:14.005,74165.457,-0.157,0.333,-0.93,-0.029,-0.064,-0.041,-0.734,0.048,0.1,-0.167,-0.339,1.13
2024-10-15 13:50:14.015,74165.467,-0.156,0.34,-0.927,0.043,-0.008,-0.029,-0.754,0.047,0.185,-0.167,-0.347,1.13
2024-10-15 13:50:14.025,74165.477,-0.155,0.347,-0.925,0.081,0.065,-0.027,-0.741,0.007,0.264,-0.166,-0.355,1.131
2024-10-15 13:50:14.035,74165.487,-0.154,0.354,-0.922,0.117,0.117,-0.017,-0.661,-0.032,0.33,-0.166,-0.362,1.133
2024-10-15 13:50:14.045,74165.497,-0.153,0.36,-0.92,0.182,0.152,-0.0,-0.549,-0.088,0.381,-0.165,-0.369,1.136
2024-10-15 13:50:14.055,74165.507,-0.153,0.365,-0.918,0.268,0.189,0.013,-0.349,-0.191,0.391,-0.165,-0.374,1.139
2024-10-15 13:50:14.065,74165.517,-0.154,0.368,-0.917,0.346,0.209,0.034,-0.014,-0.29,0.323,-0.166,-0.376,1.143
2024-10-15 13:50:14.075,74165.527,-0.155,0.366,-0.917,0.397,0.218,0.034,0.337,-0.172,0.191,-0.168,-0.375,1.146
2024-10-15 13:50:14.085,74165.537,-0.156,0.362,-0.919,0.403,0.226,-0.014,0.591,-0.021,0.101,-0.168,-0.371,1.148
2024-10-15 13:50:14.095,74165.547,-0.155,0.357,-0.921,0.315,0.174,-0.119,0.546,-0.04,0.131,-0.167,-0.365,1.15
2024-10-15 13:50:14.105,74165.557,-0.156,0.353,-0.923,0.214,-0.017,-0.219,0.341,-0.099,0.153,-0.167,-0.361,1.153
2024-10-15 13:50:14.115,74165.567,-0.156,0.352,-0.923,0.174,-0.195,-0.172,0.043,-0.324,0.38,-0.168,-0.359,1.156
2024-10-15 13:50:14.124,74165.577,-0.159,0.353,-0.922,0.17,-0.25,0.025,-0.064,-0.443,-0.011,-0.171,-0.36,1.158
2024-10-15 13:50:14.134,74165.587,-0.162,0.351,-0.922,0.289,-0.213,0.262,0.222,-0.156,-0.122,-0.174,-0.359,1.157
2024-10-15 13:50:14.144,74165.597,-0.164,0.349,-0.922,0.158,-0.054,0.103,0.233,-0.261,-0.009,-0.176,-0.357,1.157
2024-10-15 13:50:14.155,74165.607,-0.167,0.346,-0.923,-0.103,-0.089,-0.045,0.383,-0.193,-0.176,-0.179,-0.354,1.157
2024-10-15 13:50:14.165,74165.617,-0.169,0.342,-0.924,-0.105,-0.137,-0.048,0.5,-0.069,-0.295,-0.181,-0.349,1.155
