Date,TimeStamp,GravityX,GravityY,GravityZ,UserAccelerationX,UserAccelerationY,UserAccelerationZ,RotationRateX,RotationRateY,RotationRateZ,AttitudeRoll,AttitudePitch,AttitudeYaw
2024-10-15 11:18:52.054,65083.438,0.138,-0.382,-0.914,0.013,-0.018,0.013,-0.112,0.031,-0.093,0.149,0.392,0.484
2024-10-15 11:18:52.068,65083.448,0.138,-0.381,-0.914,-0.022,-0.013,0.012,-0.137,0.014,-0.087,0.15,0.39,0.483
2024-10-15 11:18:52.070,65083.458,0.139,-0.379,-0.915,-0.01,-0.0,0.015,-0.163,0.02,-0.08,0.15,0.389,0.483
2024-10-15 11:18:52.075,65083.468,0.139,-0.377,-0.916,0.001,0.004,0.016,-0.196,0.039,-0.086,0.151,0.387,0.482
2024-10-15 11:18:52.086,65083.478,0.14,-0.375,-0.916,-0.011,0.002,0.01,-0.206,0.034,-0.094,0.151,0.385,0.481
2024-10-15 11:18:52.095,65083.488,0.141,-0.373,-0.917,-0.011,-0.001,0.007,-0.241,0.043,-0.115,0.152,0.382,0.481
2024-10-15 11:18:52.106,65083.498,0.141,-0.37,-0.918,-0.003,-0.003,0.006,-0.257,0.042,-0.101,0.153,0.38,0.48
2024-10-15 11:18:52.116,65083.508,0.142,-0.368,-0.919,-0.006,-0.005,0.006,-0.295,0.059,-0.103,0.153,0.377,0.479
2024-10-15 11:18:52.126,65083.518,0.143,-0.365,-0.92,-0.013,-0.005,0.011,-0.303,0.077,-0.121,0.154,0.374,0.478
2024-10-15 11:18:52.137,65083.528,0.144,-0.362,-0.921,-0.018,-0.011,0.008,-0.297,0.056,-0.13,0.155,0.371,0.478
2024-10-15 11:18:52.146,65083.538,0.145,-0.36,-0.922,-0.018,-0.01,0.014,-0.3,0.054,-0.126,0.156,0.368,0.477
2024-10-15 11:18:52.157,65083.548,0.146,-0.357,-0.923,-0.008,0.004,0.017,-0.303,0.071,-0.124,0.157,0.365,0.476
2024-10-15 11:18:52.167,65083.558,0.147,-0.354,-0.924,-0.01,-0.004,0.015,-0.285,0.075,-0.122,0.158,0.362,0.475
2024-10-15 11:18:52.176,65083.568,0.148,-0.352,-0.924,-0.017,-0.004,0.016,-0.25,0.061,-0.126,0.159,0.359,0.474
2024-10-15 11:18:52.188,65083.578,0.149,-0.349,-0.925,-0.007,0.002,0.012,-0.217,0.046,-0.128,0.159,0.357,0.474
2024-10-15 11:18:52.196,65083.588,0.15,-0.347,-0.926,0.004,0.006,0.013,-0.187,0.042,-0.13,0.16,0.355,0.473
2024-10-15 11:18:52.206,65083.597,0.15,-0.346,-0.926,0.004,0.009,0.011,-0.159,0.041,-0.128,0.161,0.353,0.471
2024-10-15 11:18:52.216,65083.607,0.151,-0.344,-0.927,-0.0,0.01,0.009,-0.141,0.032,-0.129,0.162,0.351,0.47
2024-10-15 11:18:52.226,65083.617,0.152,-0.343,-0.927,-0.003,0.008,0.011,-0.132,0.029,-0.132,0.162,0.35,0.469
2024-10-15 11:18:52.237,65083.627,0.153,-0.341,-0.928,-0.001,0.004,0.014,-0.135,0.024,-0.137,0.163,0.348,0.468
2024-10-15 11:18:52.246,65083.637,0.153,-0.34,-0.928,-0.004,-0.0,0.016,-0.156,0.027,-0.141,0.164,0.346,0.467
2024-10-15 11:18:52.257,65083.647,0.154,-0.338,-0.929,-0.008,-0.006,0.017,-0.184,0.029,-0.147,0.165,0.345,0.466
2024-10-15 11:18:52.266,65083.657,0.155,-0.336,-0.929,-0.01,-0.013,0.018,-0.225,0.031,-0.148,0.165,0.342,0.465
2024-10-15 11:18:52.276,65083.667,0.156,-0.333,-0.93,-0.013,-0.015,0.022,-0.252,0.045,-0.16,0.166,0.34,0.463
2024-10-15 11:18:52.286,65083.677,0.157,-0.33,-0.931,-0.013,-0.016,0.021,-0.272,0.037,-0.169,0.167,0.337,0.462
2024-10-15 11:18:52.296,65083.687,0.158,-0.328,-0.932,-0.012,-0.016,0.016,-0.307,0.03,-0.175,0.168,0.334,0.461
2024-10-15 11:18:52.306,65083.697,0.159,-0.324,-0.933,-0.01,-0.013,0.017,-0.323,0.04,-0.19,0.168,0.33,0.459
2024-10-15 11:18:52.316,65083.707,0.16,-0.321,-0.934,-0.014,-0.016,0.016,-0.34,0.046,-0.201,0.169,0.327,0.458
2024-10-15 11:18:52.326,65083.717,0.161,-0.317,-0.935,-0.023,-0.015,0.014,-0.351,0.058,-0.214,0.17,0.323,0.456
2024-10-15 11:18:52.338,65083.727,0.162,-0.314,-0.936,-0.025,-0.015,0.02,-0.36,0.06,-0.231,0.171,0.319,0.455
2024-10-15 11:18:52.345,65083.737,0.163,-0.31,-0.937,-0.029,-0.018,0.023,-0.382,0.068,-0.245,0.173,0.315,0.453
2024-10-15 11:18:52.356,65083.747,0.165,-0.306,-0.938,-0.035,-0.02,0.028,-0.421,0.064,-0.262,0.174,0.311,0.451
2024-10-15 11:18:52.366,65083.757,0.166,-0.301,-0.939,-0.038,-0.03,0.03,-0.468,0.072,-0.287,0.175,0.306,0.449
2024-10-15 11:18:52.376,65083.767,0.168,-0.296,-0.94,-0.045,-0.038,0.033,-0.527,0.084,-0.322,0.177,0.3,0.447
2024-10-15 11:18:52.388,65083.777,0.17,-0.29,-0.942,-0.054,-0.051,0.03,-0.57,0.119,-0.365,0.178,0.294,0.444
2024-10-15 11:18:52.395,65083.787,0.172,-0.284,-0.943,-0.067,-0.059,0.027,-0.593,0.152,-0.403,0.181,0.288,0.441
2024-10-15 11:18:52.406,65083.797,0.175,-0.278,-0.945,-0.079,-0.065,0.026,-0.611,0.184,-0.444,0.183,0.281,0.438
2024-10-15 11:18:52.416,65083.807,0.178,-0.271,-0.946,-0.083,-0.072,0.029,-0.617,0.205,-0.483,0.186,0.274,0.435
2024-10-15 11:18:52.426,65083.817,0.181,-0.264,-0.947,-0.084,-0.075,0.029,-0.622,0.2,-0.516,0.189,0.267,0.431
2024-10-15 11:18:52.435,65083.827,0.185,-0.257,-0.949,-0.08,-0.075,0.028,-0.606,0.184,-0.547,0.192,0.26,0.427
2024-10-15 11:18:52.445,65083.837,0.188,-0.251,-0.95,-0.072,-0.076,0.033,-0.578,0.177,-0.578,0.195,0.253,0.422
2024-10-15 11:18:52.455,65083.847,0.191,-0.244,-0.951,-0.064,-0.077,0.037,-0.518,0.159,-0.605,0.198,0.247,0.417
2024-10-15 11:18:52.465,65083.857,0.194,-0.239,-0.952,-0.06,-0.066,0.038,-0.45,0.145,-0.634,0.201,0.241,0.412
2024-10-15 11:18:52.475,65083.867,0.196,-0.233,-0.952,-0.058,-0.052,0.036,-0.401,0.117,-0.653,0.203,0.235,0.406
2024-10-15 11:18:52.485,65083.877,0.199,-0.228,-0.953,-0.051,-0.051,0.033,-0.397,0.093,-0.677,0.206,0.23,0.4
2024-10-15 11:18:52.495,65083.887,0.201,-0.223,-0.954,-0.048,-0.054,0.022,-0.407,0.09,-0.694,0.208,0.225,0.394
2024-10-15 11:18:52.505,65083.897,0.204,-0.218,-0.955,-0.052,-0.064,0.019,-0.423,0.083,-0.716,0.21,0.219,0.388
2024-10-15 11:18:52.515,65083.907,0.206,-0.212,-0.955,-0.061,-0.061,0.022,-0.453,0.081,-0.745,0.213,0.214,0.382
2024-10-15 11:18:52.525,65083.917,0.209,-0.206,-0.956,-0.064,-0.059,0.037,-0.486,0.105,-0.761,0.215,0.207,0.375
2024-10-15 11:18:52.535,65083.927,0.211,-0.2,-0.957,-0.066,-0.059,0.045,-0.502,0.139,-0.77,0.217,0.201,0.378
2024-10-15 11:18:52.546,65083.937,0.214,-0.193,-0.958,-0.07,-0.053,0.043,-0.486,0.142,-0.77,0.22,0.194,0.371
2024-10-15 11:18:52.556,65083.947,0.217,-0.187,-0.958,-0.056,-0.042,0.023,-0.446,0.102,-0.773,0.223,0.188,0.365
2024-10-15 11:18:52.574,65083.957,0.219,-0.181,-0.959,-0.032,-0.018,0.007,-0.421,0.063,-0.791,0.225,0.182,0.358
2024-10-15 11:18:52.579,65083.967,0.221,-0.176,-0.959,-0.015,0.0,-0.008,-0.389,0.037,-0.809,0.226,0.176,0.351
2024-10-15 11:18:52.586,65083.977,0.223,-0.17,-0.96,-0.013,-0.001,-0.024,-0.37,0.023,-0.825,0.228,0.171,0.344
2024-10-15 11:18:52.596,65083.987,0.224,-0.165,-0.961,-0.027,-0.014,-0.028,-0.372,0.022,-0.844,0.229,0.165,0.336
2024-10-15 11:18:52.606,65083.997,0.226,-0.159,-0.961,-0.039,-0.024,-0.011,-0.401,0.022,-0.869,0.231,0.16,0.329
2024-10-15 11:18:52.616,65084.007,0.227,-0.153,-0.962,-0.042,-0.035,0.011,-0.426,0.037,-0.865,0.232,0.154,0.321
2024-10-15 11:18:52.626,65084.017,0.229,-0.147,-0.962,-0.05,-0.046,0.029,-0.46,0.078,-0.848,0.234,0.147,0.314
2024-10-15 11:18:52.636,65084.027,0.231,-0.14,-0.963,-0.06,-0.04,0.034,-0.469,0.103,-0.853,0.236,0.141,0.306
2024-10-15 11:18:52.646,65084.037,0.234,-0.134,-0.963,-0.058,-0.008,0.024,-0.515,0.102,-0.845,0.238,0.134,0.299
2024-10-15 11:18:52.655,65084.047,0.236,-0.127,-0.964,-0.037,0.009,0.001,-0.523,0.085,-0.867,0.24,0.127,0.292
2024-10-15 11:18:52.665,65084.057,0.237,-0.119,-0.964,-0.013,0.013,-0.007,-0.579,0.057,-0.896,0.241,0.12,0.285
2024-10-15 11:18:52.675,65084.067,0.239,-0.111,-0.965,0.002,-0.006,-0.006,-0.689,0.012,-0.898,0.243,0.111,0.278
2024-10-15 11:18:52.686,65084.077,0.24,-0.102,-0.965,0.006,-0.03,-0.012,-0.849,0.034,-0.907,0.243,0.102,0.271
2024-10-15 11:18:52.695,65084.087,0.241,-0.09,-0.966,-0.007,-0.057,-0.003,-1.009,0.102,-0.948,0.245,0.091,0.264
2024-10-15 11:18:52.705,65084.097,0.244,-0.078,-0.967,-0.033,-0.07,0.01,-1.118,0.176,-0.983,0.247,0.078,0.257
2024-10-15 11:18:52.715,65084.107,0.246,-0.064,-0.967,-0.056,-0.079,0.023,-1.245,0.209,-1.019,0.249,0.064,0.25
2024-10-15 11:18:52.725,65084.117,0.249,-0.049,-0.967,-0.063,-0.087,0.04,-1.367,0.259,-1.034,0.252,0.049,0.244
2024-10-15 11:18:52.735,65084.127,0.252,-0.033,-0.967,-0.06,-0.089,0.041,-1.448,0.311,-1.054,0.255,0.033,0.237
2024-10-15 11:18:52.745,65084.137,0.256,-0.016,-0.967,-0.053,-0.086,0.035,-1.459,0.36,-1.074,0.258,0.016,0.23
2024-10-15 11:18:52.755,65084.147,0.259,0.001,-0.966,-0.06,-0.083,0.029,-1.457,0.404,-1.115,0.262,-0.001,0.224
2024-10-15 11:18:52.765,65084.157,0.263,0.018,-0.965,-0.055,-0.079,0.013,-1.475,0.433,-1.183,0.266,-0.018,0.216
2024-10-15 11:18:52.776,65084.167,0.267,0.036,-0.963,-0.044,-0.081,0.004,-1.507,0.43,-1.246,0.271,-0.036,0.209
2024-10-15 11:18:52.785,65084.177,0.271,0.054,-0.961,-0.034,-0.103,-0.011,-1.564,0.462,-1.299,0.275,-0.054,0.201
2024-10-15 11:18:52.795,65084.187,0.275,0.072,-0.959,-0.039,-0.124,-0.01,-1.542,0.528,-1.352,0.279,-0.073,0.192
2024-10-15 11:18:52.806,65084.196,0.279,0.091,-0.956,-0.061,-0.144,0.006,-1.528,0.537,-1.348,0.284,-0.091,0.183
2024-10-15 11:18:52.815,65084.206,0.283,0.109,-0.953,-0.08,-0.155,0.033,-1.565,0.566,-1.355,0.288,-0.11,0.175
2024-10-15 11:18:52.825,65084.216,0.286,0.128,-0.949,-0.077,-0.142,0.042,-1.579,0.594,-1.391,0.293,-0.128,0.166
2024-10-15 11:18:52.835,65084.226,0.29,0.147,-0.946,-0.067,-0.125,0.037,-1.612,0.585,-1.423,0.298,-0.148,0.157
2024-10-15 11:18:52.845,65084.236,0.293,0.167,-0.941,-0.051,-0.104,0.035,-1.672,0.572,-1.432,0.302,-0.168,0.148
2024-10-15 11:18:52.855,65084.246,0.296,0.187,-0.937,-0.028,-0.08,0.016,-1.742,0.594,-1.397,0.306,-0.188,0.14
2024-10-15 11:18:52.865,65084.256,0.299,0.208,-0.931,-0.023,-0.072,-0.026,-1.754,0.579,-1.425,0.311,-0.209,0.132
2024-10-15 11:18:52.875,65084.266,0.301,0.229,-0.926,-0.035,-0.054,-0.018,-1.889,0.507,-1.441,0.314,-0.231,0.123
2024-10-15 11:18:52.885,65084.276,0.302,0.251,-0.92,-0.02,-0.061,0.032,-2.048,0.464,-1.41,0.317,-0.254,0.116
2024-10-15 11:18:52.895,65084.286,0.303,0.275,-0.913,0.005,-0.094,0.064,-2.172,0.486,-1.366,0.32,-0.278,0.109
2024-10-15 11:18:52.905,65084.296,0.303,0.299,-0.905,-0.008,-0.125,0.071,-2.287,0.452,-1.269,0.323,-0.303,0.103
2024-10-15 11:18:52.915,65084.306,0.303,0.324,-0.896,-0.036,-0.095,0.061,-2.442,0.415,-1.197,0.326,-0.33,0.099
2024-10-15 11:18:52.925,65084.316,0.303,0.35,-0.887,-0.032,-0.045,0.081,-2.536,0.419,-1.132,0.329,-0.357,0.096
2024-10-15 11:18:52.935,65084.326,0.303,0.375,-0.876,-0.011,-0.012,0.101,-2.555,0.419,-1.059,0.333,-0.385,0.093
2024-10-15 11:18:52.945,65084.336,0.302,0.401,-0.865,-0.006,0.029,0.084,-2.542,0.308,-1.011,0.336,-0.412,0.092
2024-10-15 11:18:52.955,65084.346,0.3,0.426,-0.854,-0.004,0.108,0.084,-2.606,0.209,-0.953,0.338,-0.44,0.091
2024-10-15 11:18:52.965,65084.356,0.298,0.451,-0.841,0.028,0.105,0.116,-2.778,0.166,-0.867,0.34,-0.468,0.091
2024-10-15 11:18:52.975,65084.366,0.295,0.477,-0.828,0.047,0.049,0.123,-2.848,0.115,-0.779,0.342,-0.497,0.093
2024-10-15 11:18:52.985,65084.376,0.292,0.502,-0.814,0.034,0.046,0.118,-2.818,0.045,-0.698,0.345,-0.526,0.096
2024-10-15 11:18:52.995,65084.386,0.289,0.527,-0.8,0.018,0.077,0.128,-2.7,-0.033,-0.639,0.346,-0.555,0.1
2024-10-15 11:18:53.005,65084.396,0.285,0.549,-0.786,0.015,0.109,0.146,-2.606,-0.134,-0.556,0.348,-0.582,0.104
2024-10-15 11:18:53.015,65084.406,0.28,0.571,-0.772,0.02,0.112,0.147,-2.482,-0.247,-0.479,0.348,-0.607,0.108
2024-10-15 11:18:53.025,65084.416,0.276,0.59,-0.759,0.031,0.119,0.153,-2.377,-0.342,-0.42,0.348,-0.631,0.113
2024-10-15 11:18:53.035,65084.426,0.27,0.609,-0.746,0.041,0.136,0.159,-2.204,-0.415,-0.382,0.348,-0.654,0.118
2024-10-15 11:18:53.045,65084.436,0.265,0.625,-0.734,0.045,0.146,0.164,-2.029,-0.492,-0.331,0.346,-0.676,0.123
2024-10-15 11:18:53.055,65084.446,0.259,0.64,-0.724,0.055,0.144,0.138,-1.746,-0.596,-0.246,0.344,-0.694,0.128
2024-10-15 11:18:53.065,65084.456,0.253,0.652,-0.715,0.076,0.152,0.085,-1.436,-0.726,-0.176,0.34,-0.71,0.132
2024-10-15 11:18:53.075,65084.466,0.246,0.661,-0.708,0.093,0.176,0.035,-1.162,-0.794,-0.146,0.335,-0.723,0.136
2024-10-15 11:18:53.085,65084.476,0.24,0.669,-0.704,0.089,0.215,0.041,-0.768,-0.805,-0.126,0.329,-0.732,0.139
2024-10-15 11:18:53.095,65084.486,0.233,0.673,-0.702,0.066,0.233,0.056,-0.474,-0.868,-0.083,0.321,-0.738,0.14
2024-10-15 11:18:53.105,65084.496,0.227,0.676,-0.701,0.045,0.207,0.068,-0.302,-0.946,-0.033,0.313,-0.742,0.141
2024-10-15 11:18:53.115,65084.506,0.22,0.678,-0.702,0.063,0.169,0.112,-0.191,-0.975,0.006,0.303,-0.745,0.142
2024-10-15 11:18:53.126,65084.516,0.213,0.679,-0.703,0.084,0.13,0.136,-0.102,-0.946,0.012,0.294,-0.746,0.142
2024-10-15 11:18:53.135,65084.526,0.207,0.679,-0.705,0.073,0.123,0.135,0.041,-0.89,-0.003,0.285,-0.746,0.143
2024-10-15 11:18:53.145,65084.536,0.2,0.678,-0.707,0.053,0.133,0.116,0.117,-0.868,-0.009,0.276,-0.745,0.142
2024-10-15 11:18:53.155,65084.546,0.195,0.676,-0.71,0.045,0.136,0.087,0.419,-0.687,0.084,0.268,-0.743,0.142
2024-10-15 11:18:53.165,65084.556,0.191,0.672,-0.715,0.057,0.146,0.077,0.781,-0.569,0.109,0.261,-0.737,0.141
2024-10-15 11:18:53.175,65084.566,0.188,0.665,-0.723,0.055,0.236,-0.026,1.196,-0.532,0.084,0.254,-0.727,0.139
2024-10-15 11:18:53.185,65084.576,0.185,0.655,-0.733,0.041,0.34,-0.088,1.325,-0.516,0.155,0.247,-0.714,0.136
2024-10-15 11:18:53.195,65084.586,0.182,0.645,-0.742,0.071,0.255,-0.141,1.204,-0.551,0.229,0.241,-0.702,0.134
2024-10-15 11:18:53.205,65084.596,0.18,0.637,-0.75,0.126,0.131,-0.161,0.91,-0.555,0.262,0.235,-0.691,0.134
2024-10-15 11:18:53.215,65084.606,0.178,0.631,-0.755,0.133,0.023,-0.145,0.574,-0.446,0.282,0.231,-0.683,0.135
2024-10-15 11:18:53.225,65084.616,0.177,0.627,-0.759,0.098,-0.047,-0.101,0.365,-0.306,0.277,0.229,-0.678,0.138
2024-10-15 11:18:53.235,65084.626,0.176,0.624,-0.761,0.052,-0.068,-0.057,0.332,-0.2,0.239,0.228,-0.674,0.14
2024-10-15 11:18:53.245,65084.636,0.176,0.621,-0.764,0.033,-0.058,-0.018,0.341,-0.19,0.174,0.227,-0.67,0.141
2024-10-15 11:18:53.255,65084.646,0.175,0.618,-0.766,0.043,-0.021,0.001,0.314,-0.236,0.128,0.225,-0.667,0.142
2024-10-15 11:18:53.265,65084.656,0.174,0.616,-0.768,0.066,-0.024,0.004,0.271,-0.241,0.07,0.223,-0.664,0.143
2024-10-15 11:18:53.274,65084.666,0.173,0.613,-0.771,0.073,-0.058,0.01,0.337,-0.228,0.043,0.221,-0.66,0.143
2024-10-15 11:18:53.285,65084.676,0.171,0.611,-0.773,0.047,-0.104,0.012,0.39,-0.292,0.043,0.218,-0.657,0.142
2024-10-15 11:18:53.295,65084.686,0.169,0.607,-0.776,0.033,-0.11,0.04,0.428,-0.377,0.005,0.214,-0.653,0.141
2024-10-15 11:18:53.304,65084.696,0.165,0.604,-0.78,0.043,-0.078,0.085,0.43,-0.407,-0.041,0.209,-0.649,0.14
2024-10-15 11:18:53.315,65084.706,0.162,0.601,-0.783,0.034,-0.081,0.114,0.412,-0.398,-0.061,0.204,-0.645,0.138
2024-10-15 11:18:53.324,65084.716,0.159,0.598,-0.786,0.008,-0.1,0.14,0.393,-0.396,-0.079,0.199,-0.641,0.136
2024-10-15 11:18:53.334,65084.726,0.155,0.595,-0.788,-0.011,-0.116,0.148,0.264,-0.397,-0.074,0.194,-0.638,0.135
2024-10-15 11:18:53.343,65084.736,0.151,0.594,-0.79,-0.014,-0.128,0.129,0.115,-0.396,-0.041,0.189,-0.636,0.133
2024-10-15 11:18:53.354,65084.746,0.148,0.594,-0.791,-0.008,-0.119,0.095,-0.024,-0.41,0.002,0.185,-0.636,0.133
2024-10-15 11:18:53.364,65084.756,0.145,0.594,-0.791,-0.008,-0.076,0.053,-0.039,-0.408,0.011,0.181,-0.636,0.133
2024-10-15 11:18:53.374,65084.766,0.142,0.594,-0.792,-0.022,-0.016,0.058,0.016,-0.37,0.028,0.177,-0.636,0.134
2024-10-15 11:18:53.384,65084.776,0.139,0.593,-0.793,-0.036,0.007,0.072,0.107,-0.329,0.026,0.174,-0.635,0.134
2024-10-15 11:18:53.394,65084.785,0.137,0.592,-0.794,-0.037,0.015,0.067,0.165,-0.321,0.029,0.171,-0.634,0.134
2024-10-15 11:18:53.404,65084.795,0.135,0.591,-0.795,-0.025,-0.004,0.071,0.137,-0.303,0.037,0.168,-0.632,0.134
2024-10-15 11:18:53.414,65084.805,0.133,0.59,-0.796,-0.001,-0.053,0.097,0.009,-0.247,0.013,0.165,-0.632,0.134
2024-10-15 11:18:53.424,65084.815,0.133,0.588,-0.798,0.005,-0.066,0.125,0.596,-0.213,-0.428,0.166,-0.629,0.135
2024-10-15 11:18:53.434,65084.825,0.124,0.587,-0.8,0.024,-0.071,0.101,0.011,-0.87,-0.79,0.154,-0.627,0.127
2024-10-15 11:18:53.445,65084.835,0.114,0.589,-0.8,0.116,-0.126,-0.242,-0.477,-0.335,-0.667,0.141,-0.63,0.117
2024-10-15 11:18:53.454,65084.845,0.114,0.595,-0.796,-0.108,0.266,-0.36,-0.753,0.78,0.025,0.142,-0.637,0.114
2024-10-15 11:18:53.464,65084.855,0.129,0.598,-0.791,-0.472,0.506,-0.38,-0.284,2.169,1.277,0.161,-0.641,0.123
2024-10-15 11:18:53.474,65084.865,0.139,0.602,-0.786,-0.36,0.161,-0.228,-0.612,0.029,-0.553,0.175,-0.646,0.127
2024-10-15 11:18:53.485,65084.875,0.133,0.607,-0.783,0.156,-0.027,-0.01,-0.569,-0.605,-0.213,0.169,-0.652,0.123
2024-10-15 11:18:53.494,65084.885,0.137,0.609,-0.781,0.237,-0.096,0.195,-0.106,0.917,0.736,0.174,-0.655,0.129
2024-10-15 11:18:53.504,65084.895,0.138,0.61,-0.781,0.084,0.084,0.067,-0.105,-0.344,-0.638,0.175,-0.656,0.128
2024-10-15 11:18:53.514,65084.905,0.134,0.611,-0.78,-0.041,0.202,0.006,-0.071,-0.043,-0.046,0.171,-0.657,0.125
2024-10-15 11:18:53.524,65084.915,0.136,0.611,-0.78,-0.153,0.036,-0.003,0.039,0.363,0.12,0.173,-0.657,0.125
2024-10-15 11:18:53.534,65084.925,0.144,0.609,-0.78,-0.15,0.131,-0.061,0.231,1.267,1.375,0.182,-0.655,0.131
2024-10-15 11:18:53.544,65084.935,0.148,0.608,-0.78,-0.12,0.114,-0.0,-0.086,-0.435,-0.687,0.187,-0.654,0.132
2024-10-15 11:18:53.554,65084.945,0.144,0.611,-0.778,0.234,-0.012,0.019,-0.479,-0.073,-0.125,0.183,-0.658,0.129
2024-10-15 11:18:53.564,65084.955,0.146,0.615,-0.775,0.059,-0.176,-0.059,-0.566,0.348,0.228,0.187,-0.662,0.132
2024-10-15 11:18:53.575,65084.965,0.158,0.616,-0.772,-0.214,0.061,-0.075,-0.118,0.942,0.566,0.202,-0.663,0.142
2024-10-15 11:18:53.584,65084.975,0.157,0.617,-0.771,-0.102,0.03,0.042,-0.383,-0.165,-0.441,0.201,-0.665,0.138
2024-10-15 11:18:53.594,65084.985,0.157,0.62,-0.769,0.28,-0.108,0.029,-0.097,0.575,0.238,0.201,-0.669,0.137
2024-10-15 11:18:53.604,65084.995,0.167,0.617,-0.769,-0.074,0.057,-0.052,0.499,0.474,-0.547,0.213,-0.665,0.143
2024-10-15 11:18:53.614,65085.005,0.165,0.617,-0.77,-0.114,0.269,0.104,0.082,-0.06,-0.112,0.212,-0.664,0.138
2024-10-15 11:18:53.624,65085.015,0.169,0.614,-0.771,0.06,-0.065,-0.031,0.63,0.683,0.303,0.216,-0.661,0.14
2024-10-15 11:18:53.634,65085.025,0.17,0.609,-0.774,-0.037,0.183,0.022,0.454,-0.111,-0.071,0.216,-0.655,0.137
2024-10-15 11:18:53.644,65085.035,0.169,0.606,-0.778,-0.006,0.114,0.067,0.496,0.006,0.143,0.215,-0.65,0.136
2024-10-15 11:18:53.654,65085.045,0.172,0.601,-0.78,-0.015,0.072,0.012,0.544,0.243,0.179,0.217,-0.645,0.138
2024-10-15 11:18:53.664,65085.055,0.171,0.598,-0.783,-0.045,0.089,0.059,0.14,-0.263,0.055,0.215,-0.641,0.136
2024-10-15 11:18:53.674,65085.065,0.17,0.597,-0.784,0.033,-0.152,-0.016,0.069,-0.053,0.196,0.214,-0.64,0.138
2024-10-15 11:18:53.684,65085.075,0.171,0.596,-0.784,-0.045,-0.053,-0.017,0.076,0.012,0.218,0.215,-0.639,0.14
2024-10-15 11:18:53.694,65085.085,0.172,0.596,-0.784,-0.11,-0.01,0.024,-0.131,0.065,0.175,0.216,-0.638,0.143
2024-10-15 11:18:53.704,65085.095,0.174,0.597,-0.783,-0.038,-0.076,-0.003,-0.338,0.143,0.123,0.219,-0.64,0.145
2024-10-15 11:18:53.714,65085.105,0.176,0.601,-0.78,-0.017,-0.068,-0.032,-0.554,0.18,0.069,0.222,-0.644,0.148
2024-10-15 11:18:53.723,65085.115,0.177,0.606,-0.776,-0.005,-0.124,-0.047,-0.762,0.106,-0.014,0.225,-0.651,0.15
2024-10-15 11:18:53.734,65085.125,0.177,0.612,-0.771,0.023,-0.095,-0.041,-0.853,0.037,-0.103,0.226,-0.659,0.152
2024-10-15 11:18:53.743,65085.135,0.177,0.619,-0.765,0.045,-0.045,-0.011,-0.825,-0.005,-0.138,0.227,-0.667,0.152
2024-10-15 11:18:53.754,65085.145,0.176,0.625,-0.761,0.041,-0.028,-0.001,-0.673,-0.01,-0.156,0.227,-0.675,0.153
2024-10-15 11:18:53.764,65085.155,0.175,0.63,-0.757,0.018,0.012,0.02,-0.51,-0.037,-0.155,0.227,-0.681,0.153
2024-10-15 11:18:53.773,65085.165,0.175,0.633,-0.755,0.008,0.034,0.042,-0.144,0.191,0.442,0.227,-0.685,0.154
2024-10-15 11:18:53.783,65085.175,0.173,0.634,-0.753,0.021,0.044,0.044,-0.307,-0.306,-0.335,0.226,-0.687,0.152
2024-10-15 11:18:53.794,65085.185,0.17,0.637,-0.752,0.108,0.04,0.038,-0.166,-0.285,-0.052,0.222,-0.69,0.151
2024-10-15 11:18:53.804,65085.195,0.169,0.636,-0.753,0.018,0.04,0.042,-0.007,-0.186,-0.393,0.221,-0.69,0.151
2024-10-15 11:18:53.814,65085.205,0.165,0.638,-0.753,-0.0,0.092,0.059,-0.124,-0.424,-0.131,0.215,-0.691,0.149
2024-10-15 11:18:53.824,65085.215,0.163,0.638,-0.753,0.018,-0.028,0.01,0.037,-0.16,-0.053,0.213,-0.692,0.149
2024-10-15 11:18:53.834,65085.225,0.16,0.639,-0.752,-0.004,0.039,0.034,-0.279,-0.346,-0.174,0.209,-0.694,0.146
2024-10-15 11:18:53.843,65085.235,0.158,0.641,-0.751,-0.0,-0.032,-0.015,-0.142,0.003,0.155,0.207,-0.696,0.146
2024-10-15 11:18:53.853,65085.245,0.156,0.643,-0.75,-0.015,-0.041,-0.01,-0.415,-0.107,-0.23,0.205,-0.699,0.145
2024-10-15 11:18:53.864,65085.255,0.155,0.647,-0.746,-0.014,-0.023,-0.012,-0.593,0.117,0.023,0.205,-0.704,0.145
2024-10-15 11:18:53.873,65085.265,0.155,0.652,-0.742,-0.042,-0.07,-0.037,-0.832,0.064,-0.266,0.207,-0.711,0.145
2024-10-15 11:18:53.884,65085.275,0.155,0.659,-0.736,0.002,-0.097,-0.061,-0.856,-0.023,0.024,0.207,-0.72,0.146
2024-10-15 11:18:53.894,65085.285,0.154,0.666,-0.73,0.026,-0.13,-0.056,-0.949,-0.091,-0.085,0.208,-0.729,0.148
2024-10-15 11:18:53.903,65085.295,0.152,0.673,-0.724,0.037,0.027,0.001,-1.009,-0.158,-0.114,0.207,-0.738,0.15
2024-10-15 11:18:53.913,65085.305,0.15,0.681,-0.717,0.025,-0.032,-0.001,-1.039,-0.201,-0.041,0.207,-0.749,0.151
2024-10-15 11:18:53.923,65085.315,0.149,0.688,-0.71,0.021,-0.027,0.0,-1.013,-0.259,-0.061,0.206,-0.759,0.154
2024-10-15 11:18:53.934,65085.325,0.146,0.695,-0.704,0.005,-0.019,0.001,-0.904,-0.29,-0.04,0.205,-0.768,0.156
2024-10-15 11:18:53.943,65085.335,0.144,0.701,-0.699,0.01,-0.004,0.016,-0.735,-0.312,-0.012,0.203,-0.776,0.158
2024-10-15 11:18:53.953,65085.345,0.142,0.705,-0.695,0.008,0.05,0.025,-0.604,-0.283,0.022,0.202,-0.783,0.16
2024-10-15 11:18:53.963,65085.355,0.14,0.709,-0.691,0.005,0.049,0.034,-0.556,-0.357,-0.001,0.2,-0.788,0.161
2024-10-15 11:18:53.973,65085.365,0.137,0.713,-0.688,0.008,0.038,0.022,-0.552,-0.331,0.003,0.197,-0.794,0.163
2024-10-15 11:18:53.984,65085.375,0.135,0.717,-0.684,0.02,0.028,0.017,-0.608,-0.337,-0.022,0.195,-0.799,0.164
2024-10-15 11:18:53.993,65085.384,0.133,0.721,-0.68,0.007,-0.012,-0.006,-0.582,-0.31,0.028,0.193,-0.805,0.166
2024-10-15 11:18:54.003,65085.394,0.131,0.725,-0.676,-0.017,-0.005,-0.006,-0.522,-0.262,-0.026,0.191,-0.811,0.168
2024-10-15 11:18:54.013,65085.404,0.129,0.728,-0.673,-0.015,0.01,0.002,-0.503,-0.281,0.019,0.19,-0.816,0.169
2024-10-15 11:18:54.023,65085.414,0.127,0.731,-0.67,-0.051,0.023,0.014,-0.373,-0.297,0.009,0.188,-0.82,0.17
2024-10-15 11:18:54.034,65085.424,0.126,0.733,-0.668,-0.053,0.059,0.046,-0.221,-0.308,0.027,0.186,-0.823,0.172
2024-10-15 11:18:54.044,65085.434,0.124,0.734,-0.668,-0.044,0.038,0.051,-0.054,-0.303,0.054,0.183,-0.824,0.172
2024-10-15 11:18:54.053,65085.444,0.122,0.734,-0.668,-0.044,0.079,0.054,0.032,-0.262,0.102,0.181,-0.824,0.174
2024-10-15 11:18:54.063,65085.454,0.122,0.734,-0.669,-0.044,0.063,0.039,0.075,-0.216,0.137,0.18,-0.823,0.175
2024-10-15 11:18:54.073,65085.464,0.122,0.733,-0.669,-0.042,0.032,0.019,0.022,-0.117,0.142,0.18,-0.823,0.177
2024-10-15 11:18:54.083,65085.474,0.122,0.733,-0.669,-0.03,0.025,0.007,-0.016,-0.056,0.141,0.18,-0.822,0.179
2024-10-15 11:18:54.093,65085.484,0.123,0.733,-0.669,-0.023,-0.002,-0.014,-0.043,0.005,0.119,0.182,-0.822,0.181
2024-10-15 11:18:54.103,65085.494,0.124,0.733,-0.669,-0.013,-0.04,-0.01,-0.045,0.037,0.082,0.183,-0.823,0.183
2024-10-15 11:18:54.113,65085.504,0.125,0.733,-0.669,-0.003,0.01,0.006,-0.016,0.038,0.068,0.184,-0.823,0.184
2024-10-15 11:18:54.123,65085.514,0.125,0.733,-0.669,0.004,0.015,0.004,0.102,0.041,0.08,0.185,-0.822,0.185
2024-10-15 11:18:54.132,65085.524,0.126,0.732,-0.67,0.003,0.021,0.014,0.211,0.079,0.117,0.187,-0.821,0.186
2024-10-15 11:18:54.142,65085.534,0.128,0.73,-0.671,-0.004,0.059,0.031,0.241,0.019,0.157,0.188,-0.818,0.187
2024-10-15 11:18:54.153,65085.544,0.129,0.728,-0.673,-0.014,0.046,0.028,0.174,0.025,0.158,0.189,-0.816,0.189
2024-10-15 11:18:54.163,65085.554,0.131,0.727,-0.674,-0.003,0.006,0.016,0.116,0.036,0.212,0.191,-0.814,0.191
2024-10-15 11:18:54.173,65085.564,0.133,0.726,-0.675,-0.009,-0.013,-0.002,0.063,0.094,0.254,0.194,-0.813,0.194
2024-10-15 11:18:54.183,65085.574,0.135,0.726,-0.675,-0.027,-0.02,-0.002,0.023,0.126,0.231,0.197,-0.812,0.197
2024-10-15 11:18:54.193,65085.584,0.137,0.725,-0.675,-0.027,0.006,0.004,-0.062,0.105,0.211,0.201,-0.812,0.2
2024-10-15 11:18:54.202,65085.594,0.139,0.726,-0.673,-0.008,-0.023,0.004,-0.197,0.105,0.16,0.204,-0.813,0.203
2024-10-15 11:18:54.213,65085.604,0.141,0.727,-0.672,0.006,-0.006,0.004,-0.227,0.106,0.138,0.207,-0.815,0.206
2024-10-15 11:18:54.223,65085.614,0.143,0.729,-0.67,0.004,-0.031,-0.018,-0.076,0.151,0.153,0.21,-0.816,0.209
2024-10-15 11:18:54.233,65085.624,0.145,0.728,-0.67,-0.007,-0.009,-0.007,0.073,0.127,0.189,0.213,-0.816,0.211
2024-10-15 11:18:54.243,65085.634,0.147,0.728,-0.67,-0.024,0.053,0.046,0.066,0.067,0.111,0.216,-0.815,0.213
2024-10-15 11:18:54.253,65085.644,0.147,0.727,-0.67,0.001,0.055,0.054,0.087,-0.029,0.094,0.217,-0.814,0.214
2024-10-15 11:18:54.263,65085.654,0.148,0.726,-0.672,0.033,0.005,0.01,0.203,-0.039,0.146,0.217,-0.812,0.215
2024-10-15 11:18:54.273,65085.664,0.148,0.724,-0.673,0.021,0.017,0.034,0.27,-0.077,0.114,0.217,-0.81,0.216
2024-10-15 11:18:54.283,65085.674,0.148,0.722,-0.676,0.004,0.05,0.052,0.292,-0.082,0.103,0.216,-0.807,0.216
2024-10-15 11:18:54.293,65085.684,0.148,0.72,-0.678,0.01,0.015,0.033,0.298,-0.12,0.108,0.216,-0.804,0.217
2024-10-15 11:18:54.303,65085.694,0.148,0.718,-0.68,-0.005,0.005,0.021,0.304,-0.137,0.074,0.215,-0.801,0.217
2024-10-15 11:18:54.313,65085.704,0.148,0.716,-0.683,0.001,0.017,0.028,0.261,-0.152,0.048,0.213,-0.798,0.217
2024-10-15 11:18:54.323,65085.714,0.147,0.714,-0.684,0.0,-0.008,0.022,0.236,-0.177,0.038,0.211,-0.796,0.217
2024-10-15 11:18:54.332,65085.724,0.146,0.712,-0.687,0.001,-0.024,0.014,0.302,-0.206,0.078,0.209,-0.793,0.217
2024-10-15 11:18:54.343,65085.734,0.145,0.711,-0.688,0.01,-0.004,0.033,-0.008,-0.222,0.047,0.207,-0.791,0.217
2024-10-15 11:18:54.353,65085.744,0.144,0.712,-0.687,-0.001,0.029,0.027,-0.316,-0.245,0.057,0.206,-0.793,0.219
2024-10-15 11:18:54.362,65085.754,0.143,0.715,-0.684,0.022,-0.083,-0.041,-0.565,-0.155,0.059,0.205,-0.797,0.22
2024-10-15 11:18:54.372,65085.764,0.142,0.72,-0.68,0.043,-0.168,-0.068,-0.829,-0.173,0.201,0.207,-0.803,0.224
2024-10-15 11:18:54.383,65085.774,0.143,0.726,-0.673,-0.015,-0.054,-0.045,-1.133,-0.121,0.176,0.209,-0.813,0.23
2024-10-15 11:18:54.392,65085.784,0.143,0.734,-0.664,0.036,-0.053,-0.061,-1.294,-0.127,0.23,0.213,-0.824,0.237
2024-10-15 11:18:54.402,65085.794,0.144,0.742,-0.655,0.023,-0.13,-0.088,-1.262,-0.207,0.309,0.217,-0.836,0.245
2024-10-15 11:18:54.412,65085.804,0.145,0.749,-0.647,0.021,-0.07,-0.034,-0.854,-0.213,0.334,0.221,-0.846,0.253
2024-10-15 11:18:54.422,65085.814,0.146,0.753,-0.641,0.011,0.026,0.011,-0.775,-0.188,0.207,0.224,-0.853,0.26
2024-10-15 11:18:54.433,65085.824,0.146,0.757,-0.637,-0.018,0.007,-0.002,-0.537,-0.183,0.08,0.225,-0.859,0.264
2024-10-15 11:18:54.442,65085.834,0.146,0.76,-0.633,-0.01,0.041,0.039,-0.371,-0.021,0.01,0.226,-0.863,0.266
2024-10-15 11:18:54.452,65085.844,0.145,0.763,-0.63,-0.024,0.072,0.059,-0.593,-0.047,-0.118,0.226,-0.868,0.267
2024-10-15 11:18:54.462,65085.854,0.144,0.767,-0.625,-0.048,-0.003,0.019,-0.672,-0.076,-0.151,0.226,-0.875,0.267
2024-10-15 11:18:54.473,65085.864,0.143,0.771,-0.621,-0.006,-0.12,0.007,-0.348,-0.013,-0.049,0.226,-0.88,0.267
2024-10-15 11:18:54.482,65085.874,0.143,0.772,-0.619,-0.011,0.012,0.05,-0.131,-0.074,-0.096,0.226,-0.882,0.268
2024-10-15 11:18:54.492,65085.884,0.142,0.772,-0.62,-0.016,0.189,0.071,0.178,-0.045,-0.044,0.225,-0.882,0.266
2024-10-15 11:18:54.502,65085.894,0.141,0.77,-0.623,-0.005,0.078,0.061,0.595,-0.105,-0.027,0.223,-0.878,0.265
2024-10-15 11:18:54.512,65085.904,0.139,0.765,-0.629,-0.015,0.085,0.088,1.014,-0.197,-0.132,0.218,-0.871,0.261
2024-10-15 11:18:54.522,65085.914,0.137,0.758,-0.638,0.03,0.185,0.132,1.311,-0.174,-0.092,0.212,-0.86,0.255
2024-10-15 11:18:54.532,65085.924,0.136,0.749,-0.648,0.05,0.136,0.119,1.282,-0.149,0.184,0.207,-0.847,0.251
2024-10-15 11:18:54.542,65085.934,0.135,0.742,-0.657,-0.001,0.11,0.066,0.913,-0.286,-0.049,0.202,-0.836,0.248
2024-10-15 11:18:54.552,65085.944,0.132,0.738,-0.662,0.031,0.057,0.004,0.25,-0.377,-0.018,0.198,-0.83,0.246
2024-10-15 11:18:54.562,65085.954,0.131,0.738,-0.663,0.046,-0.119,-0.064,-0.121,-0.301,0.128,0.195,-0.829,0.246
2024-10-15 11:18:54.572,65085.964,0.13,0.739,-0.661,-0.006,-0.217,-0.091,-0.398,-0.241,0.184,0.194,-0.832,0.25
2024-10-15 11:18:54.582,65085.974,0.13,0.742,-0.657,-0.03,-0.081,-0.066,-0.676,-0.219,0.2,0.195,-0.836,0.254
2024-10-15 11:18:54.592,65085.983,0.13,0.748,-0.651,-0.009,-0.074,-0.055,-1.061,-0.385,0.227,0.197,-0.844,0.26
2024-10-15 11:18:54.603,65085.993,0.129,0.754,-0.644,0.016,-0.159,-0.058,-1.104,-0.321,0.278,0.198,-0.855,0.266
2024-10-15 11:18:54.612,65086.003,0.13,0.76,-0.636,0.017,-0.115,-0.036,-0.921,-0.416,0.534,0.202,-0.864,0.276
2024-10-15 11:18:54.623,65086.013,0.131,0.765,-0.631,-0.048,-0.012,0.008,-0.577,-0.382,0.317,0.205,-0.87,0.285
2024-10-15 11:18:54.632,65086.023,0.131,0.766,-0.629,0.034,0.102,0.049,-0.067,-0.349,0.271,0.205,-0.873,0.29
2024-10-15 11:18:54.642,65086.033,0.131,0.765,-0.63,0.01,0.057,0.07,0.227,-0.119,0.141,0.205,-0.871,0.293
2024-10-15 11:18:54.652,65086.043,0.131,0.764,-0.632,-0.004,0.167,0.087,0.137,0.04,0.043,0.205,-0.869,0.293
2024-10-15 11:18:54.662,65086.053,0.132,0.763,-0.632,-0.007,0.102,0.006,0.053,0.05,0.066,0.206,-0.869,0.294
2024-10-15 11:18:54.672,65086.063,0.134,0.761,-0.635,0.019,-0.105,-0.071,1.043,0.059,0.419,0.207,-0.864,0.295
2024-10-15 11:18:54.683,65086.073,0.135,0.755,-0.641,0.021,-0.003,-0.008,0.677,0.051,-0.209,0.207,-0.856,0.294
2024-10-15 11:18:54.692,65086.083,0.133,0.75,-0.648,0.057,0.204,0.036,1.063,-0.144,0.001,0.203,-0.848,0.289
2024-10-15 11:18:54.702,65086.093,0.133,0.741,-0.659,-0.029,0.054,0.148,1.798,-0.225,0.072,0.199,-0.834,0.286
2024-10-15 11:18:54.712,65086.103,0.132,0.727,-0.674,-0.073,0.249,0.231,2.147,-0.143,0.068,0.193,-0.814,0.281
2024-10-15 11:18:54.722,65086.113,0.131,0.713,-0.689,0.006,0.321,0.202,1.969,-0.15,0.066,0.189,-0.794,0.277
2024-10-15 11:18:54.732,65086.123,0.131,0.7,-0.702,0.034,0.066,0.071,1.607,-0.141,0.092,0.185,-0.776,0.273
2024-10-15 11:18:54.741,65086.133,0.131,0.69,-0.712,0.015,-0.059,-0.006,1.247,-0.13,0.059,0.182,-0.762,0.271
2024-10-15 11:18:54.752,65086.143,0.13,0.682,-0.719,-0.017,-0.093,-0.023,0.969,-0.133,0.067,0.179,-0.751,0.269
2024-10-15 11:18:54.762,65086.153,0.13,0.677,-0.725,-0.045,-0.104,-0.027,0.563,-0.21,0.145,0.177,-0.743,0.268
2024-10-15 11:18:54.772,65086.163,0.129,0.674,-0.728,-0.054,-0.058,-0.019,0.197,-0.207,0.244,0.176,-0.739,0.27
2024-10-15 11:18:54.782,65086.173,0.13,0.673,-0.728,-0.029,-0.1,-0.034,-0.016,-0.126,0.344,0.177,-0.738,0.274
2024-10-15 11:18:54.792,65086.183,0.132,0.673,-0.728,-0.054,-0.113,-0.047,-0.298,-0.09,0.354,0.179,-0.739,0.279
2024-10-15 11:18:54.802,65086.193,0.134,0.676,-0.724,-0.046,-0.074,-0.051,-0.659,0.017,0.317,0.183,-0.743,0.285
2024-10-15 11:18:54.812,65086.203,0.136,0.682,-0.718,-0.011,-0.12,-0.055,-1.184,0.018,0.216,0.187,-0.751,0.29
2024-10-15 11:18:54.822,65086.213,0.136,0.693,-0.708,-0.006,-0.179,-0.08,-1.763,-0.173,0.125,0.19,-0.765,0.296
2024-10-15 11:18:54.832,65086.223,0.136,0.705,-0.696,0.035,-0.243,-0.065,-1.806,-0.313,0.191,0.193,-0.783,0.303
2024-10-15 11:18:54.842,65086.233,0.135,0.716,-0.685,0.063,-0.247,-0.028,-1.142,-0.055,0.015,0.195,-0.797,0.309
2024-10-15 11:18:54.852,65086.243,0.136,0.721,-0.679,0.041,0.063,0.001,-0.639,-0.063,0.045,0.198,-0.806,0.313
2024-10-15 11:18:54.862,65086.253,0.136,0.725,-0.675,-0.0,0.239,0.046,-0.359,-0.092,-0.109,0.198,-0.811,0.314
2024-10-15 11:18:54.872,65086.263,0.135,0.724,-0.677,0.081,0.092,0.055,0.971,-0.266,0.441,0.197,-0.809,0.315
2024-10-15 11:18:54.882,65086.273,0.134,0.717,-0.684,0.078,0.112,0.077,0.983,-0.149,-0.186,0.194,-0.8,0.313
2024-10-15 11:18:54.892,65086.283,0.133,0.708,-0.693,0.17,0.367,0.086,1.514,-0.37,0.25,0.189,-0.787,0.311
2024-10-15 11:18:54.901,65086.293,0.131,0.697,-0.705,-0.002,0.173,0.133,1.793,-0.362,-0.087,0.183,-0.771,0.307
2024-10-15 11:18:54.912,65086.303,0.129,0.684,-0.719,0.012,0.253,0.187,1.903,-0.271,0.074,0.177,-0.753,0.303
2024-10-15 11:18:54.922,65086.313,0.128,0.67,-0.731,-0.092,0.186,0.154,1.871,-0.165,0.366,0.173,-0.734,0.3
2024-10-15 11:18:54.932,65086.323,0.127,0.658,-0.742,-0.084,0.058,0.054,1.463,-0.104,-0.164,0.169,-0.718,0.298
2024-10-15 11:18:54.941,65086.333,0.126,0.648,-0.751,0.008,-0.092,-0.001,1.231,-0.095,0.147,0.167,-0.704,0.295
2024-10-15 11:18:54.951,65086.343,0.127,0.64,-0.758,-0.147,-0.11,-0.009,0.687,0.013,0.074,0.166,-0.695,0.294
2024-10-15 11:18:54.961,65086.353,0.128,0.637,-0.76,-0.086,-0.014,-0.027,0.199,-0.048,0.348,0.167,-0.69,0.296
2024-10-15 11:18:54.971,65086.363,0.131,0.636,-0.76,-0.035,-0.254,-0.065,-0.233,0.109,0.316,0.17,-0.689,0.3
2024-10-15 11:18:54.982,65086.373,0.134,0.639,-0.757,-0.066,-0.129,-0.068,-0.634,0.301,0.339,0.175,-0.693,0.305
2024-10-15 11:18:54.992,65086.383,0.139,0.645,-0.752,-0.042,-0.08,-0.119,-1.026,0.34,0.338,0.183,-0.701,0.312
2024-10-15 11:18:55.002,65086.393,0.143,0.654,-0.743,-0.044,-0.22,-0.106,-1.359,0.225,0.259,0.19,-0.712,0.319
2024-10-15 11:18:55.011,65086.403,0.146,0.663,-0.734,-0.001,-0.153,-0.039,-1.311,0.153,0.326,0.197,-0.725,0.326
2024-10-15 11:18:55.021,65086.413,0.149,0.671,-0.727,0.038,-0.182,0.013,-0.791,-0.027,0.285,0.202,-0.735,0.333
2024-10-15 11:18:55.031,65086.423,0.15,0.673,-0.724,0.022,0.039,0.049,0.015,0.014,0.169,0.204,-0.739,0.337
2024-10-15 11:18:55.041,65086.433,0.151,0.672,-0.725,0.062,0.296,0.104,0.318,0.126,0.042,0.206,-0.736,0.338
2024-10-15 11:18:55.051,65086.443,0.152,0.669,-0.727,0.037,0.297,0.094,0.363,0.069,-0.056,0.206,-0.733,0.337
2024-10-15 11:18:55.061,65086.453,0.152,0.665,-0.731,0.034,0.044,-0.015,0.85,0.01,-0.01,0.205,-0.727,0.335
2024-10-15 11:18:55.071,65086.463,0.152,0.657,-0.739,0.041,0.029,0.037,1.384,-0.057,0.051,0.202,-0.717,0.332
2024-10-15 11:18:55.081,65086.473,0.151,0.644,-0.75,0.027,0.269,0.16,1.981,-0.245,0.15,0.199,-0.7,0.329
2024-10-15 11:18:55.091,65086.483,0.15,0.626,-0.765,-0.006,0.274,0.17,2.712,-0.37,0.267,0.194,-0.677,0.326
2024-10-15 11:18:55.101,65086.493,0.148,0.604,-0.783,-0.04,0.29,0.195,2.91,-0.418,0.144,0.187,-0.648,0.321
2024-10-15 11:18:55.111,65086.503,0.146,0.582,-0.8,-0.003,0.381,0.186,2.633,-0.394,-0.074,0.18,-0.621,0.316
2024-10-15 11:18:55.121,65086.513,0.142,0.562,-0.815,0.02,0.086,0.088,2.284,-0.436,-0.083,0.172,-0.597,0.31
2024-10-15 11:18:55.131,65086.523,0.138,0.545,-0.827,0.027,-0.139,0.015,1.978,-0.313,-0.081,0.166,-0.576,0.304
2024-10-15 11:18:55.141,65086.533,0.136,0.531,-0.837,0.011,-0.087,0.001,1.397,-0.153,-0.081,0.161,-0.56,0.3
2024-10-15 11:18:55.151,65086.543,0.135,0.523,-0.842,-0.036,-0.101,-0.031,0.541,0.017,0.027,0.159,-0.55,0.298
2024-10-15 11:18:55.161,65086.553,0.136,0.522,-0.842,-0.046,-0.253,-0.092,-0.243,0.108,0.091,0.16,-0.549,0.298
2024-10-15 11:18:55.171,65086.563,0.138,0.526,-0.839,-0.054,-0.405,-0.134,-0.756,0.283,0.161,0.163,-0.553,0.3
2024-10-15 11:18:55.181,65086.573,0.142,0.534,-0.833,-0.045,-0.332,-0.102,-1.362,0.438,0.166,0.169,-0.563,0.305
2024-10-15 11:18:55.191,65086.582,0.146,0.548,-0.824,-0.059,-0.188,-0.119,-2.11,0.259,0.208,0.176,-0.58,0.31
2024-10-15 11:18:55.201,65086.592,0.149,0.566,-0.811,-0.02,-0.246,-0.133,-2.347,-0.023,0.33,0.181,-0.602,0.318
2024-10-15 11:18:55.211,65086.602,0.15,0.583,-0.798,0.04,-0.303,-0.051,-1.964,-0.076,0.574,0.186,-0.623,0.328
2024-10-15 11:18:55.221,65086.612,0.152,0.592,-0.791,0.065,-0.041,0.069,-0.098,-0.533,0.643,0.19,-0.634,0.339
2024-10-15 11:18:55.231,65086.622,0.151,0.589,-0.794,0.176,0.199,0.065,0.719,-0.328,-0.012,0.187,-0.63,0.342
2024-10-15 11:18:55.241,65086.632,0.148,0.583,-0.799,0.138,0.421,-0.031,0.799,-0.359,-0.013,0.183,-0.622,0.34
2024-10-15 11:18:55.251,65086.642,0.145,0.578,-0.803,0.037,0.181,-0.023,0.372,-0.326,-0.079,0.178,-0.616,0.338
2024-10-15 11:18:55.261,65086.652,0.142,0.575,-0.806,0.097,-0.127,0.069,0.571,-0.245,-0.095,0.174,-0.612,0.336
2024-10-15 11:18:55.271,65086.662,0.139,0.566,-0.812,0.018,0.046,0.173,1.473,-0.423,0.074,0.17,-0.602,0.334
2024-10-15 11:18:55.281,65086.672,0.135,0.554,-0.822,-0.002,0.297,0.173,1.655,-0.486,-0.09,0.163,-0.587,0.33
2024-10-15 11:18:55.291,65086.682,0.131,0.539,-0.832,0.089,0.359,0.132,1.814,-0.438,-0.032,0.156,-0.57,0.326
2024-10-15 11:18:55.301,65086.692,0.127,0.524,-0.842,-0.047,0.239,0.158,1.889,-0.406,-0.13,0.15,-0.551,0.322
2024-10-15 11:18:55.311,65086.702,0.122,0.509,-0.852,-0.156,0.183,0.157,1.649,-0.397,-0.279,0.143,-0.534,0.317
2024-10-15 11:18:55.321,65086.712,0.118,0.496,-0.86,-0.044,0.026,0.08,1.358,-0.232,-0.185,0.137,-0.519,0.311
2024-10-15 11:18:55.331,65086.722,0.117,0.487,-0.866,-0.042,-0.139,0.013,0.872,-0.062,-0.007,0.134,-0.508,0.309
2024-10-15 11:18:55.341,65086.732,0.117,0.482,-0.868,-0.128,-0.134,-0.024,0.229,0.025,0.134,0.134,-0.503,0.308
2024-10-15 11:18:55.351,65086.742,0.119,0.482,-0.868,-0.088,-0.18,-0.072,-0.245,0.208,0.255,0.136,-0.503,0.311
2024-10-15 11:18:55.361,65086.752,0.123,0.486,-0.865,-0.075,-0.283,-0.08,-0.743,0.452,0.222,0.141,-0.507,0.314
2024-10-15 11:18:55.371,65086.762,0.129,0.494,-0.86,-0.089,-0.164,-0.1,-1.305,0.618,0.223,0.148,-0.517,0.319
2024-10-15 11:18:55.381,65086.772,0.135,0.507,-0.851,-0.076,-0.199,-0.125,-1.875,0.545,0.182,0.157,-0.532,0.324
2024-10-15 11:18:55.391,65086.782,0.139,0.522,-0.841,-0.052,-0.287,-0.098,-1.782,0.404,0.218,0.164,-0.55,0.329
2024-10-15 11:18:55.401,65086.792,0.141,0.525,-0.839,-0.021,-0.252,-0.056,0.313,-0.39,0.617,0.166,-0.553,0.335
2024-10-15 11:18:55.411,65086.802,0.139,0.52,-0.843,0.059,0.08,0.022,0.847,-0.456,0.193,0.164,-0.547,0.339
2024-10-15 11:18:55.421,65086.812,0.137,0.513,-0.847,0.215,0.518,-0.038,0.682,-0.056,-0.058,0.161,-0.539,0.338
2024-10-15 11:18:55.431,65086.822,0.136,0.509,-0.85,0.052,0.23,0.046,0.182,-0.145,-0.078,0.159,-0.535,0.336
2024-10-15 11:18:55.441,65086.832,0.135,0.51,-0.85,-0.054,-0.112,0.1,-0.2,0.116,-0.262,0.158,-0.535,0.334
2024-10-15 11:18:55.451,65086.842,0.135,0.509,-0.85,0.123,-0.134,0.104,0.404,0.01,-0.094,0.157,-0.534,0.332
2024-10-15 11:18:55.461,65086.852,0.133,0.503,-0.854,-0.013,0.11,0.167,1.065,-0.257,-0.098,0.155,-0.528,0.329
2024-10-15 11:18:55.471,65086.862,0.131,0.491,-0.861,0.032,0.378,0.148,1.719,-0.29,0.129,0.151,-0.514,0.327
2024-10-15 11:18:55.481,65086.872,0.127,0.476,-0.87,0.095,0.443,0.108,1.841,-0.42,-0.145,0.145,-0.496,0.323
2024-10-15 11:18:55.491,65086.882,0.122,0.461,-0.879,0.013,0.378,0.101,1.686,-0.562,-0.09,0.138,-0.479,0.319
2024-10-15 11:18:55.501,65086.892,0.117,0.447,-0.887,-0.004,0.004,0.104,1.263,-0.566,-0.069,0.131,-0.464,0.316
2024-10-15 11:18:55.511,65086.902,0.112,0.439,-0.892,0.012,-0.134,0.078,0.709,-0.437,0.052,0.125,-0.454,0.314
2024-10-15 11:18:55.520,65086.912,0.11,0.435,-0.894,-0.005,-0.189,-0.001,0.251,-0.108,0.176,0.123,-0.45,0.315
2024-10-15 11:18:55.530,65086.922,0.111,0.435,-0.894,-0.077,-0.304,-0.074,-0.334,0.181,0.11,0.124,-0.45,0.317
2024-10-15 11:18:55.540,65086.932,0.114,0.44,-0.891,-0.127,-0.168,-0.102,-0.932,0.394,0.103,0.128,-0.456,0.319
2024-10-15 11:18:55.551,65086.942,0.119,0.451,-0.885,-0.068,-0.305,-0.107,-1.456,0.456,0.076,0.134,-0.468,0.322
2024-10-15 11:18:55.560,65086.952,0.122,0.466,-0.876,-0.067,-0.352,-0.105,-1.964,0.292,-0.001,0.139,-0.485,0.325
2024-10-15 11:18:55.570,65086.962,0.126,0.483,-0.866,-0.018,-0.193,-0.06,-1.984,0.398,0.184,0.144,-0.504,0.329
2024-10-15 11:18:55.580,65086.972,0.13,0.5,-0.856,0.033,-0.217,-0.054,-1.846,0.469,0.197,0.151,-0.523,0.335
2024-10-15 11:18:55.590,65086.982,0.133,0.502,-0.854,-0.054,0.052,-0.038,1.674,-0.658,0.911,0.155,-0.526,0.339
2024-10-15 11:18:55.600,65086.992,0.128,0.486,-0.865,0.01,0.162,-0.049,1.895,-1.082,0.009,0.147,-0.507,0.343
2024-10-15 11:18:55.610,65087.002,0.12,0.475,-0.872,0.385,0.611,-0.046,0.639,-0.223,-0.442,0.137,-0.495,0.338
2024-10-15 11:18:55.620,65087.012,0.12,0.475,-0.872,0.288,0.205,0.14,-0.473,0.294,-0.136,0.136,-0.495,0.335
2024-10-15 11:18:55.631,65087.022,0.121,0.477,-0.871,-0.246,-0.464,0.182,0.045,0.061,-0.027,0.138,-0.497,0.334
2024-10-15 11:18:55.641,65087.032,0.119,0.474,-0.872,-0.217,-0.032,0.185,0.646,-0.32,-0.337,0.136,-0.494,0.332
2024-10-15 11:18:55.650,65087.042,0.115,0.466,-0.877,0.1,0.371,0.147,1.378,-0.312,0.013,0.13,-0.484,0.328
2024-10-15 11:18:55.661,65087.052,0.112,0.452,-0.885,0.135,0.448,0.096,1.756,-0.299,-0.157,0.126,-0.469,0.325
2024-10-15 11:18:55.671,65087.062,0.108,0.437,-0.893,-0.063,0.404,0.091,1.524,-0.503,-0.065,0.12,-0.452,0.321
2024-10-15 11:18:55.680,65087.072,0.103,0.425,-0.899,-0.068,0.167,0.075,1.085,-0.54,0.046,0.114,-0.439,0.319
2024-10-15 11:18:55.690,65087.082,0.1,0.416,-0.904,0.03,-0.11,-0.008,0.899,-0.313,0.24,0.11,-0.429,0.32
2024-10-15 11:18:55.700,65087.092,0.099,0.409,-0.907,-0.029,-0.148,-0.048,0.653,-0.089,0.358,0.109,-0.421,0.322
2024-10-15 11:18:55.710,65087.102,0.1,0.405,-0.909,-0.101,-0.02,-0.087,0.131,0.008,0.251,0.11,-0.417,0.325
2024-10-15 11:18:55.720,65087.112,0.102,0.407,-0.908,-0.062,-0.051,-0.059,-0.513,0.19,0.156,0.112,-0.419,0.328
2024-10-15 11:18:55.731,65087.122,0.105,0.414,-0.904,-0.013,-0.334,-0.057,-1.11,0.271,0.076,0.115,-0.427,0.33
2024-10-15 11:18:55.740,65087.132,0.107,0.426,-0.899,-0.051,-0.37,-0.067,-1.513,0.164,-0.016,0.118,-0.44,0.332
2024-10-15 11:18:55.751,65087.142,0.109,0.44,-0.891,-0.016,-0.3,-0.023,-1.674,0.347,-0.013,0.121,-0.456,0.334
2024-10-15 11:18:55.760,65087.152,0.113,0.452,-0.885,0.027,-0.235,-0.015,-0.54,0.347,0.12,0.127,-0.469,0.336
2024-10-15 11:18:55.770,65087.162,0.113,0.449,-0.886,-0.081,-0.026,-0.106,0.742,-0.567,0.814,0.126,-0.466,0.341
2024-10-15 11:18:55.780,65087.172,0.109,0.44,-0.892,0.009,0.158,-0.119,1.088,-0.529,-0.088,0.121,-0.455,0.344
2024-10-15 11:18:55.790,65087.181,0.105,0.433,-0.895,0.308,0.472,0.031,0.356,-0.07,-0.34,0.117,-0.448,0.34
2024-10-15 11:18:55.801,65087.191,0.105,0.433,-0.895,0.078,0.021,0.149,-0.295,0.357,-0.255,0.117,-0.448,0.337
2024-10-15 11:18:55.810,65087.201,0.107,0.434,-0.894,-0.113,-0.198,0.163,0.249,0.145,-0.038,0.119,-0.449,0.335
2024-10-15 11:18:55.820,65087.211,0.106,0.428,-0.897,-0.127,0.071,0.163,1.088,-0.368,-0.118,0.117,-0.443,0.334
2024-10-15 11:18:55.830,65087.221,0.101,0.414,-0.905,0.075,0.406,0.157,2.176,-0.643,-0.031,0.111,-0.427,0.331
2024-10-15 11:18:55.840,65087.231,0.094,0.392,-0.915,0.153,0.603,0.162,2.559,-0.839,-0.089,0.102,-0.403,0.327
2024-10-15 11:18:55.850,65087.241,0.084,0.369,-0.925,0.029,0.592,0.18,2.296,-1.13,-0.076,0.091,-0.378,0.324
2024-10-15 11:18:55.860,65087.251,0.074,0.351,-0.934,0.071,0.198,0.135,1.727,-1.109,0.106,0.079,-0.358,0.322
2024-10-15 11:18:55.870,65087.261,0.066,0.337,-0.939,0.116,-0.198,0.007,1.022,-0.76,0.597,0.07,-0.344,0.324
2024-10-15 11:18:55.880,65087.271,0.065,0.333,-0.941,0.002,-0.179,-0.096,0.256,-0.023,0.525,0.069,-0.339,0.33
2024-10-15 11:18:55.890,65087.281,0.066,0.33,-0.942,-0.107,-0.171,-0.12,0.158,-0.114,0.63,0.07,-0.336,0.336
2024-10-15 11:18:55.900,65087.291,0.066,0.329,-0.942,-0.223,-0.174,-0.064,-0.123,-0.153,0.272,0.07,-0.335,0.341
2024-10-15 11:18:55.910,65087.301,0.066,0.333,-0.941,-0.01,-0.143,-0.091,-0.748,-0.06,0.295,0.071,-0.339,0.344
2024-10-15 11:18:55.920,65087.311,0.067,0.342,-0.937,0.031,-0.384,-0.103,-1.404,-0.201,0.562,0.071,-0.35,0.349
2024-10-15 11:18:55.930,65087.321,0.067,0.357,-0.932,-0.031,-0.335,0.06,-1.336,0.214,0.118,0.072,-0.365,0.353
2024-10-15 11:18:55.940,65087.331,0.072,0.368,-0.927,0.024,-0.191,0.113,-1.282,0.698,-0.085,0.078,-0.377,0.355
2024-10-15 11:18:55.950,65087.341,0.079,0.381,-0.921,-0.164,-0.266,-0.118,-1.507,0.919,-0.313,0.085,-0.391,0.354
2024-10-15 11:18:55.960,65087.351,0.086,0.396,-0.914,-0.093,-0.063,-0.087,-1.784,0.892,-0.375,0.094,-0.408,0.352
2024-10-15 11:18:55.970,65087.361,0.092,0.412,-0.907,0.012,-0.21,-0.029,-1.494,0.768,-0.37,0.101,-0.424,0.35
2024-10-15 11:18:55.980,65087.371,0.096,0.423,-0.901,0.079,-0.24,0.017,-0.83,0.495,-0.371,0.106,-0.436,0.347
2024-10-15 11:18:55.990,65087.381,0.098,0.425,-0.9,0.074,0.123,0.125,0.499,0.167,-0.177,0.108,-0.439,0.344
2024-10-15 11:18:56.000,65087.391,0.094,0.42,-0.902,0.106,0.459,0.139,0.748,-0.461,-0.321,0.104,-0.434,0.339
2024-10-15 11:18:56.010,65087.401,0.089,0.41,-0.908,0.214,0.512,0.061,1.505,-0.344,-0.318,0.098,-0.423,0.335
2024-10-15 11:18:56.020,65087.411,0.084,0.396,-0.914,0.057,0.497,0.169,1.627,-0.627,-0.279,0.092,-0.407,0.33
2024-10-15 11:18:56.030,65087.421,0.077,0.382,-0.921,-0.191,0.359,0.174,1.161,-0.461,-0.007,0.084,-0.392,0.326
2024-10-15 11:18:56.040,65087.431,0.071,0.371,-0.926,0.045,0.045,0.078,1.206,-0.752,0.066,0.077,-0.38,0.325
2024-10-15 11:18:56.050,65087.441,0.067,0.361,-0.93,0.059,-0.035,-0.038,1.04,-0.344,0.376,0.072,-0.369,0.327
2024-10-15 11:18:56.060,65087.451,0.067,0.352,-0.934,-0.13,-0.019,-0.121,0.803,-0.197,0.613,0.072,-0.36,0.331
2024-10-15 11:18:56.070,65087.461,0.068,0.346,-0.936,-0.17,0.03,-0.097,0.343,-0.086,0.387,0.072,-0.353,0.337
2024-10-15 11:18:56.080,65087.471,0.069,0.345,-0.936,-0.026,-0.047,-0.043,-0.304,0.225,0.178,0.074,-0.353,0.34
2024-10-15 11:18:56.090,65087.481,0.072,0.352,-0.933,0.003,-0.32,-0.098,-1.011,0.26,0.207,0.077,-0.36,0.342
2024-10-15 11:18:56.100,65087.491,0.076,0.363,-0.929,-0.094,-0.443,-0.093,-1.317,0.321,0.26,0.082,-0.372,0.346
2024-10-15 11:18:56.110,65087.501,0.078,0.374,-0.924,-0.032,-0.359,-0.031,-0.953,-0.384,-0.159,0.084,-0.384,0.348
2024-10-15 11:18:56.119,65087.511,0.077,0.382,-0.921,-0.018,-0.132,-0.026,-0.671,0.288,0.493,0.083,-0.392,0.351
2024-10-15 11:18:56.129,65087.521,0.081,0.384,-0.92,-0.104,-0.019,-0.078,0.148,0.182,0.079,0.088,-0.394,0.354
2024-10-15 11:18:56.140,65087.531,0.08,0.381,-0.921,-0.038,0.186,0.003,0.465,-0.217,-0.189,0.087,-0.391,0.353
2024-10-15 11:18:56.149,65087.541,0.078,0.377,-0.923,0.17,0.157,0.104,0.431,0.057,-0.431,0.084,-0.386,0.349
2024-10-15 11:18:56.160,65087.551,0.078,0.374,-0.924,0.308,0.005,0.14,0.345,0.332,-0.389,0.085,-0.383,0.344
2024-10-15 11:18:56.170,65087.561,0.079,0.368,-0.926,-0.028,0.147,0.214,0.891,-0.175,0.038,0.085,-0.377,0.342
2024-10-15 11:18:56.180,65087.571,0.075,0.356,-0.931,-0.074,0.197,0.179,1.739,-0.574,-0.03,0.08,-0.364,0.341
2024-10-15 11:18:56.189,65087.581,0.068,0.338,-0.939,0.127,0.473,0.059,2.057,-0.764,-0.119,0.073,-0.345,0.339
2024-10-15 11:18:56.199,65087.591,0.061,0.322,-0.945,0.103,0.64,0.075,0.928,-0.288,-0.227,0.065,-0.328,0.336
2024-10-15 11:18:56.209,65087.601,0.059,0.315,-0.947,0.057,0.209,0.083,0.544,-0.221,-0.107,0.062,-0.321,0.333
2024-10-15 11:18:56.220,65087.611,0.057,0.312,-0.949,-0.035,-0.346,0.027,0.301,-0.331,0.234,0.06,-0.317,0.334
2024-10-15 11:18:56.230,65087.621,0.054,0.309,-0.95,-0.107,-0.35,-0.021,0.223,-0.301,0.232,0.057,-0.314,0.336
2024-10-15 11:18:56.239,65087.631,0.053,0.307,-0.95,-0.023,-0.081,-0.008,0.233,-0.142,0.223,0.056,-0.312,0.338
2024-10-15 11:18:56.249,65087.641,0.053,0.305,-0.951,-0.05,-0.063,-0.033,-0.043,0.154,0.134,0.056,-0.31,0.34
2024-10-15 11:18:56.259,65087.651,0.057,0.308,-0.95,-0.099,-0.105,-0.128,-0.455,0.476,0.121,0.06,-0.313,0.342
2024-10-15 11:18:56.270,65087.661,0.062,0.314,-0.947,-0.098,-0.295,-0.178,-0.963,0.425,0.108,0.065,-0.32,0.343
2024-10-15 11:18:56.279,65087.671,0.065,0.324,-0.944,-0.096,-0.236,-0.064,-1.092,0.135,0.266,0.069,-0.33,0.346
2024-10-15 11:18:56.290,65087.681,0.065,0.333,-0.941,0.038,-0.209,-0.009,-0.976,-0.611,-0.11,0.069,-0.34,0.348
2024-10-15 11:18:56.299,65087.691,0.064,0.342,-0.937,0.109,-0.037,0.01,-0.9,0.25,0.26,0.068,-0.349,0.35
2024-10-15 11:18:56.309,65087.701,0.067,0.349,-0.935,-0.064,-0.028,-0.078,-0.481,0.264,0.085,0.072,-0.356,0.352
2024-10-15 11:18:56.319,65087.711,0.069,0.351,-0.934,-0.101,-0.056,-0.124,-0.073,0.168,-0.136,0.074,-0.359,0.352
2024-10-15 11:18:56.330,65087.721,0.069,0.35,-0.934,0.065,0.053,0.005,0.209,-0.157,-0.28,0.073,-0.358,0.35
2024-10-15 11:18:56.339,65087.731,0.066,0.348,-0.935,0.249,0.009,0.092,0.277,0.052,-0.423,0.071,-0.356,0.346
2024-10-15 11:18:56.349,65087.741,0.066,0.348,-0.935,0.188,0.1,0.211,-0.154,0.25,-0.569,0.07,-0.356,0.34
2024-10-15 11:18:56.359,65087.751,0.066,0.346,-0.936,-0.021,0.054,0.261,0.6,-0.006,0.069,0.071,-0.353,0.338
2024-10-15 11:18:56.369,65087.761,0.064,0.338,-0.939,-0.097,0.099,0.174,0.939,-0.253,-0.203,0.068,-0.345,0.337
2024-10-15 11:18:56.379,65087.771,0.061,0.329,-0.942,0.022,0.571,0.087,0.92,-0.229,-0.312,0.065,-0.336,0.333
2024-10-15 11:18:56.390,65087.78,0.058,0.322,-0.945,0.055,0.452,0.007,0.681,-0.287,0.015,0.062,-0.328,0.331
2024-10-15 11:18:56.399,65087.79,0.056,0.316,-0.947,0.003,0.025,0.003,0.489,-0.319,0.162,0.059,-0.322,0.331
2024-10-15 11:18:56.409,65087.8,0.053,0.312,-0.949,0.006,0.069,0.055,0.541,-0.349,0.281,0.056,-0.317,0.333
2024-10-15 11:18:56.419,65087.81,0.052,0.306,-0.95,-0.039,0.037,0.016,0.484,-0.222,0.421,0.054,-0.311,0.337
2024-10-15 11:18:56.429,65087.82,0.051,0.302,-0.952,-0.078,-0.046,-0.056,0.473,-0.069,0.331,0.054,-0.307,0.341
2024-10-15 11:18:56.439,65087.83,0.052,0.299,-0.953,-0.104,-0.046,-0.09,0.001,0.109,0.185,0.055,-0.303,0.343
2024-10-15 11:18:56.449,65087.84,0.056,0.302,-0.952,-0.073,-0.27,-0.137,-0.835,0.513,-0.075,0.058,-0.307,0.344
2024-10-15 11:18:56.459,65087.85,0.061,0.314,-0.947,-0.027,-0.487,-0.118,-1.478,0.511,0.109,0.064,-0.32,0.345
2024-10-15 11:18:56.469,65087.86,0.065,0.329,-0.942,-0.124,-0.553,-0.083,-1.42,0.398,0.244,0.069,-0.335,0.348
2024-10-15 11:18:56.479,65087.87,0.064,0.337,-0.939,-0.014,-0.34,0.005,-0.586,-0.29,0.299,0.068,-0.344,0.351
2024-10-15 11:18:56.489,65087.88,0.064,0.339,-0.939,0.072,0.105,-0.032,0.131,0.003,0.252,0.068,-0.346,0.354
2024-10-15 11:18:56.499,65087.89,0.065,0.337,-0.939,0.004,0.213,-0.172,0.297,0.097,-0.051,0.069,-0.344,0.355
2024-10-15 11:18:56.509,65087.9,0.065,0.335,-0.94,0.027,0.157,-0.043,0.131,0.123,-0.353,0.069,-0.342,0.353
2024-10-15 11:18:56.519,65087.91,0.066,0.333,-0.941,0.121,0.067,0.142,0.304,0.056,-0.166,0.07,-0.339,0.35
2024-10-15 11:18:56.529,65087.92,0.066,0.331,-0.941,0.115,-0.06,0.182,0.069,0.203,-0.457,0.069,-0.338,0.347
2024-10-15 11:18:56.539,65087.93,0.066,0.331,-0.941,0.051,0.114,0.196,0.102,0.193,-0.265,0.07,-0.338,0.342
2024-10-15 11:18:56.549,65087.94,0.067,0.327,-0.943,-0.05,0.126,0.127,0.736,0.026,-0.065,0.071,-0.333,0.341
2024-10-15 11:18:56.559,65087.95,0.066,0.319,-0.945,-0.062,0.238,0.036,0.954,-0.223,-0.27,0.069,-0.325,0.338
2024-10-15 11:18:56.569,65087.96,0.062,0.312,-0.948,-0.012,0.488,0.029,0.497,-0.316,-0.186,0.065,-0.317,0.335
2024-10-15 11:18:56.579,65087.97,0.06,0.309,-0.949,0.078,0.121,0.059,0.174,-0.146,-0.123,0.063,-0.314,0.333
2024-10-15 11:18:56.589,65087.98,0.058,0.308,-0.95,0.096,-0.037,0.088,0.102,-0.23,0.198,0.061,-0.313,0.334
2024-10-15 11:18:56.599,65087.99,0.056,0.306,-0.95,-0.005,0.059,0.076,0.397,-0.325,0.329,0.059,-0.311,0.336
2024-10-15 11:18:56.609,65088.0,0.055,0.301,-0.952,-0.019,0.222,0.009,0.453,-0.293,0.539,0.057,-0.306,0.341
2024-10-15 11:18:56.619,65088.01,0.054,0.297,-0.953,-0.056,0.09,-0.083,0.315,-0.221,0.471,0.056,-0.302,0.346
2024-10-15 11:18:56.629,65088.02,0.053,0.294,-0.954,-0.079,0.026,-0.063,0.213,-0.108,0.397,0.056,-0.299,0.35
2024-10-15 11:18:56.639,65088.03,0.054,0.295,-0.954,-0.054,-0.259,-0.05,-0.478,0.056,0.209,0.057,-0.299,0.353
2024-10-15 11:18:56.649,65088.04,0.056,0.301,-0.952,-0.02,-0.491,-0.103,-0.806,-0.035,0.501,0.058,-0.305,0.357
2024-10-15 11:18:56.659,65088.05,0.054,0.309,-0.949,-0.045,-0.377,-0.029,-0.842,-0.303,0.279,0.057,-0.314,0.362
2024-10-15 11:18:56.669,65088.06,0.056,0.315,-0.947,0.039,-0.171,0.079,-0.537,0.296,0.039,0.059,-0.321,0.364
2024-10-15 11:18:56.679,65088.07,0.058,0.318,-0.946,-0.056,0.008,-0.028,-0.022,0.165,-0.1,0.061,-0.324,0.363
2024-10-15 11:18:56.689,65088.08,0.059,0.317,-0.947,-0.116,0.072,-0.14,0.205,0.075,-0.106,0.062,-0.323,0.363
2024-10-15 11:18:56.699,65088.09,0.059,0.315,-0.947,0.072,-0.068,-0.093,0.228,0.223,-0.448,0.062,-0.321,0.359
2024-10-15 11:18:56.709,65088.1,0.06,0.314,-0.948,0.164,-0.109,-0.012,0.078,0.37,-0.473,0.064,-0.319,0.354
2024-10-15 11:18:56.719,65088.11,0.062,0.314,-0.947,0.029,0.008,0.118,-0.055,0.287,-0.327,0.066,-0.32,0.35
2024-10-15 11:18:56.729,65088.12,0.064,0.312,-0.948,-0.022,0.163,0.19,0.516,0.159,-0.063,0.067,-0.318,0.348
2024-10-15 11:18:56.739,65088.13,0.064,0.306,-0.95,0.0,0.233,0.119,0.831,-0.065,-0.182,0.068,-0.311,0.346
2024-10-15 11:18:56.749,65088.14,0.061,0.297,-0.953,-0.016,0.458,0.02,0.988,-0.442,-0.1,0.064,-0.302,0.344
2024-10-15 11:18:56.759,65088.15,0.058,0.291,-0.955,0.049,0.29,0.014,0.445,-0.009,-0.154,0.061,-0.295,0.342
2024-10-15 11:18:56.769,65088.16,0.056,0.286,-0.957,0.112,0.084,0.066,0.485,-0.394,0.051,0.058,-0.29,0.341
2024-10-15 11:18:56.779,65088.17,0.052,0.282,-0.958,0.021,0.032,0.105,0.424,-0.423,0.319,0.054,-0.286,0.343
2024-10-15 11:18:56.789,65088.18,0.05,0.278,-0.959,-0.016,0.002,0.05,0.284,-0.211,0.351,0.052,-0.282,0.346
2024-10-15 11:18:56.798,65088.19,0.05,0.276,-0.96,-0.052,-0.066,-0.045,0.265,-0.07,0.301,0.052,-0.279,0.35
2024-10-15 11:18:56.808,65088.2,0.051,0.275,-0.96,-0.125,-0.082,-0.092,-0.271,0.153,0.088,0.053,-0.279,0.352
2024-10-15 11:18:56.818,65088.21,0.054,0.281,-0.958,-0.073,-0.239,-0.124,-0.995,0.553,-0.151,0.056,-0.285,0.352
2024-10-15 11:18:56.828,65088.22,0.059,0.294,-0.954,-0.062,-0.447,-0.11,-1.187,0.414,0.027,0.062,-0.298,0.351
2024-10-15 11:18:56.838,65088.23,0.059,0.303,-0.951,-0.144,-0.493,-0.104,-0.91,-0.219,0.596,0.062,-0.308,0.356
2024-10-15 11:18:56.848,65088.24,0.06,0.308,-0.95,0.003,-0.313,-0.084,-0.131,0.199,-0.033,0.063,-0.313,0.359
2024-10-15 11:18:56.858,65088.25,0.062,0.308,-0.949,0.111,0.144,-0.066,0.096,0.265,0.039,0.065,-0.313,0.358
2024-10-15 11:18:56.868,65088.26,0.062,0.306,-0.95,-0.031,0.062,-0.182,0.449,-0.208,-0.046,0.065,-0.311,0.358
2024-10-15 11:18:56.879,65088.27,0.06,0.301,-0.952,0.154,0.126,-0.057,0.583,0.003,-0.349,0.063,-0.305,0.356
2024-10-15 11:18:56.888,65088.28,0.06,0.295,-0.954,0.193,0.118,0.072,0.617,0.142,-0.296,0.063,-0.3,0.352
2024-10-15 11:18:56.898,65088.29,0.06,0.29,-0.955,0.036,-0.004,0.136,0.534,0.106,-0.316,0.063,-0.294,0.349
2024-10-15 11:18:56.909,65088.3,0.061,0.285,-0.956,-0.006,0.224,0.256,0.473,0.211,-0.497,0.063,-0.289,0.344
2024-10-15 11:18:56.918,65088.31,0.062,0.281,-0.958,0.003,0.255,0.299,0.578,0.237,-0.393,0.064,-0.284,0.339
2024-10-15 11:18:56.928,65088.32,0.062,0.277,-0.959,-0.079,0.196,0.197,0.206,-0.022,-0.217,0.065,-0.28,0.336
2024-10-15 11:18:56.938,65088.33,0.061,0.277,-0.959,-0.087,0.232,0.147,-0.259,-0.039,-0.194,0.064,-0.281,0.333
2024-10-15 11:18:56.948,65088.34,0.061,0.28,-0.958,0.064,0.1,0.124,-0.216,-0.156,0.063,0.063,-0.284,0.333
2024-10-15 11:18:56.958,65088.35,0.058,0.281,-0.958,0.018,0.101,0.109,0.079,-0.369,0.256,0.061,-0.284,0.335
2024-10-15 11:18:56.968,65088.36,0.056,0.279,-0.959,0.025,0.256,-0.036,0.243,-0.359,0.436,0.058,-0.282,0.338
2024-10-15 11:18:56.978,65088.369,0.054,0.276,-0.96,-0.012,0.225,-0.148,0.233,-0.275,0.455,0.056,-0.28,0.343
2024-10-15 11:18:56.988,65088.379,0.053,0.274,-0.96,-0.095,0.051,-0.07,0.198,-0.257,0.406,0.055,-0.277,0.347
2024-10-15 11:18:56.998,65088.389,0.052,0.273,-0.961,-0.059,-0.238,-0.016,-0.191,-0.176,0.303,0.054,-0.277,0.351
2024-10-15 11:18:57.008,65088.399,0.05,0.278,-0.959,0.003,-0.472,-0.096,-0.793,-0.429,0.368,0.052,-0.282,0.354
2024-10-15 11:18:57.018,65088.409,0.048,0.286,-0.957,-0.043,-0.335,-0.059,-0.767,-0.177,0.433,0.05,-0.29,0.359
2024-10-15 11:18:57.028,65088.419,0.049,0.292,-0.955,-0.01,-0.203,0.071,-0.451,0.099,0.124,0.051,-0.296,0.363
2024-10-15 11:18:57.038,65088.429,0.048,0.292,-0.955,-0.077,-0.048,-0.115,0.358,-0.34,0.48,0.05,-0.296,0.365
2024-10-15 11:18:57.047,65088.439,0.047,0.286,-0.957,-0.084,-0.015,-0.346,0.601,-0.207,0.219,0.049,-0.29,0.37
2024-10-15 11:18:57.057,65088.449,0.045,0.282,-0.958,0.116,0.04,-0.243,0.428,-0.012,-0.402,0.047,-0.285,0.368
2024-10-15 11:18:57.068,65088.459,0.045,0.278,-0.959,0.161,-0.07,-0.113,0.305,0.258,-0.249,0.047,-0.282,0.364
2024-10-15 11:18:57.078,65088.469,0.046,0.275,-0.96,0.022,-0.239,-0.013,0.379,0.091,-0.198,0.048,-0.279,0.362
2024-10-15 11:18:57.088,65088.479,0.046,0.271,-0.961,0.02,0.016,0.12,0.421,-0.022,-0.28,0.048,-0.275,0.359
2024-10-15 11:18:57.098,65088.489,0.045,0.267,-0.963,0.14,0.158,0.22,0.593,0.098,-0.349,0.047,-0.27,0.356
2024-10-15 11:18:57.108,65088.499,0.046,0.261,-0.964,0.129,0.193,0.206,0.697,0.192,-0.349,0.048,-0.264,0.352
2024-10-15 11:18:57.118,65088.509,0.047,0.256,-0.966,-0.047,0.319,0.113,0.233,0.155,-0.338,0.048,-0.259,0.348
2024-10-15 11:18:57.128,65088.519,0.048,0.256,-0.965,-0.064,0.213,0.015,-0.18,0.202,-0.327,0.049,-0.259,0.345
2024-10-15 11:18:57.138,65088.529,0.049,0.259,-0.965,0.02,-0.019,0.024,-0.338,0.151,-0.17,0.05,-0.262,0.342
2024-10-15 11:18:57.148,65088.539,0.049,0.262,-0.964,-0.047,0.04,0.155,-0.271,-0.099,0.096,0.051,-0.265,0.342
2024-10-15 11:18:57.159,65088.549,0.048,0.264,-0.963,-0.037,0.104,0.211,-0.212,-0.262,0.322,0.049,-0.267,0.344
2024-10-15 11:18:57.168,65088.559,0.046,0.265,-0.963,0.017,0.056,0.158,0.034,-0.228,0.394,0.048,-0.268,0.348
2024-10-15 11:18:57.177,65088.569,0.045,0.263,-0.964,-0.068,0.18,0.1,0.288,-0.249,0.45,0.047,-0.266,0.352
2024-10-15 11:18:57.187,65088.579,0.044,0.26,-0.965,-0.121,0.113,-0.008,0.252,-0.253,0.427,0.045,-0.263,0.357
2024-10-15 11:18:57.198,65088.589,0.042,0.26,-0.965,-0.053,-0.123,-0.181,-0.344,-0.336,0.443,0.043,-0.263,0.361
2024-10-15 11:18:57.208,65088.599,0.04,0.267,-0.963,-0.043,-0.192,-0.181,-0.922,-0.163,0.356,0.042,-0.27,0.366
2024-10-15 11:18:57.218,65088.609,0.041,0.274,-0.961,0.008,-0.275,-0.057,-0.521,0.129,0.346,0.043,-0.277,0.37
2024-10-15 11:18:57.228,65088.619,0.043,0.276,-0.96,-0.074,-0.156,-0.023,-0.038,-0.028,0.364,0.045,-0.28,0.373
2024-10-15 11:18:57.238,65088.629,0.043,0.276,-0.96,-0.076,0.016,-0.194,0.031,-0.102,0.198,0.045,-0.279,0.376
2024-10-15 11:18:57.248,65088.639,0.043,0.275,-0.96,0.133,-0.117,-0.309,0.083,0.165,-0.048,0.045,-0.279,0.377
2024-10-15 11:18:57.258,65088.649,0.046,0.273,-0.961,0.13,-0.184,-0.22,0.397,0.332,-0.217,0.047,-0.277,0.376
2024-10-15 11:18:57.268,65088.659,0.047,0.269,-0.962,0.018,0.013,-0.036,0.485,-0.006,-0.205,0.049,-0.272,0.373
2024-10-15 11:18:57.278,65088.669,0.045,0.264,-0.963,0.123,-0.035,0.074,0.505,-0.087,-0.286,0.047,-0.267,0.37
2024-10-15 11:18:57.288,65088.679,0.044,0.259,-0.965,0.266,-0.121,0.142,0.479,0.019,-0.316,0.046,-0.263,0.367
2024-10-15 11:18:57.298,65088.689,0.044,0.256,-0.966,0.098,0.06,0.198,0.346,0.079,-0.286,0.046,-0.259,0.364
2024-10-15 11:18:57.308,65088.699,0.045,0.252,-0.967,-0.028,0.155,0.155,0.513,0.258,-0.323,0.046,-0.255,0.36
2024-10-15 11:18:57.318,65088.709,0.046,0.248,-0.968,-0.046,0.165,0.098,0.331,0.133,-0.189,0.048,-0.25,0.358
2024-10-15 11:18:57.327,65088.719,0.047,0.247,-0.968,-0.101,0.243,0.04,-0.141,0.049,-0.119,0.048,-0.249,0.356
2024-10-15 11:18:57.338,65088.729,0.047,0.25,-0.967,-0.016,0.217,0.031,-0.392,0.049,-0.013,0.049,-0.252,0.355
2024-10-15 11:18:57.347,65088.739,0.047,0.253,-0.966,-0.019,0.136,0.112,-0.255,-0.046,0.225,0.049,-0.256,0.357
2024-10-15 11:18:57.357,65088.749,0.047,0.253,-0.966,-0.066,0.07,0.159,0.178,-0.209,0.38,0.048,-0.256,0.36
2024-10-15 11:18:57.367,65088.759,0.045,0.25,-0.967,-0.079,0.151,0.112,0.385,-0.369,0.361,0.046,-0.253,0.364
2024-10-15 11:18:57.378,65088.769,0.042,0.247,-0.968,-0.09,0.214,0.057,0.234,-0.363,0.308,0.043,-0.249,0.367
2024-10-15 11:18:57.387,65088.779,0.04,0.246,-0.969,-0.056,-0.1,-0.042,-0.041,-0.241,0.291,0.041,-0.248,0.37
2024-10-15 11:18:57.397,65088.789,0.038,0.249,-0.968,-0.1,-0.371,-0.103,-0.67,-0.325,0.372,0.039,-0.251,0.374
2024-10-15 11:18:57.407,65088.799,0.037,0.256,-0.966,-0.117,-0.351,-0.053,-0.673,-0.09,0.231,0.038,-0.259,0.377
2024-10-15 11:18:57.417,65088.809,0.037,0.26,-0.965,-0.016,-0.197,0.05,-0.171,-0.076,0.297,0.038,-0.263,0.38
2024-10-15 11:18:57.428,65088.819,0.036,0.259,-0.965,-0.044,-0.004,-0.04,0.208,-0.241,0.227,0.037,-0.262,0.383
2024-10-15 11:18:57.438,65088.829,0.035,0.256,-0.966,0.083,0.076,-0.258,0.439,-0.108,0.038,0.036,-0.259,0.384
2024-10-15 11:18:57.448,65088.839,0.034,0.251,-0.967,0.171,0.055,-0.271,0.541,0.011,-0.069,0.035,-0.254,0.383
2024-10-15 11:18:57.458,65088.849,0.034,0.245,-0.969,0.121,0.008,-0.187,0.658,0.03,-0.047,0.035,-0.248,0.383
2024-10-15 11:18:57.468,65088.859,0.034,0.239,-0.97,0.121,-0.033,-0.063,0.687,-0.088,-0.074,0.035,-0.241,0.382
2024-10-15 11:18:57.478,65088.869,0.032,0.233,-0.972,0.124,0.12,0.113,0.553,-0.153,-0.123,0.033,-0.235,0.38
2024-10-15 11:18:57.488,65088.879,0.031,0.228,-0.973,0.128,0.127,0.21,0.489,-0.043,-0.135,0.032,-0.23,0.379
2024-10-15 11:18:57.497,65088.889,0.031,0.223,-0.974,0.051,0.046,0.228,0.65,0.059,-0.209,0.032,-0.224,0.377
2024-10-15 11:18:57.507,65088.899,0.03,0.217,-0.976,-0.076,0.168,0.212,0.43,-0.051,-0.244,0.031,-0.219,0.375
2024-10-15 11:18:57.517,65088.909,0.029,0.216,-0.976,-0.091,0.145,0.126,-0.221,-0.091,-0.224,0.03,-0.218,0.372
2024-10-15 11:18:57.527,65088.919,0.028,0.22,-0.975,-0.012,-0.093,0.051,-0.505,0.05,-0.052,0.029,-0.222,0.371
2024-10-15 11:18:57.537,65088.929,0.029,0.225,-0.974,-0.059,-0.14,0.061,-0.433,0.02,0.19,0.03,-0.227,0.372
2024-10-15 11:18:57.548,65088.939,0.029,0.227,-0.973,-0.141,0.063,0.084,-0.105,-0.109,0.314,0.03,-0.229,0.374
2024-10-15 11:18:57.557,65088.949,0.028,0.227,-0.974,-0.084,0.28,0.058,0.087,-0.221,0.328,0.029,-0.229,0.378
2024-10-15 11:18:57.567,65088.959,0.027,0.226,-0.974,-0.014,0.221,-0.009,0.076,-0.177,0.33,0.028,-0.228,0.381
2024-10-15 11:18:57.577,65088.968,0.026,0.226,-0.974,-0.004,-0.027,-0.083,-0.229,-0.224,0.336,0.027,-0.228,0.384
2024-10-15 11:18:57.587,65088.978,0.024,0.231,-0.973,-0.063,-0.141,-0.067,-0.819,-0.316,0.33,0.025,-0.234,0.388
2024-10-15 11:18:57.597,65088.988,0.023,0.238,-0.971,-0.029,-0.18,0.046,-0.543,-0.02,0.238,0.024,-0.241,0.391
2024-10-15 11:18:57.607,65088.998,0.023,0.241,-0.97,-0.024,-0.127,0.134,-0.133,-0.125,0.305,0.024,-0.244,0.394
2024-10-15 11:18:57.617,65089.008,0.022,0.242,-0.97,-0.103,-0.034,-0.043,0.051,-0.12,0.177,0.023,-0.244,0.397
2024-10-15 11:18:57.627,65089.018,0.022,0.24,-0.97,0.066,-0.129,-0.22,0.219,0.026,0.016,0.023,-0.243,0.397
2024-10-15 11:18:57.637,65089.028,0.023,0.237,-0.971,0.086,-0.146,-0.219,0.377,0.061,-0.089,0.023,-0.24,0.397
2024-10-15 11:18:57.647,65089.038,0.023,0.233,-0.972,0.077,-0.117,-0.174,0.455,0.03,-0.157,0.024,-0.236,0.396
2024-10-15 11:18:57.657,65089.048,0.022,0.229,-0.973,0.136,-0.081,-0.066,0.421,-0.037,-0.191,0.023,-0.231,0.394
2024-10-15 11:18:57.667,65089.058,0.022,0.225,-0.974,0.149,0.011,0.037,0.383,-0.024,-0.193,0.022,-0.227,0.392
2024-10-15 11:18:57.677,65089.068,0.021,0.222,-0.975,0.117,0.048,0.09,0.352,-0.009,-0.156,0.022,-0.224,0.39
2024-10-15 11:18:57.686,65089.078,0.021,0.218,-0.976,0.042,0.112,0.108,0.443,0.087,-0.219,0.022,-0.22,0.388
2024-10-15 11:18:57.697,65089.088,0.022,0.213,-0.977,-0.018,0.21,0.118,0.501,0.114,-0.262,0.022,-0.215,0.385
2024-10-15 11:18:57.707,65089.098,0.022,0.211,-0.977,-0.076,0.231,0.099,0.016,-0.033,-0.241,0.022,-0.212,0.382
2024-10-15 11:18:57.716,65089.108,0.021,0.213,-0.977,-0.055,0.073,0.075,-0.356,0.056,-0.154,0.022,-0.214,0.38
2024-10-15 11:18:57.727,65089.118,0.022,0.216,-0.976,-0.028,-0.12,0.107,-0.376,0.045,0.044,0.022,-0.218,0.38
2024-10-15 11:18:57.737,65089.128,0.022,0.22,-0.975,-0.15,0.027,0.172,-0.252,-0.099,0.177,0.022,-0.221,0.381
2024-10-15 11:18:57.747,65089.138,0.021,0.221,-0.975,-0.146,0.261,0.171,-0.157,-0.11,0.224,0.022,-0.223,0.383
2024-10-15 11:18:57.757,65089.148,0.021,0.223,-0.975,-0.07,0.2,0.084,-0.119,-0.063,0.248,0.021,-0.224,0.386
2024-10-15 11:18:57.767,65089.158,0.021,0.224,-0.974,-0.073,0.039,-0.032,-0.172,-0.01,0.193,0.021,-0.226,0.388
2024-10-15 11:18:57.777,65089.168,0.021,0.227,-0.974,-0.064,-0.107,-0.098,-0.463,-0.076,0.125,0.021,-0.229,0.39
2024-10-15 11:18:57.787,65089.178,0.02,0.233,-0.972,-0.03,-0.185,-0.121,-0.908,-0.14,0.106,0.02,-0.236,0.391
2024-10-15 11:18:57.798,65089.188,0.02,0.242,-0.97,0.012,-0.215,-0.069,-0.675,0.162,0.076,0.021,-0.244,0.392
2024-10-15 11:18:57.807,65089.198,0.022,0.246,-0.969,-0.004,-0.205,-0.003,-0.244,0.062,0.159,0.023,-0.248,0.394
2024-10-15 11:18:57.817,65089.208,0.022,0.247,-0.969,-0.069,-0.055,-0.117,-0.021,-0.053,0.069,0.023,-0.25,0.395
2024-10-15 11:18:57.827,65089.218,0.022,0.246,-0.969,0.093,-0.046,-0.194,0.21,0.062,-0.085,0.023,-0.249,0.395
2024-10-15 11:18:57.837,65089.228,0.023,0.243,-0.97,0.146,-0.09,-0.152,0.479,0.101,-0.153,0.023,-0.245,0.393
2024-10-15 11:18:57.847,65089.238,0.023,0.238,-0.971,0.087,-0.013,-0.049,0.556,0.013,-0.195,0.023,-0.24,0.391
2024-10-15 11:18:57.857,65089.248,0.022,0.232,-0.972,0.137,-0.014,0.043,0.547,-0.008,-0.209,0.023,-0.235,0.389
2024-10-15 11:18:57.867,65089.258,0.022,0.227,-0.974,0.154,0.005,0.077,0.501,0.018,-0.22,0.022,-0.229,0.387
2024-10-15 11:18:57.877,65089.268,0.022,0.223,-0.975,0.07,0.092,0.087,0.4,0.052,-0.218,0.022,-0.225,0.385
2024-10-15 11:18:57.887,65089.278,0.022,0.219,-0.975,0.013,0.068,0.058,0.515,0.232,-0.267,0.023,-0.221,0.382
2024-10-15 11:18:57.897,65089.288,0.024,0.213,-0.977,-0.034,0.074,0.04,0.553,0.217,-0.279,0.025,-0.215,0.379
2024-10-15 11:18:57.907,65089.298,0.025,0.211,-0.977,-0.094,0.196,0.031,-0.073,0.049,-0.263,0.025,-0.213,0.376
2024-10-15 11:18:57.917,65089.308,0.026,0.214,-0.977,-0.002,0.076,0.029,-0.411,0.191,-0.158,0.026,-0.215,0.374
2024-10-15 11:18:57.927,65089.318,0.027,0.218,-0.976,0.049,-0.135,0.061,-0.41,0.086,0.151,0.028,-0.22,0.374
2024-10-15 11:18:57.937,65089.328,0.027,0.221,-0.975,-0.084,0.101,0.128,-0.186,-0.095,0.273,0.028,-0.223,0.376
2024-10-15 11:18:57.947,65089.338,0.027,0.221,-0.975,-0.038,0.431,0.169,0.078,-0.2,0.346,0.027,-0.223,0.38
2024-10-15 11:18:57.957,65089.348,0.026,0.22,-0.975,-0.0,0.398,0.09,0.131,-0.167,0.349,0.026,-0.222,0.383
2024-10-15 11:18:57.967,65089.358,0.025,0.219,-0.975,-0.052,0.167,-0.04,0.047,-0.038,0.26,0.026,-0.221,0.386
2024-10-15 11:18:57.977,65089.368,0.025,0.22,-0.975,-0.112,-0.094,-0.111,-0.244,-0.092,0.208,0.026,-0.221,0.389
2024-10-15 11:18:57.987,65089.378,0.024,0.225,-0.974,-0.117,-0.303,-0.13,-0.763,-0.14,0.207,0.025,-0.227,0.391
2024-10-15 11:18:57.997,65089.388,0.025,0.231,-0.973,-0.027,-0.413,-0.061,-0.469,0.144,0.104,0.025,-0.233,0.393
2024-10-15 11:18:58.008,65089.398,0.026,0.233,-0.972,-0.012,-0.277,0.047,-0.028,0.005,0.175,0.027,-0.236,0.394
2024-10-15 11:18:58.017,65089.408,0.026,0.232,-0.972,-0.045,-0.101,-0.062,0.229,-0.09,0.105,0.027,-0.234,0.396
2024-10-15 11:18:58.026,65089.418,0.025,0.229,-0.973,0.13,-0.095,-0.174,0.377,-0.053,-0.038,0.026,-0.231,0.396
2024-10-15 11:18:58.036,65089.428,0.025,0.225,-0.974,0.168,-0.073,-0.152,0.49,-0.015,-0.137,0.025,-0.227,0.395
2024-10-15 11:18:58.046,65089.438,0.024,0.22,-0.975,0.123,-0.006,-0.098,0.524,-0.01,-0.176,0.025,-0.222,0.393
2024-10-15 11:18:58.056,65089.448,0.024,0.215,-0.976,0.115,0.017,-0.036,0.567,0.047,-0.182,0.025,-0.217,0.391
2024-10-15 11:18:58.066,65089.458,0.024,0.209,-0.978,0.086,0.058,0.014,0.554,0.057,-0.161,0.025,-0.211,0.389
2024-10-15 11:18:58.076,65089.468,0.024,0.205,-0.979,0.023,0.155,0.086,0.426,0.04,-0.162,0.025,-0.206,0.387
2024-10-15 11:18:58.086,65089.478,0.025,0.2,-0.979,0.005,0.177,0.145,0.531,0.201,-0.226,0.026,-0.202,0.385
2024-10-15 11:18:58.097,65089.488,0.027,0.195,-0.981,-0.011,0.093,0.183,0.516,0.113,-0.196,0.027,-0.196,0.383
2024-10-15 11:18:58.106,65089.498,0.026,0.192,-0.981,-0.07,0.102,0.167,0.021,-0.07,-0.27,0.027,-0.193,0.381
2024-10-15 11:18:58.116,65089.508,0.025,0.194,-0.981,-0.006,0.09,0.155,-0.445,0.02,-0.263,0.026,-0.195,0.378
2024-10-15 11:18:58.126,65089.518,0.025,0.2,-0.979,-0.027,0.044,0.175,-0.724,0.019,-0.092,0.026,-0.201,0.376
2024-10-15 11:18:58.136,65089.528,0.025,0.207,-0.978,-0.157,0.117,0.189,-0.755,-0.027,0.15,0.026,-0.209,0.376
2024-10-15 11:18:58.146,65089.538,0.025,0.214,-0.977,-0.148,0.127,0.134,-0.44,-0.042,0.318,0.026,-0.215,0.379
2024-10-15 11:18:58.156,65089.548,0.026,0.215,-0.976,-0.094,0.082,0.018,0.037,-0.103,0.458,0.026,-0.217,0.383
2024-10-15 11:18:58.166,65089.558,0.025,0.214,-0.977,-0.098,0.195,-0.074,0.232,-0.211,0.478,0.026,-0.215,0.388
2024-10-15 11:18:58.176,65089.567,0.024,0.212,-0.977,-0.031,0.145,-0.149,-0.06,-0.351,0.521,0.024,-0.214,0.393
2024-10-15 11:18:58.186,65089.577,0.021,0.216,-0.976,0.038,-0.093,-0.192,-0.757,-0.469,0.646,0.021,-0.218,0.399
2024-10-15 11:18:58.196,65089.587,0.019,0.221,-0.975,0.047,-0.159,-0.084,-0.21,-0.048,0.404,0.02,-0.223,0.405
2024-10-15 11:18:58.206,65089.597,0.019,0.219,-0.976,0.009,0.02,0.089,0.59,-0.221,0.414,0.02,-0.221,0.409
2024-10-15 11:18:58.216,65089.607,0.017,0.213,-0.977,-0.111,0.117,-0.092,0.629,-0.335,0.195,0.017,-0.214,0.412
2024-10-15 11:18:58.226,65089.617,0.015,0.208,-0.978,0.1,-0.132,-0.304,0.302,-0.055,-0.103,0.016,-0.21,0.412
2024-10-15 11:18:58.236,65089.627,0.015,0.206,-0.978,0.104,-0.408,-0.292,0.104,0.151,-0.258,0.016,-0.208,0.41
2024-10-15 11:18:58.246,65089.637,0.017,0.205,-0.979,-0.036,-0.457,-0.171,0.114,0.193,-0.335,0.017,-0.207,0.407
2024-10-15 11:18:58.256,65089.647,0.017,0.204,-0.979,0.005,-0.318,-0.016,0.162,0.083,-0.34,0.018,-0.205,0.404
2024-10-15 11:18:58.266,65089.657,0.017,0.202,-0.979,0.096,-0.121,0.129,0.198,0.004,-0.3,0.017,-0.204,0.4
2024-10-15 11:18:58.276,65089.667,0.016,0.2,-0.98,0.138,0.014,0.215,0.23,0.016,-0.278,0.017,-0.202,0.397
2024-10-15 11:18:58.286,65089.677,0.017,0.197,-0.98,0.083,0.175,0.208,0.386,0.118,-0.325,0.017,-0.199,0.394
2024-10-15 11:18:58.296,65089.687,0.017,0.194,-0.981,0.003,0.3,0.157,0.339,0.083,-0.296,0.017,-0.195,0.391
2024-10-15 11:18:58.306,65089.697,0.017,0.192,-0.981,-0.06,0.319,0.102,-0.075,0.02,-0.268,0.017,-0.193,0.388
2024-10-15 11:18:58.316,65089.707,0.017,0.195,-0.981,-0.026,0.182,0.083,-0.385,0.063,-0.185,0.017,-0.196,0.386
2024-10-15 11:18:58.326,65089.717,0.017,0.199,-0.98,-0.043,0.108,0.139,-0.468,-0.021,-0.025,0.017,-0.2,0.385
2024-10-15 11:18:58.336,65089.727,0.016,0.203,-0.979,-0.13,0.237,0.234,-0.371,-0.161,0.158,0.017,-0.205,0.386
2024-10-15 11:18:58.346,65089.737,0.015,0.206,-0.978,-0.119,0.25,0.228,-0.241,-0.167,0.292,0.015,-0.208,0.388
2024-10-15 11:18:58.356,65089.747,0.014,0.208,-0.978,-0.112,0.134,0.095,-0.138,-0.151,0.296,0.014,-0.209,0.391
2024-10-15 11:18:58.366,65089.757,0.013,0.209,-0.978,-0.15,0.074,-0.053,-0.169,-0.153,0.24,0.013,-0.211,0.394
2024-10-15 11:18:58.376,65089.767,0.012,0.211,-0.977,-0.095,-0.131,-0.186,-0.274,-0.153,0.182,0.012,-0.213,0.396
2024-10-15 11:18:58.386,65089.777,0.01,0.217,-0.976,-0.035,-0.303,-0.271,-0.938,-0.325,0.312,0.01,-0.219,0.399
2024-10-15 11:18:58.396,65089.787,0.009,0.227,-0.974,-0.005,-0.318,-0.235,-0.983,0.031,0.125,0.009,-0.229,0.401
2024-10-15 11:18:58.406,65089.797,0.01,0.233,-0.972,0.046,-0.136,-0.045,-0.311,0.065,0.212,0.011,-0.236,0.403
2024-10-15 11:18:58.416,65089.807,0.01,0.234,-0.972,-0.094,0.06,-0.051,0.09,-0.174,0.281,0.01,-0.237,0.405
2024-10-15 11:18:58.426,65089.817,0.009,0.232,-0.973,0.056,0.036,-0.176,0.446,-0.033,0.073,0.01,-0.234,0.407
2024-10-15 11:18:58.438,65089.827,0.009,0.227,-0.974,0.18,0.038,-0.129,0.599,0.004,-0.111,0.01,-0.229,0.407
2024-10-15 11:18:58.446,65089.837,0.009,0.221,-0.975,0.103,-0.05,-0.079,0.585,0.077,-0.266,0.009,-0.223,0.405
2024-10-15 11:18:58.456,65089.847,0.009,0.216,-0.976,0.155,-0.25,-0.038,0.389,0.063,-0.376,0.01,-0.218,0.402
2024-10-15 11:18:58.466,65089.857,0.009,0.213,-0.977,0.141,-0.272,0.046,0.23,0.07,-0.448,0.009,-0.215,0.397
2024-10-15 11:18:58.476,65089.867,0.009,0.211,-0.977,0.127,-0.202,0.124,0.121,0.077,-0.411,0.009,-0.213,0.393
2024-10-15 11:18:58.486,65089.877,0.009,0.21,-0.978,0.08,-0.1,0.142,0.169,0.203,-0.386,0.009,-0.212,0.389
2024-10-15 11:18:58.496,65089.887,0.011,0.207,-0.978,0.022,0.102,0.117,0.455,0.299,-0.422,0.011,-0.209,0.385
2024-10-15 11:18:58.506,65089.897,0.012,0.204,-0.979,-0.049,0.321,0.08,0.196,0.08,-0.365,0.012,-0.205,0.381
2024-10-15 11:18:58.516,65089.907,0.012,0.204,-0.979,-0.039,0.312,0.035,-0.294,0.073,-0.317,0.012,-0.206,0.377
2024-10-15 11:18:58.526,65089.917,0.012,0.208,-0.978,0.049,0.112,0.089,-0.483,0.077,-0.143,0.012,-0.21,0.375
2024-10-15 11:18:58.536,65089.927,0.012,0.213,-0.977,-0.082,0.144,0.216,-0.46,-0.118,0.108,0.012,-0.215,0.375
2024-10-15 11:18:58.546,65089.937,0.011,0.217,-0.976,-0.165,0.288,0.28,-0.287,-0.171,0.303,0.011,-0.219,0.377
2024-10-15 11:18:58.556,65089.947,0.01,0.217,-0.976,-0.1,0.228,0.215,0.101,-0.18,0.388,0.01,-0.219,0.38
2024-10-15 11:18:58.566,65089.957,0.009,0.216,-0.976,-0.136,0.199,0.061,0.203,-0.278,0.397,0.009,-0.217,0.384
2024-10-15 11:18:58.576,65089.967,0.007,0.215,-0.977,-0.119,0.067,-0.116,-0.007,-0.277,0.329,0.007,-0.216,0.388
2024-10-15 11:18:58.585,65089.977,0.004,0.218,-0.976,-0.019,-0.2,-0.226,-0.76,-0.433,0.432,0.004,-0.22,0.392
2024-10-15 11:18:58.596,65089.987,0.002,0.228,-0.974,-0.003,-0.372,-0.221,-1.019,-0.101,0.257,0.002,-0.23,0.396
2024-10-15 11:18:58.605,65089.997,0.002,0.235,-0.972,0.036,-0.306,-0.049,-0.428,0.077,0.268,0.003,-0.237,0.398
2024-10-15 11:18:58.616,65090.007,0.002,0.237,-0.972,-0.092,-0.102,-0.027,-0.014,-0.229,0.386,0.003,-0.239,0.402
2024-10-15 11:18:58.625,65090.017,0.001,0.235,-0.972,0.015,-0.027,-0.213,0.306,-0.185,0.211,0.001,-0.238,0.405
2024-10-15 11:18:58.636,65090.027,0.0,0.231,-0.973,0.205,0.005,-0.216,0.629,-0.033,0.04,0.0,-0.233,0.406
2024-10-15 11:18:58.646,65090.037,0.001,0.223,-0.975,0.115,0.067,-0.139,0.902,0.069,-0.064,0.001,-0.225,0.406
2024-10-15 11:18:58.655,65090.047,0.001,0.215,-0.977,0.103,0.022,-0.069,0.829,-0.01,-0.158,0.001,-0.216,0.405
2024-10-15 11:18:58.666,65090.057,-0.0,0.208,-0.978,0.168,-0.101,-0.022,0.525,0.002,-0.291,-0.0,-0.21,0.403
2024-10-15 11:18:58.676,65090.067,-0.0,0.204,-0.979,0.191,-0.134,0.056,0.258,0.089,-0.347,-0.0,-0.206,0.399
2024-10-15 11:18:58.685,65090.077,0.0,0.203,-0.979,0.093,-0.076,0.142,0.11,0.123,-0.323,0.0,-0.204,0.396
2024-10-15 11:18:58.696,65090.087,0.001,0.2,-0.98,0.018,-0.007,0.209,0.346,0.238,-0.378,0.001,-0.202,0.392
2024-10-15 11:18:58.705,65090.097,0.002,0.197,-0.98,-0.031,0.168,0.238,0.271,0.012,-0.344,0.002,-0.198,0.389
2024-10-15 11:18:58.715,65090.107,0.0,0.197,-0.98,-0.087,0.337,0.21,-0.353,-0.132,-0.297,0.0,-0.199,0.385
2024-10-15 11:18:58.725,65090.117,-0.001,0.203,-0.979,0.01,0.185,0.177,-0.669,-0.008,-0.155,-0.001,-0.204,0.383
2024-10-15 11:18:58.735,65090.127,-0.001,0.209,-0.978,-0.057,0.057,0.184,-0.554,-0.027,0.137,-0.001,-0.21,0.383
2024-10-15 11:18:58.745,65090.137,-0.001,0.212,-0.977,-0.243,0.164,0.162,-0.157,-0.062,0.287,-0.001,-0.214,0.385
2024-10-15 11:18:58.755,65090.147,-0.001,0.212,-0.977,-0.228,0.227,0.036,0.168,-0.086,0.318,-0.001,-0.214,0.388
2024-10-15 11:18:58.765,65090.157,-0.001,0.21,-0.978,-0.175,0.163,-0.136,0.151,-0.122,0.299,-0.001,-0.212,0.391
2024-10-15 11:18:58.775,65090.166,-0.002,0.211,-0.977,-0.102,-0.041,-0.251,-0.394,-0.31,0.355,-0.003,-0.213,0.395
2024-10-15 11:18:58.785,65090.176,-0.005,0.219,-0.976,-0.03,-0.273,-0.228,-1.156,-0.238,0.385,-0.005,-0.221,0.399
2024-10-15 11:18:58.795,65090.186,-0.004,0.228,-0.974,0.051,-0.338,-0.026,-0.55,0.172,0.149,-0.004,-0.23,0.401
2024-10-15 11:18:58.805,65090.196,-0.004,0.231,-0.973,-0.031,-0.048,0.147,-0.12,-0.212,0.387,-0.004,-0.233,0.404
2024-10-15 11:18:58.815,65090.206,-0.005,0.231,-0.973,-0.083,0.016,-0.053,0.151,-0.188,0.253,-0.005,-0.233,0.407
2024-10-15 11:18:58.825,65090.216,-0.006,0.229,-0.974,0.192,-0.098,-0.205,0.271,-0.07,0.142,-0.006,-0.231,0.409
2024-10-15 11:18:58.835,65090.226,-0.006,0.225,-0.974,0.102,-0.09,-0.212,0.418,0.067,-0.028,-0.006,-0.227,0.41
2024-10-15 11:18:58.845,65090.236,-0.005,0.22,-0.975,0.076,-0.124,-0.198,0.661,0.166,-0.148,-0.005,-0.222,0.409
2024-10-15 11:18:58.855,65090.246,-0.004,0.214,-0.977,0.106,-0.112,-0.119,0.594,0.05,-0.248,-0.004,-0.215,0.407
2024-10-15 11:18:58.865,65090.256,-0.004,0.209,-0.978,0.153,-0.114,-0.016,0.389,0.064,-0.36,-0.004,-0.211,0.404
2024-10-15 11:18:58.875,65090.266,-0.004,0.206,-0.979,0.199,-0.137,0.077,0.233,0.126,-0.395,-0.004,-0.207,0.4
2024-10-15 11:18:58.885,65090.276,-0.003,0.204,-0.979,0.098,-0.035,0.162,0.283,0.181,-0.434,-0.004,-0.205,0.396
2024-10-15 11:18:58.895,65090.286,-0.002,0.199,-0.98,0.024,0.061,0.207,0.547,0.203,-0.424,-0.002,-0.201,0.391
2024-10-15 11:18:58.905,65090.296,-0.002,0.195,-0.981,-0.036,0.164,0.181,0.337,0.021,-0.324,-0.002,-0.196,0.388
2024-10-15 11:18:58.915,65090.306,-0.003,0.194,-0.981,-0.067,0.254,0.182,-0.243,-0.056,-0.244,-0.003,-0.196,0.385
2024-10-15 11:18:58.925,65090.316,-0.003,0.198,-0.98,-0.005,0.188,0.187,-0.482,-0.003,-0.089,-0.003,-0.2,0.383
2024-10-15 11:18:58.935,65090.326,-0.004,0.202,-0.979,-0.08,0.173,0.201,-0.305,-0.086,0.225,-0.004,-0.203,0.383
2024-10-15 11:18:58.945,65090.336,-0.004,0.204,-0.979,-0.188,0.201,0.158,0.014,-0.11,0.397,-0.004,-0.205,0.387
2024-10-15 11:18:58.955,65090.346,-0.005,0.203,-0.979,-0.17,0.217,0.048,0.138,-0.181,0.384,-0.005,-0.204,0.391
2024-10-15 11:18:58.964,65090.356,-0.006,0.202,-0.979,-0.155,0.256,-0.069,-0.05,-0.215,0.355,-0.006,-0.203,0.395
2024-10-15 11:18:58.975,65090.366,-0.007,0.205,-0.979,-0.065,-0.051,-0.152,-0.609,-0.289,0.393,-0.008,-0.206,0.398
2024-10-15 11:18:58.985,65090.376,-0.01,0.215,-0.977,-0.018,-0.366,-0.167,-1.29,-0.258,0.414,-0.01,-0.216,0.403
2024-10-15 11:18:58.995,65090.386,-0.009,0.225,-0.974,-0.013,-0.294,-0.004,-0.653,0.109,0.172,-0.01,-0.226,0.405
2024-10-15 11:18:59.005,65090.396,-0.009,0.228,-0.974,-0.025,-0.042,0.139,0.011,-0.221,0.347,-0.009,-0.23,0.408
2024-10-15 11:18:59.015,65090.406,-0.011,0.225,-0.974,-0.047,-0.025,-0.12,0.38,-0.232,0.219,-0.011,-0.227,0.411
2024-10-15 11:18:59.025,65090.416,-0.012,0.221,-0.975,0.159,-0.109,-0.314,0.424,-0.077,0.013,-0.012,-0.223,0.412
2024-10-15 11:18:59.035,65090.426,-0.012,0.217,-0.976,0.088,-0.158,-0.332,0.409,0.073,-0.162,-0.013,-0.219,0.411
2024-10-15 11:18:59.045,65090.436,-0.012,0.213,-0.977,0.04,-0.21,-0.264,0.408,0.166,-0.263,-0.012,-0.215,0.409
2024-10-15 11:18:59.055,65090.446,-0.011,0.209,-0.978,0.076,-0.178,-0.072,0.365,0.116,-0.329,-0.011,-0.211,0.406
2024-10-15 11:18:59.065,65090.456,-0.011,0.206,-0.978,0.128,-0.092,0.096,0.282,0.079,-0.358,-0.011,-0.208,0.403
2024-10-15 11:18:59.075,65090.466,-0.011,0.204,-0.979,0.151,-0.002,0.182,0.199,0.079,-0.358,-0.011,-0.205,0.399
2024-10-15 11:18:59.084,65090.476,-0.01,0.201,-0.979,0.096,0.102,0.209,0.371,0.216,-0.431,-0.01,-0.203,0.395
2024-10-15 11:18:59.094,65090.486,-0.008,0.196,-0.981,0.019,0.157,0.181,0.591,0.276,-0.429,-0.008,-0.198,0.391
2024-10-15 11:18:59.104,65090.496,-0.007,0.192,-0.981,-0.084,0.227,0.13,0.136,0.086,-0.389,-0.007,-0.194,0.387
2024-10-15 11:18:59.114,65090.506,-0.007,0.194,-0.981,-0.071,0.193,0.118,-0.337,0.185,-0.365,-0.007,-0.195,0.383
2024-10-15 11:18:59.124,65090.516,-0.006,0.198,-0.98,-0.006,0.049,0.192,-0.452,0.127,-0.102,-0.006,-0.199,0.38
2024-10-15 11:18:59.134,65090.526,-0.005,0.202,-0.979,-0.124,0.081,0.248,-0.389,-0.049,0.189,-0.005,-0.203,0.381
2024-10-15 11:18:59.144,65090.536,-0.005,0.205,-0.979,-0.114,0.18,0.226,-0.145,-0.093,0.32,-0.005,-0.206,0.383
2024-10-15 11:18:59.155,65090.546,-0.006,0.205,-0.979,-0.087,0.32,0.134,-0.001,-0.13,0.359,-0.006,-0.207,0.387
2024-10-15 11:18:59.165,65090.556,-0.006,0.206,-0.979,-0.107,0.252,-0.024,-0.16,-0.082,0.305,-0.006,-0.207,0.39
2024-10-15 11:18:59.175,65090.566,-0.007,0.21,-0.978,-0.061,-0.086,-0.209,-0.796,-0.21,0.366,-0.007,-0.212,0.394
2024-10-15 11:18:59.185,65090.576,-0.007,0.22,-0.975,-0.05,-0.304,-0.243,-1.097,0.024,0.194,-0.008,-0.222,0.397
2024-10-15 11:18:59.195,65090.586,-0.006,0.228,-0.974,0.006,-0.319,-0.068,-0.585,0.176,0.229,-0.006,-0.23,0.398
2024-10-15 11:18:59.206,65090.596,-0.005,0.232,-0.973,-0.078,-0.158,-0.0,-0.21,-0.086,0.305,-0.005,-0.234,0.401
2024-10-15 11:18:59.214,65090.606,-0.005,0.232,-0.973,0.023,-0.122,-0.139,0.2,-0.011,0.161,-0.005,-0.235,0.404
2024-10-15 11:18:59.225,65090.616,-0.004,0.229,-0.973,0.158,-0.033,-0.165,0.474,0.025,-0.002,-0.004,-0.231,0.405
2024-10-15 11:18:59.235,65090.626,-0.004,0.224,-0.975,0.082,0.05,-0.157,0.615,0.1,-0.175,-0.004,-0.226,0.404
2024-10-15 11:18:59.245,65090.636,-0.003,0.218,-0.976,0.128,-0.06,-0.141,0.554,0.123,-0.261,-0.003,-0.22,0.401
2024-10-15 11:18:59.254,65090.646,-0.003,0.213,-0.977,0.132,-0.139,-0.068,0.383,0.139,-0.361,-0.003,-0.215,0.398
2024-10-15 11:18:59.264,65090.656,-0.002,0.21,-0.978,0.112,-0.084,0.024,0.24,0.162,-0.379,-0.002,-0.212,0.394
2024-10-15 11:18:59.275,65090.666,-0.001,0.208,-0.978,0.068,-0.001,0.079,0.146,0.192,-0.338,-0.001,-0.21,0.391
2024-10-15 11:18:59.285,65090.676,0.001,0.206,-0.979,0.021,0.04,0.103,0.414,0.308,-0.394,0.001,-0.207,0.387
2024-10-15 11:18:59.295,65090.686,0.002,0.202,-0.979,-0.042,0.193,0.108,0.303,0.122,-0.337,0.002,-0.203,0.383
2024-10-15 11:18:59.305,65090.696,0.002,0.202,-0.979,-0.096,0.305,0.084,-0.285,0.034,-0.335,0.002,-0.203,0.38
2024-10-15 11:18:59.314,65090.706,0.003,0.206,-0.979,0.011,0.122,0.109,-0.521,0.141,-0.16,0.003,-0.207,0.377
2024-10-15 11:18:59.325,65090.716,0.004,0.211,-0.977,-0.056,0.036,0.174,-0.481,0.08,0.128,0.004,-0.213,0.377
2024-10-15 11:18:59.335,65090.726,0.004,0.215,-0.977,-0.169,0.173,0.209,-0.241,-0.076,0.252,0.004,-0.216,0.379
2024-10-15 11:18:59.345,65090.736,0.004,0.216,-0.976,-0.076,0.202,0.118,0.001,-0.166,0.339,0.004,-0.217,0.382
2024-10-15 11:18:59.354,65090.746,0.003,0.215,-0.977,-0.042,0.18,-0.027,0.018,-0.13,0.3,0.003,-0.217,0.386
2024-10-15 11:18:59.364,65090.756,0.002,0.216,-0.976,-0.061,0.051,-0.133,-0.186,-0.118,0.251,0.002,-0.218,0.388
2024-10-15 11:18:59.374,65090.765,0.001,0.221,-0.975,-0.059,-0.22,-0.226,-0.753,-0.199,0.312,0.001,-0.222,0.391
2024-10-15 11:18:59.384,65090.775,0.001,0.228,-0.974,-0.017,-0.367,-0.192,-0.643,0.071,0.151,0.001,-0.23,0.394
2024-10-15 11:18:59.394,65090.785,0.002,0.232,-0.973,0.002,-0.181,-0.022,-0.206,0.008,0.192,0.002,-0.234,0.395
2024-10-15 11:18:59.404,65090.795,0.002,0.233,-0.973,-0.054,-0.078,-0.058,0.093,-0.11,0.167,0.002,-0.235,0.397
2024-10-15 11:18:59.414,65090.805,0.002,0.23,-0.973,0.091,-0.176,-0.228,0.334,0.021,0.014,0.002,-0.232,0.398
2024-10-15 11:18:59.424,65090.815,0.002,0.227,-0.974,0.111,-0.129,-0.212,0.416,0.045,-0.156,0.002,-0.229,0.397
2024-10-15 11:18:59.434,65090.825,0.002,0.223,-0.975,0.061,-0.038,-0.118,0.429,0.11,-0.265,0.002,-0.224,0.395
2024-10-15 11:18:59.444,65090.835,0.003,0.218,-0.976,0.127,-0.119,-0.03,0.402,0.131,-0.3,0.003,-0.22,0.392
2024-10-15 11:18:59.454,65090.845,0.003,0.215,-0.977,0.117,-0.096,0.072,0.355,0.126,-0.371,0.003,-0.216,0.389
2024-10-15 11:18:59.464,65090.855,0.004,0.211,-0.977,0.087,0.043,0.139,0.471,0.187,-0.485,0.004,-0.213,0.385
2024-10-15 11:18:59.474,65090.865,0.005,0.206,-0.979,0.043,0.123,0.101,0.592,0.302,-0.489,0.005,-0.207,0.379
2024-10-15 11:18:59.484,65090.875,0.007,0.202,-0.979,-0.072,0.166,-0.009,0.202,0.31,-0.418,0.007,-0.203,0.375
2024-10-15 11:18:59.494,65090.885,0.01,0.202,-0.979,-0.125,0.2,-0.002,-0.222,0.381,-0.368,0.01,-0.203,0.371
2024-10-15 11:18:59.504,65090.895,0.013,0.205,-0.979,-0.066,0.189,0.06,-0.465,0.349,-0.169,0.013,-0.207,0.368
2024-10-15 11:18:59.514,65090.905,0.015,0.21,-0.978,-0.074,0.276,0.161,-0.352,0.157,0.064,0.016,-0.211,0.367
2024-10-15 11:18:59.525,65090.915,0.016,0.211,-0.977,-0.034,0.33,0.231,-0.016,-0.004,0.407,0.017,-0.213,0.37
2024-10-15 11:18:59.534,65090.925,0.017,0.209,-0.978,-0.011,0.246,0.212,0.499,-0.098,0.492,0.017,-0.211,0.375
2024-10-15 11:18:59.544,65090.935,0.016,0.203,-0.979,-0.065,0.323,0.158,0.563,-0.231,0.439,0.017,-0.205,0.379
2024-10-15 11:18:59.554,65090.945,0.015,0.199,-0.98,-0.112,0.224,0.04,0.201,-0.213,0.332,0.015,-0.201,0.383
2024-10-15 11:18:59.564,65090.955,0.013,0.202,-0.979,-0.034,-0.302,-0.083,-0.752,-0.269,0.472,0.013,-0.203,0.387
2024-10-15 11:18:59.574,65090.965,0.012,0.212,-0.977,-0.052,-0.593,-0.089,-1.169,0.004,0.243,0.012,-0.214,0.391
2024-10-15 11:18:59.584,65090.975,0.014,0.22,-0.975,-0.026,-0.363,0.116,-0.377,0.166,0.138,0.014,-0.222,0.393
2024-10-15 11:18:59.594,65090.985,0.014,0.22,-0.975,-0.077,-0.143,0.1,0.239,-0.119,0.205,0.015,-0.222,0.395
2024-10-15 11:18:59.604,65090.995,0.013,0.217,-0.976,0.015,-0.123,-0.196,0.38,-0.096,-0.058,0.014,-0.219,0.396
2024-10-15 11:18:59.614,65091.005,0.012,0.215,-0.977,0.219,-0.154,-0.274,0.164,-0.002,-0.248,0.013,-0.216,0.394
2024-10-15 11:18:59.624,65091.015,0.012,0.213,-0.977,0.182,-0.3,-0.238,0.141,0.148,-0.332,0.013,-0.215,0.391
2024-10-15 11:18:59.634,65091.025,0.013,0.212,-0.977,0.14,-0.29,-0.124,0.196,0.106,-0.367,0.013,-0.213,0.387
2024-10-15 11:18:59.644,65091.035,0.013,0.21,-0.978,0.089,-0.025,0.047,0.181,0.048,-0.4,0.013,-0.211,0.383
2024-10-15 11:18:59.654,65091.045,0.013,0.208,-0.978,0.112,0.161,0.118,0.245,0.149,-0.371,0.013,-0.209,0.379
2024-10-15 11:18:59.664,65091.055,0.014,0.205,-0.979,0.059,0.248,0.14,0.417,0.175,-0.304,0.014,-0.206,0.376
2024-10-15 11:18:59.674,65091.065,0.015,0.201,-0.979,-0.041,0.298,0.146,0.189,0.064,-0.159,0.015,-0.203,0.374
2024-10-15 11:18:59.683,65091.075,0.015,0.201,-0.979,-0.052,0.305,0.154,-0.13,0.09,-0.105,0.015,-0.203,0.372
2024-10-15 11:18:59.693,65091.085,0.016,0.204,-0.979,-0.006,0.265,0.173,-0.365,0.087,-0.001,0.016,-0.205,0.372
2024-10-15 11:18:59.703,65091.095,0.017,0.208,-0.978,-0.072,0.271,0.19,-0.41,0.049,0.104,0.017,-0.209,0.372
2024-10-15 11:18:59.713,65091.105,0.017,0.21,-0.977,-0.097,0.236,0.164,-0.147,0.015,0.253,0.018,-0.212,0.374
2024-10-15 11:18:59.724,65091.115,0.018,0.21,-0.977,-0.112,0.114,0.063,0.128,-0.054,0.289,0.018,-0.212,0.377
2024-10-15 11:18:59.734,65091.125,0.018,0.209,-0.978,-0.146,0.063,-0.076,0.037,-0.076,0.16,0.018,-0.211,0.379
2024-10-15 11:18:59.744,65091.135,0.018,0.21,-0.977,-0.134,-0.018,-0.169,-0.245,0.063,0.038,0.018,-0.212,0.38
2024-10-15 11:18:59.754,65091.145,0.019,0.214,-0.977,-0.088,-0.312,-0.184,-0.527,0.092,0.069,0.019,-0.216,0.381
2024-10-15 11:18:59.764,65091.155,0.019,0.221,-0.975,-0.085,-0.473,-0.142,-0.956,-0.042,0.168,0.019,-0.223,0.382
2024-10-15 11:18:59.774,65091.165,0.02,0.229,-0.973,-0.009,-0.383,-0.032,-0.519,0.155,0.041,0.02,-0.231,0.384
2024-10-15 11:18:59.784,65091.175,0.021,0.23,-0.973,0.096,-0.191,0.088,0.341,0.026,0.131,0.022,-0.232,0.384
2024-10-15 11:18:59.794,65091.185,0.02,0.225,-0.974,0.024,-0.01,-0.012,0.68,-0.17,0.069,0.021,-0.227,0.386
2024-10-15 11:18:59.804,65091.195,0.019,0.219,-0.976,0.151,0.027,-0.161,0.502,-0.088,-0.16,0.019,-0.221,0.385
2024-10-15 11:18:59.814,65091.205,0.018,0.215,-0.976,0.237,-0.068,-0.183,0.319,0.1,-0.27,0.019,-0.217,0.383
2024-10-15 11:18:59.824,65091.215,0.019,0.212,-0.977,0.144,-0.178,-0.141,0.397,0.195,-0.284,0.02,-0.213,0.38
2024-10-15 11:18:59.833,65091.225,0.02,0.207,-0.978,0.066,-0.085,-0.054,0.487,0.146,-0.317,0.021,-0.209,0.377
2024-10-15 11:18:59.843,65091.235,0.021,0.203,-0.979,0.054,0.111,0.018,0.5,0.154,-0.331,0.022,-0.204,0.373
2024-10-15 11:18:59.854,65091.245,0.022,0.197,-0.98,0.069,0.179,0.067,0.718,0.24,-0.402,0.023,-0.198,0.369
2024-10-15 11:18:59.864,65091.255,0.024,0.19,-0.982,-0.005,0.184,0.125,0.575,0.102,-0.311,0.024,-0.191,0.365
2024-10-15 11:18:59.874,65091.265,0.024,0.187,-0.982,-0.076,0.154,0.172,0.014,0.049,-0.314,0.024,-0.188,0.362
2024-10-15 11:18:59.883,65091.275,0.024,0.189,-0.982,-0.001,0.087,0.236,-0.34,0.013,-0.196,0.024,-0.19,0.36
2024-10-15 11:18:59.893,65091.285,0.023,0.193,-0.981,-0.039,0.082,0.289,-0.386,-0.072,0.056,0.023,-0.194,0.359
2024-10-15 11:18:59.904,65091.295,0.023,0.195,-0.98,-0.112,0.163,0.282,-0.101,-0.1,0.2,0.023,-0.197,0.36
2024-10-15 11:18:59.913,65091.305,0.022,0.195,-0.98,-0.153,0.361,0.18,0.005,-0.17,0.272,0.022,-0.197,0.363
2024-10-15 11:18:59.923,65091.315,0.021,0.196,-0.98,-0.177,0.393,0.021,-0.122,-0.072,0.259,0.021,-0.197,0.366
2024-10-15 11:18:59.933,65091.325,0.021,0.198,-0.98,-0.12,0.097,-0.136,-0.357,0.053,0.253,0.022,-0.199,0.368
2024-10-15 11:18:59.943,65091.335,0.021,0.205,-0.979,-0.144,-0.167,-0.183,-1.032,-0.137,0.372,0.022,-0.206,0.371
2024-10-15 11:18:59.953,65091.345,0.021,0.217,-0.976,-0.093,-0.281,-0.112,-1.224,0.064,0.264,0.022,-0.219,0.375
2024-10-15 11:18:59.964,65091.355,0.023,0.224,-0.974,0.078,-0.237,0.079,-0.225,0.111,0.238,0.024,-0.226,0.378
2024-10-15 11:18:59.975,65091.364,0.023,0.223,-0.975,-0.004,-0.005,0.073,0.375,-0.192,0.247,0.024,-0.225,0.38
2024-10-15 11:18:59.983,65091.374,0.022,0.218,-0.976,0.079,-0.042,-0.231,0.44,-0.058,0.007,0.023,-0.22,0.382
2024-10-15 11:18:59.993,65091.384,0.022,0.215,-0.976,0.249,-0.272,-0.392,0.306,0.146,-0.224,0.023,-0.217,0.38
2024-10-15 11:19:00.003,65091.394,0.024,0.212,-0.977,0.104,-0.355,-0.344,0.385,0.268,-0.354,0.024,-0.213,0.377
2024-10-15 11:19:00.013,65091.404,0.025,0.208,-0.978,0.067,-0.279,-0.171,0.408,0.174,-0.379,0.026,-0.209,0.374
2024-10-15 11:19:00.023,65091.414,0.026,0.204,-0.979,0.126,-0.15,0.01,0.393,0.147,-0.392,0.026,-0.206,0.369
2024-10-15 11:19:00.033,65091.424,0.026,0.2,-0.979,0.172,0.011,0.128,0.371,0.155,-0.377,0.027,-0.202,0.365
2024-10-15 11:19:00.043,65091.434,0.028,0.196,-0.98,0.084,0.173,0.168,0.57,0.215,-0.445,0.028,-0.197,0.361
2024-10-15 11:19:00.053,65091.444,0.028,0.191,-0.981,-0.007,0.265,0.152,0.296,0.081,-0.306,0.029,-0.193,0.357
2024-10-15 11:19:00.063,65091.454,0.029,0.191,-0.981,-0.054,0.196,0.142,-0.173,0.087,-0.269,0.029,-0.192,0.354
2024-10-15 11:19:00.073,65091.464,0.029,0.195,-0.98,-0.002,0.132,0.189,-0.528,0.042,-0.1,0.03,-0.196,0.352
2024-10-15 11:19:00.083,65091.474,0.029,0.201,-0.979,-0.081,0.248,0.25,-0.72,-0.048,0.053,0.03,-0.202,0.352
2024-10-15 11:19:00.093,65091.484,0.029,0.207,-0.978,-0.088,0.319,0.247,-0.546,-0.035,0.261,0.029,-0.209,0.354
2024-10-15 11:19:00.104,65091.494,0.029,0.21,-0.977,-0.073,0.224,0.138,-0.04,-0.058,0.352,0.03,-0.212,0.357
2024-10-15 11:19:00.113,65091.504,0.029,0.209,-0.977,-0.132,0.236,-0.011,0.115,-0.19,0.289,0.029,-0.211,0.361
2024-10-15 11:19:00.123,65091.514,0.027,0.209,-0.978,-0.125,0.194,-0.158,-0.094,-0.102,0.15,0.028,-0.211,0.363
2024-10-15 11:19:00.133,65091.524,0.027,0.211,-0.977,-0.044,-0.177,-0.242,-0.402,-0.028,0.133,0.028,-0.213,0.364
2024-10-15 11:19:00.143,65091.534,0.027,0.218,-0.976,-0.094,-0.456,-0.205,-0.985,-0.128,0.295,0.027,-0.22,0.367
2024-10-15 11:19:00.153,65091.544,0.027,0.226,-0.974,-0.065,-0.447,-0.076,-0.521,0.123,0.106,0.028,-0.228,0.369
2024-10-15 11:19:00.163,65091.554,0.028,0.227,-0.974,0.044,-0.188,0.077,0.408,-0.041,0.232,0.029,-0.229,0.371
2024-10-15 11:19:00.173,65091.564,0.027,0.221,-0.975,-0.028,0.04,-0.027,0.776,-0.172,0.202,0.028,-0.222,0.373
2024-10-15 11:19:00.183,65091.574,0.027,0.213,-0.977,0.152,-0.047,-0.251,0.643,-0.039,0.011,0.027,-0.215,0.374
2024-10-15 11:19:00.193,65091.584,0.027,0.208,-0.978,0.198,-0.178,-0.287,0.423,0.104,-0.19,0.027,-0.21,0.373
2024-10-15 11:19:00.203,65091.594,0.028,0.204,-0.979,0.118,-0.248,-0.193,0.453,0.159,-0.285,0.028,-0.206,0.37
2024-10-15 11:19:00.213,65091.604,0.028,0.2,-0.979,0.113,-0.175,-0.046,0.48,0.077,-0.363,0.029,-0.201,0.367
2024-10-15 11:19:00.223,65091.614,0.028,0.195,-0.98,0.105,0.011,0.075,0.474,0.132,-0.437,0.029,-0.196,0.363
2024-10-15 11:19:00.233,65091.624,0.029,0.19,-0.981,0.064,0.177,0.158,0.673,0.199,-0.519,0.03,-0.191,0.357
2024-10-15 11:19:00.243,65091.634,0.029,0.184,-0.982,-0.063,0.281,0.196,0.328,0.04,-0.322,0.03,-0.186,0.353
2024-10-15 11:19:00.253,65091.644,0.029,0.184,-0.983,-0.115,0.219,0.227,-0.161,0.07,-0.279,0.03,-0.185,0.35
2024-10-15 11:19:00.263,65091.654,0.03,0.187,-0.982,-0.06,0.206,0.279,-0.455,0.038,-0.089,0.03,-0.188,0.348
2024-10-15 11:19:00.273,65091.664,0.03,0.192,-0.981,-0.151,0.313,0.318,-0.458,0.01,0.115,0.03,-0.193,0.348
2024-10-15 11:19:00.283,65091.674,0.03,0.195,-0.98,-0.124,0.25,0.298,-0.089,-0.019,0.27,0.031,-0.196,0.35
2024-10-15 11:19:00.293,65091.684,0.03,0.194,-0.981,-0.133,0.263,0.155,0.086,-0.134,0.257,0.031,-0.195,0.353
2024-10-15 11:19:00.303,65091.694,0.029,0.194,-0.981,-0.162,0.304,-0.004,-0.158,-0.089,0.156,0.03,-0.196,0.355
2024-10-15 11:19:00.313,65091.704,0.029,0.198,-0.98,-0.089,-0.037,-0.156,-0.774,-0.075,0.189,0.03,-0.2,0.357
2024-10-15 11:19:00.323,65091.714,0.029,0.21,-0.977,-0.09,-0.397,-0.202,-1.497,-0.003,0.258,0.03,-0.212,0.36
2024-10-15 11:19:00.333,65091.724,0.031,0.222,-0.975,-0.05,-0.392,-0.039,-0.801,0.292,0.062,0.032,-0.224,0.362
2024-10-15 11:19:00.343,65091.734,0.033,0.225,-0.974,-0.002,-0.114,0.1,0.139,0.023,0.194,0.034,-0.227,0.363
2024-10-15 11:19:00.353,65091.744,0.033,0.221,-0.975,-0.014,0.05,-0.098,0.58,-0.027,0.093,0.034,-0.223,0.365
2024-10-15 11:19:00.363,65091.754,0.033,0.215,-0.976,0.23,-0.06,-0.313,0.474,0.071,-0.053,0.034,-0.217,0.365
2024-10-15 11:19:00.372,65091.764,0.034,0.212,-0.977,0.219,-0.184,-0.322,0.328,0.199,-0.2,0.035,-0.213,0.363
2024-10-15 11:19:00.382,65091.774,0.035,0.209,-0.977,0.174,-0.277,-0.207,0.345,0.126,-0.272,0.036,-0.21,0.361
2024-10-15 11:19:00.392,65091.784,0.035,0.205,-0.978,0.177,-0.207,-0.016,0.347,0.014,-0.355,0.036,-0.207,0.357
2024-10-15 11:19:00.402,65091.794,0.035,0.202,-0.979,0.186,-0.048,0.107,0.303,0.023,-0.379,0.035,-0.204,0.354
2024-10-15 11:19:00.413,65091.804,0.034,0.2,-0.979,0.113,0.048,0.12,0.259,0.091,-0.372,0.035,-0.201,0.35
2024-10-15 11:19:00.423,65091.814,0.035,0.197,-0.98,-0.019,0.104,0.088,0.388,0.238,-0.398,0.036,-0.198,0.346
2024-10-15 11:19:00.432,65091.824,0.037,0.193,-0.98,-0.121,0.197,0.082,0.223,0.126,-0.326,0.037,-0.195,0.342
2024-10-15 11:19:00.443,65091.834,0.037,0.194,-0.98,-0.161,0.286,0.108,-0.268,0.07,-0.267,0.038,-0.195,0.339
2024-10-15 11:19:00.453,65091.844,0.037,0.198,-0.979,-0.069,0.228,0.171,-0.569,0.094,-0.109,0.038,-0.199,0.337
2024-10-15 11:19:00.462,65091.854,0.038,0.204,-0.978,-0.093,0.191,0.253,-0.55,-0.019,0.08,0.039,-0.205,0.337
2024-10-15 11:19:00.473,65091.864,0.038,0.208,-0.977,-0.154,0.229,0.276,-0.262,-0.071,0.279,0.039,-0.209,0.339
2024-10-15 11:19:00.483,65091.874,0.037,0.208,-0.977,-0.123,0.18,0.16,0.096,-0.132,0.326,0.038,-0.21,0.342
2024-10-15 11:19:00.492,65091.884,0.037,0.207,-0.978,-0.149,0.208,-0.042,0.072,-0.102,0.236,0.038,-0.209,0.345
2024-10-15 11:19:00.502,65091.894,0.037,0.207,-0.978,-0.102,0.045,-0.214,-0.133,-0.003,0.129,0.037,-0.209,0.347
2024-10-15 11:19:00.511,65091.904,0.036,0.211,-0.977,-0.063,-0.216,-0.28,-0.656,-0.147,0.158,0.037,-0.212,0.348
2024-10-15 11:19:00.522,65091.914,0.036,0.22,-0.975,-0.06,-0.334,-0.224,-1.047,-0.067,0.195,0.036,-0.221,0.351
2024-10-15 11:19:00.532,65091.924,0.037,0.226,-0.973,0.036,-0.259,-0.043,-0.216,0.192,0.073,0.038,-0.228,0.352
2024-10-15 11:19:00.542,65091.934,0.037,0.225,-0.974,0.009,-0.013,0.082,0.447,-0.13,0.184,0.038,-0.226,0.354
2024-10-15 11:19:00.552,65091.944,0.036,0.219,-0.975,0.0,0.051,-0.123,0.579,-0.094,0.008,0.037,-0.221,0.354
2024-10-15 11:19:00.562,65091.954,0.036,0.215,-0.976,0.219,-0.11,-0.246,0.265,-0.004,-0.143,0.037,-0.217,0.354
2024-10-15 11:19:00.572,65091.963,0.036,0.214,-0.976,0.149,-0.263,-0.184,0.061,0.1,-0.24,0.037,-0.215,0.351
2024-10-15 11:19:00.582,65091.973,0.036,0.213,-0.976,0.101,-0.318,-0.088,0.042,0.023,-0.245,0.037,-0.215,0.349
2024-10-15 11:19:00.592,65091.983,0.035,0.213,-0.976,0.09,-0.166,0.041,-0.037,-0.097,-0.234,0.036,-0.215,0.346
2024-10-15 11:19:00.602,65091.993,0.034,0.215,-0.976,0.11,0.005,0.101,-0.206,-0.123,-0.146,0.034,-0.216,0.344
2024-10-15 11:19:00.612,65092.003,0.032,0.217,-0.976,0.062,0.157,0.141,-0.317,-0.106,0.002,0.033,-0.219,0.344
2024-10-15 11:19:00.623,65092.013,0.031,0.22,-0.975,-0.017,0.305,0.185,-0.24,-0.125,0.172,0.032,-0.222,0.345
2024-10-15 11:19:00.632,65092.023,0.03,0.221,-0.975,-0.043,0.38,0.196,-0.039,-0.206,0.355,0.031,-0.223,0.348
2024-10-15 11:19:00.642,65092.033,0.029,0.221,-0.975,-0.024,0.329,0.17,0.104,-0.228,0.465,0.03,-0.223,0.352
2024-10-15 11:19:00.652,65092.043,0.028,0.22,-0.975,-0.013,0.255,0.062,0.121,-0.173,0.375,0.029,-0.221,0.356
2024-10-15 11:19:00.662,65092.053,0.027,0.22,-0.975,-0.034,0.141,-0.065,-0.247,-0.32,0.358,0.027,-0.222,0.36
2024-10-15 11:19:00.672,65092.063,0.025,0.225,-0.974,-0.045,-0.107,-0.163,-0.73,-0.211,0.364,0.025,-0.227,0.364
2024-10-15 11:19:00.682,65092.073,0.025,0.23,-0.973,-0.006,-0.271,-0.088,-0.295,0.049,0.244,0.025,-0.232,0.367
2024-10-15 11:19:00.692,65092.083,0.025,0.231,-0.973,-0.101,-0.082,0.107,0.035,-0.198,0.26,0.025,-0.233,0.37
2024-10-15 11:19:00.702,65092.093,0.023,0.23,-0.973,-0.092,-0.01,0.022,0.146,-0.124,0.153,0.024,-0.232,0.372
2024-10-15 11:19:00.712,65092.103,0.023,0.229,-0.973,0.106,-0.151,-0.127,0.068,0.018,0.024,0.024,-0.231,0.373
2024-10-15 11:19:00.722,65092.113,0.024,0.228,-0.973,0.04,-0.272,-0.157,0.098,0.11,-0.114,0.024,-0.23,0.372
2024-10-15 11:19:00.732,65092.123,0.024,0.227,-0.974,0.036,-0.33,-0.121,0.155,0.067,-0.214,0.025,-0.229,0.37
2024-10-15 11:19:00.743,65092.133,0.024,0.225,-0.974,0.083,-0.272,-0.019,0.166,0.018,-0.321,0.025,-0.227,0.368
2024-10-15 11:19:00.752,65092.143,0.023,0.224,-0.974,0.124,-0.197,0.073,0.236,0.025,-0.343,0.024,-0.226,0.364
2024-10-15 11:19:00.762,65092.153,0.023,0.221,-0.975,0.084,-0.086,0.121,0.254,0.019,-0.329,0.023,-0.223,0.361
2024-10-15 11:19:00.772,65092.163,0.023,0.219,-0.976,0.021,0.052,0.122,0.348,0.107,-0.356,0.023,-0.22,0.357
2024-10-15 11:19:00.782,65092.173,0.023,0.215,-0.976,-0.025,0.184,0.103,0.446,0.109,-0.309,0.024,-0.216,0.353
2024-10-15 11:19:00.792,65092.183,0.023,0.212,-0.977,-0.1,0.296,0.09,0.098,-0.006,-0.183,0.024,-0.213,0.351
2024-10-15 11:19:00.802,65092.193,0.023,0.213,-0.977,-0.089,0.29,0.109,-0.289,-0.027,-0.06,0.023,-0.214,0.35
2024-10-15 11:19:00.812,65092.203,0.022,0.217,-0.976,-0.04,0.238,0.159,-0.47,-0.099,0.168,0.023,-0.218,0.35
2024-10-15 11:19:00.822,65092.213,0.022,0.22,-0.975,-0.072,0.215,0.213,-0.229,-0.109,0.373,0.022,-0.222,0.353
2024-10-15 11:19:00.832,65092.223,0.021,0.22,-0.975,-0.071,0.247,0.191,0.245,-0.225,0.475,0.022,-0.222,0.358
2024-10-15 11:19:00.842,65092.233,0.019,0.217,-0.976,-0.083,0.314,0.066,0.397,-0.319,0.477,0.02,-0.218,0.362
2024-10-15 11:19:00.852,65092.243,0.017,0.214,-0.977,-0.024,0.141,-0.118,0.034,-0.371,0.47,0.017,-0.216,0.367
2024-10-15 11:19:00.862,65092.253,0.015,0.217,-0.976,0.009,-0.137,-0.23,-0.581,-0.28,0.452,0.015,-0.219,0.372
2024-10-15 11:19:00.872,65092.263,0.014,0.222,-0.975,0.005,-0.288,-0.143,-0.342,0.044,0.219,0.015,-0.224,0.376
2024-10-15 11:19:00.882,65092.273,0.015,0.223,-0.975,-0.01,-0.226,-0.015,-0.009,-0.15,0.217,0.015,-0.225,0.378
2024-10-15 11:19:00.892,65092.283,0.013,0.223,-0.975,-0.025,-0.177,-0.122,0.1,-0.14,0.096,0.014,-0.225,0.379
2024-10-15 11:19:00.901,65092.293,0.013,0.221,-0.975,0.165,-0.332,-0.266,0.209,0.008,-0.03,0.013,-0.223,0.38
2024-10-15 11:19:00.911,65092.303,0.013,0.219,-0.976,0.114,-0.346,-0.25,0.32,0.021,-0.088,0.013,-0.221,0.379
2024-10-15 11:19:00.921,65092.313,0.013,0.215,-0.977,0.064,-0.256,-0.151,0.461,-0.009,-0.123,0.013,-0.217,0.378
2024-10-15 11:19:00.932,65092.323,0.012,0.21,-0.978,0.124,-0.112,-0.027,0.51,-0.097,-0.148,0.012,-0.212,0.376
2024-10-15 11:19:00.942,65092.333,0.01,0.206,-0.979,0.111,0.105,0.099,0.422,-0.134,-0.163,0.011,-0.207,0.375
2024-10-15 11:19:00.951,65092.343,0.009,0.202,-0.979,0.073,0.203,0.167,0.336,-0.089,-0.158,0.009,-0.203,0.373
2024-10-15 11:19:00.962,65092.353,0.008,0.199,-0.98,-0.009,0.259,0.205,0.216,-0.113,-0.099,0.008,-0.201,0.372
2024-10-15 11:19:00.971,65092.363,0.006,0.199,-0.98,-0.087,0.293,0.245,-0.129,-0.181,0.033,0.006,-0.2,0.371
2024-10-15 11:19:00.982,65092.373,0.005,0.201,-0.979,-0.086,0.237,0.263,-0.399,-0.171,0.125,0.005,-0.203,0.372
2024-10-15 11:19:00.991,65092.383,0.004,0.205,-0.979,-0.072,0.212,0.258,-0.298,-0.122,0.219,0.004,-0.206,0.374
2024-10-15 11:19:01.002,65092.393,0.003,0.207,-0.978,-0.113,0.235,0.181,-0.077,-0.141,0.273,0.003,-0.208,0.377
2024-10-15 11:19:01.011,65092.403,0.002,0.207,-0.978,-0.125,0.15,0.007,0.026,-0.146,0.24,0.002,-0.208,0.379
2024-10-15 11:19:01.021,65092.413,0.001,0.207,-0.978,-0.09,0.016,-0.183,-0.033,-0.096,0.154,0.001,-0.208,0.381
2024-10-15 11:19:01.031,65092.423,0.001,0.208,-0.978,-0.072,-0.159,-0.262,-0.29,-0.106,0.1,0.001,-0.21,0.382
2024-10-15 11:19:01.042,65092.433,-0.0,0.214,-0.977,-0.058,-0.295,-0.239,-0.793,-0.152,0.171,-0.0,-0.215,0.384
2024-10-15 11:19:01.051,65092.443,-0.0,0.221,-0.975,0.002,-0.316,-0.13,-0.56,0.119,0.059,-0.0,-0.223,0.385
2024-10-15 11:19:01.062,65092.453,0.001,0.224,-0.975,0.034,-0.144,0.036,-0.083,-0.014,0.156,0.001,-0.226,0.386
2024-10-15 11:19:01.072,65092.463,0.0,0.223,-0.975,-0.003,0.022,-0.026,0.304,-0.069,0.141,0.0,-0.224,0.388
2024-10-15 11:19:01.081,65092.473,0.0,0.219,-0.976,0.142,0.003,-0.147,0.436,-0.056,0.093,0.0,-0.221,0.389
2024-10-15 11:19:01.091,65092.483,0.0,0.214,-0.977,0.149,-0.044,-0.18,0.474,0.015,0.049,0.0,-0.216,0.39
2024-10-15 11:19:01.101,65092.493,0.001,0.209,-0.978,0.112,-0.12,-0.167,0.535,0.06,0.026,0.001,-0.211,0.39
2024-10-15 11:19:01.111,65092.503,0.001,0.204,-0.979,0.093,-0.093,-0.077,0.525,0.021,-0.022,0.001,-0.206,0.39
2024-10-15 11:19:01.121,65092.513,0.001,0.199,-0.98,0.098,-0.006,0.032,0.52,0.022,-0.063,0.001,-0.2,0.39
2024-10-15 11:19:01.132,65092.523,0.001,0.194,-0.981,0.103,0.023,0.099,0.462,-0.001,-0.087,0.001,-0.196,0.389
2024-10-15 11:19:01.141,65092.533,0.001,0.19,-0.982,0.043,0.041,0.113,0.423,0.074,-0.133,0.001,-0.191,0.388
2024-10-15 11:19:01.151,65092.543,0.002,0.185,-0.983,-0.011,0.078,0.122,0.603,0.224,-0.249,0.002,-0.186,0.386
2024-10-15 11:19:01.161,65092.553,0.003,0.18,-0.984,-0.075,0.155,0.149,0.383,0.099,-0.276,0.003,-0.181,0.383
2024-10-15 11:19:01.171,65092.562,0.003,0.179,-0.984,-0.094,0.152,0.134,-0.206,0.008,-0.298,0.003,-0.18,0.38
2024-10-15 11:19:01.181,65092.572,0.003,0.184,-0.983,0.002,-0.026,0.124,-0.706,0.066,-0.127,0.003,-0.185,0.378
2024-10-15 11:19:01.191,65092.582,0.004,0.191,-0.982,-0.036,-0.115,0.161,-0.71,0.071,0.083,0.004,-0.192,0.378
2024-10-15 11:19:01.201,65092.592,0.004,0.196,-0.981,-0.133,0.147,0.214,-0.311,-0.021,0.215,0.005,-0.197,0.379
2024-10-15 11:19:01.211,65092.602,0.004,0.197,-0.98,-0.134,0.416,0.176,0.095,-0.159,0.315,0.004,-0.198,0.382
2024-10-15 11:19:01.221,65092.612,0.003,0.195,-0.981,-0.07,0.406,0.032,0.186,-0.152,0.361,0.003,-0.197,0.385
2024-10-15 11:19:01.231,65092.622,0.002,0.195,-0.981,-0.036,0.186,-0.114,-0.103,-0.183,0.427,0.002,-0.196,0.389
2024-10-15 11:19:01.241,65092.632,0.001,0.198,-0.98,-0.064,-0.007,-0.155,-0.611,-0.21,0.464,0.001,-0.2,0.394
2024-10-15 11:19:01.251,65092.642,0.001,0.204,-0.979,-0.024,-0.13,-0.063,-0.43,-0.023,0.349,0.001,-0.205,0.398
2024-10-15 11:19:01.261,65092.652,0.001,0.206,-0.979,-0.018,-0.072,0.049,-0.041,-0.156,0.352,0.001,-0.207,0.402
2024-10-15 11:19:01.271,65092.662,-0.001,0.206,-0.978,-0.062,-0.003,-0.016,-0.045,-0.227,0.305,-0.001,-0.208,0.405
2024-10-15 11:19:01.281,65092.672,-0.001,0.206,-0.978,0.069,-0.171,-0.176,0.059,-0.03,0.177,-0.001,-0.208,0.408
2024-10-15 11:19:01.291,65092.682,-0.001,0.205,-0.979,0.058,-0.261,-0.232,0.22,0.023,0.069,-0.001,-0.207,0.409
2024-10-15 11:19:01.301,65092.692,-0.001,0.202,-0.979,-0.009,-0.227,-0.218,0.326,0.042,-0.069,-0.001,-0.204,0.409
2024-10-15 11:19:01.311,65092.702,-0.001,0.2,-0.98,0.078,-0.214,-0.163,0.21,0.034,-0.193,-0.001,-0.201,0.407
2024-10-15 11:19:01.321,65092.712,-0.001,0.198,-0.98,0.121,-0.209,-0.074,0.06,0.078,-0.282,-0.001,-0.2,0.405
2024-10-15 11:19:01.331,65092.722,-0.0,0.198,-0.98,0.126,-0.213,0.043,0.071,0.116,-0.336,-0.0,-0.199,0.402
2024-10-15 11:19:01.341,65092.732,0.0,0.197,-0.98,0.084,-0.124,0.144,0.182,0.071,-0.347,0.0,-0.198,0.398
2024-10-15 11:19:01.351,65092.742,0.0,0.194,-0.981,0.039,0.017,0.173,0.279,0.106,-0.362,0.0,-0.196,0.395
2024-10-15 11:19:01.361,65092.752,0.001,0.191,-0.982,-0.003,0.131,0.144,0.47,0.225,-0.41,0.001,-0.192,0.391
2024-10-15 11:19:01.371,65092.762,0.002,0.187,-0.982,-0.09,0.218,0.097,0.257,0.145,-0.367,0.002,-0.188,0.387
2024-10-15 11:19:01.383,65092.772,0.002,0.187,-0.982,-0.127,0.189,0.098,-0.255,0.023,-0.287,0.002,-0.188,0.383
2024-10-15 11:19:01.391,65092.782,0.002,0.192,-0.981,-0.044,0.047,0.157,-0.688,-0.005,-0.087,0.002,-0.193,0.381
2024-10-15 11:19:01.401,65092.792,0.002,0.198,-0.98,-0.049,0.05,0.253,-0.606,0.033,0.101,0.002,-0.2,0.382
2024-10-15 11:19:01.411,65092.802,0.002,0.202,-0.979,-0.128,0.295,0.314,-0.211,-0.106,0.263,0.002,-0.204,0.383
2024-10-15 11:19:01.421,65092.812,0.001,0.203,-0.979,-0.138,0.478,0.239,-0.048,-0.238,0.339,0.001,-0.205,0.387
2024-10-15 11:19:01.431,65092.822,-0.0,0.204,-0.979,-0.037,0.314,0.032,-0.162,-0.185,0.368,-0.0,-0.206,0.39
2024-10-15 11:19:01.441,65092.832,-0.001,0.208,-0.978,-0.019,0.031,-0.139,-0.636,-0.238,0.437,-0.001,-0.21,0.394
2024-10-15 11:19:01.451,65092.842,-0.002,0.215,-0.977,-0.052,-0.125,-0.164,-0.586,-0.068,0.312,-0.002,-0.216,0.398
2024-10-15 11:19:01.461,65092.852,-0.002,0.218,-0.976,0.0,-0.158,-0.041,-0.202,-0.164,0.396,-0.002,-0.22,0.402
2024-10-15 11:19:01.471,65092.862,-0.004,0.22,-0.976,-0.023,-0.102,-0.021,-0.169,-0.317,0.348,-0.004,-0.222,0.406
2024-10-15 11:19:01.481,65092.872,-0.006,0.221,-0.975,0.088,-0.135,-0.144,-0.059,-0.145,0.193,-0.006,-0.223,0.408
2024-10-15 11:19:01.491,65092.882,-0.006,0.22,-0.975,0.118,-0.231,-0.19,0.304,-0.019,0.077,-0.006,-0.222,0.41
2024-10-15 11:19:01.501,65092.892,-0.006,0.215,-0.977,0.018,-0.274,-0.225,0.629,0.009,-0.091,-0.006,-0.217,0.41
2024-10-15 11:19:01.511,65092.902,-0.007,0.209,-0.978,0.052,-0.225,-0.215,0.521,-0.07,-0.234,-0.007,-0.211,0.408
2024-10-15 11:19:01.521,65092.912,-0.008,0.206,-0.979,0.121,-0.205,-0.133,0.278,0.041,-0.353,-0.008,-0.207,0.405
2024-10-15 11:19:01.531,65092.922,-0.007,0.203,-0.979,0.137,-0.245,-0.024,0.183,0.16,-0.353,-0.007,-0.205,0.401
2024-10-15 11:19:01.541,65092.932,-0.006,0.202,-0.979,0.033,-0.098,0.054,0.139,0.199,-0.342,-0.006,-0.203,0.398
2024-10-15 11:19:01.551,65092.942,-0.005,0.199,-0.98,0.001,0.098,0.062,0.43,0.313,-0.43,-0.005,-0.201,0.394
2024-10-15 11:19:01.561,65092.952,-0.003,0.194,-0.981,0.018,0.207,0.057,0.544,0.212,-0.392,-0.003,-0.195,0.39
2024-10-15 11:19:01.571,65092.962,-0.002,0.191,-0.982,-0.016,0.185,0.016,0.085,0.103,-0.381,-0.002,-0.192,0.386
2024-10-15 11:19:01.581,65092.972,-0.002,0.193,-0.981,0.036,0.038,0.02,-0.442,0.122,-0.338,-0.002,-0.194,0.382
2024-10-15 11:19:01.591,65092.982,-0.001,0.198,-0.98,0.008,0.064,0.174,-0.614,0.121,-0.216,-0.001,-0.199,0.379
2024-10-15 11:19:01.600,65092.992,-0.001,0.204,-0.979,-0.076,0.254,0.304,-0.604,-0.058,0.039,-0.001,-0.206,0.378
2024-10-15 11:19:01.611,65093.002,-0.002,0.209,-0.978,-0.092,0.427,0.307,-0.314,-0.141,0.193,-0.002,-0.21,0.38
2024-10-15 11:19:01.621,65093.012,-0.002,0.21,-0.978,-0.055,0.433,0.225,0.094,-0.105,0.357,-0.002,-0.211,0.382
2024-10-15 11:19:01.631,65093.022,-0.003,0.208,-0.978,-0.105,0.26,0.036,0.265,-0.128,0.395,-0.003,-0.209,0.386
2024-10-15 11:19:01.641,65093.032,-0.003,0.206,-0.979,-0.147,0.136,-0.169,0.073,-0.123,0.298,-0.003,-0.208,0.39
2024-10-15 11:19:01.650,65093.042,-0.004,0.208,-0.978,-0.089,-0.082,-0.263,-0.496,-0.215,0.348,-0.004,-0.209,0.393
2024-10-15 11:19:01.660,65093.052,-0.005,0.216,-0.976,-0.037,-0.364,-0.241,-1.101,-0.191,0.466,-0.005,-0.218,0.397
2024-10-15 11:19:01.670,65093.062,-0.004,0.224,-0.975,0.013,-0.358,-0.032,-0.335,0.167,0.251,-0.004,-0.226,0.401
2024-10-15 11:19:01.680,65093.072,-0.004,0.223,-0.975,-0.006,-0.002,0.16,0.379,-0.248,0.339,-0.004,-0.225,0.404
2024-10-15 11:19:01.690,65093.082,-0.006,0.219,-0.976,-0.015,0.132,-0.024,0.477,-0.297,0.18,-0.007,-0.221,0.407
2024-10-15 11:19:01.701,65093.092,-0.008,0.214,-0.977,0.268,-0.175,-0.244,0.528,0.017,-0.043,-0.008,-0.216,0.407
2024-10-15 11:19:01.710,65093.102,-0.007,0.209,-0.978,0.142,-0.284,-0.265,0.529,0.077,-0.208,-0.007,-0.21,0.406
2024-10-15 11:19:01.720,65093.112,-0.007,0.204,-0.979,0.015,-0.311,-0.214,0.41,0.058,-0.334,-0.007,-0.205,0.403
2024-10-15 11:19:01.730,65093.122,-0.007,0.2,-0.98,0.121,-0.326,-0.121,0.3,0.094,-0.419,-0.007,-0.202,0.4
2024-10-15 11:19:01.740,65093.132,-0.007,0.198,-0.98,0.121,-0.193,0.033,0.298,0.14,-0.399,-0.007,-0.199,0.395
2024-10-15 11:19:01.750,65093.142,-0.006,0.194,-0.981,0.049,-0.04,0.115,0.465,0.24,-0.437,-0.006,-0.195,0.391
2024-10-15 11:19:01.760,65093.151,-0.004,0.188,-0.982,0.001,0.12,0.114,0.772,0.285,-0.504,-0.004,-0.189,0.386
2024-10-15 11:19:01.771,65093.161,-0.003,0.182,-0.983,-0.054,0.231,0.063,0.303,0.067,-0.445,-0.003,-0.183,0.382
2024-10-15 11:19:01.780,65093.171,-0.003,0.183,-0.983,-0.029,0.098,0.039,-0.337,0.146,-0.4,-0.003,-0.184,0.377
2024-10-15 11:19:01.790,65093.181,-0.002,0.187,-0.982,0.019,-0.0,0.149,-0.545,0.186,-0.23,-0.002,-0.188,0.374
2024-10-15 11:19:01.800,65093.191,-0.002,0.193,-0.981,-0.128,0.236,0.319,-0.596,-0.055,0.022,-0.002,-0.194,0.373
2024-10-15 11:19:01.810,65093.201,-0.002,0.198,-0.98,-0.131,0.447,0.368,-0.367,-0.13,0.224,-0.002,-0.199,0.374
2024-10-15 11:19:01.820,65093.211,-0.003,0.199,-0.98,-0.049,0.422,0.271,0.013,-0.058,0.389,-0.003,-0.201,0.377
2024-10-15 11:19:01.830,65093.221,-0.003,0.198,-0.98,-0.135,0.327,0.084,0.174,-0.098,0.405,-0.003,-0.2,0.381
2024-10-15 11:19:01.840,65093.231,-0.003,0.197,-0.98,-0.178,0.234,-0.124,-0.027,-0.07,0.333,-0.003,-0.199,0.385
2024-10-15 11:19:01.850,65093.241,-0.003,0.201,-0.98,-0.073,-0.112,-0.258,-0.751,-0.256,0.502,-0.003,-0.202,0.389
2024-10-15 11:19:01.860,65093.251,-0.005,0.212,-0.977,-0.037,-0.339,-0.204,-1.294,-0.157,0.462,-0.005,-0.214,0.394
2024-10-15 11:19:01.870,65093.261,-0.004,0.221,-0.975,0.037,-0.258,0.077,-0.502,0.098,0.318,-0.004,-0.223,0.398
2024-10-15 11:19:01.880,65093.271,-0.005,0.223,-0.975,-0.051,0.103,0.258,0.055,-0.351,0.417,-0.005,-0.225,0.402
2024-10-15 11:19:01.890,65093.281,-0.007,0.222,-0.975,-0.033,0.123,-0.017,0.133,-0.275,0.258,-0.007,-0.224,0.406
2024-10-15 11:19:01.900,65093.291,-0.008,0.22,-0.975,0.211,-0.207,-0.29,0.27,0.028,0.045,-0.008,-0.222,0.407
2024-10-15 11:19:01.910,65093.301,-0.007,0.216,-0.976,0.052,-0.314,-0.325,0.549,0.134,-0.186,-0.007,-0.218,0.406
2024-10-15 11:19:01.920,65093.311,-0.007,0.211,-0.977,-0.013,-0.309,-0.278,0.469,0.032,-0.368,-0.007,-0.213,0.404
2024-10-15 11:19:01.930,65093.321,-0.007,0.208,-0.978,0.105,-0.334,-0.189,0.204,0.126,-0.512,-0.007,-0.209,0.399
2024-10-15 11:19:01.940,65093.331,-0.006,0.206,-0.979,0.155,-0.365,-0.054,0.176,0.256,-0.532,-0.007,-0.208,0.394
2024-10-15 11:19:01.950,65093.341,-0.005,0.204,-0.979,0.049,-0.223,0.087,0.398,0.323,-0.6,-0.005,-0.205,0.388
2024-10-15 11:19:01.960,65093.351,-0.003,0.197,-0.98,0.001,0.02,0.135,0.887,0.316,-0.701,-0.003,-0.198,0.381
2024-10-15 11:19:01.970,65093.361,-0.002,0.191,-0.982,-0.018,0.189,0.068,0.201,0.016,-0.503,-0.002,-0.192,0.375
2024-10-15 11:19:01.980,65093.371,-0.003,0.193,-0.981,-0.007,0.088,0.064,-0.46,0.173,-0.533,-0.003,-0.194,0.37
2024-10-15 11:19:01.990,65093.381,-0.002,0.198,-0.98,0.087,-0.015,0.186,-0.674,0.144,-0.24,-0.002,-0.2,0.366
2024-10-15 11:19:02.000,65093.391,-0.002,0.205,-0.979,-0.11,0.289,0.333,-0.712,-0.095,-0.002,-0.002,-0.207,0.365
2024-10-15 11:19:02.010,65093.401,-0.003,0.211,-0.978,-0.062,0.569,0.384,-0.379,-0.176,0.229,-0.003,-0.212,0.366
2024-10-15 11:19:02.020,65093.411,-0.003,0.212,-0.977,0.001,0.576,0.239,0.104,-0.11,0.424,-0.004,-0.214,0.369
2024-10-15 11:19:02.030,65093.421,-0.004,0.21,-0.978,-0.107,0.446,0.039,0.333,-0.124,0.446,-0.004,-0.211,0.374
2024-10-15 11:19:02.044,65093.431,-0.004,0.207,-0.978,-0.155,0.29,-0.186,0.14,-0.071,0.331,-0.004,-0.209,0.378
2024-10-15 11:19:02.050,65093.441,-0.004,0.208,-0.978,-0.083,-0.068,-0.32,-0.339,-0.115,0.298,-0.004,-0.209,0.381
2024-10-15 11:19:02.060,65093.451,-0.005,0.216,-0.976,-0.068,-0.381,-0.259,-1.244,-0.32,0.497,-0.005,-0.217,0.385
2024-10-15 11:19:02.070,65093.461,-0.006,0.226,-0.974,-0.017,-0.437,-0.012,-0.747,0.061,0.249,-0.006,-0.228,0.389
2024-10-15 11:19:02.080,65093.471,-0.005,0.229,-0.973,0.023,-0.063,0.309,0.163,-0.188,0.352,-0.005,-0.231,0.392
2024-10-15 11:19:02.090,65093.481,-0.007,0.225,-0.974,-0.102,0.181,0.186,0.503,-0.331,0.285,-0.007,-0.227,0.395
2024-10-15 11:19:02.100,65093.491,-0.009,0.22,-0.975,0.13,-0.06,-0.216,0.487,-0.058,0.055,-0.009,-0.222,0.397
2024-10-15 11:19:02.110,65093.501,-0.009,0.216,-0.976,0.124,-0.28,-0.35,0.424,0.093,-0.191,-0.009,-0.218,0.396
2024-10-15 11:19:02.120,65093.511,-0.008,0.212,-0.977,0.012,-0.388,-0.312,0.409,0.164,-0.348,-0.008,-0.213,0.393
2024-10-15 11:19:02.130,65093.521,-0.007,0.208,-0.978,0.073,-0.384,-0.185,0.255,0.109,-0.469,-0.008,-0.21,0.389
2024-10-15 11:19:02.140,65093.531,-0.007,0.206,-0.978,0.129,-0.28,-0.032,0.221,0.168,-0.5,-0.007,-0.208,0.384
2024-10-15 11:19:02.150,65093.541,-0.006,0.204,-0.979,0.12,-0.153,0.072,0.376,0.258,-0.557,-0.006,-0.205,0.379
2024-10-15 11:19:02.160,65093.551,-0.005,0.198,-0.98,0.036,0.059,0.114,0.698,0.228,-0.602,-0.005,-0.199,0.373
2024-10-15 11:19:02.170,65093.561,-0.005,0.194,-0.981,-0.029,0.211,0.066,0.021,0.056,-0.425,-0.005,-0.195,0.368
2024-10-15 11:19:02.180,65093.571,-0.004,0.196,-0.981,-0.009,0.11,0.077,-0.416,0.238,-0.422,-0.004,-0.198,0.363
2024-10-15 11:19:02.190,65093.581,-0.003,0.201,-0.98,0.032,0.081,0.176,-0.537,0.121,-0.15,-0.003,-0.203,0.36
2024-10-15 11:19:02.199,65093.591,-0.002,0.206,-0.978,-0.134,0.38,0.305,-0.502,-0.012,0.051,-0.002,-0.208,0.36
2024-10-15 11:19:02.210,65093.601,-0.003,0.21,-0.978,-0.036,0.542,0.353,-0.214,-0.101,0.178,-0.003,-0.212,0.361
2024-10-15 11:19:02.220,65093.611,-0.003,0.211,-0.977,-0.017,0.508,0.248,-0.009,-0.176,0.376,-0.004,-0.213,0.364
2024-10-15 11:19:02.229,65093.621,-0.004,0.21,-0.978,-0.071,0.248,0.033,0.175,-0.048,0.387,-0.004,-0.212,0.368
2024-10-15 11:19:02.239,65093.631,-0.003,0.209,-0.978,-0.123,0.086,-0.136,0.031,-0.034,0.273,-0.003,-0.211,0.371
2024-10-15 11:19:02.249,65093.641,-0.003,0.21,-0.978,-0.151,-0.075,-0.236,-0.226,-0.024,0.201,-0.003,-0.211,0.374
2024-10-15 11:19:02.259,65093.651,-0.004,0.215,-0.977,-0.052,-0.391,-0.231,-0.873,-0.237,0.4,-0.004,-0.217,0.377
2024-10-15 11:19:02.270,65093.661,-0.005,0.224,-0.975,-0.019,-0.424,-0.103,-0.776,-0.006,0.207,-0.005,-0.226,0.38
2024-10-15 11:19:02.280,65093.671,-0.004,0.228,-0.974,0.035,-0.094,0.171,0.065,-0.052,0.235,-0.004,-0.23,0.382
2024-10-15 11:19:02.290,65093.681,-0.005,0.225,-0.974,-0.049,0.136,0.15,0.391,-0.254,0.243,-0.005,-0.227,0.385
2024-10-15 11:19:02.300,65093.691,-0.007,0.222,-0.975,0.087,-0.018,-0.18,0.307,-0.09,0.029,-0.007,-0.223,0.386
2024-10-15 11:19:02.309,65093.701,-0.007,0.219,-0.976,0.172,-0.242,-0.308,0.245,0.097,-0.175,-0.007,-0.221,0.385
2024-10-15 11:19:02.319,65093.711,-0.006,0.216,-0.976,0.046,-0.354,-0.283,0.353,0.195,-0.299,-0.006,-0.218,0.383
2024-10-15 11:19:02.329,65093.721,-0.005,0.213,-0.977,0.038,-0.311,-0.146,0.362,0.117,-0.398,-0.005,-0.214,0.379
2024-10-15 11:19:02.339,65093.731,-0.005,0.209,-0.978,0.1,-0.2,-0.046,0.353,0.134,-0.453,-0.005,-0.211,0.375
2024-10-15 11:19:02.350,65093.741,-0.004,0.205,-0.979,0.121,-0.077,0.04,0.561,0.257,-0.58,-0.004,-0.206,0.37
2024-10-15 11:19:02.359,65093.75,-0.003,0.199,-0.98,0.039,0.065,0.107,0.491,0.133,-0.429,-0.003,-0.2,0.364
2024-10-15 11:19:02.369,65093.76,-0.002,0.197,-0.98,-0.049,0.163,0.108,-0.053,0.087,-0.394,-0.002,-0.198,0.361
2024-10-15 11:19:02.379,65093.77,-0.002,0.199,-0.98,0.043,0.111,0.206,-0.298,0.124,-0.221,-0.002,-0.2,0.357
2024-10-15 11:19:02.389,65093.78,-0.002,0.202,-0.979,0.003,0.215,0.299,-0.444,-0.066,0.024,-0.002,-0.204,0.356
2024-10-15 11:19:02.399,65093.79,-0.003,0.207,-0.978,-0.067,0.468,0.366,-0.354,-0.153,0.199,-0.003,-0.208,0.357
2024-10-15 11:19:02.409,65093.8,-0.003,0.208,-0.978,-0.0,0.516,0.29,-0.042,-0.131,0.412,-0.004,-0.21,0.36
2024-10-15 11:19:02.419,65093.81,-0.004,0.207,-0.978,-0.086,0.414,0.109,0.282,-0.101,0.457,-0.004,-0.209,0.365
2024-10-15 11:19:02.429,65093.82,-0.004,0.204,-0.979,-0.164,0.303,-0.105,0.235,-0.1,0.394,-0.004,-0.206,0.369
2024-10-15 11:19:02.439,65093.83,-0.004,0.204,-0.979,-0.133,0.026,-0.246,-0.117,-0.141,0.329,-0.004,-0.205,0.373
2024-10-15 11:19:02.449,65093.84,-0.006,0.209,-0.978,-0.075,-0.291,-0.23,-0.984,-0.359,0.514,-0.006,-0.21,0.377
2024-10-15 11:19:02.459,65093.85,-0.007,0.218,-0.976,-0.026,-0.41,-0.04,-0.736,-0.031,0.275,-0.007,-0.22,0.381
2024-10-15 11:19:02.469,65093.86,-0.006,0.221,-0.975,0.027,-0.199,0.212,0.057,-0.121,0.314,-0.006,-0.223,0.384
2024-10-15 11:19:02.479,65093.87,-0.008,0.219,-0.976,-0.113,0.075,0.107,0.268,-0.254,0.231,-0.008,-0.221,0.387
2024-10-15 11:19:02.489,65093.88,-0.009,0.217,-0.976,0.064,-0.101,-0.261,0.145,-0.031,0.046,-0.009,-0.219,0.389
2024-10-15 11:19:02.499,65093.89,-0.008,0.216,-0.976,0.117,-0.325,-0.381,0.191,0.168,-0.118,-0.009,-0.217,0.388
2024-10-15 11:19:02.509,65093.9,-0.007,0.213,-0.977,0.01,-0.313,-0.266,0.353,0.16,-0.186,-0.007,-0.215,0.387
2024-10-15 11:19:02.519,65093.91,-0.007,0.209,-0.978,0.066,-0.18,-0.084,0.328,0.017,-0.254,-0.007,-0.211,0.384
2024-10-15 11:19:02.529,65093.92,-0.007,0.206,-0.978,0.187,-0.085,0.056,0.315,0.023,-0.268,-0.007,-0.208,0.382
2024-10-15 11:19:02.539,65093.93,-0.007,0.203,-0.979,0.209,-0.029,0.138,0.366,0.038,-0.245,-0.007,-0.204,0.379
2024-10-15 11:19:02.549,65093.94,-0.007,0.199,-0.98,0.11,0.107,0.161,0.443,0.071,-0.237,-0.007,-0.2,0.377
2024-10-15 11:19:02.559,65093.95,-0.006,0.194,-0.981,0.062,0.178,0.098,0.706,0.189,-0.325,-0.007,-0.195,0.374
2024-10-15 11:19:02.569,65093.96,-0.005,0.187,-0.982,0.01,0.168,0.023,0.602,0.143,-0.261,-0.005,-0.188,0.371
2024-10-15 11:19:02.579,65093.97,-0.004,0.183,-0.983,-0.07,0.107,-0.032,0.136,0.154,-0.331,-0.004,-0.184,0.368
2024-10-15 11:19:02.589,65093.98,-0.003,0.183,-0.983,-0.024,0.007,0.05,-0.207,0.161,-0.303,-0.003,-0.185,0.365
2024-10-15 11:19:02.599,65093.99,-0.003,0.187,-0.982,-0.052,0.021,0.183,-0.423,-0.004,-0.179,-0.003,-0.188,0.362
2024-10-15 11:19:02.609,65094.0,-0.004,0.191,-0.981,-0.077,0.088,0.256,-0.529,-0.064,0.05,-0.004,-0.193,0.361
2024-10-15 11:19:02.619,65094.01,-0.003,0.196,-0.981,-0.068,0.148,0.225,-0.341,0.021,0.18,-0.004,-0.197,0.363
2024-10-15 11:19:02.629,65094.02,-0.003,0.198,-0.98,-0.162,0.36,0.162,-0.136,-0.031,0.278,-0.003,-0.2,0.365
2024-10-15 11:19:02.639,65094.03,-0.003,0.199,-0.98,-0.186,0.345,-0.006,-0.094,0.003,0.309,-0.003,-0.201,0.368
2024-10-15 11:19:02.649,65094.04,-0.002,0.2,-0.98,-0.096,0.091,-0.196,-0.132,0.051,0.267,-0.002,-0.202,0.371
2024-10-15 11:19:02.659,65094.05,-0.001,0.203,-0.979,-0.088,-0.058,-0.25,-0.502,-0.167,0.299,-0.001,-0.204,0.374
2024-10-15 11:19:02.669,65094.06,-0.003,0.211,-0.977,-0.051,-0.21,-0.206,-1.035,-0.17,0.37,-0.003,-0.213,0.377
2024-10-15 11:19:02.679,65094.07,-0.002,0.218,-0.976,0.058,-0.266,-0.026,-0.257,0.146,0.217,-0.002,-0.22,0.38
2024-10-15 11:19:02.689,65094.08,-0.002,0.217,-0.976,-0.007,-0.003,0.159,0.392,-0.183,0.26,-0.002,-0.219,0.383
2024-10-15 11:19:02.699,65094.09,-0.003,0.212,-0.977,-0.045,0.029,-0.064,0.541,-0.093,0.034,-0.003,-0.214,0.384
2024-10-15 11:19:02.709,65094.1,-0.003,0.207,-0.978,0.177,-0.219,-0.281,0.413,0.071,-0.204,-0.003,-0.209,0.384
2024-10-15 11:19:02.719,65094.11,-0.002,0.204,-0.979,0.07,-0.338,-0.273,0.342,0.204,-0.377,-0.002,-0.205,0.381
2024-10-15 11:19:02.729,65094.12,-0.001,0.2,-0.98,0.019,-0.371,-0.153,0.358,0.196,-0.471,-0.001,-0.202,0.376
2024-10-15 11:19:02.739,65094.13,-0.001,0.197,-0.98,0.047,-0.22,0.047,0.293,0.165,-0.545,-0.001,-0.199,0.371
2024-10-15 11:19:02.749,65094.14,0.0,0.193,-0.981,0.074,-0.06,0.173,0.544,0.269,-0.657,0.0,-0.195,0.365
2024-10-15 11:19:02.759,65094.15,0.002,0.187,-0.982,0.032,0.078,0.184,0.535,0.133,-0.518,0.002,-0.189,0.359
2024-10-15 11:19:02.769,65094.16,0.002,0.185,-0.983,-0.072,0.185,0.113,-0.097,0.114,-0.462,0.002,-0.187,0.354
2024-10-15 11:19:02.779,65094.17,0.003,0.188,-0.982,-0.001,0.15,0.096,-0.327,0.244,-0.305,0.003,-0.189,0.35
2024-10-15 11:19:02.788,65094.18,0.004,0.191,-0.981,-0.077,0.343,0.103,-0.45,0.109,-0.013,0.004,-0.193,0.348
2024-10-15 11:19:02.798,65094.19,0.005,0.196,-0.981,-0.172,0.634,0.157,-0.498,0.019,0.197,0.005,-0.198,0.349
2024-10-15 11:19:02.808,65094.2,0.006,0.2,-0.98,-0.052,0.616,0.168,-0.199,0.086,0.377,0.006,-0.201,0.352
2024-10-15 11:19:02.818,65094.21,0.008,0.2,-0.98,-0.047,0.386,0.123,0.098,0.041,0.452,0.008,-0.202,0.357
2024-10-15 11:19:02.828,65094.22,0.009,0.199,-0.98,-0.082,0.178,-0.002,0.121,0.001,0.308,0.009,-0.2,0.361
2024-10-15 11:19:02.838,65094.23,0.009,0.2,-0.98,-0.028,-0.005,-0.139,-0.359,-0.153,0.263,0.009,-0.201,0.363
2024-10-15 11:19:02.848,65094.24,0.008,0.206,-0.978,0.023,-0.324,-0.171,-0.872,0.043,0.284,0.008,-0.208,0.366
2024-10-15 11:19:02.859,65094.25,0.011,0.212,-0.977,0.077,-0.519,-0.04,-0.135,0.341,0.052,0.011,-0.213,0.368
2024-10-15 11:19:02.868,65094.26,0.013,0.21,-0.978,0.016,-0.336,0.061,0.453,0.055,-0.003,0.013,-0.212,0.368
2024-10-15 11:19:02.878,65094.27,0.013,0.206,-0.978,-0.012,-0.178,-0.148,0.297,0.051,-0.189,0.013,-0.207,0.367
2024-10-15 11:19:02.888,65094.28,0.014,0.205,-0.979,0.242,-0.384,-0.305,-0.027,0.215,-0.304,0.014,-0.206,0.365
2024-10-15 11:19:02.898,65094.29,0.015,0.205,-0.979,0.19,-0.527,-0.222,0.001,0.251,-0.323,0.016,-0.207,0.361
2024-10-15 11:19:02.908,65094.3,0.016,0.204,-0.979,0.087,-0.346,0.019,0.188,0.101,-0.301,0.017,-0.206,0.358
