Date,TimeStamp,GravityX,GravityY,GravityZ,UserAccelerationX,UserAccelerationY,UserAccelerationZ,RotationRateX,RotationRateY,RotationRateZ,AttitudeRoll,AttitudePitch,AttitudeYaw
2024-10-15 13:53:52.836,74383.932,-0.118,-0.38,-0.917,-0.02,0.002,0.002,-0.084,0.026,-0.002,-0.128,0.39,1.393
2024-10-15 13:53:52.850,74383.942,-0.118,-0.38,-0.918,0.001,-0.006,0.008,-0.075,0.032,-0.009,-0.128,0.389,1.393
2024-10-15 13:53:52.853,74383.952,-0.117,-0.379,-0.918,0.011,-0.003,0.013,-0.053,0.043,-0.01,-0.127,0.389,1.393
2024-10-15 13:53:52.855,74383.962,-0.117,-0.379,-0.918,0.002,0.002,0.012,-0.044,0.042,-0.011,-0.127,0.388,1.393
2024-10-15 13:53:52.856,74383.972,-0.117,-0.378,-0.918,0.003,0.002,0.011,-0.05,0.04,-0.013,-0.126,0.388,1.392
2024-10-15 13:53:52.858,74383.982,-0.116,-0.378,-0.919,0.009,-0.004,0.013,-0.06,0.033,-0.012,-0.126,0.387,1.392
2024-10-15 13:53:52.859,74383.992,-0.116,-0.377,-0.919,0.008,-0.012,0.015,-0.067,0.024,-0.01,-0.125,0.387,1.392
2024-10-15 13:53:52.860,74384.002,-0.116,-0.377,-0.919,0.01,-0.015,0.017,-0.067,0.017,-0.016,-0.125,0.386,1.392
2024-10-15 13:53:52.862,74384.012,-0.115,-0.376,-0.919,0.013,-0.013,0.018,-0.059,0.009,-0.018,-0.125,0.386,1.391
2024-10-15 13:53:52.863,74384.022,-0.115,-0.376,-0.92,0.013,-0.01,0.015,-0.047,0.003,-0.016,-0.125,0.385,1.391
2024-10-15 13:53:52.865,74384.032,-0.115,-0.375,-0.92,0.013,-0.007,0.014,-0.039,0.002,-0.021,-0.125,0.385,1.391
2024-10-15 13:53:52.867,74384.042,-0.115,-0.375,-0.92,0.012,-0.007,0.012,-0.032,-0.001,-0.024,-0.125,0.384,1.391
2024-10-15 13:53:52.868,74384.052,-0.115,-0.375,-0.92,0.011,-0.008,0.011,-0.036,-0.005,-0.026,-0.124,0.384,1.39
2024-10-15 13:53:52.869,74384.062,-0.115,-0.374,-0.92,0.008,-0.005,0.011,-0.043,-0.001,-0.025,-0.124,0.384,1.39
2024-10-15 13:53:52.871,74384.072,-0.115,-0.374,-0.92,0.006,-0.004,0.011,-0.053,-0.002,-0.025,-0.124,0.383,1.39
2024-10-15 13:53:52.872,74384.082,-0.115,-0.374,-0.92,0.005,-0.004,0.012,-0.063,-0.004,-0.026,-0.124,0.383,1.389
2024-10-15 13:53:52.873,74384.092,-0.115,-0.373,-0.921,0.004,-0.005,0.012,-0.081,-0.001,-0.034,-0.124,0.382,1.389
2024-10-15 13:53:52.874,74384.102,-0.114,-0.372,-0.921,0.001,-0.003,0.013,-0.084,0.008,-0.03,-0.124,0.382,1.388
2024-10-15 13:53:52.875,74384.112,-0.114,-0.372,-0.921,-0.004,0.001,0.012,-0.088,0.016,-0.032,-0.123,0.381,1.388
2024-10-15 13:53:52.876,74384.122,-0.114,-0.371,-0.922,-0.008,0.004,0.012,-0.084,0.024,-0.03,-0.123,0.38,1.388
2024-10-15 13:53:52.877,74384.132,-0.113,-0.37,-0.922,-0.007,0.005,0.011,-0.088,0.027,-0.029,-0.122,0.379,1.387
2024-10-15 13:53:52.879,74384.141,-0.113,-0.369,-0.922,-0.003,0.004,0.012,-0.096,0.026,-0.028,-0.122,0.378,1.387
2024-10-15 13:53:52.880,74384.151,-0.113,-0.369,-0.923,0.002,0.003,0.014,-0.105,0.027,-0.027,-0.122,0.377,1.386
2024-10-15 13:53:52.882,74384.161,-0.112,-0.368,-0.923,0.004,0.002,0.014,-0.111,0.023,-0.026,-0.121,0.376,1.386
2024-10-15 13:53:52.884,74384.171,-0.112,-0.367,-0.924,0.005,0.003,0.015,-0.115,0.018,-0.028,-0.121,0.375,1.385
2024-10-15 13:53:52.885,74384.181,-0.112,-0.366,-0.924,0.005,0.002,0.017,-0.117,0.014,-0.029,-0.12,0.374,1.385
2024-10-15 13:53:52.886,74384.191,-0.112,-0.365,-0.924,0.004,0.001,0.017,-0.116,0.014,-0.031,-0.12,0.373,1.384
2024-10-15 13:53:52.888,74384.201,-0.111,-0.364,-0.925,0.0,0.002,0.016,-0.107,0.021,-0.03,-0.12,0.372,1.384
2024-10-15 13:53:52.889,74384.211,-0.111,-0.363,-0.925,-0.001,0.004,0.015,-0.102,0.021,-0.03,-0.12,0.371,1.384
2024-10-15 13:53:52.890,74384.221,-0.111,-0.362,-0.926,0.002,0.003,0.015,-0.096,0.013,-0.034,-0.119,0.37,1.383
2024-10-15 13:53:52.892,74384.231,-0.111,-0.361,-0.926,0.006,0.002,0.015,-0.1,0.004,-0.032,-0.119,0.369,1.383
2024-10-15 13:53:52.893,74384.241,-0.111,-0.36,-0.926,0.01,0.002,0.014,-0.098,-0.001,-0.027,-0.119,0.368,1.382
2024-10-15 13:53:52.894,74384.251,-0.111,-0.359,-0.927,0.009,0.003,0.014,-0.095,-0.005,-0.022,-0.119,0.367,1.382
2024-10-15 13:53:52.895,74384.261,-0.111,-0.358,-0.927,0.007,0.001,0.013,-0.1,-0.014,-0.02,-0.119,0.367,1.381
2024-10-15 13:53:52.897,74384.271,-0.111,-0.357,-0.927,0.006,-0.001,0.012,-0.112,-0.013,-0.013,-0.119,0.366,1.381
2024-10-15 13:53:52.898,74384.281,-0.111,-0.356,-0.928,0.003,-0.002,0.013,-0.115,-0.02,-0.008,-0.119,0.364,1.381
2024-10-15 13:53:52.900,74384.291,-0.111,-0.355,-0.928,-0.0,-0.004,0.014,-0.116,-0.014,-0.015,-0.119,0.363,1.381
2024-10-15 13:53:52.901,74384.301,-0.111,-0.354,-0.929,-0.001,-0.005,0.013,-0.118,-0.01,-0.02,-0.119,0.362,1.38
2024-10-15 13:53:52.902,74384.311,-0.111,-0.353,-0.929,-0.004,-0.007,0.015,-0.124,-0.006,-0.023,-0.119,0.361,1.38
2024-10-15 13:53:52.903,74384.321,-0.111,-0.352,-0.929,-0.007,-0.011,0.016,-0.135,-0.004,-0.031,-0.119,0.36,1.379
2024-10-15 13:53:52.905,74384.331,-0.111,-0.351,-0.93,-0.009,-0.017,0.016,-0.146,-0.007,-0.047,-0.119,0.359,1.379
2024-10-15 13:53:52.906,74384.341,-0.111,-0.35,-0.93,-0.008,-0.02,0.02,-0.161,-0.007,-0.058,-0.118,0.357,1.378
2024-10-15 13:53:52.907,74384.351,-0.11,-0.348,-0.931,-0.01,-0.028,0.022,-0.186,-0.004,-0.082,-0.118,0.356,1.377
2024-10-15 13:53:52.909,74384.361,-0.11,-0.346,-0.932,-0.015,-0.041,0.018,-0.223,0.012,-0.112,-0.117,0.354,1.376
2024-10-15 13:53:52.917,74384.371,-0.109,-0.344,-0.932,-0.027,-0.06,0.011,-0.256,0.031,-0.149,-0.117,0.351,1.374
2024-10-15 13:53:52.927,74384.381,-0.108,-0.342,-0.933,-0.04,-0.076,0.009,-0.283,0.053,-0.197,-0.116,0.349,1.372
2024-10-15 13:53:52.937,74384.391,-0.107,-0.339,-0.935,-0.048,-0.085,0.008,-0.312,0.081,-0.245,-0.114,0.346,1.369
2024-10-15 13:53:52.947,74384.401,-0.105,-0.337,-0.936,-0.054,-0.092,0.012,-0.329,0.113,-0.295,-0.112,0.344,1.366
2024-10-15 13:53:52.957,74384.411,-0.103,-0.334,-0.937,-0.059,-0.095,0.019,-0.35,0.149,-0.346,-0.109,0.341,1.362
2024-10-15 13:53:52.967,74384.421,-0.1,-0.331,-0.938,-0.065,-0.096,0.028,-0.392,0.177,-0.392,-0.106,0.337,1.358
2024-10-15 13:53:52.978,74384.431,-0.097,-0.327,-0.94,-0.072,-0.093,0.038,-0.451,0.215,-0.44,-0.103,0.334,1.353
2024-10-15 13:53:52.987,74384.441,-0.093,-0.323,-0.942,-0.08,-0.097,0.051,-0.541,0.249,-0.496,-0.099,0.329,1.348
2024-10-15 13:53:52.997,74384.451,-0.089,-0.318,-0.944,-0.092,-0.112,0.063,-0.647,0.271,-0.538,-0.094,0.324,1.342
2024-10-15 13:53:53.007,74384.461,-0.085,-0.312,-0.946,-0.102,-0.117,0.081,-0.785,0.303,-0.575,-0.089,0.317,1.335
2024-10-15 13:53:53.018,74384.471,-0.08,-0.304,-0.949,-0.11,-0.128,0.103,-0.902,0.292,-0.6,-0.084,0.309,1.328
2024-10-15 13:53:53.027,74384.481,-0.076,-0.296,-0.952,-0.112,-0.142,0.124,-1.032,0.3,-0.624,-0.079,0.3,1.321
2024-10-15 13:53:53.037,74384.491,-0.071,-0.286,-0.956,-0.106,-0.138,0.129,-1.115,0.291,-0.648,-0.074,0.29,1.314
2024-10-15 13:53:53.047,74384.501,-0.066,-0.275,-0.959,-0.105,-0.121,0.143,-1.172,0.273,-0.703,-0.069,0.279,1.306
2024-10-15 13:53:53.057,74384.511,-0.062,-0.264,-0.962,-0.101,-0.116,0.148,-1.245,0.262,-0.751,-0.064,0.268,1.297
2024-10-15 13:53:53.068,74384.521,-0.057,-0.252,-0.966,-0.106,-0.122,0.15,-1.357,0.306,-0.788,-0.059,0.255,1.289
2024-10-15 13:53:53.078,74384.531,-0.052,-0.239,-0.97,-0.13,-0.131,0.146,-1.491,0.313,-0.817,-0.054,0.241,1.28
2024-10-15 13:53:53.088,74384.541,-0.047,-0.224,-0.973,-0.157,-0.119,0.156,-1.639,0.302,-0.883,-0.048,0.226,1.27
2024-10-15 13:53:53.097,74384.551,-0.042,-0.208,-0.977,-0.151,-0.118,0.169,-1.777,0.286,-0.97,-0.043,0.21,1.259
2024-10-15 13:53:53.107,74384.561,-0.037,-0.19,-0.981,-0.133,-0.146,0.172,-2.042,0.392,-1.027,-0.038,0.191,1.248
2024-10-15 13:53:53.117,74384.571,-0.031,-0.169,-0.985,-0.133,-0.173,0.183,-2.367,0.447,-1.024,-0.031,0.169,1.237
2024-10-15 13:53:53.127,74384.581,-0.025,-0.144,-0.989,-0.158,-0.201,0.213,-2.735,0.452,-1.046,-0.025,0.144,1.226
2024-10-15 13:53:53.137,74384.591,-0.019,-0.115,-0.993,-0.17,-0.217,0.225,-3.184,0.46,-1.067,-0.019,0.115,1.214
2024-10-15 13:53:53.147,74384.601,-0.014,-0.081,-0.997,-0.15,-0.202,0.222,-3.592,0.429,-1.095,-0.014,0.081,1.203
2024-10-15 13:53:53.157,74384.611,-0.009,-0.044,-0.999,-0.147,-0.208,0.201,-3.892,0.39,-1.156,-0.009,0.044,1.191
2024-10-15 13:53:53.168,74384.621,-0.005,-0.004,-1.0,-0.151,-0.218,0.16,-4.147,0.426,-1.184,-0.005,0.004,1.179
2024-10-15 13:53:53.178,74384.631,-0.0,0.039,-0.999,-0.158,-0.183,0.15,-4.374,0.514,-1.199,-0.0,-0.039,1.167
2024-10-15 13:53:53.188,74384.641,0.005,0.083,-0.997,-0.168,-0.132,0.149,-4.483,0.602,-1.231,0.005,-0.083,1.155
2024-10-15 13:53:53.198,74384.651,0.01,0.128,-0.992,-0.186,-0.121,0.127,-4.533,0.786,-1.236,0.01,-0.128,1.143
2024-10-15 13:53:53.207,74384.661,0.017,0.173,-0.985,-0.198,-0.102,0.121,-4.655,0.975,-1.223,0.017,-0.174,1.131
2024-10-15 13:53:53.217,74384.671,0.025,0.22,-0.975,-0.212,-0.064,0.145,-4.946,1.163,-1.156,0.026,-0.222,1.12
2024-10-15 13:53:53.228,74384.681,0.034,0.27,-0.962,-0.224,-0.041,0.193,-5.289,1.273,-1.101,0.036,-0.273,1.11
2024-10-15 13:53:53.237,74384.691,0.044,0.322,-0.946,-0.216,-0.027,0.234,-5.618,1.324,-1.023,0.046,-0.328,1.102
2024-10-15 13:53:53.248,74384.701,0.052,0.376,-0.925,-0.185,-0.008,0.261,-5.801,1.265,-0.944,0.057,-0.386,1.094
2024-10-15 13:53:53.257,74384.711,0.06,0.43,-0.901,-0.137,0.033,0.247,-5.909,1.271,-0.881,0.067,-0.445,1.088
2024-10-15 13:53:53.268,74384.721,0.068,0.484,-0.873,-0.076,0.055,0.174,-6.031,1.329,-0.811,0.078,-0.505,1.084
2024-10-15 13:53:53.277,74384.731,0.075,0.536,-0.841,-0.036,0.059,0.114,-6.096,1.34,-0.779,0.089,-0.566,1.08
2024-10-15 13:53:53.287,74384.74,0.082,0.587,-0.806,-0.008,0.057,0.074,-6.081,1.355,-0.777,0.101,-0.627,1.078
2024-10-15 13:53:53.297,74384.75,0.088,0.635,-0.767,0.031,0.071,0.029,-6.049,1.415,-0.772,0.114,-0.688,1.076
2024-10-15 13:53:53.307,74384.76,0.094,0.681,-0.727,0.061,0.099,0.008,-5.978,1.448,-0.757,0.128,-0.749,1.076
2024-10-15 13:53:53.317,74384.77,0.098,0.723,-0.684,0.073,0.114,0.006,-5.775,1.387,-0.762,0.143,-0.808,1.077
2024-10-15 13:53:53.327,74384.78,0.102,0.761,-0.641,0.094,0.113,-0.016,-5.53,1.318,-0.742,0.158,-0.865,1.078
2024-10-15 13:53:53.338,74384.79,0.104,0.795,-0.598,0.143,0.122,-0.036,-5.096,1.202,-0.729,0.172,-0.919,1.081
2024-10-15 13:53:53.347,74384.8,0.105,0.823,-0.558,0.178,0.133,-0.052,-4.509,1.079,-0.743,0.185,-0.967,1.083
2024-10-15 13:53:53.357,74384.81,0.104,0.846,-0.522,0.192,0.14,-0.088,-3.749,0.992,-0.749,0.196,-1.009,1.084
2024-10-15 13:53:53.367,74384.82,0.102,0.864,-0.493,0.195,0.192,-0.114,-2.859,0.926,-0.754,0.205,-1.043,1.082
2024-10-15 13:53:53.377,74384.83,0.1,0.876,-0.471,0.177,0.262,-0.135,-1.922,0.888,-0.757,0.209,-1.068,1.077
2024-10-15 13:53:53.387,74384.84,0.098,0.884,-0.457,0.149,0.313,-0.135,-1.075,0.852,-0.723,0.21,-1.084,1.068
2024-10-15 13:53:53.397,74384.85,0.095,0.888,-0.45,0.127,0.331,-0.101,-0.371,0.785,-0.707,0.208,-1.092,1.057
2024-10-15 13:53:53.407,74384.86,0.092,0.889,-0.448,0.114,0.307,-0.059,0.02,0.728,-0.641,0.203,-1.095,1.043
2024-10-15 13:53:53.417,74384.87,0.09,0.889,-0.449,0.129,0.257,-0.004,0.321,0.679,-0.54,0.199,-1.095,1.03
2024-10-15 13:53:53.427,74384.88,0.089,0.888,-0.451,0.129,0.203,0.056,0.103,0.55,-0.382,0.195,-1.093,1.018
2024-10-15 13:53:53.437,74384.89,0.089,0.888,-0.452,0.118,0.262,0.036,0.196,0.351,-0.177,0.194,-1.093,1.012
2024-10-15 13:53:53.447,74384.9,0.089,0.887,-0.454,0.13,0.532,0.069,0.364,0.25,0.064,0.195,-1.09,1.01
2024-10-15 13:53:53.458,74384.91,0.091,0.885,-0.457,0.137,0.334,0.033,0.433,0.154,0.024,0.196,-1.086,1.009
2024-10-15 13:53:53.467,74384.92,0.091,0.883,-0.461,0.115,0.142,-0.048,0.465,0.158,-0.066,0.196,-1.082,1.007
2024-10-15 13:53:53.477,74384.93,0.091,0.88,-0.465,0.15,0.163,-0.055,0.585,0.186,-0.181,0.193,-1.077,1.002
2024-10-15 13:53:53.487,74384.94,0.09,0.878,-0.471,0.136,0.154,-0.061,0.743,0.153,-0.32,0.188,-1.071,0.994
2024-10-15 13:53:53.497,74384.95,0.087,0.874,-0.478,0.119,0.082,-0.062,0.847,0.145,-0.418,0.18,-1.064,0.984
2024-10-15 13:53:53.507,74384.96,0.084,0.87,-0.485,0.13,0.019,-0.055,0.883,0.158,-0.49,0.171,-1.056,0.971
2024-10-15 13:53:53.517,74384.97,0.08,0.866,-0.493,0.119,-0.012,-0.027,0.888,0.128,-0.508,0.161,-1.048,0.958
2024-10-15 13:53:53.527,74384.98,0.077,0.862,-0.5,0.102,-0.067,0.007,0.845,0.109,-0.475,0.152,-1.04,0.946
2024-10-15 13:53:53.537,74384.99,0.073,0.859,-0.507,0.098,-0.122,0.022,0.838,0.072,-0.506,0.143,-1.033,0.934
2024-10-15 13:53:53.547,74385.0,0.069,0.855,-0.515,0.095,-0.135,0.032,0.897,0.035,-0.525,0.133,-1.025,0.922
2024-10-15 13:53:53.557,74385.01,0.064,0.85,-0.523,0.098,-0.121,0.037,0.989,0.032,-0.505,0.123,-1.016,0.91
2024-10-15 13:53:53.567,74385.02,0.061,0.845,-0.531,0.101,-0.092,0.032,1.083,0.061,-0.475,0.113,-1.006,0.898
2024-10-15 13:53:53.577,74385.03,0.057,0.839,-0.541,0.078,-0.041,0.044,1.23,0.097,-0.461,0.105,-0.995,0.888
2024-10-15 13:53:53.588,74385.04,0.054,0.832,-0.552,0.042,0.037,0.072,1.341,0.166,-0.443,0.098,-0.983,0.877
2024-10-15 13:53:53.597,74385.05,0.051,0.825,-0.563,0.009,0.08,0.1,1.367,0.193,-0.412,0.091,-0.97,0.867
2024-10-15 13:53:53.607,74385.06,0.049,0.818,-0.574,-0.017,0.095,0.132,1.236,0.193,-0.378,0.086,-0.957,0.858
2024-10-15 13:53:53.617,74385.07,0.047,0.811,-0.583,-0.023,0.077,0.161,1.026,0.159,-0.375,0.081,-0.946,0.85
2024-10-15 13:53:53.627,74385.08,0.045,0.806,-0.59,-0.013,0.051,0.166,0.683,0.134,-0.339,0.077,-0.938,0.843
2024-10-15 13:53:53.637,74385.09,0.043,0.804,-0.594,0.005,0.024,0.157,0.324,0.037,-0.272,0.073,-0.933,0.837
2024-10-15 13:53:53.647,74385.1,0.041,0.803,-0.595,0.018,0.028,0.144,0.074,-0.095,-0.188,0.069,-0.932,0.833
2024-10-15 13:53:53.657,74385.11,0.039,0.802,-0.595,0.014,0.059,0.136,-0.015,-0.16,-0.082,0.066,-0.931,0.831
2024-10-15 13:53:53.667,74385.12,0.038,0.803,-0.595,-0.023,0.092,0.113,-0.089,-0.191,0.073,0.064,-0.932,0.831
2024-10-15 13:53:53.677,74385.13,0.038,0.803,-0.595,-0.072,0.159,0.09,0.127,-0.251,0.191,0.064,-0.932,0.833
2024-10-15 13:53:53.687,74385.14,0.038,0.801,-0.597,-0.089,0.253,0.097,0.446,-0.252,0.276,0.064,-0.929,0.836
2024-10-15 13:53:53.696,74385.15,0.039,0.797,-0.602,-0.085,0.291,0.073,0.749,-0.238,0.316,0.065,-0.923,0.841
2024-10-15 13:53:53.706,74385.16,0.04,0.792,-0.609,-0.088,0.297,0.08,0.903,-0.268,0.332,0.066,-0.914,0.845
2024-10-15 13:53:53.717,74385.17,0.041,0.786,-0.617,-0.098,0.201,0.082,0.939,-0.325,0.35,0.067,-0.905,0.85
2024-10-15 13:53:53.727,74385.18,0.042,0.781,-0.624,-0.077,0.071,0.067,0.817,-0.38,0.371,0.067,-0.896,0.855
2024-10-15 13:53:53.737,74385.19,0.042,0.776,-0.63,-0.047,0.004,0.061,0.667,-0.45,0.386,0.067,-0.888,0.86
2024-10-15 13:53:53.747,74385.2,0.042,0.772,-0.634,-0.037,0.005,0.054,0.507,-0.523,0.431,0.067,-0.882,0.866
2024-10-15 13:53:53.757,74385.21,0.042,0.769,-0.638,-0.036,0.009,0.063,0.364,-0.593,0.442,0.066,-0.877,0.872
2024-10-15 13:53:53.767,74385.22,0.041,0.767,-0.641,-0.027,0.019,0.099,0.28,-0.669,0.423,0.065,-0.874,0.878
2024-10-15 13:53:53.777,74385.23,0.04,0.765,-0.643,-0.016,0.015,0.128,0.327,-0.749,0.373,0.062,-0.871,0.884
2024-10-15 13:53:53.787,74385.24,0.038,0.762,-0.646,0.009,-0.001,0.137,0.474,-0.783,0.31,0.058,-0.866,0.889
2024-10-15 13:53:53.797,74385.25,0.035,0.758,-0.651,0.041,-0.0,0.144,0.62,-0.79,0.272,0.053,-0.861,0.893
2024-10-15 13:53:53.807,74385.26,0.031,0.754,-0.657,0.039,0.014,0.133,0.833,-0.816,0.261,0.048,-0.854,0.897
2024-10-15 13:53:53.816,74385.27,0.028,0.747,-0.664,0.017,0.024,0.1,1.069,-0.811,0.256,0.042,-0.844,0.9
2024-10-15 13:53:53.827,74385.28,0.025,0.74,-0.673,-0.01,0.038,0.036,1.218,-0.727,0.295,0.037,-0.832,0.903
2024-10-15 13:53:53.836,74385.29,0.023,0.731,-0.682,-0.044,0.117,-0.013,1.244,-0.664,0.322,0.033,-0.82,0.907
2024-10-15 13:53:53.847,74385.3,0.021,0.723,-0.691,-0.085,0.149,-0.03,1.167,-0.585,0.318,0.03,-0.808,0.911
2024-10-15 13:53:53.856,74385.31,0.019,0.715,-0.699,-0.098,0.101,-0.022,1.056,-0.538,0.302,0.027,-0.796,0.915
2024-10-15 13:53:53.866,74385.32,0.017,0.708,-0.706,-0.055,0.022,-0.028,0.931,-0.515,0.272,0.024,-0.787,0.919
2024-10-15 13:53:53.876,74385.329,0.015,0.701,-0.713,0.009,-0.049,-0.032,0.918,-0.507,0.216,0.022,-0.777,0.922
2024-10-15 13:53:53.886,74385.339,0.013,0.695,-0.719,0.045,-0.093,-0.018,0.992,-0.489,0.17,0.018,-0.768,0.925
2024-10-15 13:53:53.896,74385.349,0.011,0.687,-0.727,0.059,-0.098,-0.007,1.085,-0.42,0.125,0.015,-0.757,0.927
2024-10-15 13:53:53.906,74385.359,0.009,0.679,-0.734,0.066,-0.055,0.013,1.199,-0.346,0.065,0.012,-0.746,0.928
2024-10-15 13:53:53.916,74385.369,0.007,0.67,-0.743,0.051,-0.037,0.053,1.286,-0.303,0.003,0.009,-0.734,0.928
2024-10-15 13:53:53.927,74385.379,0.004,0.66,-0.752,0.025,-0.043,0.073,1.373,-0.266,-0.06,0.006,-0.72,0.927
2024-10-15 13:53:53.937,74385.389,0.002,0.649,-0.761,0.023,-0.039,0.066,1.416,-0.219,-0.112,0.002,-0.706,0.926
2024-10-15 13:53:53.946,74385.399,-0.0,0.638,-0.77,0.018,-0.045,0.032,1.433,-0.157,-0.142,-0.0,-0.692,0.924
2024-10-15 13:53:53.956,74385.409,-0.002,0.628,-0.779,0.005,-0.046,0.008,1.31,-0.084,-0.14,-0.003,-0.678,0.923
2024-10-15 13:53:53.967,74385.419,-0.003,0.618,-0.786,-0.009,-0.062,0.013,1.112,-0.054,-0.105,-0.004,-0.666,0.921
2024-10-15 13:53:53.976,74385.429,-0.005,0.61,-0.792,-0.01,-0.073,0.039,0.893,-0.045,-0.096,-0.006,-0.656,0.92
2024-10-15 13:53:53.985,74385.439,-0.005,0.604,-0.797,0.013,-0.084,0.066,0.695,-0.011,-0.106,-0.007,-0.648,0.919
2024-10-15 13:53:53.996,74385.449,-0.006,0.599,-0.801,0.035,-0.091,0.081,0.482,0.052,-0.082,-0.007,-0.642,0.918
2024-10-15 13:53:54.006,74385.459,-0.006,0.596,-0.803,0.027,-0.11,0.094,0.22,0.061,-0.044,-0.007,-0.639,0.917
2024-10-15 13:53:54.016,74385.469,-0.006,0.595,-0.803,0.018,-0.112,0.099,0.04,0.004,-0.018,-0.007,-0.638,0.916
2024-10-15 13:53:54.027,74385.479,-0.006,0.595,-0.803,0.017,-0.092,0.097,-0.056,0.003,-0.018,-0.007,-0.638,0.916
2024-10-15 13:53:54.036,74385.489,-0.005,0.596,-0.803,0.017,-0.046,0.077,-0.089,0.063,-0.009,-0.007,-0.639,0.916
2024-10-15 13:53:54.046,74385.499,-0.005,0.597,-0.802,-0.021,0.036,0.036,-0.103,0.099,-0.01,-0.006,-0.64,0.916
2024-10-15 13:53:54.056,74385.509,-0.004,0.598,-0.802,-0.064,0.084,0.005,-0.087,0.083,-0.021,-0.005,-0.641,0.916
2024-10-15 13:53:54.066,74385.519,-0.003,0.595,-0.804,-0.073,0.074,0.002,0.638,0.255,-0.014,-0.004,-0.638,0.916
2024-10-15 13:53:54.076,74385.529,-0.0,0.589,-0.808,-0.051,0.071,-0.015,0.958,0.474,-0.064,-0.001,-0.63,0.915
2024-10-15 13:53:54.086,74385.539,0.004,0.58,-0.815,-0.009,0.169,-0.17,1.314,0.675,0.106,0.005,-0.618,0.915
2024-10-15 13:53:54.096,74385.549,0.011,0.569,-0.822,-0.039,0.276,-0.17,1.299,0.719,0.311,0.014,-0.605,0.918
2024-10-15 13:53:54.107,74385.559,0.019,0.558,-0.829,-0.091,0.206,-0.12,1.195,0.64,0.409,0.023,-0.592,0.922
2024-10-15 13:53:54.116,74385.569,0.022,0.557,-0.83,-0.034,0.08,-0.016,-0.488,-0.128,-0.129,0.026,-0.59,0.923
2024-10-15 13:53:54.126,74385.579,0.02,0.561,-0.828,0.034,-0.044,0.088,-0.554,-0.176,0.097,0.024,-0.595,0.923
2024-10-15 13:53:54.136,74385.589,0.02,0.565,-0.825,0.014,-0.331,0.22,-0.351,-0.001,0.181,0.025,-0.6,0.925
2024-10-15 13:53:54.146,74385.599,0.022,0.566,-0.824,0.083,-0.105,0.036,0.039,0.185,0.153,0.027,-0.602,0.927
2024-10-15 13:53:54.156,74385.609,0.024,0.565,-0.825,0.01,0.215,-0.049,0.241,0.127,0.157,0.03,-0.6,0.929
2024-10-15 13:53:54.166,74385.619,0.026,0.562,-0.826,-0.059,0.073,-0.114,0.322,0.011,0.066,0.031,-0.597,0.93
2024-10-15 13:53:54.176,74385.629,0.026,0.559,-0.829,-0.002,0.028,-0.067,0.487,0.02,-0.01,0.031,-0.593,0.93
2024-10-15 13:53:54.186,74385.639,0.026,0.555,-0.832,0.024,0.06,-0.01,0.509,0.042,-0.06,0.031,-0.588,0.93
2024-10-15 13:53:54.196,74385.649,0.026,0.551,-0.834,0.015,0.077,0.001,0.406,0.046,-0.081,0.031,-0.583,0.929
2024-10-15 13:53:54.206,74385.659,0.026,0.548,-0.836,0.003,0.009,-0.005,0.36,0.037,-0.126,0.031,-0.58,0.928
2024-10-15 13:53:54.216,74385.669,0.025,0.544,-0.839,0.003,-0.1,-0.019,0.579,0.074,-0.156,0.03,-0.575,0.926
2024-10-15 13:53:54.227,74385.679,0.025,0.541,-0.841,0.012,-0.143,-0.045,0.235,-0.05,-0.13,0.03,-0.571,0.924
2024-10-15 13:53:54.236,74385.689,0.023,0.54,-0.842,0.037,-0.13,-0.069,0.017,-0.186,-0.13,0.027,-0.57,0.922
2024-10-15 13:53:54.246,74385.699,0.021,0.54,-0.841,0.062,-0.193,-0.003,-0.198,-0.222,-0.123,0.025,-0.571,0.921
2024-10-15 13:53:54.256,74385.709,0.018,0.543,-0.84,0.038,-0.177,-0.022,-0.327,-0.24,-0.094,0.022,-0.574,0.919
2024-10-15 13:53:54.266,74385.719,0.016,0.546,-0.838,-0.0,-0.011,-0.056,-0.363,-0.276,-0.063,0.019,-0.577,0.919
2024-10-15 13:53:54.276,74385.729,0.013,0.548,-0.836,-0.009,0.013,-0.046,-0.294,-0.301,-0.053,0.015,-0.581,0.918
2024-10-15 13:53:54.286,74385.739,0.01,0.55,-0.835,0.011,-0.0,0.004,-0.136,-0.309,-0.056,0.012,-0.583,0.917
2024-10-15 13:53:54.296,74385.749,0.007,0.551,-0.835,0.022,0.022,0.043,0.059,-0.31,-0.071,0.009,-0.583,0.917
2024-10-15 13:53:54.306,74385.759,0.004,0.55,-0.835,0.007,0.062,0.039,0.186,-0.288,-0.073,0.005,-0.582,0.916
2024-10-15 13:53:54.316,74385.769,0.002,0.548,-0.837,-0.004,0.107,0.019,0.319,-0.234,-0.058,0.002,-0.579,0.915
2024-10-15 13:53:54.326,74385.779,-0.0,0.546,-0.838,-0.001,0.096,0.024,0.059,-0.138,-0.026,-0.0,-0.577,0.914
2024-10-15 13:53:54.336,74385.789,-0.001,0.546,-0.838,-0.012,0.019,0.012,-0.101,-0.134,0.025,-0.001,-0.578,0.914
2024-10-15 13:53:54.346,74385.799,-0.002,0.547,-0.837,-0.05,-0.023,-0.049,-0.145,-0.208,0.035,-0.003,-0.579,0.915
2024-10-15 13:53:54.356,74385.809,-0.004,0.548,-0.836,-0.009,-0.126,-0.002,-0.111,-0.174,-0.004,-0.005,-0.58,0.915
2024-10-15 13:53:54.366,74385.819,-0.005,0.549,-0.836,0.04,-0.068,0.035,-0.025,-0.127,0.004,-0.006,-0.581,0.915
2024-10-15 13:53:54.376,74385.829,-0.006,0.549,-0.836,0.009,0.065,0.02,0.04,-0.08,0.034,-0.007,-0.581,0.915
2024-10-15 13:53:54.386,74385.839,-0.006,0.548,-0.836,-0.014,0.124,0.007,0.117,-0.052,0.085,-0.008,-0.58,0.916
2024-10-15 13:53:54.396,74385.849,-0.006,0.547,-0.837,-0.006,0.088,0.01,0.221,-0.03,0.16,-0.007,-0.579,0.917
2024-10-15 13:53:54.405,74385.859,-0.005,0.545,-0.839,-0.015,0.045,0.01,0.268,0.005,0.162,-0.006,-0.576,0.919
2024-10-15 13:53:54.415,74385.869,-0.004,0.543,-0.84,-0.02,0.057,0.026,0.236,0.01,0.079,-0.005,-0.573,0.921
2024-10-15 13:53:54.426,74385.879,-0.004,0.541,-0.841,-0.014,0.006,0.049,0.091,-0.055,0.037,-0.005,-0.572,0.922
2024-10-15 13:53:54.435,74385.889,-0.005,0.541,-0.841,0.001,-0.109,0.041,-0.152,-0.13,-0.007,-0.006,-0.572,0.922
2024-10-15 13:53:54.445,74385.899,-0.006,0.544,-0.839,0.021,-0.186,-0.006,-0.391,-0.202,-0.029,-0.008,-0.575,0.921
2024-10-15 13:53:54.455,74385.909,-0.008,0.547,-0.837,0.027,-0.149,-0.045,-0.515,-0.214,-0.078,-0.01,-0.579,0.921
2024-10-15 13:53:54.465,74385.918,-0.011,0.552,-0.834,0.02,-0.083,-0.033,-0.586,-0.223,-0.119,-0.013,-0.585,0.92
2024-10-15 13:53:54.475,74385.928,-0.013,0.557,-0.831,0.019,-0.068,-0.013,-0.542,-0.194,-0.13,-0.016,-0.591,0.918
2024-10-15 13:53:54.486,74385.938,-0.015,0.561,-0.828,0.018,-0.043,0.016,-0.447,-0.091,-0.159,-0.019,-0.595,0.916
2024-10-15 13:53:54.495,74385.948,-0.017,0.564,-0.826,0.005,-0.002,0.037,-0.305,-0.04,-0.127,-0.02,-0.599,0.914
2024-10-15 13:53:54.505,74385.958,-0.017,0.566,-0.824,-0.028,0.071,0.028,-0.155,0.059,-0.089,-0.021,-0.602,0.913
2024-10-15 13:53:54.515,74385.968,-0.017,0.566,-0.824,-0.034,0.097,0.007,0.055,0.169,-0.051,-0.02,-0.602,0.912
2024-10-15 13:53:54.525,74385.978,-0.015,0.565,-0.825,-0.052,0.112,0.007,0.283,0.247,0.006,-0.018,-0.6,0.912
2024-10-15 13:53:54.535,74385.988,-0.013,0.562,-0.827,-0.061,0.107,0.037,0.501,0.228,0.004,-0.016,-0.596,0.912
2024-10-15 13:53:54.546,74385.998,-0.011,0.557,-0.831,-0.041,0.135,0.047,0.675,0.177,-0.002,-0.014,-0.591,0.912
2024-10-15 13:53:54.555,74386.008,-0.01,0.55,-0.835,-0.007,0.126,0.021,0.894,0.181,0.004,-0.012,-0.583,0.912
2024-10-15 13:53:54.565,74386.018,-0.008,0.542,-0.84,0.007,0.13,0.024,1.043,0.255,0.027,-0.009,-0.573,0.912
2024-10-15 13:53:54.575,74386.028,-0.005,0.533,-0.846,-0.006,0.154,0.051,1.19,0.292,0.097,-0.006,-0.562,0.913
2024-10-15 13:53:54.585,74386.038,-0.002,0.522,-0.853,-0.008,0.139,0.065,1.272,0.237,0.113,-0.003,-0.549,0.915
2024-10-15 13:53:54.595,74386.048,-0.0,0.512,-0.859,0.001,0.092,0.052,1.133,0.19,0.074,-0.0,-0.537,0.916
2024-10-15 13:53:54.605,74386.058,0.001,0.504,-0.864,0.014,0.061,0.036,0.775,0.08,0.116,0.002,-0.528,0.917
2024-10-15 13:53:54.615,74386.068,0.002,0.499,-0.867,0.02,-0.072,-0.002,0.336,-0.107,0.132,0.002,-0.522,0.918
2024-10-15 13:53:54.625,74386.078,0.001,0.498,-0.867,0.022,-0.194,-0.051,-0.082,-0.304,0.079,0.001,-0.521,0.919
2024-10-15 13:53:54.635,74386.088,-0.002,0.5,-0.866,0.008,-0.257,-0.088,-0.382,-0.529,0.054,-0.003,-0.523,0.92
2024-10-15 13:53:54.645,74386.098,-0.008,0.504,-0.864,0.042,-0.254,-0.066,-0.602,-0.709,-0.009,-0.009,-0.528,0.921
2024-10-15 13:53:54.655,74386.108,-0.014,0.51,-0.86,0.088,-0.166,-0.027,-0.668,-0.784,-0.04,-0.017,-0.535,0.92
2024-10-15 13:53:54.665,74386.118,-0.021,0.515,-0.857,0.086,-0.129,-0.007,-0.627,-0.736,-0.06,-0.025,-0.541,0.919
2024-10-15 13:53:54.675,74386.128,-0.027,0.519,-0.854,0.07,-0.052,0.008,-0.032,-0.414,-0.053,-0.031,-0.546,0.918
2024-10-15 13:53:54.685,74386.138,-0.027,0.517,-0.856,0.038,0.079,0.035,0.25,0.178,0.021,-0.031,-0.543,0.919
2024-10-15 13:53:54.695,74386.148,-0.026,0.515,-0.857,-0.015,0.136,-0.006,0.188,-0.039,-0.073,-0.03,-0.541,0.919
2024-10-15 13:53:54.705,74386.158,-0.029,0.515,-0.857,-0.098,0.128,0.01,-0.106,-0.403,-0.131,-0.033,-0.541,0.917
2024-10-15 13:53:54.715,74386.168,-0.032,0.515,-0.857,-0.006,-0.124,0.09,0.025,-0.202,-0.137,-0.038,-0.541,0.916
2024-10-15 13:53:54.725,74386.178,-0.033,0.514,-0.857,0.053,0.013,0.097,0.343,0.05,-0.04,-0.039,-0.539,0.915
2024-10-15 13:53:54.735,74386.188,-0.032,0.509,-0.86,-0.104,0.166,0.032,0.634,0.127,-0.006,-0.038,-0.534,0.915
2024-10-15 13:53:54.745,74386.198,-0.031,0.503,-0.863,-0.131,0.214,0.026,0.706,0.17,-0.049,-0.036,-0.528,0.915
2024-10-15 13:53:54.754,74386.208,-0.03,0.497,-0.867,-0.02,0.207,0.035,0.754,0.186,-0.016,-0.035,-0.52,0.915
2024-10-15 13:53:54.764,74386.218,-0.028,0.491,-0.871,-0.01,0.082,0.014,0.798,0.152,0.022,-0.033,-0.513,0.915
2024-10-15 13:53:54.774,74386.228,-0.027,0.483,-0.875,-0.029,0.018,0.004,0.884,0.158,0.022,-0.031,-0.504,0.916
2024-10-15 13:53:54.784,74386.238,-0.025,0.475,-0.879,0.005,0.086,0.024,0.917,0.204,-0.059,-0.029,-0.495,0.916
2024-10-15 13:53:54.794,74386.248,-0.024,0.468,-0.884,0.009,0.095,0.032,0.817,0.177,-0.093,-0.027,-0.487,0.915
2024-10-15 13:53:54.805,74386.258,-0.023,0.462,-0.887,-0.012,0.025,0.024,0.455,0.183,-0.078,-0.026,-0.48,0.914
2024-10-15 13:53:54.815,74386.268,-0.026,0.463,-0.886,0.016,-0.085,0.015,-0.342,-0.367,-0.182,-0.029,-0.481,0.912
2024-10-15 13:53:54.825,74386.278,-0.029,0.467,-0.884,-0.004,-0.172,0.045,-0.516,-0.345,0.06,-0.033,-0.486,0.911
2024-10-15 13:53:54.835,74386.288,-0.031,0.47,-0.882,0.018,-0.237,0.029,-0.198,-0.18,0.052,-0.035,-0.489,0.912
2024-10-15 13:53:54.845,74386.298,-0.032,0.471,-0.882,0.059,0.074,-0.065,-0.037,-0.185,0.089,-0.037,-0.49,0.913
2024-10-15 13:53:54.855,74386.308,-0.034,0.471,-0.882,-0.0,0.058,-0.085,0.047,-0.181,0.111,-0.038,-0.49,0.914
2024-10-15 13:53:54.866,74386.318,-0.034,0.47,-0.882,0.022,-0.046,-0.043,0.076,-0.115,0.07,-0.039,-0.49,0.915
2024-10-15 13:53:54.874,74386.328,-0.035,0.47,-0.882,0.04,-0.059,-0.042,0.019,-0.042,0.069,-0.039,-0.489,0.916
2024-10-15 13:53:54.885,74386.338,-0.035,0.47,-0.882,0.01,-0.024,-0.048,-0.121,-0.039,0.036,-0.04,-0.49,0.916
2024-10-15 13:53:54.895,74386.348,-0.035,0.472,-0.881,-0.011,-0.04,0.003,-0.183,-0.062,0.031,-0.04,-0.491,0.917
2024-10-15 13:53:54.905,74386.358,-0.036,0.473,-0.88,0.01,-0.057,0.057,-0.035,-0.14,0.025,-0.041,-0.493,0.917
2024-10-15 13:53:54.915,74386.368,-0.036,0.472,-0.881,0.033,-0.047,0.075,0.182,0.004,0.003,-0.041,-0.492,0.917
2024-10-15 13:53:54.924,74386.378,-0.036,0.47,-0.882,0.025,0.011,0.033,0.295,0.1,-0.084,-0.041,-0.49,0.917
2024-10-15 13:53:54.935,74386.388,-0.036,0.468,-0.883,-0.023,0.076,0.022,0.235,-0.006,-0.062,-0.041,-0.487,0.916
2024-10-15 13:53:54.945,74386.398,-0.037,0.466,-0.884,-0.038,0.005,0.035,0.225,-0.007,-0.12,-0.041,-0.484,0.915
2024-10-15 13:53:54.955,74386.408,-0.037,0.464,-0.885,0.021,0.013,0.015,0.198,0.017,-0.056,-0.042,-0.482,0.914
2024-10-15 13:53:54.965,74386.418,-0.037,0.462,-0.886,-0.008,0.043,-0.011,0.172,-0.012,-0.015,-0.042,-0.481,0.914
2024-10-15 13:53:54.975,74386.428,-0.037,0.46,-0.887,-0.04,0.094,-0.033,0.258,-0.01,-0.035,-0.042,-0.478,0.914
2024-10-15 13:53:54.985,74386.438,-0.038,0.457,-0.889,-0.022,0.159,0.004,0.435,-0.025,-0.098,-0.042,-0.475,0.913
2024-10-15 13:53:54.995,74386.448,-0.038,0.453,-0.891,0.01,0.185,0.041,0.561,-0.016,-0.137,-0.043,-0.47,0.912
2024-10-15 13:53:55.005,74386.458,-0.039,0.448,-0.893,0.036,0.153,0.071,0.501,-0.026,-0.119,-0.044,-0.464,0.911
2024-10-15 13:53:55.014,74386.468,-0.04,0.444,-0.895,0.028,0.07,0.082,0.281,-0.084,-0.08,-0.045,-0.46,0.91
2024-10-15 13:53:55.024,74386.478,-0.041,0.443,-0.896,0.027,-0.042,0.052,0.046,-0.107,-0.041,-0.046,-0.459,0.909
2024-10-15 13:53:55.034,74386.488,-0.042,0.443,-0.896,0.013,-0.103,0.01,0.004,-0.118,0.013,-0.047,-0.459,0.909
2024-10-15 13:53:55.044,74386.498,-0.043,0.442,-0.896,-0.018,-0.05,-0.024,0.082,-0.05,0.012,-0.048,-0.458,0.909
2024-10-15 13:53:55.054,74386.508,-0.043,0.442,-0.896,-0.016,0.033,-0.076,0.065,-0.048,0.045,-0.048,-0.458,0.91
2024-10-15 13:53:55.065,74386.517,-0.044,0.441,-0.896,-0.012,-0.024,-0.144,-0.005,-0.072,0.128,-0.049,-0.457,0.911
2024-10-15 13:53:55.074,74386.527,-0.044,0.442,-0.896,-0.021,-0.156,-0.137,-0.108,-0.102,0.151,-0.049,-0.458,0.912
2024-10-15 13:53:55.084,74386.537,-0.044,0.443,-0.895,0.013,-0.094,-0.049,-0.152,-0.092,0.135,-0.049,-0.459,0.914
2024-10-15 13:53:55.095,74386.547,-0.044,0.445,-0.894,0.013,-0.017,0.01,-0.186,-0.07,0.137,-0.049,-0.461,0.915
2024-10-15 13:53:55.104,74386.557,-0.044,0.447,-0.894,0.019,-0.053,0.042,-0.209,-0.111,0.09,-0.05,-0.463,0.916
2024-10-15 13:53:55.115,74386.567,-0.045,0.448,-0.893,0.036,-0.099,0.057,-0.143,-0.138,0.03,-0.051,-0.465,0.917
2024-10-15 13:53:55.124,74386.577,-0.046,0.449,-0.892,0.034,-0.078,0.069,-0.031,-0.112,-0.064,-0.052,-0.466,0.917
2024-10-15 13:53:55.134,74386.587,-0.048,0.449,-0.892,0.012,-0.043,0.07,0.066,-0.076,-0.096,-0.053,-0.466,0.916
2024-10-15 13:53:55.144,74386.597,-0.049,0.448,-0.893,-0.022,-0.03,0.052,0.134,-0.056,-0.134,-0.055,-0.465,0.914
2024-10-15 13:53:55.154,74386.607,-0.05,0.447,-0.893,-0.043,-0.035,0.029,0.137,0.005,-0.16,-0.056,-0.463,0.913
2024-10-15 13:53:55.164,74386.617,-0.05,0.446,-0.894,-0.052,-0.017,-0.023,0.019,0.056,-0.15,-0.056,-0.462,0.911
2024-10-15 13:53:55.174,74386.627,-0.05,0.446,-0.894,-0.076,0.038,-0.021,-0.104,0.033,-0.114,-0.056,-0.462,0.91
2024-10-15 13:53:55.184,74386.637,-0.051,0.447,-0.893,-0.084,0.056,0.052,-0.145,-0.033,-0.039,-0.057,-0.464,0.909
2024-10-15 13:53:55.194,74386.647,-0.051,0.448,-0.893,-0.031,0.065,0.098,0.041,-0.091,-0.065,-0.057,-0.464,0.908
2024-10-15 13:53:55.204,74386.657,-0.052,0.446,-0.893,0.052,0.133,0.084,0.242,-0.022,-0.103,-0.058,-0.463,0.907
2024-10-15 13:53:55.214,74386.667,-0.053,0.444,-0.895,0.073,0.203,0.018,0.331,-0.04,-0.05,-0.059,-0.46,0.907
2024-10-15 13:53:55.224,74386.677,-0.054,0.441,-0.896,-0.008,0.188,0.001,0.37,-0.084,-0.066,-0.06,-0.456,0.906
2024-10-15 13:53:55.234,74386.687,-0.055,0.437,-0.898,-0.01,0.117,0.039,0.306,-0.109,-0.085,-0.061,-0.453,0.906
2024-10-15 13:53:55.244,74386.697,-0.057,0.434,-0.899,0.036,0.073,0.048,0.397,-0.212,-0.072,-0.063,-0.449,0.905
2024-10-15 13:53:55.255,74386.707,-0.059,0.431,-0.901,0.014,-0.025,0.048,0.455,-0.096,-0.112,-0.065,-0.445,0.904
2024-10-15 13:53:55.264,74386.717,-0.059,0.427,-0.902,0.0,-0.031,0.035,0.234,-0.027,-0.087,-0.066,-0.441,0.903
2024-10-15 13:53:55.274,74386.727,-0.06,0.426,-0.902,-0.033,-0.033,0.005,-0.05,-0.114,-0.02,-0.067,-0.441,0.903
2024-10-15 13:53:55.284,74386.737,-0.061,0.428,-0.902,-0.061,-0.17,-0.044,-0.189,-0.094,-0.005,-0.068,-0.442,0.903
2024-10-15 13:53:55.294,74386.747,-0.062,0.429,-0.901,-0.021,-0.139,-0.105,-0.188,-0.042,0.037,-0.069,-0.444,0.903
2024-10-15 13:53:55.304,74386.757,-0.062,0.431,-0.9,-0.029,-0.072,-0.156,-0.121,-0.053,0.108,-0.069,-0.446,0.903
2024-10-15 13:53:55.314,74386.767,-0.062,0.432,-0.9,-0.023,-0.023,-0.13,-0.048,-0.023,0.13,-0.069,-0.446,0.905
2024-10-15 13:53:55.324,74386.777,-0.061,0.432,-0.9,0.038,0.043,-0.059,-0.044,-0.037,0.117,-0.068,-0.447,0.906
2024-10-15 13:53:55.334,74386.787,-0.061,0.433,-0.899,0.077,-0.006,-0.023,-0.175,-0.041,0.098,-0.068,-0.448,0.907
2024-10-15 13:53:55.344,74386.797,-0.062,0.435,-0.898,0.075,-0.021,0.039,-0.218,-0.088,0.046,-0.069,-0.45,0.908
2024-10-15 13:53:55.354,74386.807,-0.062,0.437,-0.897,0.06,0.004,0.146,-0.178,-0.084,0.006,-0.069,-0.452,0.908
2024-10-15 13:53:55.364,74386.817,-0.063,0.438,-0.897,0.046,-0.059,0.161,-0.055,-0.069,0.002,-0.07,-0.453,0.908
2024-10-15 13:53:55.374,74386.827,-0.063,0.438,-0.897,0.015,-0.059,0.129,0.015,0.033,-0.046,-0.071,-0.453,0.908
2024-10-15 13:53:55.384,74386.837,-0.063,0.438,-0.897,-0.031,-0.046,0.067,-0.051,0.07,-0.087,-0.07,-0.453,0.907
2024-10-15 13:53:55.394,74386.847,-0.063,0.439,-0.896,-0.076,-0.053,-0.001,-0.224,0.062,-0.098,-0.07,-0.455,0.906
2024-10-15 13:53:55.404,74386.857,-0.063,0.442,-0.895,-0.095,-0.076,-0.005,-0.304,0.018,-0.046,-0.07,-0.457,0.905
2024-10-15 13:53:55.414,74386.867,-0.063,0.444,-0.894,-0.079,-0.042,0.033,-0.136,0.026,-0.076,-0.07,-0.46,0.904
2024-10-15 13:53:55.424,74386.877,-0.063,0.444,-0.894,-0.039,0.065,0.034,0.094,0.089,-0.101,-0.07,-0.46,0.903
2024-10-15 13:53:55.434,74386.887,-0.062,0.442,-0.895,-0.006,0.179,0.018,0.171,0.065,-0.109,-0.07,-0.458,0.902
2024-10-15 13:53:55.444,74386.897,-0.063,0.441,-0.895,-0.007,0.184,0.005,0.18,-0.001,-0.109,-0.07,-0.456,0.901
2024-10-15 13:53:55.454,74386.907,-0.063,0.439,-0.896,-0.002,0.112,0.03,0.252,-0.001,-0.118,-0.07,-0.454,0.9
2024-10-15 13:53:55.464,74386.917,-0.064,0.436,-0.898,-0.015,0.093,0.037,0.293,0.043,-0.13,-0.071,-0.451,0.899
2024-10-15 13:53:55.474,74386.927,-0.064,0.434,-0.899,-0.033,0.085,0.011,0.259,-0.004,-0.13,-0.071,-0.449,0.897
2024-10-15 13:53:55.484,74386.937,-0.065,0.431,-0.9,-0.038,0.022,0.002,0.214,-0.039,-0.162,-0.072,-0.446,0.896
2024-10-15 13:53:55.494,74386.947,-0.066,0.43,-0.9,-0.004,-0.062,0.006,0.096,0.021,-0.169,-0.073,-0.444,0.894
2024-10-15 13:53:55.504,74386.957,-0.066,0.43,-0.9,0.007,-0.103,-0.008,-0.173,0.044,-0.051,-0.073,-0.445,0.893
2024-10-15 13:53:55.514,74386.967,-0.066,0.433,-0.899,-0.019,-0.107,-0.02,-0.347,-0.041,0.014,-0.073,-0.447,0.893
2024-10-15 13:53:55.523,74386.977,-0.066,0.436,-0.898,-0.006,-0.094,-0.049,-0.294,-0.049,-0.002,-0.074,-0.451,0.892
2024-10-15 13:53:55.533,74386.987,-0.066,0.438,-0.897,0.033,-0.05,-0.088,-0.208,0.026,0.042,-0.074,-0.453,0.892
2024-10-15 13:53:55.543,74386.997,-0.066,0.439,-0.896,0.031,-0.018,-0.108,-0.145,0.03,0.117,-0.073,-0.455,0.893
2024-10-15 13:53:55.553,74387.007,-0.065,0.44,-0.895,0.01,-0.011,-0.078,-0.077,0.07,0.079,-0.072,-0.456,0.894
2024-10-15 13:53:55.564,74387.017,-0.064,0.441,-0.895,0.061,-0.001,-0.037,-0.072,0.053,0.034,-0.071,-0.457,0.895
2024-10-15 13:53:55.573,74387.027,-0.063,0.442,-0.895,0.093,-0.014,0.0,-0.061,0.059,0.018,-0.071,-0.458,0.895
2024-10-15 13:53:55.583,74387.037,-0.063,0.442,-0.895,0.069,-0.033,0.063,-0.06,0.07,0.004,-0.07,-0.458,0.895
2024-10-15 13:53:55.593,74387.047,-0.062,0.443,-0.894,0.041,-0.035,0.103,-0.056,0.03,0.018,-0.07,-0.459,0.895
2024-10-15 13:53:55.603,74387.057,-0.062,0.443,-0.894,0.001,-0.074,0.082,-0.084,0.041,0.054,-0.069,-0.459,0.895
2024-10-15 13:53:55.613,74387.067,-0.061,0.445,-0.894,-0.022,-0.071,0.051,-0.16,0.034,0.072,-0.068,-0.461,0.896
2024-10-15 13:53:55.624,74387.077,-0.061,0.446,-0.893,-0.044,-0.018,0.034,-0.187,0.012,0.062,-0.068,-0.462,0.897
2024-10-15 13:53:55.634,74387.087,-0.06,0.448,-0.892,-0.05,0.012,0.021,-0.172,0.025,0.068,-0.068,-0.464,0.897
2024-10-15 13:53:55.643,74387.097,-0.06,0.449,-0.892,-0.035,0.044,0.04,-0.027,-0.017,0.05,-0.067,-0.465,0.898
2024-10-15 13:53:55.653,74387.106,-0.06,0.448,-0.892,-0.012,0.105,0.063,0.172,-0.01,0.0,-0.067,-0.465,0.898
2024-10-15 13:53:55.663,74387.116,-0.06,0.446,-0.893,0.022,0.142,0.043,0.284,0.028,-0.057,-0.067,-0.462,0.898
2024-10-15 13:53:55.673,74387.126,-0.06,0.443,-0.894,0.017,0.127,0.023,0.309,0.011,-0.06,-0.067,-0.459,0.898
2024-10-15 13:53:55.683,74387.136,-0.06,0.44,-0.896,-0.05,0.04,0.025,0.309,0.025,-0.075,-0.067,-0.456,0.897
2024-10-15 13:53:55.693,74387.146,-0.06,0.438,-0.897,-0.059,0.007,0.029,0.254,0.047,-0.132,-0.067,-0.453,0.896
2024-10-15 13:53:55.703,74387.156,-0.061,0.436,-0.898,-0.027,0.023,0.017,0.229,0.034,-0.164,-0.067,-0.451,0.895
2024-10-15 13:53:55.713,74387.166,-0.061,0.433,-0.899,-0.033,-0.009,0.015,0.278,0.065,-0.223,-0.068,-0.448,0.893
2024-10-15 13:53:55.723,74387.176,-0.062,0.431,-0.9,-0.017,-0.027,0.017,0.178,0.091,-0.256,-0.068,-0.445,0.89
2024-10-15 13:53:55.733,74387.186,-0.062,0.43,-0.9,-0.006,-0.065,0.025,-0.13,0.029,-0.187,-0.069,-0.445,0.888
2024-10-15 13:53:55.743,74387.196,-0.063,0.433,-0.899,-0.004,-0.132,0.023,-0.376,-0.055,-0.056,-0.069,-0.448,0.886
2024-10-15 13:53:55.753,74387.206,-0.063,0.436,-0.898,0.007,-0.12,-0.052,-0.353,-0.024,0.051,-0.07,-0.452,0.886
2024-10-15 13:53:55.764,74387.216,-0.062,0.438,-0.897,0.006,-0.002,-0.149,-0.123,0.1,0.091,-0.069,-0.454,0.887
2024-10-15 13:53:55.774,74387.226,-0.061,0.439,-0.896,-0.004,0.162,-0.172,0.007,0.059,0.101,-0.068,-0.454,0.888
2024-10-15 13:53:55.783,74387.236,-0.06,0.439,-0.897,0.005,0.187,-0.134,0.037,-0.012,0.136,-0.067,-0.454,0.889
2024-10-15 13:53:55.793,74387.246,-0.06,0.439,-0.897,0.066,0.083,-0.042,0.018,-0.1,0.136,-0.067,-0.454,0.89
2024-10-15 13:53:55.803,74387.256,-0.061,0.439,-0.897,0.11,-0.013,0.007,0.014,-0.098,0.178,-0.068,-0.454,0.892
2024-10-15 13:53:55.813,74387.266,-0.06,0.439,-0.897,0.074,-0.035,0.024,-0.071,-0.051,0.207,-0.067,-0.454,0.894
2024-10-15 13:53:55.823,74387.276,-0.06,0.44,-0.896,0.015,-0.016,0.037,-0.211,-0.06,0.243,-0.067,-0.456,0.897
2024-10-15 13:53:55.833,74387.286,-0.06,0.442,-0.895,-0.008,-0.026,0.054,-0.211,-0.106,0.237,-0.067,-0.458,0.899
2024-10-15 13:53:55.843,74387.296,-0.06,0.444,-0.894,0.007,-0.058,0.094,-0.057,-0.106,0.167,-0.067,-0.46,0.901
2024-10-15 13:53:55.853,74387.306,-0.06,0.443,-0.894,0.022,-0.044,0.092,0.223,-0.073,0.04,-0.067,-0.459,0.903
2024-10-15 13:53:55.863,74387.316,-0.06,0.44,-0.896,0.01,0.005,0.055,0.392,0.061,-0.095,-0.067,-0.456,0.902
2024-10-15 13:53:55.873,74387.326,-0.06,0.437,-0.897,-0.011,0.026,0.017,0.3,0.038,-0.119,-0.067,-0.452,0.901
2024-10-15 13:53:55.883,74387.336,-0.061,0.435,-0.898,-0.055,-0.041,-0.012,0.16,-0.065,-0.12,-0.068,-0.45,0.9
2024-10-15 13:53:55.893,74387.346,-0.062,0.433,-0.899,-0.06,-0.095,-0.011,0.161,-0.058,-0.152,-0.069,-0.448,0.899
2024-10-15 13:53:55.903,74387.356,-0.063,0.432,-0.9,-0.019,-0.03,0.029,0.246,-0.01,-0.169,-0.07,-0.446,0.897
2024-10-15 13:53:55.913,74387.366,-0.064,0.429,-0.901,-0.03,0.034,0.058,0.287,0.04,-0.183,-0.07,-0.443,0.896
2024-10-15 13:53:55.923,74387.376,-0.064,0.426,-0.902,-0.045,0.055,0.059,0.244,0.003,-0.181,-0.071,-0.441,0.894
2024-10-15 13:53:55.933,74387.386,-0.065,0.424,-0.903,-0.032,0.052,0.064,0.223,0.002,-0.208,-0.072,-0.438,0.892
2024-10-15 13:53:55.943,74387.396,-0.066,0.422,-0.904,-0.02,0.06,0.075,0.14,0.044,-0.215,-0.072,-0.436,0.89
2024-10-15 13:53:55.953,74387.406,-0.066,0.422,-0.904,-0.008,0.069,0.062,-0.053,-0.03,-0.128,-0.073,-0.435,0.888
2024-10-15 13:53:55.963,74387.416,-0.067,0.423,-0.904,-0.013,0.011,0.052,-0.198,-0.117,-0.024,-0.074,-0.437,0.887
2024-10-15 13:53:55.973,74387.426,-0.068,0.425,-0.903,0.018,-0.012,0.046,-0.194,-0.127,0.056,-0.076,-0.439,0.887
2024-10-15 13:53:55.983,74387.436,-0.069,0.426,-0.902,0.041,0.035,0.006,-0.014,-0.047,0.066,-0.076,-0.44,0.888
2024-10-15 13:53:55.993,74387.446,-0.068,0.426,-0.902,0.03,0.1,-0.072,0.048,0.076,0.077,-0.076,-0.44,0.888
2024-10-15 13:53:56.003,74387.456,-0.068,0.426,-0.902,-0.004,0.089,-0.137,-0.127,-0.026,0.11,-0.075,-0.44,0.889
2024-10-15 13:53:56.013,74387.466,-0.068,0.428,-0.901,-0.043,-0.069,-0.13,-0.225,-0.087,0.132,-0.075,-0.442,0.891
2024-10-15 13:53:56.023,74387.476,-0.068,0.43,-0.9,-0.015,-0.141,-0.073,-0.213,-0.01,0.143,-0.075,-0.444,0.892
2024-10-15 13:53:56.033,74387.486,-0.067,0.432,-0.899,-0.007,-0.101,-0.022,-0.202,0.027,0.141,-0.074,-0.447,0.893
2024-10-15 13:53:56.043,74387.496,-0.066,0.434,-0.899,-0.028,-0.039,0.011,-0.147,0.054,0.077,-0.073,-0.449,0.894
2024-10-15 13:53:56.053,74387.506,-0.066,0.434,-0.898,0.01,0.004,0.015,-0.025,-0.053,0.021,-0.073,-0.449,0.895
2024-10-15 13:53:56.063,74387.516,-0.066,0.434,-0.899,0.047,-0.052,-0.005,0.21,0.033,-0.081,-0.074,-0.449,0.895
2024-10-15 13:53:56.073,74387.526,-0.066,0.431,-0.9,0.056,-0.009,0.006,0.315,0.151,-0.165,-0.073,-0.446,0.893
2024-10-15 13:53:56.083,74387.536,-0.065,0.429,-0.901,0.007,0.051,0.003,0.221,0.091,-0.147,-0.072,-0.443,0.892
2024-10-15 13:53:56.093,74387.546,-0.065,0.427,-0.902,-0.055,-0.045,-0.007,0.1,0.066,-0.167,-0.072,-0.441,0.89
2024-10-15 13:53:56.102,74387.556,-0.066,0.426,-0.902,-0.037,-0.077,0.054,-0.049,0.035,-0.106,-0.073,-0.441,0.889
2024-10-15 13:53:56.113,74387.566,-0.066,0.427,-0.902,-0.043,-0.031,0.127,-0.048,-0.042,-0.084,-0.073,-0.441,0.888
2024-10-15 13:53:56.123,74387.576,-0.067,0.427,-0.902,-0.028,-0.005,0.13,0.051,-0.035,-0.156,-0.074,-0.441,0.886
2024-10-15 13:53:56.132,74387.586,-0.068,0.426,-0.902,0.046,0.07,0.079,0.083,-0.034,-0.124,-0.075,-0.44,0.885
2024-10-15 13:53:56.143,74387.596,-0.069,0.425,-0.903,0.004,0.099,0.069,0.136,-0.061,-0.098,-0.076,-0.439,0.884
2024-10-15 13:53:56.153,74387.606,-0.069,0.424,-0.903,-0.037,0.102,0.069,0.157,-0.006,-0.124,-0.077,-0.437,0.883
2024-10-15 13:53:56.162,74387.616,-0.07,0.422,-0.904,0.011,0.128,0.044,0.073,-0.058,-0.133,-0.078,-0.436,0.881
2024-10-15 13:53:56.172,74387.626,-0.071,0.422,-0.904,0.014,0.088,0.01,-0.001,-0.09,-0.08,-0.079,-0.436,0.88
2024-10-15 13:53:56.182,74387.636,-0.072,0.422,-0.904,-0.009,0.034,-0.012,0.0,-0.05,-0.054,-0.08,-0.436,0.879
2024-10-15 13:53:56.192,74387.646,-0.073,0.422,-0.904,-0.014,0.028,-0.037,-0.049,0.002,-0.001,-0.08,-0.436,0.879
2024-10-15 13:53:56.202,74387.656,-0.072,0.423,-0.903,-0.038,-0.006,-0.1,-0.136,0.054,0.025,-0.08,-0.437,0.879
2024-10-15 13:53:56.213,74387.666,-0.072,0.426,-0.902,-0.037,-0.053,-0.131,-0.45,0.054,0.037,-0.079,-0.44,0.879
2024-10-15 13:53:56.222,74387.676,-0.071,0.432,-0.899,-0.042,-0.141,-0.101,-0.856,-0.033,0.059,-0.079,-0.446,0.879
2024-10-15 13:53:56.232,74387.686,-0.072,0.44,-0.895,-0.063,-0.26,-0.008,-1.081,-0.09,0.074,-0.08,-0.456,0.879
2024-10-15 13:53:56.243,74387.695,-0.072,0.45,-0.89,-0.064,-0.278,0.054,-1.084,0.011,0.11,-0.08,-0.467,0.879
2024-10-15 13:53:56.252,74387.705,-0.071,0.46,-0.885,-0.079,-0.144,0.097,-1.037,0.104,0.086,-0.08,-0.478,0.879
2024-10-15 13:53:56.262,74387.715,-0.069,0.469,-0.88,-0.097,-0.014,0.072,-1.128,0.144,0.119,-0.078,-0.488,0.879
2024-10-15 13:53:56.272,74387.725,-0.067,0.48,-0.875,-0.096,0.014,-0.011,-1.307,0.078,0.166,-0.077,-0.501,0.88
2024-10-15 13:53:56.282,74387.735,-0.066,0.492,-0.868,-0.073,-0.054,-0.082,-1.323,0.081,0.195,-0.076,-0.514,0.881
2024-10-15 13:53:56.292,74387.745,-0.064,0.503,-0.862,-0.062,-0.035,-0.093,-1.238,0.127,0.235,-0.074,-0.527,0.882
2024-10-15 13:53:56.302,74387.755,-0.062,0.513,-0.856,-0.067,0.018,-0.065,-1.193,0.071,0.275,-0.072,-0.539,0.884
2024-10-15 13:53:56.312,74387.765,-0.06,0.523,-0.85,-0.055,0.016,-0.002,-0.995,-0.068,0.216,-0.071,-0.55,0.886
2024-10-15 13:53:56.322,74387.775,-0.061,0.53,-0.846,0.012,0.063,0.078,-0.661,-0.14,0.114,-0.071,-0.559,0.887
2024-10-15 13:53:56.332,74387.785,-0.061,0.534,-0.843,0.063,0.113,0.113,-0.188,-0.145,0.044,-0.073,-0.563,0.888
2024-10-15 13:53:56.342,74387.795,-0.062,0.534,-0.843,0.067,0.155,0.11,0.213,-0.124,0.01,-0.074,-0.563,0.888
2024-10-15 13:53:56.352,74387.805,-0.063,0.531,-0.845,0.052,0.177,0.089,0.5,-0.174,0.009,-0.075,-0.559,0.889
2024-10-15 13:53:56.362,74387.815,-0.065,0.525,-0.848,0.04,0.162,0.062,0.75,-0.254,-0.002,-0.077,-0.553,0.889
2024-10-15 13:53:56.372,74387.825,-0.067,0.518,-0.853,0.056,0.127,0.028,0.922,-0.239,0.008,-0.079,-0.545,0.89
2024-10-15 13:53:56.382,74387.835,-0.069,0.51,-0.857,0.085,0.151,0.01,0.997,-0.259,0.039,-0.081,-0.535,0.891
2024-10-15 13:53:56.392,74387.845,-0.072,0.501,-0.862,0.072,0.14,0.01,1.068,-0.316,0.049,-0.083,-0.525,0.893
2024-10-15 13:53:56.403,74387.855,-0.074,0.491,-0.868,0.071,0.101,0.041,1.184,-0.319,0.0,-0.085,-0.514,0.894
2024-10-15 13:53:56.412,74387.865,-0.077,0.481,-0.873,0.109,0.123,0.064,1.262,-0.286,-0.063,-0.088,-0.502,0.895
2024-10-15 13:53:56.422,74387.875,-0.08,0.469,-0.879,0.122,0.129,0.038,1.339,-0.264,-0.107,-0.091,-0.489,0.895
2024-10-15 13:53:56.432,74387.885,-0.081,0.458,-0.885,0.078,0.072,0.001,1.007,0.161,0.037,-0.091,-0.476,0.896
2024-10-15 13:53:56.442,74387.895,-0.079,0.452,-0.889,0.032,0.016,0.035,0.523,0.0,-0.104,-0.089,-0.469,0.897
2024-10-15 13:53:56.452,74387.905,-0.081,0.448,-0.89,-0.01,-0.038,-0.051,0.363,-0.136,-0.22,-0.091,-0.464,0.895
2024-10-15 13:53:56.462,74387.915,-0.082,0.444,-0.892,-0.029,-0.213,-0.187,0.356,0.045,-0.086,-0.092,-0.46,0.894
2024-10-15 13:53:56.472,74387.925,-0.082,0.442,-0.893,-0.04,-0.197,-0.042,0.253,0.047,-0.102,-0.092,-0.457,0.893
2024-10-15 13:53:56.483,74387.935,-0.083,0.439,-0.895,-0.073,-0.038,0.019,0.288,-0.078,-0.156,-0.092,-0.455,0.892
2024-10-15 13:53:56.492,74387.945,-0.084,0.436,-0.896,-0.06,-0.012,0.036,0.468,-0.035,-0.201,-0.094,-0.451,0.89
2024-10-15 13:53:56.502,74387.955,-0.085,0.431,-0.898,-0.015,0.002,0.048,0.493,0.021,-0.187,-0.094,-0.446,0.889
2024-10-15 13:53:56.512,74387.965,-0.086,0.427,-0.9,-0.007,0.033,0.013,0.288,-0.051,-0.032,-0.095,-0.442,0.888
2024-10-15 13:53:56.522,74387.975,-0.087,0.425,-0.901,-0.036,-0.043,-0.01,0.179,-0.15,0.031,-0.096,-0.439,0.888
2024-10-15 13:53:56.532,74387.985,-0.088,0.424,-0.902,-0.015,-0.054,0.021,0.234,-0.07,-0.007,-0.097,-0.437,0.889
2024-10-15 13:53:56.542,74387.995,-0.088,0.421,-0.903,0.016,0.05,0.004,0.264,0.009,0.015,-0.097,-0.435,0.889
2024-10-15 13:53:56.552,74388.005,-0.088,0.419,-0.904,-0.006,0.052,-0.032,0.14,0.01,0.086,-0.097,-0.433,0.89
2024-10-15 13:53:56.562,74388.015,-0.087,0.419,-0.904,-0.019,-0.044,-0.053,0.044,-0.0,0.133,-0.096,-0.432,0.891
2024-10-15 13:53:56.572,74388.025,-0.086,0.419,-0.904,0.015,-0.075,-0.05,-0.02,0.017,0.143,-0.095,-0.432,0.892
2024-10-15 13:53:56.582,74388.035,-0.086,0.419,-0.904,0.046,-0.086,-0.034,-0.062,0.011,0.133,-0.095,-0.433,0.894
2024-10-15 13:53:56.592,74388.045,-0.085,0.42,-0.904,0.054,-0.06,0.003,0.01,0.058,0.082,-0.094,-0.433,0.895
2024-10-15 13:53:56.602,74388.055,-0.084,0.419,-0.904,0.064,-0.008,0.037,0.088,0.083,0.071,-0.093,-0.433,0.896
2024-10-15 13:53:56.612,74388.065,-0.083,0.418,-0.904,0.066,-0.039,0.043,0.113,0.061,0.09,-0.091,-0.432,0.897
2024-10-15 13:53:56.622,74388.075,-0.082,0.418,-0.905,0.067,-0.08,0.054,0.053,0.025,0.102,-0.09,-0.431,0.898
2024-10-15 13:53:56.632,74388.085,-0.082,0.417,-0.905,0.067,-0.043,0.084,0.061,-0.085,0.092,-0.09,-0.431,0.899
2024-10-15 13:53:56.642,74388.095,-0.083,0.416,-0.905,0.06,0.003,0.118,0.148,-0.104,0.06,-0.091,-0.43,0.9
2024-10-15 13:53:56.652,74388.105,-0.083,0.414,-0.906,0.073,0.039,0.133,0.288,-0.068,0.047,-0.091,-0.427,0.901
2024-10-15 13:53:56.662,74388.115,-0.084,0.411,-0.908,0.05,0.082,0.096,0.387,-0.078,0.021,-0.092,-0.424,0.902
2024-10-15 13:53:56.672,74388.125,-0.084,0.408,-0.909,-0.006,0.106,0.036,0.426,-0.042,-0.022,-0.092,-0.42,0.902
2024-10-15 13:53:56.682,74388.135,-0.084,0.404,-0.911,-0.031,0.086,-0.015,0.37,-0.019,-0.054,-0.092,-0.416,0.902
2024-10-15 13:53:56.691,74388.145,-0.085,0.401,-0.912,-0.055,0.028,-0.062,0.33,0.005,-0.109,-0.093,-0.412,0.902
2024-10-15 13:53:56.701,74388.155,-0.085,0.398,-0.914,-0.086,-0.007,-0.097,0.371,0.027,-0.129,-0.093,-0.409,0.901
2024-10-15 13:53:56.711,74388.165,-0.085,0.394,-0.915,-0.104,-0.019,-0.065,0.451,0.075,-0.247,-0.093,-0.405,0.899
2024-10-15 13:53:56.721,74388.175,-0.085,0.389,-0.917,-0.069,-0.005,-0.012,0.496,0.139,-0.359,-0.093,-0.399,0.896
2024-10-15 13:53:56.731,74388.185,-0.085,0.385,-0.919,-0.033,0.001,0.012,0.308,0.118,-0.344,-0.093,-0.395,0.893
2024-10-15 13:53:56.742,74388.195,-0.086,0.383,-0.92,-0.034,-0.072,0.015,-0.026,-0.041,-0.247,-0.093,-0.393,0.89
2024-10-15 13:53:56.752,74388.205,-0.088,0.385,-0.919,-0.022,-0.146,0.028,-0.297,-0.116,-0.153,-0.095,-0.395,0.887
2024-10-15 13:53:56.762,74388.215,-0.089,0.388,-0.918,0.002,-0.131,0.027,-0.308,-0.115,-0.045,-0.097,-0.398,0.886
2024-10-15 13:53:56.772,74388.225,-0.09,0.389,-0.917,-0.015,-0.02,-0.012,-0.058,-0.045,0.006,-0.098,-0.4,0.886
2024-10-15 13:53:56.782,74388.235,-0.09,0.389,-0.917,-0.042,0.104,-0.083,0.162,0.063,0.058,-0.098,-0.399,0.886
2024-10-15 13:53:56.792,74388.245,-0.089,0.387,-0.918,-0.036,0.163,-0.099,0.194,-0.003,0.148,-0.097,-0.397,0.887
2024-10-15 13:53:56.801,74388.255,-0.089,0.386,-0.918,-0.034,0.111,-0.06,0.094,-0.1,0.241,-0.096,-0.396,0.89
2024-10-15 13:53:56.812,74388.265,-0.089,0.386,-0.918,0.014,0.053,0.016,-0.042,-0.2,0.251,-0.097,-0.396,0.892
2024-10-15 13:53:56.821,74388.275,-0.09,0.387,-0.918,0.061,0.069,0.081,-0.096,-0.197,0.265,-0.098,-0.397,0.895
2024-10-15 13:53:56.831,74388.285,-0.091,0.388,-0.917,0.071,0.113,0.119,-0.145,-0.21,0.299,-0.099,-0.399,0.898
2024-10-15 13:53:56.841,74388.294,-0.092,0.39,-0.916,0.05,0.05,0.103,-0.099,-0.243,0.282,-0.1,-0.4,0.901
2024-10-15 13:53:56.851,74388.304,-0.093,0.39,-0.916,0.036,-0.0,0.073,0.11,-0.22,0.169,-0.101,-0.4,0.904
2024-10-15 13:53:56.861,74388.314,-0.094,0.388,-0.917,0.035,0.011,0.032,0.371,-0.095,0.041,-0.102,-0.398,0.905
2024-10-15 13:53:56.871,74388.324,-0.095,0.383,-0.919,0.02,0.001,-0.049,0.581,0.07,-0.096,-0.103,-0.393,0.905
2024-10-15 13:53:56.881,74388.334,-0.094,0.378,-0.921,-0.018,-0.038,-0.111,0.507,0.184,-0.162,-0.102,-0.388,0.904
2024-10-15 13:53:56.891,74388.344,-0.093,0.374,-0.923,-0.058,-0.097,-0.117,0.24,0.117,-0.131,-0.1,-0.384,0.903
2024-10-15 13:53:56.901,74388.354,-0.093,0.373,-0.923,-0.054,-0.175,-0.034,0.116,0.002,-0.09,-0.1,-0.382,0.902
2024-10-15 13:53:56.911,74388.364,-0.093,0.371,-0.924,0.017,-0.154,0.104,0.371,0.031,-0.223,-0.101,-0.38,0.901
2024-10-15 13:53:56.921,74388.374,-0.094,0.366,-0.926,0.102,0.03,0.118,0.615,0.128,-0.343,-0.101,-0.374,0.898
2024-10-15 13:53:56.930,74388.384,-0.094,0.36,-0.928,0.096,0.141,0.014,0.459,0.117,-0.296,-0.101,-0.368,0.895
2024-10-15 13:53:56.940,74388.394,-0.094,0.357,-0.929,-0.0,0.067,0.009,0.204,-0.056,-0.273,-0.101,-0.365,0.893
2024-10-15 13:53:56.950,74388.404,-0.096,0.355,-0.93,-0.023,-0.043,0.046,0.1,-0.006,-0.302,-0.103,-0.363,0.89
2024-10-15 13:53:56.961,74388.414,-0.097,0.354,-0.93,-0.002,-0.006,0.037,0.033,0.047,-0.201,-0.103,-0.362,0.887
2024-10-15 13:53:56.971,74388.424,-0.097,0.355,-0.93,-0.069,0.055,0.015,-0.098,0.004,-0.057,-0.104,-0.362,0.886
2024-10-15 13:53:56.981,74388.434,-0.097,0.356,-0.93,-0.113,0.041,0.035,-0.182,-0.036,0.014,-0.104,-0.364,0.885
2024-10-15 13:53:56.991,74388.444,-0.097,0.358,-0.929,-0.056,0.033,0.058,-0.175,-0.028,0.017,-0.104,-0.366,0.885
2024-10-15 13:53:57.001,74388.454,-0.097,0.359,-0.928,-0.023,0.041,0.026,-0.14,0.074,0.012,-0.104,-0.367,0.885
2024-10-15 13:53:57.011,74388.464,-0.096,0.361,-0.928,-0.036,0.052,-0.027,-0.203,0.075,0.054,-0.103,-0.369,0.885
2024-10-15 13:53:57.021,74388.474,-0.095,0.363,-0.927,-0.067,0.024,-0.049,-0.286,0.043,0.111,-0.102,-0.371,0.886
2024-10-15 13:53:57.031,74388.484,-0.094,0.366,-0.926,-0.04,-0.024,-0.041,-0.258,0.08,0.168,-0.101,-0.374,0.887
2024-10-15 13:53:57.042,74388.494,-0.093,0.368,-0.925,-0.01,-0.032,-0.028,-0.16,0.163,0.135,-0.1,-0.377,0.889
2024-10-15 13:53:57.051,74388.504,-0.09,0.369,-0.925,0.002,0.025,-0.046,-0.118,0.16,0.169,-0.097,-0.378,0.89
2024-10-15 13:53:57.061,74388.514,-0.089,0.37,-0.925,0.018,0.014,-0.037,-0.057,0.018,0.126,-0.096,-0.379,0.892
2024-10-15 13:53:57.071,74388.524,-0.089,0.37,-0.925,0.065,-0.036,-0.002,0.021,0.015,0.053,-0.096,-0.379,0.893
2024-10-15 13:53:57.081,74388.534,-0.088,0.37,-0.925,0.087,-0.007,-0.004,0.153,0.053,-0.003,-0.095,-0.379,0.893
2024-10-15 13:53:57.091,74388.544,-0.088,0.368,-0.926,0.037,0.002,-0.011,0.158,0.105,-0.038,-0.094,-0.377,0.893
2024-10-15 13:53:57.101,74388.554,-0.087,0.367,-0.926,-0.009,-0.028,-0.003,-0.032,0.085,-0.015,-0.094,-0.376,0.893
2024-10-15 13:53:57.111,74388.564,-0.087,0.369,-0.926,-0.01,-0.054,0.025,-0.196,-0.034,0.049,-0.093,-0.378,0.893
2024-10-15 13:53:57.121,74388.574,-0.087,0.37,-0.925,0.004,-0.088,0.077,-0.026,0.031,-0.038,-0.094,-0.379,0.893
2024-10-15 13:53:57.131,74388.584,-0.086,0.369,-0.925,0.058,-0.011,0.083,0.121,0.13,-0.047,-0.093,-0.378,0.892
2024-10-15 13:53:57.141,74388.594,-0.085,0.368,-0.926,0.042,0.079,0.019,0.142,0.091,-0.072,-0.092,-0.377,0.892
2024-10-15 13:53:57.151,74388.604,-0.085,0.366,-0.927,-0.016,0.031,0.009,0.141,0.055,-0.143,-0.091,-0.375,0.891
2024-10-15 13:53:57.161,74388.614,-0.085,0.365,-0.927,0.006,0.003,0.032,0.169,0.066,-0.174,-0.091,-0.373,0.889
2024-10-15 13:53:57.171,74388.624,-0.085,0.363,-0.928,0.003,0.025,0.055,0.161,0.077,-0.184,-0.091,-0.372,0.888
2024-10-15 13:53:57.181,74388.634,-0.085,0.362,-0.928,-0.032,0.023,0.066,0.103,0.044,-0.197,-0.091,-0.37,0.886
2024-10-15 13:53:57.190,74388.644,-0.085,0.361,-0.929,-0.049,-0.002,0.063,0.029,0.018,-0.21,-0.092,-0.369,0.883
2024-10-15 13:53:57.201,74388.654,-0.086,0.36,-0.929,-0.055,-0.025,0.073,0.01,-0.01,-0.219,-0.093,-0.369,0.881
2024-10-15 13:53:57.211,74388.664,-0.087,0.36,-0.929,-0.06,-0.031,0.074,-0.006,0.047,-0.219,-0.093,-0.369,0.879
2024-10-15 13:53:57.220,74388.674,-0.087,0.361,-0.929,-0.072,-0.028,0.055,-0.099,0.108,-0.181,-0.093,-0.369,0.877
2024-10-15 13:53:57.230,74388.684,-0.086,0.362,-0.928,-0.091,0.005,0.016,-0.25,0.082,-0.117,-0.093,-0.371,0.875
2024-10-15 13:53:57.241,74388.694,-0.086,0.365,-0.927,-0.101,-0.017,-0.008,-0.293,0.064,-0.071,-0.092,-0.373,0.874
2024-10-15 13:53:57.251,74388.704,-0.085,0.367,-0.926,-0.06,-0.034,-0.041,-0.226,0.084,0.047,-0.092,-0.376,0.873
2024-10-15 13:53:57.261,74388.714,-0.084,0.369,-0.926,-0.034,0.035,-0.049,-0.138,0.093,0.079,-0.091,-0.378,0.874
2024-10-15 13:53:57.271,74388.724,-0.083,0.37,-0.925,-0.005,0.12,-0.047,-0.069,0.097,0.138,-0.09,-0.379,0.875
2024-10-15 13:53:57.281,74388.734,-0.082,0.37,-0.925,0.026,0.111,-0.079,-0.065,0.074,0.186,-0.088,-0.38,0.876
2024-10-15 13:53:57.291,74388.744,-0.081,0.371,-0.925,0.044,0.08,-0.067,-0.083,0.044,0.185,-0.087,-0.38,0.878
2024-10-15 13:53:57.301,74388.754,-0.08,0.372,-0.925,0.057,0.087,-0.013,-0.068,0.019,0.161,-0.086,-0.381,0.88
2024-10-15 13:53:57.310,74388.764,-0.079,0.373,-0.924,0.078,0.096,0.052,-0.059,-0.002,0.169,-0.086,-0.382,0.882
2024-10-15 13:53:57.320,74388.774,-0.079,0.373,-0.924,0.081,0.042,0.092,0.003,-0.022,0.174,-0.085,-0.383,0.883
2024-10-15 13:53:57.331,74388.784,-0.078,0.373,-0.925,0.068,0.002,0.083,0.105,0.013,0.153,-0.085,-0.382,0.885
2024-10-15 13:53:57.341,74388.794,-0.078,0.372,-0.925,0.046,-0.001,0.057,0.146,0.076,0.13,-0.084,-0.381,0.887
2024-10-15 13:53:57.351,74388.804,-0.076,0.371,-0.926,0.015,0.01,0.033,0.093,0.05,0.15,-0.082,-0.38,0.888
2024-10-15 13:53:57.361,74388.814,-0.076,0.37,-0.926,-0.008,-0.033,0.013,0.155,0.023,0.14,-0.081,-0.379,0.89
2024-10-15 13:53:57.371,74388.824,-0.075,0.368,-0.927,0.018,-0.038,-0.003,0.373,0.068,0.059,-0.08,-0.376,0.892
2024-10-15 13:53:57.381,74388.834,-0.074,0.363,-0.929,0.039,0.03,-0.027,0.512,0.098,0.014,-0.079,-0.372,0.892
2024-10-15 13:53:57.391,74388.844,-0.073,0.359,-0.931,0.018,0.064,-0.028,0.48,0.057,-0.023,-0.078,-0.367,0.893
2024-10-15 13:53:57.401,74388.854,-0.073,0.355,-0.932,0.001,0.024,-0.017,0.367,0.027,-0.065,-0.078,-0.363,0.893
2024-10-15 13:53:57.411,74388.864,-0.073,0.352,-0.933,-0.019,-0.043,-0.003,0.249,0.001,-0.125,-0.078,-0.36,0.892
2024-10-15 13:53:57.420,74388.874,-0.073,0.35,-0.934,-0.047,-0.069,-0.011,0.185,-0.01,-0.19,-0.078,-0.357,0.89
2024-10-15 13:53:57.431,74388.883,-0.074,0.348,-0.935,-0.079,-0.081,-0.022,0.288,0.001,-0.264,-0.079,-0.355,0.888
2024-10-15 13:53:57.441,74388.893,-0.075,0.344,-0.936,-0.101,-0.075,-0.011,0.486,0.12,-0.393,-0.08,-0.351,0.885
2024-10-15 13:53:57.450,74388.903,-0.075,0.339,-0.938,-0.087,-0.025,-0.01,0.447,0.197,-0.42,-0.079,-0.346,0.881
2024-10-15 13:53:57.460,74388.913,-0.074,0.336,-0.939,-0.083,-0.043,-0.014,0.148,0.095,-0.377,-0.079,-0.342,0.877
2024-10-15 13:53:57.470,74388.923,-0.075,0.335,-0.939,-0.08,-0.172,-0.006,-0.113,0.025,-0.369,-0.08,-0.342,0.873
2024-10-15 13:53:57.481,74388.933,-0.076,0.337,-0.938,-0.047,-0.196,0.015,-0.259,0.067,-0.294,-0.081,-0.344,0.869
2024-10-15 13:53:57.490,74388.943,-0.076,0.339,-0.938,-0.038,-0.072,0.029,-0.269,0.076,-0.2,-0.081,-0.346,0.867
2024-10-15 13:53:57.500,74388.953,-0.076,0.342,-0.937,-0.045,0.03,0.007,-0.262,0.057,-0.052,-0.081,-0.349,0.865
2024-10-15 13:53:57.510,74388.963,-0.075,0.344,-0.936,-0.015,0.051,-0.005,-0.148,0.052,0.005,-0.08,-0.351,0.865
2024-10-15 13:53:57.520,74388.973,-0.075,0.345,-0.936,0.035,0.14,-0.001,-0.063,0.077,0.11,-0.08,-0.352,0.865
2024-10-15 13:53:57.530,74388.983,-0.074,0.345,-0.936,0.058,0.207,-0.003,-0.044,0.039,0.202,-0.078,-0.352,0.867
2024-10-15 13:53:57.540,74388.993,-0.073,0.346,-0.935,0.077,0.15,-0.002,-0.094,0.002,0.222,-0.078,-0.353,0.869
2024-10-15 13:53:57.550,74389.003,-0.072,0.348,-0.935,0.095,0.083,-0.001,-0.243,-0.02,0.273,-0.077,-0.355,0.871
2024-10-15 13:53:57.560,74389.013,-0.071,0.35,-0.934,0.064,0.086,0.012,-0.318,-0.075,0.295,-0.076,-0.358,0.874
2024-10-15 13:53:57.570,74389.023,-0.071,0.353,-0.933,0.041,-0.01,0.067,-0.244,-0.093,0.261,-0.076,-0.361,0.877
2024-10-15 13:53:57.580,74389.033,-0.071,0.355,-0.932,0.067,-0.065,0.028,-0.004,-0.078,0.193,-0.076,-0.363,0.879
2024-10-15 13:53:57.590,74389.043,-0.071,0.354,-0.933,0.055,-0.018,-0.009,0.21,0.062,0.091,-0.076,-0.362,0.881
2024-10-15 13:53:57.600,74389.053,-0.07,0.352,-0.933,0.032,0.009,-0.011,0.19,0.063,0.054,-0.075,-0.36,0.882
2024-10-15 13:53:57.610,74389.063,-0.07,0.351,-0.934,-0.003,-0.048,-0.024,0.047,-0.04,0.019,-0.075,-0.358,0.882
2024-10-15 13:53:57.620,74389.073,-0.07,0.35,-0.934,-0.009,-0.128,0.004,0.105,-0.072,-0.034,-0.075,-0.358,0.882
2024-10-15 13:53:57.630,74389.083,-0.071,0.348,-0.935,0.02,-0.087,0.045,0.317,0.043,-0.096,-0.076,-0.356,0.882
2024-10-15 13:53:57.640,74389.093,-0.07,0.344,-0.936,0.002,0.023,0.028,0.453,0.098,-0.118,-0.075,-0.352,0.881
2024-10-15 13:53:57.650,74389.103,-0.07,0.34,-0.938,-0.034,0.052,0.003,0.42,0.08,-0.17,-0.075,-0.347,0.88
2024-10-15 13:53:57.660,74389.113,-0.07,0.337,-0.939,-0.018,0.008,0.005,0.328,0.031,-0.232,-0.075,-0.343,0.878
2024-10-15 13:53:57.670,74389.123,-0.071,0.333,-0.94,0.005,-0.028,0.022,0.299,0.032,-0.264,-0.075,-0.34,0.876
2024-10-15 13:53:57.680,74389.133,-0.071,0.331,-0.941,-0.016,-0.039,0.035,0.276,0.047,-0.271,-0.076,-0.337,0.873
2024-10-15 13:53:57.690,74389.143,-0.072,0.328,-0.942,-0.043,-0.014,0.027,0.225,0.025,-0.247,-0.076,-0.334,0.87
2024-10-15 13:53:57.699,74389.153,-0.072,0.326,-0.943,-0.061,-0.001,0.009,0.146,0.025,-0.205,-0.077,-0.332,0.868
2024-10-15 13:53:57.709,74389.163,-0.073,0.325,-0.943,-0.058,0.012,-0.003,0.054,0.036,-0.119,-0.077,-0.331,0.866
2024-10-15 13:53:57.719,74389.173,-0.073,0.325,-0.943,-0.059,0.023,-0.012,-0.03,0.02,-0.032,-0.077,-0.331,0.866
2024-10-15 13:53:57.729,74389.183,-0.073,0.325,-0.943,-0.048,0.044,0.001,-0.079,-0.01,-0.0,-0.077,-0.331,0.865
2024-10-15 13:53:57.739,74389.193,-0.073,0.326,-0.942,-0.017,0.063,0.004,-0.139,-0.034,0.073,-0.077,-0.332,0.866
2024-10-15 13:53:57.749,74389.203,-0.073,0.329,-0.942,-0.001,0.027,0.016,-0.313,-0.103,0.144,-0.077,-0.335,0.867
2024-10-15 13:53:57.760,74389.213,-0.073,0.332,-0.94,0.01,-0.026,0.012,-0.363,-0.061,0.24,-0.078,-0.338,0.869
2024-10-15 13:53:57.770,74389.223,-0.073,0.336,-0.939,0.013,-0.007,0.009,-0.413,-0.021,0.233,-0.077,-0.342,0.871
2024-10-15 13:53:57.780,74389.233,-0.072,0.34,-0.938,0.009,0.038,-0.012,-0.426,-0.017,0.227,-0.077,-0.347,0.873
2024-10-15 13:53:57.790,74389.243,-0.071,0.344,-0.936,0.017,0.049,-0.004,-0.369,-0.012,0.184,-0.076,-0.351,0.875
2024-10-15 13:53:57.800,74389.253,-0.071,0.347,-0.935,0.038,0.009,-0.002,-0.256,-0.033,0.182,-0.076,-0.354,0.876
2024-10-15 13:53:57.811,74389.263,-0.07,0.349,-0.935,0.023,-0.031,-0.024,-0.054,0.011,0.133,-0.075,-0.356,0.878
2024-10-15 13:53:57.820,74389.273,-0.07,0.348,-0.935,0.016,0.008,-0.011,0.111,0.101,0.075,-0.074,-0.356,0.879
2024-10-15 13:53:57.829,74389.283,-0.068,0.347,-0.935,0.002,0.042,0.006,0.078,0.093,0.057,-0.073,-0.355,0.88
2024-10-15 13:53:57.840,74389.293,-0.068,0.347,-0.935,-0.008,-0.021,0.035,0.018,0.028,0.032,-0.072,-0.354,0.88
2024-10-15 13:53:57.850,74389.303,-0.067,0.347,-0.936,0.014,-0.068,0.084,0.053,0.01,-0.004,-0.072,-0.354,0.881
2024-10-15 13:53:57.860,74389.313,-0.067,0.345,-0.936,0.044,-0.025,0.11,0.195,0.03,-0.066,-0.072,-0.353,0.88
2024-10-15 13:53:57.870,74389.323,-0.067,0.343,-0.937,0.04,0.005,0.062,0.213,0.038,-0.123,-0.072,-0.351,0.879
2024-10-15 13:53:57.880,74389.333,-0.067,0.342,-0.937,0.019,-0.011,-0.006,0.138,-0.008,-0.131,-0.072,-0.349,0.878
2024-10-15 13:53:57.890,74389.343,-0.068,0.341,-0.938,-0.02,-0.031,0.002,0.104,-0.003,-0.152,-0.072,-0.348,0.877
2024-10-15 13:53:57.900,74389.353,-0.068,0.339,-0.938,-0.052,-0.039,0.017,0.141,0.083,-0.196,-0.073,-0.346,0.875
2024-10-15 13:53:57.910,74389.363,-0.068,0.338,-0.939,-0.055,0.025,-0.003,0.126,0.095,-0.191,-0.072,-0.345,0.873
2024-10-15 13:53:57.920,74389.373,-0.068,0.337,-0.939,-0.065,0.038,-0.022,0.093,0.065,-0.209,-0.072,-0.343,0.871
2024-10-15 13:53:57.929,74389.383,-0.068,0.336,-0.94,-0.054,0.024,-0.015,0.09,0.069,-0.219,-0.072,-0.342,0.869
2024-10-15 13:53:57.940,74389.393,-0.068,0.335,-0.94,-0.032,0.016,0.004,0.023,0.116,-0.177,-0.072,-0.342,0.867
2024-10-15 13:53:57.949,74389.403,-0.067,0.335,-0.94,-0.042,0.009,-0.003,-0.102,0.076,-0.107,-0.071,-0.342,0.865
2024-10-15 13:53:57.960,74389.413,-0.067,0.337,-0.939,-0.053,-0.002,-0.018,-0.193,0.013,-0.055,-0.071,-0.343,0.864
2024-10-15 13:53:57.969,74389.423,-0.067,0.339,-0.939,-0.029,-0.049,-0.017,-0.221,-0.022,-0.002,-0.071,-0.345,0.864
2024-10-15 13:53:57.980,74389.433,-0.067,0.341,-0.938,0.001,-0.051,-0.003,-0.218,0.009,0.084,-0.072,-0.348,0.864
2024-10-15 13:53:57.989,74389.443,-0.067,0.343,-0.937,-0.001,-0.002,-0.014,-0.204,0.027,0.13,-0.071,-0.35,0.865
2024-10-15 13:53:57.999,74389.453,-0.066,0.345,-0.936,-0.004,0.043,-0.029,-0.198,0.001,0.151,-0.071,-0.352,0.866
2024-10-15 13:53:58.009,74389.463,-0.066,0.346,-0.936,0.029,0.058,-0.02,-0.1,0.003,0.11,-0.071,-0.354,0.868
2024-10-15 13:53:58.019,74389.473,-0.066,0.347,-0.936,0.054,0.092,0.002,-0.026,0.022,0.082,-0.07,-0.354,0.869
2024-10-15 13:53:58.029,74389.482,-0.065,0.347,-0.936,0.04,0.081,0.004,0.006,0.019,0.063,-0.07,-0.354,0.869
2024-10-15 13:53:58.039,74389.492,-0.065,0.347,-0.936,0.025,0.031,0.005,0.057,0.014,0.041,-0.07,-0.354,0.87
2024-10-15 13:53:58.049,74389.502,-0.065,0.346,-0.936,0.02,-0.025,-0.004,0.104,0.055,0.003,-0.069,-0.353,0.87
2024-10-15 13:53:58.059,74389.512,-0.064,0.345,-0.936,-0.002,-0.047,-0.01,0.027,0.073,0.014,-0.069,-0.352,0.87
2024-10-15 13:53:58.070,74389.522,-0.064,0.346,-0.936,-0.033,-0.074,-0.0,-0.146,-0.025,0.069,-0.068,-0.353,0.871
2024-10-15 13:53:58.080,74389.532,-0.064,0.347,-0.936,-0.033,-0.114,0.05,-0.07,-0.123,0.045,-0.069,-0.354,0.871
2024-10-15 13:53:58.089,74389.542,-0.065,0.346,-0.936,0.01,-0.058,0.097,0.211,-0.089,-0.014,-0.07,-0.354,0.871
2024-10-15 13:53:58.099,74389.552,-0.066,0.344,-0.937,0.038,0.078,0.067,0.359,-0.023,-0.066,-0.07,-0.351,0.871
2024-10-15 13:53:58.109,74389.562,-0.067,0.34,-0.938,0.007,0.148,0.009,0.302,-0.144,-0.049,-0.071,-0.347,0.871
2024-10-15 13:53:58.119,74389.572,-0.069,0.338,-0.939,-0.03,0.076,0.043,0.272,-0.136,-0.11,-0.073,-0.345,0.87
2024-10-15 13:53:58.129,74389.582,-0.07,0.335,-0.939,0.017,0.053,0.09,0.167,-0.044,-0.123,-0.074,-0.342,0.869
2024-10-15 13:53:58.139,74389.592,-0.07,0.335,-0.94,0.023,0.078,0.04,-0.084,-0.056,0.006,-0.075,-0.342,0.868
2024-10-15 13:53:58.149,74389.602,-0.071,0.337,-0.939,-0.032,-0.021,0.009,-0.386,-0.099,0.067,-0.075,-0.344,0.869
2024-10-15 13:53:58.159,74389.612,-0.071,0.342,-0.937,-0.021,-0.135,0.01,-0.51,-0.026,0.064,-0.076,-0.349,0.869
2024-10-15 13:53:58.169,74389.622,-0.071,0.347,-0.935,-0.009,-0.108,-0.007,-0.575,0.08,0.028,-0.076,-0.354,0.869
2024-10-15 13:53:58.179,74389.632,-0.07,0.353,-0.933,-0.059,-0.157,-0.03,-0.858,0.046,0.022,-0.075,-0.361,0.869
2024-10-15 13:53:58.189,74389.642,-0.07,0.363,-0.929,-0.104,-0.252,-0.054,-1.211,0.066,0.061,-0.075,-0.371,0.868
2024-10-15 13:53:58.200,74389.652,-0.068,0.376,-0.924,-0.132,-0.265,-0.03,-1.668,0.27,0.136,-0.073,-0.386,0.868
2024-10-15 13:53:58.209,74389.662,-0.064,0.393,-0.917,-0.162,-0.143,-0.011,-2.066,0.364,0.204,-0.07,-0.404,0.869
2024-10-15 13:53:58.219,74389.672,-0.06,0.414,-0.908,-0.209,-0.061,-0.031,-2.335,0.374,0.209,-0.066,-0.427,0.869
2024-10-15 13:53:58.229,74389.682,-0.056,0.435,-0.899,-0.197,-0.114,-0.054,-2.348,0.281,0.159,-0.062,-0.45,0.87
2024-10-15 13:53:58.239,74389.692,-0.053,0.455,-0.889,-0.136,-0.084,-0.037,-2.051,0.175,0.105,-0.06,-0.472,0.87
2024-10-15 13:53:58.249,74389.702,-0.052,0.471,-0.881,-0.092,-0.013,-0.002,-1.547,0.177,0.077,-0.058,-0.49,0.87
2024-10-15 13:53:58.259,74389.712,-0.049,0.482,-0.875,-0.068,0.086,0.029,-1.076,0.198,0.135,-0.056,-0.503,0.87
2024-10-15 13:53:58.269,74389.722,-0.047,0.491,-0.87,-0.072,0.12,0.041,-0.84,0.108,0.196,-0.054,-0.513,0.871
2024-10-15 13:53:58.279,74389.732,-0.046,0.498,-0.866,-0.054,0.062,0.047,-0.732,-0.013,0.206,-0.053,-0.521,0.873
2024-10-15 13:53:58.289,74389.742,-0.045,0.504,-0.863,0.02,0.05,0.076,-0.588,-0.105,0.167,-0.053,-0.528,0.875
2024-10-15 13:53:58.299,74389.752,-0.046,0.508,-0.86,0.067,0.092,0.095,-0.336,-0.179,0.078,-0.053,-0.532,0.876
2024-10-15 13:53:58.309,74389.762,-0.048,0.509,-0.86,0.077,0.148,0.077,0.067,-0.21,-0.037,-0.055,-0.534,0.876
2024-10-15 13:53:58.319,74389.772,-0.049,0.507,-0.861,0.08,0.224,0.025,0.424,-0.149,-0.073,-0.057,-0.531,0.876
2024-10-15 13:53:58.329,74389.782,-0.051,0.501,-0.864,0.085,0.238,-0.012,0.761,-0.193,-0.082,-0.059,-0.525,0.875
2024-10-15 13:53:58.339,74389.792,-0.053,0.494,-0.868,0.089,0.179,-0.016,0.922,-0.196,-0.086,-0.061,-0.517,0.875
2024-10-15 13:53:58.349,74389.802,-0.055,0.486,-0.872,0.115,0.145,-0.018,0.992,-0.174,-0.061,-0.063,-0.507,0.875
2024-10-15 13:53:58.359,74389.812,-0.057,0.477,-0.877,0.137,0.141,0.004,0.963,-0.181,-0.023,-0.065,-0.497,0.875
2024-10-15 13:53:58.369,74389.822,-0.059,0.469,-0.881,0.134,0.09,0.024,0.88,-0.206,0.019,-0.067,-0.488,0.875
2024-10-15 13:53:58.379,74389.832,-0.061,0.462,-0.885,0.153,0.038,0.054,0.768,-0.239,0.048,-0.068,-0.48,0.876
2024-10-15 13:53:58.389,74389.842,-0.063,0.455,-0.888,0.172,0.001,0.073,0.711,-0.286,0.062,-0.07,-0.473,0.878
2024-10-15 13:53:58.399,74389.852,-0.065,0.449,-0.891,0.167,-0.018,0.078,0.684,-0.292,0.054,-0.073,-0.466,0.879
2024-10-15 13:53:58.409,74389.862,-0.067,0.443,-0.894,0.136,-0.01,0.061,0.691,-0.174,0.043,-0.075,-0.459,0.88
2024-10-15 13:53:58.419,74389.872,-0.068,0.437,-0.897,0.078,-0.013,0.034,0.672,-0.135,0.036,-0.076,-0.452,0.881
2024-10-15 13:53:58.429,74389.882,-0.07,0.431,-0.9,0.008,-0.035,-0.04,0.73,-0.151,-0.049,-0.077,-0.445,0.881
2024-10-15 13:53:58.439,74389.892,-0.071,0.424,-0.903,-0.079,-0.036,-0.232,0.857,0.013,-0.033,-0.078,-0.437,0.882
2024-10-15 13:53:58.450,74389.902,-0.07,0.416,-0.907,-0.113,-0.016,-0.202,0.753,0.078,-0.056,-0.077,-0.429,0.882
2024-10-15 13:53:58.459,74389.912,-0.07,0.41,-0.91,-0.105,-0.043,-0.098,0.652,0.003,-0.119,-0.077,-0.422,0.882
2024-10-15 13:53:58.469,74389.922,-0.071,0.404,-0.912,-0.061,-0.085,-0.043,0.58,-0.03,-0.131,-0.078,-0.416,0.881
2024-10-15 13:53:58.479,74389.932,-0.072,0.399,-0.914,-0.019,-0.082,0.019,0.462,-0.027,-0.12,-0.078,-0.411,0.88
2024-10-15 13:53:58.488,74389.942,-0.073,0.395,-0.916,-0.018,-0.054,0.094,0.393,-0.105,-0.095,-0.079,-0.406,0.879
2024-10-15 13:53:58.498,74389.952,-0.074,0.392,-0.917,-0.028,-0.053,0.127,0.364,-0.178,-0.108,-0.081,-0.403,0.878
2024-10-15 13:53:58.509,74389.962,-0.076,0.388,-0.918,-0.016,-0.011,0.11,0.411,-0.146,-0.135,-0.083,-0.399,0.877
2024-10-15 13:53:58.519,74389.972,-0.078,0.384,-0.92,-0.016,0.074,0.063,0.469,-0.068,-0.13,-0.084,-0.394,0.876
2024-10-15 13:53:58.529,74389.982,-0.079,0.38,-0.922,-0.043,0.075,0.017,0.375,-0.007,-0.115,-0.085,-0.39,0.875
2024-10-15 13:53:58.538,74389.992,-0.079,0.377,-0.923,-0.048,0.031,-0.04,0.158,-0.012,0.021,-0.085,-0.387,0.875
2024-10-15 13:53:58.549,74390.002,-0.079,0.377,-0.923,-0.048,-0.036,-0.046,0.001,-0.091,0.065,-0.086,-0.386,0.876
2024-10-15 13:53:58.559,74390.012,-0.08,0.377,-0.923,0.002,-0.075,-0.018,-0.026,-0.043,0.033,-0.086,-0.386,0.876
2024-10-15 13:53:58.569,74390.022,-0.08,0.378,-0.923,0.069,-0.039,-0.02,-0.123,-0.029,0.158,-0.086,-0.387,0.877
2024-10-15 13:53:58.579,74390.032,-0.08,0.379,-0.922,0.048,-0.055,0.002,-0.197,-0.077,0.171,-0.086,-0.389,0.879
2024-10-15 13:53:58.589,74390.042,-0.08,0.381,-0.921,0.071,-0.06,0.029,-0.153,-0.06,0.129,-0.086,-0.391,0.88
2024-10-15 13:53:58.598,74390.052,-0.08,0.382,-0.921,0.112,0.01,0.048,-0.023,-0.066,0.088,-0.086,-0.392,0.881
2024-10-15 13:53:58.608,74390.062,-0.08,0.382,-0.921,0.096,0.031,0.055,0.137,-0.001,0.071,-0.086,-0.391,0.882
2024-10-15 13:53:58.618,74390.071,-0.079,0.38,-0.922,0.076,0.02,0.043,0.181,0.062,0.066,-0.086,-0.39,0.883
2024-10-15 13:53:58.628,74390.081,-0.078,0.379,-0.922,0.056,0.014,0.029,0.097,0.058,0.087,-0.085,-0.388,0.884
2024-10-15 13:53:58.638,74390.091,-0.078,0.378,-0.923,0.035,-0.021,0.031,0.067,0.013,0.083,-0.084,-0.388,0.885
2024-10-15 13:53:58.648,74390.101,-0.077,0.377,-0.923,0.035,-0.039,0.052,0.181,0.069,0.037,-0.083,-0.387,0.886
2024-10-15 13:53:58.658,74390.111,-0.076,0.374,-0.924,0.048,0.022,0.073,0.408,0.097,-0.027,-0.082,-0.384,0.886
2024-10-15 13:53:58.668,74390.121,-0.075,0.37,-0.926,0.037,0.073,0.057,0.531,0.082,-0.076,-0.081,-0.379,0.886
2024-10-15 13:53:58.678,74390.131,-0.075,0.365,-0.928,0.027,0.046,0.013,0.509,0.025,-0.129,-0.081,-0.374,0.885
2024-10-15 13:53:58.688,74390.141,-0.075,0.361,-0.93,0.004,0.003,-0.019,0.354,-0.012,-0.159,-0.081,-0.369,0.884
2024-10-15 13:53:58.698,74390.151,-0.076,0.358,-0.931,-0.042,-0.038,-0.019,0.226,-0.056,-0.159,-0.082,-0.366,0.883
2024-10-15 13:53:58.708,74390.161,-0.077,0.356,-0.931,-0.088,-0.038,0.032,0.201,-0.108,-0.167,-0.083,-0.364,0.881
2024-10-15 13:53:58.718,74390.171,-0.079,0.354,-0.932,-0.089,0.002,0.059,0.284,-0.097,-0.187,-0.084,-0.362,0.88
2024-10-15 13:53:58.728,74390.181,-0.08,0.351,-0.933,-0.074,0.049,0.041,0.334,-0.026,-0.162,-0.086,-0.358,0.878
2024-10-15 13:53:58.738,74390.191,-0.081,0.348,-0.934,-0.09,0.04,0.031,0.23,-0.056,-0.097,-0.086,-0.355,0.877
2024-10-15 13:53:58.748,74390.201,-0.082,0.346,-0.934,-0.096,-0.002,0.021,0.105,-0.1,-0.073,-0.087,-0.354,0.876
2024-10-15 13:53:58.758,74390.211,-0.083,0.346,-0.935,-0.077,-0.022,0.008,0.025,-0.073,-0.075,-0.089,-0.353,0.876
2024-10-15 13:53:58.768,74390.221,-0.084,0.346,-0.935,-0.058,0.008,-0.016,-0.049,0.001,-0.025,-0.089,-0.353,0.875
2024-10-15 13:53:58.778,74390.231,-0.084,0.347,-0.934,-0.071,0.028,-0.063,-0.127,-0.041,0.096,-0.089,-0.354,0.875
2024-10-15 13:53:58.788,74390.241,-0.084,0.348,-0.934,-0.079,-0.007,-0.086,-0.159,-0.087,0.137,-0.089,-0.356,0.876
2024-10-15 13:53:58.798,74390.251,-0.084,0.35,-0.933,-0.034,0.011,-0.066,-0.11,-0.084,0.15,-0.09,-0.357,0.878
2024-10-15 13:53:58.808,74390.261,-0.084,0.351,-0.933,0.016,0.068,-0.018,-0.096,-0.071,0.189,-0.09,-0.358,0.88
2024-10-15 13:53:58.818,74390.271,-0.084,0.352,-0.932,0.036,0.061,0.026,-0.077,-0.113,0.201,-0.09,-0.359,0.882
2024-10-15 13:53:58.828,74390.281,-0.085,0.352,-0.932,0.058,0.058,0.044,0.004,-0.096,0.18,-0.091,-0.36,0.884
2024-10-15 13:53:58.838,74390.291,-0.085,0.352,-0.932,0.073,0.068,0.056,0.101,-0.051,0.168,-0.091,-0.36,0.885
2024-10-15 13:53:58.848,74390.301,-0.085,0.351,-0.933,0.076,0.042,0.06,0.13,-0.038,0.169,-0.091,-0.359,0.887
2024-10-15 13:53:58.858,74390.311,-0.085,0.35,-0.933,0.072,0.014,0.042,0.139,-0.029,0.152,-0.09,-0.357,0.889
2024-10-15 13:53:58.868,74390.321,-0.084,0.349,-0.933,0.082,0.009,0.033,0.123,-0.007,0.136,-0.09,-0.356,0.891
2024-10-15 13:53:58.878,74390.331,-0.084,0.348,-0.934,0.083,-0.0,0.043,0.09,0.01,0.138,-0.089,-0.355,0.892
2024-10-15 13:53:58.888,74390.341,-0.083,0.347,-0.934,0.056,-0.006,0.043,0.175,-0.014,0.079,-0.089,-0.354,0.894
2024-10-15 13:53:58.898,74390.351,-0.083,0.344,-0.935,0.043,0.008,0.027,0.352,0.011,0.002,-0.089,-0.352,0.894
2024-10-15 13:53:58.908,74390.361,-0.083,0.341,-0.937,0.048,0.01,-0.005,0.461,0.04,-0.061,-0.088,-0.347,0.894
2024-10-15 13:53:58.918,74390.371,-0.083,0.336,-0.938,0.023,-0.02,-0.042,0.421,0.079,-0.133,-0.088,-0.343,0.894
2024-10-15 13:53:58.928,74390.381,-0.082,0.333,-0.939,-0.022,-0.059,-0.054,0.298,0.064,-0.175,-0.087,-0.339,0.893
2024-10-15 13:53:58.938,74390.391,-0.082,0.33,-0.94,-0.066,-0.098,-0.035,0.213,0.042,-0.249,-0.087,-0.337,0.891
2024-10-15 13:53:58.948,74390.401,-0.083,0.328,-0.941,-0.081,-0.105,-0.012,0.25,0.068,-0.342,-0.088,-0.334,0.888
2024-10-15 13:53:58.958,74390.411,-0.083,0.325,-0.942,-0.081,-0.074,-0.01,0.319,0.126,-0.385,-0.088,-0.331,0.884
2024-10-15 13:53:58.968,74390.421,-0.083,0.322,-0.943,-0.101,-0.053,-0.015,0.323,0.118,-0.408,-0.088,-0.327,0.88
2024-10-15 13:53:58.978,74390.431,-0.083,0.319,-0.944,-0.114,-0.076,-0.02,0.152,0.106,-0.371,-0.088,-0.324,0.876
2024-10-15 13:53:58.988,74390.441,-0.084,0.318,-0.944,-0.101,-0.09,-0.02,-0.103,0.029,-0.254,-0.088,-0.324,0.873
2024-10-15 13:53:58.998,74390.451,-0.084,0.32,-0.944,-0.086,-0.079,-0.004,-0.255,-0.025,-0.145,-0.089,-0.326,0.871
2024-10-15 13:53:59.008,74390.461,-0.085,0.322,-0.943,-0.07,-0.024,0.004,-0.207,-0.02,-0.071,-0.09,-0.328,0.87
2024-10-15 13:53:59.018,74390.471,-0.085,0.323,-0.942,-0.04,0.097,0.012,-0.056,-0.03,0.019,-0.09,-0.329,0.869
2024-10-15 13:53:59.028,74390.481,-0.085,0.324,-0.942,-0.022,0.14,-0.015,0.027,-0.009,0.111,-0.09,-0.329,0.87
2024-10-15 13:53:59.038,74390.491,-0.085,0.323,-0.942,0.002,0.133,-0.027,0.033,-0.048,0.194,-0.09,-0.329,0.872
2024-10-15 13:53:59.048,74390.501,-0.085,0.323,-0.942,0.023,0.115,0.001,-0.026,-0.085,0.22,-0.09,-0.329,0.874
2024-10-15 13:53:59.058,74390.511,-0.085,0.324,-0.942,0.058,0.105,0.027,-0.078,-0.101,0.224,-0.09,-0.33,0.876
2024-10-15 13:53:59.068,74390.521,-0.085,0.325,-0.942,0.082,0.109,0.047,-0.057,-0.124,0.22,-0.091,-0.331,0.878
2024-10-15 13:53:59.078,74390.531,-0.086,0.325,-0.942,0.068,0.058,0.047,0.011,-0.127,0.227,-0.091,-0.331,0.881
2024-10-15 13:53:59.088,74390.541,-0.086,0.325,-0.942,0.067,0.021,0.042,0.134,-0.09,0.196,-0.091,-0.331,0.883
2024-10-15 13:53:59.098,74390.551,-0.086,0.323,-0.942,0.058,0.027,0.045,0.296,-0.016,0.085,-0.091,-0.329,0.885
2024-10-15 13:53:59.107,74390.561,-0.086,0.32,-0.944,0.048,0.031,0.016,0.374,0.078,-0.001,-0.091,-0.326,0.885
2024-10-15 13:53:59.117,74390.571,-0.085,0.317,-0.945,0.025,-0.015,-0.025,0.276,0.144,-0.028,-0.09,-0.322,0.886
2024-10-15 13:53:59.127,74390.581,-0.084,0.315,-0.945,-0.009,-0.085,-0.022,0.126,0.092,-0.032,-0.088,-0.32,0.885
2024-10-15 13:53:59.138,74390.591,-0.083,0.314,-0.946,-0.019,-0.112,0.018,0.106,0.032,-0.086,-0.088,-0.319,0.885
2024-10-15 13:53:59.148,74390.601,-0.083,0.313,-0.946,0.015,-0.091,0.035,0.158,0.061,-0.159,-0.088,-0.318,0.884
2024-10-15 13:53:59.158,74390.611,-0.083,0.311,-0.947,0.027,-0.055,0.021,0.156,0.075,-0.212,-0.088,-0.316,0.882
2024-10-15 13:53:59.167,74390.621,-0.083,0.31,-0.947,-0.032,-0.054,0.031,0.05,0.051,-0.224,-0.088,-0.315,0.88
2024-10-15 13:53:59.178,74390.631,-0.084,0.309,-0.947,-0.072,-0.066,0.043,-0.022,-0.013,-0.263,-0.088,-0.315,0.877
2024-10-15 13:53:59.187,74390.641,-0.085,0.309,-0.947,-0.056,-0.056,0.037,0.01,-0.01,-0.279,-0.089,-0.314,0.874
2024-10-15 13:53:59.197,74390.651,-0.085,0.309,-0.947,-0.049,-0.019,0.023,0.104,0.031,-0.252,-0.09,-0.314,0.872
2024-10-15 13:53:59.207,74390.661,-0.086,0.307,-0.948,-0.077,0.036,-0.001,0.155,0.051,-0.176,-0.09,-0.312,0.87
2024-10-15 13:53:59.218,74390.67,-0.086,0.306,-0.948,-0.095,0.061,-0.007,0.117,0.025,-0.101,-0.09,-0.311,0.868
2024-10-15 13:53:59.228,74390.68,-0.086,0.305,-0.949,-0.074,0.053,0.01,0.045,0.011,-0.044,-0.09,-0.31,0.868
2024-10-15 13:53:59.238,74390.69,-0.086,0.305,-0.949,-0.041,0.052,0.025,-0.028,-0.03,0.004,-0.09,-0.309,0.867
2024-10-15 13:53:59.247,74390.7,-0.086,0.305,-0.948,-0.023,0.062,0.022,-0.121,-0.076,0.094,-0.091,-0.31,0.868
2024-10-15 13:53:59.257,74390.71,-0.087,0.307,-0.948,-0.014,0.043,0.01,-0.246,-0.121,0.203,-0.091,-0.312,0.869
2024-10-15 13:53:59.267,74390.72,-0.088,0.31,-0.947,0.007,0.016,0.008,-0.266,-0.178,0.251,-0.092,-0.315,0.871
2024-10-15 13:53:59.277,74390.73,-0.088,0.312,-0.946,0.034,0.024,0.011,-0.137,-0.103,0.229,-0.093,-0.317,0.874
2024-10-15 13:53:59.287,74390.74,-0.088,0.313,-0.946,0.061,0.112,0.016,-0.011,-0.027,0.19,-0.093,-0.318,0.876
2024-10-15 13:53:59.297,74390.75,-0.088,0.313,-0.946,0.079,0.141,-0.009,0.025,-0.009,0.191,-0.093,-0.318,0.878
2024-10-15 13:53:59.307,74390.76,-0.088,0.313,-0.946,0.092,0.058,-0.044,0.017,-0.01,0.187,-0.092,-0.318,0.88
2024-10-15 13:53:59.317,74390.77,-0.087,0.313,-0.946,0.107,-0.003,-0.055,0.011,0.021,0.192,-0.092,-0.318,0.882
2024-10-15 13:53:59.327,74390.78,-0.086,0.313,-0.946,0.094,-0.008,-0.044,-0.003,0.043,0.219,-0.091,-0.318,0.884
2024-10-15 13:53:59.337,74390.79,-0.085,0.313,-0.946,0.071,-0.009,-0.012,-0.023,0.043,0.232,-0.09,-0.319,0.886
2024-10-15 13:53:59.347,74390.8,-0.084,0.314,-0.946,0.063,-0.019,0.035,0.002,0.022,0.215,-0.088,-0.319,0.888
2024-10-15 13:53:59.357,74390.81,-0.083,0.313,-0.946,0.068,-0.006,0.088,0.08,-0.023,0.151,-0.088,-0.319,0.89
2024-10-15 13:53:59.367,74390.82,-0.083,0.312,-0.946,0.065,0.005,0.097,0.224,-0.012,0.084,-0.088,-0.318,0.892
2024-10-15 13:53:59.377,74390.83,-0.083,0.31,-0.947,0.033,0.006,0.075,0.303,0.005,0.012,-0.087,-0.315,0.893
2024-10-15 13:53:59.387,74390.84,-0.083,0.307,-0.948,-0.018,-0.017,0.037,0.304,-0.009,-0.066,-0.087,-0.312,0.893
2024-10-15 13:53:59.397,74390.85,-0.083,0.304,-0.949,-0.07,-0.056,-0.01,0.261,-0.005,-0.137,-0.087,-0.309,0.892
2024-10-15 13:53:59.407,74390.86,-0.083,0.302,-0.95,-0.105,-0.092,-0.024,0.212,0.018,-0.196,-0.087,-0.307,0.891
2024-10-15 13:53:59.417,74390.87,-0.084,0.299,-0.95,-0.128,-0.095,-0.024,0.251,0.025,-0.273,-0.088,-0.304,0.888
2024-10-15 13:53:59.427,74390.88,-0.084,0.296,-0.951,-0.144,-0.075,-0.038,0.411,0.107,-0.362,-0.088,-0.301,0.885
2024-10-15 13:53:59.437,74390.89,-0.084,0.291,-0.953,-0.157,-0.038,-0.048,0.515,0.213,-0.433,-0.087,-0.296,0.882
2024-10-15 13:53:59.447,74390.9,-0.083,0.286,-0.955,-0.17,-0.026,-0.042,0.428,0.217,-0.424,-0.086,-0.29,0.877
2024-10-15 13:53:59.457,74390.91,-0.082,0.283,-0.956,-0.162,-0.1,-0.036,0.138,0.173,-0.379,-0.086,-0.287,0.874
2024-10-15 13:53:59.467,74390.92,-0.082,0.283,-0.956,-0.138,-0.165,-0.047,-0.202,0.101,-0.257,-0.085,-0.287,0.87
2024-10-15 13:53:59.477,74390.93,-0.082,0.286,-0.955,-0.114,-0.127,-0.022,-0.365,0.042,-0.181,-0.085,-0.29,0.868
2024-10-15 13:53:59.487,74390.94,-0.082,0.289,-0.954,-0.085,-0.048,0.007,-0.325,0.053,-0.122,-0.085,-0.293,0.866
2024-10-15 13:53:59.497,74390.95,-0.081,0.292,-0.953,-0.036,0.057,0.013,-0.239,0.053,-0.021,-0.085,-0.296,0.865
2024-10-15 13:53:59.507,74390.96,-0.081,0.294,-0.953,-0.001,0.121,0.019,-0.143,-0.018,0.084,-0.085,-0.298,0.865
2024-10-15 13:53:59.517,74390.97,-0.081,0.295,-0.952,0.042,0.156,0.026,-0.122,-0.048,0.168,-0.085,-0.299,0.866
2024-10-15 13:53:59.527,74390.98,-0.081,0.296,-0.952,0.109,0.211,0.055,-0.136,-0.082,0.217,-0.085,-0.301,0.868
2024-10-15 13:53:59.537,74390.99,-0.081,0.298,-0.951,0.153,0.214,0.064,-0.226,-0.067,0.288,-0.085,-0.303,0.871
2024-10-15 13:53:59.547,74391.0,-0.081,0.301,-0.95,0.162,0.159,0.044,-0.28,-0.105,0.343,-0.085,-0.306,0.874
2024-10-15 13:53:59.557,74391.01,-0.081,0.304,-0.949,0.135,0.101,0.047,-0.296,-0.145,0.371,-0.085,-0.309,0.877
2024-10-15 13:53:59.567,74391.02,-0.081,0.306,-0.948,0.115,0.046,0.053,-0.17,-0.149,0.334,-0.086,-0.311,0.881
2024-10-15 13:53:59.577,74391.03,-0.082,0.307,-0.948,0.111,0.04,0.071,0.066,-0.071,0.214,-0.086,-0.312,0.883
2024-10-15 13:53:59.587,74391.04,-0.081,0.306,-0.949,0.09,0.037,0.042,0.224,0.055,0.116,-0.085,-0.311,0.885
2024-10-15 13:53:59.597,74391.05,-0.08,0.304,-0.949,0.049,-0.029,-0.005,0.24,0.089,0.009,-0.084,-0.308,0.886
2024-10-15 13:53:59.607,74391.06,-0.08,0.302,-0.95,0.006,-0.127,-0.015,0.123,0.088,-0.075,-0.084,-0.307,0.886
2024-10-15 13:53:59.617,74391.07,-0.079,0.301,-0.95,-0.014,-0.198,0.001,0.029,0.034,-0.111,-0.083,-0.306,0.885
2024-10-15 13:53:59.627,74391.08,-0.079,0.301,-0.95,-0.028,-0.236,0.03,0.029,0.033,-0.189,-0.083,-0.305,0.884
2024-10-15 13:53:59.637,74391.09,-0.08,0.3,-0.951,-0.025,-0.19,0.041,0.042,0.074,-0.256,-0.083,-0.305,0.881
2024-10-15 13:53:59.646,74391.1,-0.08,0.3,-0.951,-0.039,-0.102,0.025,-0.018,0.081,-0.294,-0.084,-0.304,0.878
2024-10-15 13:53:59.656,74391.11,-0.08,0.3,-0.951,-0.093,-0.061,-0.012,-0.149,0.087,-0.281,-0.084,-0.305,0.875
2024-10-15 13:53:59.667,74391.12,-0.08,0.302,-0.95,-0.128,-0.033,-0.015,-0.263,0.045,-0.256,-0.084,-0.307,0.872
2024-10-15 13:53:59.677,74391.13,-0.08,0.305,-0.949,-0.114,-0.011,-0.008,-0.272,0.033,-0.186,-0.084,-0.309,0.87
2024-10-15 13:53:59.686,74391.14,-0.08,0.307,-0.948,-0.098,0.026,-0.01,-0.215,0.075,-0.104,-0.084,-0.312,0.868
2024-10-15 13:53:59.696,74391.15,-0.08,0.308,-0.948,-0.088,0.087,-0.01,-0.159,0.101,-0.065,-0.084,-0.313,0.867
2024-10-15 13:53:59.706,74391.16,-0.079,0.31,-0.948,-0.074,0.102,-0.038,-0.159,0.12,-0.034,-0.083,-0.315,0.866
2024-10-15 13:53:59.716,74391.17,-0.078,0.312,-0.947,-0.051,0.093,-0.053,-0.257,0.089,0.021,-0.082,-0.317,0.866
2024-10-15 13:53:59.726,74391.18,-0.077,0.315,-0.946,-0.039,0.041,-0.041,-0.332,0.035,0.114,-0.081,-0.32,0.866
2024-10-15 13:53:59.737,74391.19,-0.076,0.318,-0.945,-0.016,0.001,-0.02,-0.378,0.041,0.194,-0.08,-0.324,0.868
2024-10-15 13:53:59.746,74391.2,-0.075,0.322,-0.944,0.01,0.009,0.021,-0.437,0.013,0.227,-0.079,-0.328,0.87
2024-10-15 13:53:59.756,74391.21,-0.074,0.327,-0.942,0.045,0.046,0.031,-0.44,-0.036,0.24,-0.079,-0.333,0.872
2024-10-15 13:53:59.766,74391.22,-0.074,0.33,-0.941,0.072,0.068,0.04,-0.286,-0.071,0.18,-0.079,-0.336,0.874
2024-10-15 13:53:59.776,74391.23,-0.074,0.332,-0.94,0.081,0.073,0.025,-0.033,-0.032,0.113,-0.079,-0.338,0.875
2024-10-15 13:53:59.786,74391.24,-0.074,0.331,-0.941,0.068,0.052,-0.011,0.167,0.07,0.088,-0.078,-0.338,0.876
2024-10-15 13:53:59.797,74391.25,-0.073,0.329,-0.941,0.027,0.046,-0.026,0.207,0.115,0.034,-0.077,-0.336,0.877
2024-10-15 13:53:59.806,74391.259,-0.072,0.328,-0.942,-0.005,0.004,-0.028,0.112,0.072,-0.003,-0.076,-0.334,0.877
2024-10-15 13:53:59.816,74391.269,-0.071,0.327,-0.942,-0.005,-0.061,-0.014,0.07,0.052,-0.035,-0.076,-0.333,0.877
2024-10-15 13:53:59.826,74391.279,-0.071,0.326,-0.943,-0.004,-0.072,0.044,0.115,0.063,-0.073,-0.075,-0.332,0.877
2024-10-15 13:53:59.836,74391.289,-0.071,0.325,-0.943,0.001,-0.025,0.104,0.216,0.067,-0.122,-0.075,-0.331,0.876
2024-10-15 13:53:59.846,74391.299,-0.07,0.322,-0.944,0.008,0.023,0.109,0.291,0.073,-0.194,-0.075,-0.328,0.874
2024-10-15 13:53:59.856,74391.309,-0.071,0.319,-0.945,0.016,0.036,0.045,0.217,0.066,-0.272,-0.075,-0.325,0.872
2024-10-15 13:53:59.866,74391.319,-0.071,0.318,-0.945,-0.011,0.004,-0.002,0.005,0.001,-0.236,-0.075,-0.324,0.87
2024-10-15 13:53:59.876,74391.329,-0.072,0.319,-0.945,-0.055,-0.076,0.04,-0.162,-0.044,-0.207,-0.076,-0.325,0.867
2024-10-15 13:53:59.886,74391.339,-0.073,0.32,-0.944,-0.048,-0.082,0.077,-0.159,-0.051,-0.19,-0.077,-0.326,0.865
2024-10-15 13:53:59.896,74391.349,-0.074,0.321,-0.944,-0.028,-0.029,0.048,-0.063,0.041,-0.14,-0.078,-0.327,0.863
2024-10-15 13:53:59.906,74391.359,-0.073,0.322,-0.944,-0.039,0.049,-0.01,-0.047,0.1,-0.113,-0.078,-0.327,0.862
2024-10-15 13:53:59.916,74391.369,-0.073,0.322,-0.944,-0.051,0.106,-0.068,-0.133,0.096,-0.065,-0.077,-0.328,0.861
2024-10-15 13:53:59.927,74391.379,-0.072,0.324,-0.943,-0.034,0.048,-0.092,-0.17,0.07,-0.026,-0.076,-0.33,0.86
2024-10-15 13:53:59.936,74391.389,-0.071,0.325,-0.943,0.008,0.018,-0.094,-0.132,0.077,-0.022,-0.076,-0.331,0.86
2024-10-15 13:53:59.946,74391.399,-0.071,0.327,-0.942,0.026,0.014,-0.079,-0.22,0.007,0.103,-0.075,-0.333,0.86
2024-10-15 13:53:59.963,74391.409,-0.071,0.329,-0.942,0.023,-0.052,-0.032,-0.227,-0.078,0.172,-0.075,-0.335,0.861
2024-10-15 13:53:59.967,74391.419,-0.071,0.331,-0.941,0.038,-0.039,0.019,-0.221,-0.075,0.209,-0.075,-0.338,0.863
2024-10-15 13:53:59.978,74391.429,-0.071,0.333,-0.94,0.059,0.003,0.06,-0.208,-0.084,0.215,-0.075,-0.34,0.865
2024-10-15 13:53:59.986,74391.439,-0.071,0.335,-0.939,0.055,0.004,0.068,-0.165,-0.091,0.172,-0.076,-0.342,0.867
2024-10-15 13:53:59.996,74391.449,-0.072,0.337,-0.939,0.05,0.004,0.034,-0.054,-0.085,0.127,-0.076,-0.343,0.869
2024-10-15 13:54:00.005,74391.459,-0.072,0.336,-0.939,0.024,-0.035,-0.009,0.114,-0.0,0.024,-0.076,-0.343,0.869
2024-10-15 13:54:00.015,74391.469,-0.071,0.335,-0.94,0.004,-0.029,-0.038,0.188,0.08,-0.053,-0.076,-0.341,0.869
2024-10-15 13:54:00.025,74391.479,-0.071,0.333,-0.94,-0.016,-0.02,-0.055,0.119,0.055,-0.071,-0.075,-0.34,0.869
2024-10-15 13:54:00.035,74391.489,-0.071,0.333,-0.94,-0.022,-0.071,-0.018,0.019,-0.032,-0.066,-0.075,-0.339,0.868
2024-10-15 13:54:00.046,74391.499,-0.072,0.332,-0.941,0.008,-0.061,0.063,0.099,-0.078,-0.098,-0.076,-0.338,0.867
2024-10-15 13:54:00.056,74391.509,-0.073,0.33,-0.941,0.031,0.049,0.111,0.26,-0.015,-0.117,-0.077,-0.337,0.866
2024-10-15 13:54:00.066,74391.519,-0.073,0.327,-0.942,0.015,0.12,0.086,0.314,-0.002,-0.125,-0.077,-0.334,0.865
2024-10-15 13:54:00.076,74391.529,-0.073,0.325,-0.943,-0.028,0.083,0.025,0.258,-0.039,-0.153,-0.078,-0.331,0.864
2024-10-15 13:54:00.086,74391.539,-0.074,0.322,-0.944,-0.041,0.018,-0.01,0.19,-0.051,-0.189,-0.079,-0.328,0.863
2024-10-15 13:54:00.096,74391.549,-0.075,0.321,-0.944,-0.039,-0.008,0.009,0.161,-0.031,-0.229,-0.08,-0.326,0.86
2024-10-15 13:54:00.106,74391.559,-0.076,0.319,-0.945,-0.037,-0.009,0.028,0.105,-0.006,-0.253,-0.081,-0.325,0.858
2024-10-15 13:54:00.116,74391.569,-0.077,0.319,-0.945,-0.041,-0.009,-0.0,-0.065,0.003,-0.213,-0.081,-0.324,0.856
2024-10-15 13:54:00.126,74391.579,-0.078,0.32,-0.944,-0.053,-0.049,-0.027,-0.293,-0.043,-0.092,-0.082,-0.326,0.854
2024-10-15 13:54:00.136,74391.589,-0.078,0.323,-0.943,-0.042,-0.056,-0.027,-0.324,-0.07,-0.04,-0.083,-0.329,0.853
2024-10-15 13:54:00.146,74391.599,-0.079,0.326,-0.942,-0.014,0.039,-0.044,-0.165,0.062,0.001,-0.083,-0.332,0.852
2024-10-15 13:54:00.156,74391.609,-0.078,0.327,-0.942,-0.018,0.09,-0.093,-0.163,0.049,0.09,-0.083,-0.333,0.853
2024-10-15 13:54:00.166,74391.619,-0.077,0.33,-0.941,-0.067,-0.018,-0.104,-0.383,0.092,0.108,-0.082,-0.336,0.854
2024-10-15 13:54:00.176,74391.629,-0.076,0.335,-0.939,-0.052,-0.103,-0.074,-0.755,0.052,0.132,-0.081,-0.342,0.854
2024-10-15 13:54:00.186,74391.639,-0.075,0.344,-0.936,-0.041,-0.205,0.005,-1.141,0.023,0.123,-0.08,-0.351,0.855
2024-10-15 13:54:00.196,74391.649,-0.074,0.356,-0.931,-0.051,-0.256,0.089,-1.522,0.067,0.16,-0.08,-0.364,0.855
2024-10-15 13:54:00.206,74391.659,-0.073,0.373,-0.925,-0.068,-0.227,0.169,-1.911,0.094,0.22,-0.079,-0.382,0.856
2024-10-15 13:54:00.216,74391.669,-0.071,0.392,-0.917,-0.115,-0.214,0.203,-2.247,0.069,0.217,-0.077,-0.403,0.856
2024-10-15 13:54:00.226,74391.679,-0.07,0.413,-0.908,-0.128,-0.197,0.171,-2.339,0.044,0.178,-0.077,-0.426,0.857
2024-10-15 13:54:00.235,74391.689,-0.069,0.434,-0.898,-0.119,-0.152,0.131,-2.225,0.155,0.078,-0.076,-0.449,0.856
2024-10-15 13:54:00.246,74391.699,-0.066,0.453,-0.889,-0.108,-0.049,0.061,-2.074,0.277,0.05,-0.074,-0.47,0.855
2024-10-15 13:54:00.255,74391.709,-0.064,0.471,-0.88,-0.15,0.004,-0.098,-1.898,0.252,0.075,-0.072,-0.49,0.854
2024-10-15 13:54:00.265,74391.719,-0.061,0.486,-0.872,-0.18,-0.032,-0.198,-1.668,0.271,0.049,-0.07,-0.508,0.853
2024-10-15 13:54:00.275,74391.729,-0.059,0.5,-0.864,-0.125,0.027,-0.151,-1.394,0.284,0.029,-0.068,-0.523,0.853
2024-10-15 13:54:00.286,74391.739,-0.056,0.51,-0.858,-0.091,0.134,-0.058,-1.12,0.178,0.027,-0.066,-0.536,0.852
2024-10-15 13:54:00.296,74391.749,-0.055,0.519,-0.853,-0.07,0.146,0.011,-0.842,0.039,-0.003,-0.065,-0.545,0.851
2024-10-15 13:54:00.306,74391.759,-0.056,0.525,-0.85,-0.002,0.118,0.061,-0.527,-0.066,-0.032,-0.065,-0.552,0.851
2024-10-15 13:54:00.315,74391.769,-0.057,0.528,-0.847,0.058,0.109,0.077,-0.247,-0.129,-0.037,-0.067,-0.556,0.85
2024-10-15 13:54:00.325,74391.779,-0.058,0.529,-0.847,0.077,0.142,0.069,0.012,-0.249,-0.064,-0.069,-0.557,0.849
2024-10-15 13:54:00.335,74391.789,-0.061,0.528,-0.847,0.09,0.177,0.056,0.256,-0.286,-0.038,-0.072,-0.556,0.849
2024-10-15 13:54:00.345,74391.799,-0.064,0.524,-0.849,0.104,0.169,0.054,0.536,-0.273,-0.047,-0.075,-0.552,0.849
2024-10-15 13:54:00.355,74391.809,-0.066,0.519,-0.852,0.112,0.204,0.054,0.737,-0.264,-0.053,-0.078,-0.545,0.849
2024-10-15 13:54:00.365,74391.819,-0.069,0.512,-0.856,0.107,0.212,0.011,0.902,-0.298,-0.038,-0.08,-0.537,0.849
2024-10-15 13:54:00.376,74391.829,-0.072,0.503,-0.861,0.109,0.145,-0.03,1.07,-0.305,-0.037,-0.083,-0.527,0.849
2024-10-15 13:54:00.385,74391.839,-0.074,0.493,-0.867,0.121,0.113,-0.027,1.222,-0.291,-0.038,-0.086,-0.516,0.85
2024-10-15 13:54:00.395,74391.849,-0.077,0.482,-0.873,0.125,0.124,0.015,1.396,-0.319,-0.066,-0.088,-0.503,0.851
2024-10-15 13:54:00.405,74391.858,-0.08,0.469,-0.88,0.13,0.107,0.067,1.544,-0.288,-0.097,-0.091,-0.488,0.851
2024-10-15 13:54:00.415,74391.868,-0.083,0.455,-0.886,0.15,0.103,0.087,1.472,-0.107,-0.075,-0.093,-0.473,0.852
2024-10-15 13:54:00.425,74391.878,-0.082,0.445,-0.892,0.142,0.116,0.077,0.829,0.024,0.176,-0.092,-0.461,0.854
2024-10-15 13:54:00.436,74391.888,-0.082,0.439,-0.895,0.08,0.004,0.101,0.617,-0.217,0.001,-0.092,-0.455,0.856
2024-10-15 13:54:00.446,74391.898,-0.085,0.433,-0.897,0.022,-0.091,-0.072,0.703,-0.118,-0.118,-0.094,-0.448,0.855
2024-10-15 13:54:00.455,74391.908,-0.085,0.426,-0.901,0.005,-0.002,-0.157,0.839,0.089,-0.027,-0.094,-0.44,0.855
2024-10-15 13:54:00.465,74391.918,-0.084,0.419,-0.904,-0.071,0.075,0.002,0.808,0.086,-0.127,-0.093,-0.432,0.856
2024-10-15 13:54:00.475,74391.928,-0.084,0.412,-0.907,-0.076,-0.016,0.049,0.647,0.089,-0.145,-0.093,-0.424,0.855
2024-10-15 13:54:00.486,74391.938,-0.084,0.408,-0.909,-0.012,-0.013,0.037,0.284,0.012,0.05,-0.092,-0.42,0.855
2024-10-15 13:54:00.495,74391.948,-0.084,0.406,-0.91,-0.01,-0.108,0.04,0.103,-0.204,0.201,-0.092,-0.418,0.856
2024-10-15 13:54:00.505,74391.958,-0.085,0.405,-0.91,0.006,-0.207,0.001,0.131,-0.158,0.14,-0.094,-0.417,0.858
2024-10-15 13:54:00.514,74391.968,-0.085,0.404,-0.911,0.056,-0.118,-0.049,0.128,0.012,0.184,-0.094,-0.416,0.86
2024-10-15 13:54:00.524,74391.978,-0.085,0.404,-0.911,0.013,0.009,-0.072,-0.067,-0.014,0.232,-0.092,-0.416,0.862
2024-10-15 13:54:00.534,74391.988,-0.084,0.406,-0.91,-0.058,-0.038,-0.085,-0.242,-0.143,0.27,-0.092,-0.418,0.865
2024-10-15 13:54:00.544,74391.998,-0.085,0.408,-0.909,-0.036,-0.107,-0.048,-0.232,-0.142,0.246,-0.093,-0.42,0.868
2024-10-15 13:54:00.555,74392.008,-0.085,0.409,-0.909,0.014,-0.071,0.005,0.044,-0.083,0.144,-0.093,-0.421,0.87
2024-10-15 13:54:00.565,74392.018,-0.085,0.408,-0.909,0.008,-0.006,0.01,0.287,0.033,0.05,-0.093,-0.42,0.871
2024-10-15 13:54:00.575,74392.028,-0.084,0.404,-0.911,-0.009,0.01,-0.004,0.436,0.172,-0.07,-0.092,-0.416,0.871
2024-10-15 13:54:00.585,74392.038,-0.082,0.401,-0.913,-0.004,-0.016,-0.014,0.338,0.243,-0.129,-0.09,-0.412,0.87
2024-10-15 13:54:00.595,74392.048,-0.081,0.398,-0.914,0.003,-0.095,-0.053,0.209,0.125,-0.171,-0.089,-0.409,0.869
2024-10-15 13:54:00.605,74392.058,-0.081,0.396,-0.915,0.004,-0.158,-0.039,0.138,0.11,-0.198,-0.088,-0.407,0.867
2024-10-15 13:54:00.615,74392.068,-0.081,0.395,-0.915,0.032,-0.089,0.057,0.142,0.078,-0.183,-0.088,-0.406,0.865
2024-10-15 13:54:00.626,74392.078,-0.081,0.393,-0.916,0.022,0.018,0.153,0.358,0.072,-0.225,-0.088,-0.403,0.863
2024-10-15 13:54:00.635,74392.088,-0.081,0.388,-0.918,0.03,0.102,0.175,0.644,0.112,-0.304,-0.088,-0.398,0.861
2024-10-15 13:54:00.645,74392.098,-0.081,0.381,-0.921,0.072,0.183,0.102,0.631,0.156,-0.293,-0.088,-0.391,0.858
2024-10-15 13:54:00.655,74392.108,-0.081,0.376,-0.923,0.007,0.161,-0.0,0.379,0.036,-0.216,-0.088,-0.386,0.856
2024-10-15 13:54:00.665,74392.118,-0.082,0.374,-0.924,-0.05,0.046,-0.012,0.092,-0.078,-0.148,-0.088,-0.383,0.854
2024-10-15 13:54:00.675,74392.128,-0.083,0.374,-0.924,-0.024,-0.018,0.074,-0.009,-0.166,-0.062,-0.09,-0.383,0.853
2024-10-15 13:54:00.685,74392.138,-0.085,0.374,-0.924,-0.029,-0.004,0.088,-0.017,-0.155,0.078,-0.092,-0.383,0.853
2024-10-15 13:54:00.695,74392.148,-0.086,0.374,-0.924,-0.06,0.031,0.038,0.073,-0.156,0.121,-0.093,-0.383,0.854
2024-10-15 13:54:00.705,74392.158,-0.086,0.373,-0.924,-0.061,0.103,0.009,0.102,-0.022,0.131,-0.093,-0.382,0.856
2024-10-15 13:54:00.715,74392.168,-0.086,0.372,-0.924,-0.031,0.137,-0.035,0.04,-0.047,0.197,-0.093,-0.382,0.858
2024-10-15 13:54:00.725,74392.178,-0.086,0.373,-0.924,-0.027,0.059,-0.105,-0.143,-0.116,0.268,-0.093,-0.382,0.86
2024-10-15 13:54:00.735,74392.188,-0.086,0.375,-0.923,-0.002,-0.04,-0.131,-0.22,-0.175,0.304,-0.093,-0.384,0.863
2024-10-15 13:54:00.745,74392.198,-0.086,0.378,-0.922,0.02,-0.055,-0.079,-0.298,-0.113,0.281,-0.093,-0.387,0.866
2024-10-15 13:54:00.755,74392.208,-0.086,0.381,-0.921,0.018,-0.073,-0.026,-0.391,-0.116,0.234,-0.094,-0.391,0.868
2024-10-15 13:54:00.765,74392.218,-0.087,0.385,-0.919,0.031,-0.111,-0.011,-0.334,-0.142,0.18,-0.094,-0.395,0.87
2024-10-15 13:54:00.775,74392.228,-0.087,0.387,-0.918,0.008,-0.166,-0.003,-0.108,-0.062,0.067,-0.095,-0.397,0.871
2024-10-15 13:54:00.785,74392.238,-0.088,0.386,-0.918,-0.013,-0.094,0.034,0.218,-0.028,-0.026,-0.095,-0.397,0.872
2024-10-15 13:54:00.794,74392.248,-0.088,0.383,-0.92,-0.035,-0.033,0.017,0.493,0.113,-0.142,-0.095,-0.393,0.871
2024-10-15 13:54:00.805,74392.258,-0.087,0.378,-0.922,-0.053,-0.005,-0.025,0.438,0.24,-0.203,-0.094,-0.388,0.87
2024-10-15 13:54:00.814,74392.268,-0.086,0.375,-0.923,-0.09,-0.016,-0.033,0.192,0.132,-0.181,-0.092,-0.385,0.868
2024-10-15 13:54:00.824,74392.278,-0.085,0.374,-0.923,-0.112,-0.129,-0.002,0.05,0.057,-0.187,-0.092,-0.383,0.866
2024-10-15 13:54:00.835,74392.288,-0.086,0.373,-0.924,-0.045,-0.118,0.065,0.166,0.089,-0.212,-0.092,-0.382,0.864
2024-10-15 13:54:00.845,74392.298,-0.086,0.37,-0.925,-0.018,-0.004,0.096,0.336,0.123,-0.281,-0.092,-0.38,0.862
2024-10-15 13:54:00.854,74392.308,-0.085,0.367,-0.926,-0.01,0.082,0.017,0.367,0.145,-0.3,-0.092,-0.376,0.859
2024-10-15 13:54:00.865,74392.318,-0.085,0.364,-0.928,-0.01,0.096,-0.031,0.268,0.073,-0.267,-0.092,-0.372,0.856
2024-10-15 13:54:00.874,74392.328,-0.086,0.361,-0.929,-0.036,0.052,0.01,0.256,0.003,-0.294,-0.092,-0.369,0.853
2024-10-15 13:54:00.885,74392.338,-0.087,0.358,-0.929,0.015,0.064,0.07,0.241,0.021,-0.244,-0.093,-0.367,0.851
2024-10-15 13:54:00.894,74392.348,-0.088,0.356,-0.93,0.033,0.065,0.089,0.137,-0.03,-0.141,-0.094,-0.364,0.849
2024-10-15 13:54:00.904,74392.358,-0.089,0.356,-0.93,0.006,0.043,0.086,0.031,-0.055,-0.076,-0.095,-0.364,0.848
2024-10-15 13:54:00.914,74392.368,-0.089,0.356,-0.93,0.023,0.074,0.084,-0.1,-0.01,-0.008,-0.095,-0.364,0.847
2024-10-15 13:54:00.924,74392.378,-0.089,0.357,-0.93,0.027,0.088,0.041,-0.157,-0.032,0.121,-0.095,-0.365,0.848
2024-10-15 13:54:00.934,74392.388,-0.089,0.358,-0.929,0.001,0.049,-0.009,-0.086,-0.028,0.132,-0.095,-0.367,0.849
2024-10-15 13:54:00.945,74392.398,-0.088,0.359,-0.929,0.033,0.038,-0.038,-0.061,0.061,0.126,-0.095,-0.367,0.85
2024-10-15 13:54:00.954,74392.408,-0.088,0.36,-0.929,0.05,0.062,-0.062,-0.177,-0.047,0.171,-0.094,-0.369,0.852
2024-10-15 13:54:00.964,74392.418,-0.088,0.362,-0.928,-0.001,0.004,-0.063,-0.227,-0.095,0.163,-0.094,-0.371,0.853
2024-10-15 13:54:00.975,74392.428,-0.088,0.364,-0.927,0.013,-0.065,-0.039,-0.136,-0.016,0.092,-0.094,-0.373,0.855
2024-10-15 13:54:00.984,74392.438,-0.087,0.365,-0.927,0.043,-0.036,-0.01,-0.073,0.074,0.053,-0.094,-0.374,0.855
2024-10-15 13:54:00.995,74392.447,-0.086,0.366,-0.927,0.017,-0.052,-0.042,-0.121,0.107,0.069,-0.093,-0.375,0.856
2024-10-15 13:54:01.005,74392.457,-0.085,0.368,-0.926,-0.018,-0.133,-0.075,-0.23,0.116,0.084,-0.091,-0.377,0.856
2024-10-15 13:54:01.015,74392.467,-0.083,0.371,-0.925,-0.036,-0.164,-0.05,-0.315,0.118,0.113,-0.09,-0.38,0.857
2024-10-15 13:54:01.024,74392.477,-0.082,0.374,-0.924,-0.029,-0.097,0.023,-0.359,0.061,0.154,-0.088,-0.383,0.858
2024-10-15 13:54:01.034,74392.487,-0.081,0.377,-0.923,-0.019,-0.014,0.098,-0.226,-0.056,0.146,-0.088,-0.386,0.86
2024-10-15 13:54:01.044,74392.497,-0.081,0.378,-0.922,0.003,0.047,0.127,0.048,-0.047,0.076,-0.088,-0.387,0.861
2024-10-15 13:54:01.054,74392.507,-0.081,0.376,-0.923,0.029,0.129,0.114,0.256,0.041,0.021,-0.088,-0.386,0.861
2024-10-15 13:54:01.064,74392.517,-0.08,0.374,-0.924,0.0,0.188,0.067,0.306,0.089,-0.001,-0.087,-0.383,0.862
2024-10-15 13:54:01.074,74392.527,-0.08,0.371,-0.925,-0.061,0.124,0.015,0.321,0.04,-0.042,-0.086,-0.38,0.862
2024-10-15 13:54:01.084,74392.537,-0.08,0.368,-0.927,-0.053,0.003,0.002,0.347,0.032,-0.14,-0.086,-0.376,0.861
2024-10-15 13:54:01.094,74392.547,-0.08,0.364,-0.928,0.005,-0.025,-0.034,0.336,0.051,-0.204,-0.086,-0.373,0.86
2024-10-15 13:54:01.104,74392.557,-0.081,0.361,-0.929,-0.006,-0.047,-0.047,0.255,0.034,-0.207,-0.087,-0.37,0.858
2024-10-15 13:54:01.114,74392.567,-0.081,0.359,-0.93,-0.029,-0.094,0.033,0.169,0.012,-0.285,-0.087,-0.367,0.855
2024-10-15 13:54:01.124,74392.577,-0.082,0.357,-0.93,0.011,-0.065,0.091,0.144,0.033,-0.298,-0.088,-0.365,0.852
2024-10-15 13:54:01.134,74392.587,-0.083,0.356,-0.931,0.01,-0.033,0.066,0.078,0.097,-0.255,-0.088,-0.364,0.849
2024-10-15 13:54:01.144,74392.597,-0.082,0.356,-0.931,-0.028,-0.002,0.042,-0.058,0.075,-0.159,-0.088,-0.364,0.847
2024-10-15 13:54:01.154,74392.607,-0.082,0.357,-0.93,-0.042,0.02,0.028,-0.235,0.035,-0.032,-0.088,-0.365,0.846
2024-10-15 13:54:01.163,74392.617,-0.082,0.36,-0.93,-0.014,0.039,0.014,-0.25,-0.011,0.092,-0.088,-0.368,0.846
2024-10-15 13:54:01.174,74392.627,-0.082,0.361,-0.929,0.017,0.091,-0.025,-0.019,0.024,0.17,-0.088,-0.369,0.847
2024-10-15 13:54:01.184,74392.637,-0.08,0.361,-0.929,0.032,0.173,-0.067,0.097,0.08,0.209,-0.086,-0.369,0.849
2024-10-15 13:54:01.194,74392.647,-0.079,0.36,-0.93,0.045,0.199,-0.092,0.016,-0.003,0.32,-0.085,-0.368,0.852
2024-10-15 13:54:01.204,74392.657,-0.078,0.361,-0.929,0.03,0.075,-0.112,-0.232,-0.113,0.369,-0.084,-0.37,0.856
2024-10-15 13:54:01.214,74392.667,-0.078,0.365,-0.928,0.044,-0.051,-0.072,-0.46,-0.124,0.394,-0.084,-0.373,0.86
2024-10-15 13:54:01.224,74392.677,-0.078,0.37,-0.926,0.045,-0.076,0.0,-0.534,-0.125,0.39,-0.084,-0.379,0.864
2024-10-15 13:54:01.234,74392.687,-0.078,0.374,-0.924,0.018,-0.068,0.046,-0.383,-0.178,0.343,-0.084,-0.384,0.867
2024-10-15 13:54:01.244,74392.697,-0.078,0.377,-0.923,-0.001,-0.079,0.059,-0.094,-0.137,0.229,-0.085,-0.386,0.87
2024-10-15 13:54:01.254,74392.707,-0.079,0.376,-0.923,0.001,-0.047,0.074,0.247,-0.047,0.081,-0.085,-0.386,0.872
2024-10-15 13:54:01.264,74392.717,-0.078,0.373,-0.924,-0.009,0.051,0.043,0.382,0.064,0.01,-0.085,-0.383,0.872
2024-10-15 13:54:01.274,74392.727,-0.078,0.37,-0.926,-0.048,0.017,-0.039,0.308,0.068,-0.027,-0.084,-0.379,0.873
2024-10-15 13:54:01.284,74392.737,-0.077,0.368,-0.927,-0.094,-0.07,-0.04,0.195,0.025,-0.066,-0.083,-0.377,0.872
2024-10-15 13:54:01.294,74392.747,-0.077,0.366,-0.927,-0.1,-0.109,-0.005,0.202,0.03,-0.116,-0.083,-0.375,0.872
2024-10-15 13:54:01.304,74392.757,-0.078,0.364,-0.928,-0.069,-0.089,0.027,0.247,0.072,-0.169,-0.083,-0.372,0.87
2024-10-15 13:54:01.314,74392.767,-0.077,0.361,-0.929,-0.056,-0.059,0.029,0.185,0.086,-0.226,-0.083,-0.37,0.868
2024-10-15 13:54:01.324,74392.777,-0.078,0.36,-0.93,-0.04,-0.043,0.024,0.034,0.038,-0.23,-0.083,-0.369,0.866
2024-10-15 13:54:01.334,74392.787,-0.078,0.36,-0.93,-0.028,-0.044,0.029,-0.086,0.012,-0.213,-0.084,-0.369,0.864
2024-10-15 13:54:01.344,74392.797,-0.079,0.361,-0.929,-0.002,-0.01,0.047,-0.041,0.027,-0.213,-0.085,-0.369,0.861
2024-10-15 13:54:01.354,74392.807,-0.079,0.36,-0.929,0.014,0.055,0.049,0.124,0.058,-0.172,-0.085,-0.369,0.859
2024-10-15 13:54:01.363,74392.817,-0.079,0.359,-0.93,-0.006,0.116,0.037,0.197,0.168,-0.174,-0.085,-0.367,0.857
2024-10-15 13:54:01.374,74392.827,-0.078,0.358,-0.931,-0.012,0.154,0.04,-0.056,0.154,-0.044,-0.083,-0.366,0.856
2024-10-15 13:54:01.384,74392.837,-0.077,0.36,-0.93,-0.013,0.072,0.05,-0.386,-0.043,0.109,-0.083,-0.368,0.856
2024-10-15 13:54:01.394,74392.847,-0.077,0.364,-0.928,0.021,-0.044,0.056,-0.39,-0.056,0.125,-0.083,-0.372,0.857
2024-10-15 13:54:01.404,74392.857,-0.077,0.366,-0.927,0.11,0.026,0.03,-0.156,0.056,0.108,-0.083,-0.375,0.858
2024-10-15 13:54:01.414,74392.867,-0.076,0.368,-0.927,0.082,0.091,-0.044,-0.103,0.086,0.126,-0.081,-0.376,0.859
2024-10-15 13:54:01.423,74392.877,-0.074,0.369,-0.926,0.018,-0.005,-0.095,-0.25,0.025,0.17,-0.08,-0.378,0.861
2024-10-15 13:54:01.434,74392.887,-0.074,0.372,-0.925,-0.002,-0.116,-0.085,-0.344,-0.047,0.165,-0.08,-0.381,0.863
2024-10-15 13:54:01.443,74392.897,-0.074,0.375,-0.924,0.004,-0.125,-0.055,-0.283,0.009,0.144,-0.079,-0.385,0.864
2024-10-15 13:54:01.454,74392.907,-0.073,0.377,-0.923,-0.007,-0.074,-0.017,-0.157,0.125,0.085,-0.078,-0.387,0.865
2024-10-15 13:54:01.464,74392.917,-0.071,0.378,-0.923,-0.015,0.001,-0.009,-0.074,0.134,0.047,-0.077,-0.388,0.866
2024-10-15 13:54:01.474,74392.927,-0.07,0.379,-0.923,-0.02,-0.05,-0.061,-0.007,0.13,0.008,-0.075,-0.389,0.866
2024-10-15 13:54:01.483,74392.937,-0.069,0.378,-0.923,-0.005,-0.096,-0.062,0.074,0.148,-0.096,-0.074,-0.388,0.865
2024-10-15 13:54:01.494,74392.947,-0.067,0.378,-0.923,-0.001,-0.045,-0.047,0.024,0.162,-0.108,-0.073,-0.388,0.864
2024-10-15 13:54:01.504,74392.957,-0.067,0.378,-0.923,-0.034,-0.032,-0.042,-0.068,0.11,-0.105,-0.072,-0.388,0.863
2024-10-15 13:54:01.513,74392.967,-0.066,0.379,-0.923,-0.059,-0.059,0.014,-0.078,0.05,-0.109,-0.072,-0.388,0.862
2024-10-15 13:54:01.524,74392.977,-0.067,0.378,-0.923,-0.054,-0.041,0.09,0.168,0.043,-0.193,-0.072,-0.388,0.86
2024-10-15 13:54:01.534,74392.987,-0.067,0.375,-0.924,-0.039,0.039,0.142,0.38,0.155,-0.287,-0.072,-0.385,0.858
2024-10-15 13:54:01.543,74392.997,-0.066,0.372,-0.926,-0.02,0.108,0.101,0.348,0.139,-0.271,-0.071,-0.381,0.855
2024-10-15 13:54:01.553,74393.007,-0.066,0.369,-0.927,-0.057,0.03,0.046,0.252,0.044,-0.289,-0.072,-0.378,0.853
2024-10-15 13:54:01.563,74393.017,-0.067,0.366,-0.928,-0.065,-0.023,0.022,0.203,-0.002,-0.35,-0.073,-0.375,0.849
2024-10-15 13:54:01.574,74393.027,-0.069,0.364,-0.929,-0.01,0.028,0.031,0.172,-0.035,-0.326,-0.074,-0.373,0.846
2024-10-15 13:54:01.583,74393.036,-0.07,0.363,-0.929,-0.009,0.032,0.049,-0.011,-0.07,-0.165,-0.075,-0.372,0.843
2024-10-15 13:54:01.593,74393.046,-0.072,0.364,-0.928,-0.006,0.021,0.073,-0.191,-0.259,0.023,-0.077,-0.373,0.842
2024-10-15 13:54:01.604,74393.056,-0.074,0.366,-0.928,0.014,0.024,0.069,-0.123,-0.261,0.087,-0.08,-0.375,0.843
2024-10-15 13:54:01.613,74393.066,-0.076,0.367,-0.927,0.056,0.169,0.034,0.043,-0.107,0.168,-0.081,-0.375,0.844
2024-10-15 13:54:01.623,74393.076,-0.076,0.366,-0.927,0.034,0.293,-0.015,0.08,-0.069,0.257,-0.081,-0.375,0.846
2024-10-15 13:54:01.633,74393.086,-0.075,0.366,-0.928,-0.0,0.226,-0.036,-0.016,-0.104,0.23,-0.081,-0.375,0.849
2024-10-15 13:54:01.643,74393.096,-0.076,0.367,-0.927,0.071,0.103,-0.077,-0.136,-0.136,0.271,-0.081,-0.376,0.852
2024-10-15 13:54:01.653,74393.106,-0.076,0.369,-0.926,0.09,-0.027,-0.085,-0.196,-0.114,0.258,-0.082,-0.378,0.854
2024-10-15 13:54:01.663,74393.116,-0.076,0.371,-0.926,0.059,-0.075,-0.069,-0.18,-0.067,0.217,-0.082,-0.38,0.857
2024-10-15 13:54:01.673,74393.126,-0.076,0.372,-0.925,0.037,-0.057,-0.037,-0.06,-0.051,0.161,-0.082,-0.381,0.859
2024-10-15 13:54:01.683,74393.136,-0.076,0.372,-0.925,0.029,-0.054,-0.01,0.127,-0.013,0.065,-0.081,-0.381,0.86
2024-10-15 13:54:01.693,74393.146,-0.075,0.37,-0.926,0.037,-0.06,-0.016,0.243,0.083,-0.006,-0.081,-0.379,0.86
2024-10-15 13:54:01.703,74393.156,-0.074,0.368,-0.927,0.022,-0.063,-0.014,0.197,0.102,-0.032,-0.08,-0.377,0.86
2024-10-15 13:54:01.713,74393.166,-0.074,0.367,-0.927,-0.016,-0.088,0.011,0.104,0.043,-0.035,-0.079,-0.375,0.86
2024-10-15 13:54:01.723,74393.176,-0.074,0.366,-0.928,-0.015,-0.106,0.063,0.139,0.014,-0.081,-0.079,-0.374,0.86
2024-10-15 13:54:01.733,74393.186,-0.074,0.364,-0.929,0.028,-0.066,0.122,0.237,0.055,-0.118,-0.079,-0.372,0.859
2024-10-15 13:54:01.743,74393.196,-0.074,0.361,-0.93,0.043,-0.01,0.095,0.298,0.073,-0.154,-0.079,-0.369,0.857
2024-10-15 13:54:01.753,74393.206,-0.074,0.358,-0.931,0.011,0.019,0.031,0.273,0.035,-0.208,-0.079,-0.366,0.856
2024-10-15 13:54:01.763,74393.216,-0.075,0.356,-0.932,-0.01,0.021,-0.01,0.267,-0.027,-0.241,-0.08,-0.364,0.854
2024-10-15 13:54:01.773,74393.226,-0.076,0.353,-0.933,-0.027,-0.01,0.005,0.276,0.0,-0.253,-0.081,-0.361,0.851
2024-10-15 13:54:01.783,74393.236,-0.076,0.35,-0.933,-0.05,0.005,0.036,0.215,-0.002,-0.255,-0.082,-0.358,0.849
2024-10-15 13:54:01.793,74393.246,-0.078,0.349,-0.934,-0.064,0.036,0.053,0.089,-0.079,-0.176,-0.083,-0.356,0.847
2024-10-15 13:54:01.803,74393.256,-0.079,0.348,-0.934,-0.076,-0.002,0.065,0.01,-0.137,-0.097,-0.085,-0.356,0.845
2024-10-15 13:54:01.813,74393.266,-0.08,0.348,-0.934,-0.056,0.044,0.077,-0.02,-0.094,-0.049,-0.086,-0.356,0.844
2024-10-15 13:54:01.823,74393.276,-0.081,0.349,-0.934,-0.044,0.093,0.041,-0.122,-0.056,0.073,-0.087,-0.356,0.844
2024-10-15 13:54:01.833,74393.286,-0.081,0.351,-0.933,-0.077,0.059,-0.042,-0.184,-0.073,0.154,-0.087,-0.358,0.846
2024-10-15 13:54:01.843,74393.296,-0.081,0.352,-0.932,-0.085,0.035,-0.118,-0.141,-0.077,0.153,-0.087,-0.36,0.847
2024-10-15 13:54:01.853,74393.306,-0.081,0.353,-0.932,-0.054,0.041,-0.166,-0.076,-0.025,0.19,-0.087,-0.361,0.849
2024-10-15 13:54:01.863,74393.316,-0.081,0.354,-0.932,-0.064,0.053,-0.157,-0.077,0.007,0.213,-0.086,-0.362,0.851
2024-10-15 13:54:01.873,74393.326,-0.08,0.355,-0.931,-0.066,0.027,-0.081,-0.156,-0.04,0.196,-0.086,-0.363,0.853
2024-10-15 13:54:01.883,74393.336,-0.08,0.358,-0.93,0.005,-0.052,-0.03,-0.287,-0.073,0.249,-0.086,-0.366,0.855
2024-10-15 13:54:01.893,74393.346,-0.08,0.361,-0.929,0.046,-0.13,-0.002,-0.399,-0.114,0.274,-0.086,-0.369,0.858
2024-10-15 13:54:01.903,74393.356,-0.08,0.365,-0.928,0.047,-0.081,0.088,-0.299,-0.19,0.191,-0.087,-0.373,0.86
2024-10-15 13:54:01.913,74393.366,-0.082,0.367,-0.927,0.086,0.021,0.172,-0.065,-0.191,0.158,-0.088,-0.375,0.861
2024-10-15 13:54:01.923,74393.376,-0.082,0.366,-0.927,0.115,0.038,0.136,0.184,-0.061,0.101,-0.089,-0.375,0.863
2024-10-15 13:54:01.932,74393.386,-0.082,0.364,-0.928,0.07,0.057,0.041,0.23,0.017,0.04,-0.088,-0.373,0.864
2024-10-15 13:54:01.943,74393.396,-0.082,0.362,-0.928,-0.011,0.019,-0.027,0.164,-0.02,-0.01,-0.088,-0.371,0.864
2024-10-15 13:54:01.952,74393.406,-0.083,0.361,-0.929,-0.034,-0.074,-0.048,0.154,-0.006,-0.056,-0.089,-0.369,0.864
2024-10-15 13:54:01.963,74393.416,-0.083,0.359,-0.93,-0.022,-0.091,-0.019,0.197,0.046,-0.104,-0.089,-0.367,0.863
2024-10-15 13:54:01.973,74393.426,-0.082,0.357,-0.931,-0.039,-0.031,0.025,0.267,0.063,-0.15,-0.088,-0.365,0.862
2024-10-15 13:54:01.982,74393.436,-0.083,0.354,-0.932,-0.054,-0.022,0.021,0.276,0.042,-0.241,-0.089,-0.362,0.86
2024-10-15 13:54:01.993,74393.446,-0.083,0.351,-0.932,-0.033,-0.048,-0.003,0.205,0.007,-0.302,-0.089,-0.359,0.858
2024-10-15 13:54:02.003,74393.456,-0.085,0.35,-0.933,-0.038,-0.071,0.034,0.167,-0.01,-0.33,-0.09,-0.357,0.854
2024-10-15 13:54:02.013,74393.466,-0.086,0.347,-0.934,-0.072,-0.038,0.08,0.264,0.024,-0.389,-0.092,-0.355,0.851
2024-10-15 13:54:02.023,74393.476,-0.086,0.344,-0.935,-0.073,0.048,0.07,0.368,0.127,-0.396,-0.092,-0.351,0.847
2024-10-15 13:54:02.033,74393.486,-0.086,0.341,-0.936,-0.07,0.124,0.057,0.264,0.119,-0.325,-0.092,-0.348,0.843
2024-10-15 13:54:02.042,74393.496,-0.087,0.339,-0.937,-0.078,0.088,0.061,-0.018,0.007,-0.189,-0.092,-0.346,0.841
2024-10-15 13:54:02.053,74393.506,-0.088,0.341,-0.936,-0.032,0.014,0.071,-0.26,-0.163,-0.009,-0.093,-0.347,0.84
2024-10-15 13:54:02.062,74393.516,-0.089,0.343,-0.935,0.027,0.004,0.082,-0.222,-0.161,0.115,-0.095,-0.35,0.84
2024-10-15 13:54:02.073,74393.526,-0.09,0.344,-0.935,0.049,0.096,0.034,-0.051,-0.051,0.17,-0.096,-0.352,0.841
2024-10-15 13:54:02.083,74393.536,-0.089,0.345,-0.934,0.037,0.203,-0.05,-0.048,-0.018,0.222,-0.095,-0.352,0.843
2024-10-15 13:54:02.093,74393.546,-0.089,0.346,-0.934,0.002,0.142,-0.12,-0.122,-0.149,0.293,-0.095,-0.353,0.846
2024-10-15 13:54:02.103,74393.556,-0.089,0.347,-0.933,0.001,0.018,-0.122,-0.157,-0.11,0.316,-0.096,-0.355,0.849
2024-10-15 13:54:02.113,74393.566,-0.089,0.349,-0.933,0.025,-0.023,-0.051,-0.21,-0.056,0.268,-0.095,-0.357,0.852
2024-10-15 13:54:02.122,74393.576,-0.089,0.352,-0.932,0.028,-0.029,-0.003,-0.225,-0.037,0.22,-0.095,-0.359,0.854
2024-10-15 13:54:02.132,74393.586,-0.089,0.354,-0.931,0.015,-0.118,-0.019,-0.128,-0.023,0.085,-0.095,-0.361,0.856
2024-10-15 13:54:02.142,74393.596,-0.089,0.354,-0.931,0.016,-0.193,-0.012,0.095,0.014,-0.076,-0.095,-0.362,0.856
2024-10-15 13:54:02.152,74393.606,-0.088,0.352,-0.932,0.015,-0.177,-0.003,0.247,0.169,-0.208,-0.095,-0.36,0.855
2024-10-15 13:54:02.162,74393.616,-0.087,0.35,-0.933,-0.003,-0.144,-0.019,0.141,0.174,-0.244,-0.093,-0.357,0.852
2024-10-15 13:54:02.172,74393.626,-0.087,0.349,-0.933,-0.035,-0.191,-0.02,-0.036,0.059,-0.269,-0.093,-0.357,0.85
2024-10-15 13:54:02.182,74393.635,-0.088,0.349,-0.933,-0.02,-0.219,0.035,-0.021,0.077,-0.289,-0.094,-0.357,0.847
2024-10-15 13:54:02.192,74393.645,-0.087,0.349,-0.933,0.006,-0.096,0.09,0.085,0.185,-0.269,-0.093,-0.356,0.844
2024-10-15 13:54:02.202,74393.655,-0.087,0.348,-0.934,-0.031,0.051,0.099,0.113,0.198,-0.274,-0.092,-0.355,0.841
2024-10-15 13:54:02.212,74393.665,-0.086,0.347,-0.934,-0.034,0.093,0.02,0.007,0.16,-0.256,-0.092,-0.354,0.838
2024-10-15 13:54:02.222,74393.675,-0.086,0.347,-0.934,-0.001,0.047,-0.03,-0.184,0.089,-0.233,-0.091,-0.355,0.835
2024-10-15 13:54:02.232,74393.685,-0.086,0.349,-0.933,0.01,0.034,-0.02,-0.327,0.035,-0.173,-0.092,-0.357,0.833
2024-10-15 13:54:02.242,74393.695,-0.086,0.352,-0.932,-0.012,0.049,0.025,-0.253,-0.033,-0.122,-0.092,-0.36,0.831
2024-10-15 13:54:02.252,74393.705,-0.087,0.354,-0.931,-0.036,0.096,0.089,-0.216,-0.026,-0.107,-0.093,-0.362,0.83
2024-10-15 13:54:02.262,74393.715,-0.088,0.357,-0.93,-0.015,0.155,0.079,-0.323,-0.098,-0.018,-0.094,-0.365,0.829
2024-10-15 13:54:02.272,74393.725,-0.089,0.36,-0.929,-0.014,0.116,0.045,-0.285,-0.164,0.032,-0.095,-0.368,0.829
2024-10-15 13:54:02.282,74393.735,-0.09,0.361,-0.928,-0.019,0.078,0.02,-0.094,0.001,-0.031,-0.096,-0.37,0.829
2024-10-15 13:54:02.292,74393.745,-0.089,0.362,-0.928,-0.015,0.154,-0.051,-0.059,0.09,-0.019,-0.096,-0.37,0.828
2024-10-15 13:54:02.302,74393.755,-0.089,0.363,-0.928,-0.089,0.095,-0.11,-0.146,0.019,0.019,-0.095,-0.371,0.828
2024-10-15 13:54:02.312,74393.765,-0.089,0.365,-0.927,-0.102,-0.095,-0.102,-0.288,-0.025,-0.047,-0.096,-0.373,0.828
2024-10-15 13:54:02.322,74393.775,-0.089,0.368,-0.926,-0.029,-0.175,-0.089,-0.429,0.021,-0.018,-0.096,-0.377,0.827
2024-10-15 13:54:02.332,74393.785,-0.089,0.373,-0.924,-0.055,-0.178,-0.045,-0.63,0.087,0.015,-0.096,-0.382,0.826
2024-10-15 13:54:02.342,74393.795,-0.088,0.38,-0.921,-0.102,-0.19,0.016,-0.946,0.114,0.047,-0.095,-0.39,0.826
2024-10-15 13:54:02.352,74393.805,-0.086,0.39,-0.917,-0.085,-0.206,0.05,-1.324,0.158,0.127,-0.094,-0.401,0.826
2024-10-15 13:54:02.362,74393.815,-0.084,0.405,-0.911,-0.085,-0.202,0.07,-1.731,0.234,0.204,-0.092,-0.416,0.826
2024-10-15 13:54:02.372,74393.825,-0.081,0.422,-0.903,-0.093,-0.156,0.082,-2.159,0.226,0.257,-0.089,-0.436,0.826
2024-10-15 13:54:02.382,74393.835,-0.077,0.443,-0.893,-0.078,-0.139,0.054,-2.446,0.162,0.354,-0.087,-0.459,0.828
2024-10-15 13:54:02.392,74393.845,-0.074,0.466,-0.882,-0.067,-0.155,0.038,-2.491,0.193,0.397,-0.084,-0.484,0.829
2024-10-15 13:54:02.402,74393.855,-0.07,0.487,-0.87,-0.053,-0.079,0.052,-2.442,0.348,0.348,-0.08,-0.509,0.831
2024-10-15 13:54:02.412,74393.865,-0.065,0.509,-0.858,-0.04,0.061,0.033,-2.463,0.385,0.307,-0.076,-0.534,0.833
2024-10-15 13:54:02.422,74393.875,-0.061,0.53,-0.846,-0.06,0.06,-0.046,-2.323,0.284,0.264,-0.072,-0.558,0.834
2024-10-15 13:54:02.432,74393.885,-0.058,0.547,-0.835,-0.07,-0.005,-0.132,-1.806,0.232,0.172,-0.069,-0.579,0.835
2024-10-15 13:54:02.442,74393.895,-0.055,0.56,-0.827,-0.045,0.061,-0.145,-1.197,0.307,0.044,-0.066,-0.594,0.835
2024-10-15 13:54:02.452,74393.905,-0.052,0.567,-0.822,-0.035,0.23,-0.112,-0.672,0.369,-0.063,-0.063,-0.603,0.834
2024-10-15 13:54:02.462,74393.915,-0.049,0.572,-0.819,-0.058,0.262,-0.062,-0.455,0.381,-0.096,-0.06,-0.609,0.833
2024-10-15 13:54:02.480,74393.925,-0.047,0.576,-0.816,-0.064,0.115,-0.006,-0.543,0.347,-0.098,-0.057,-0.613,0.831
2024-10-15 13:54:02.484,74393.935,-0.045,0.581,-0.813,-0.023,-0.001,0.06,-0.695,0.255,-0.086,-0.055,-0.62,0.83
2024-10-15 13:54:02.492,74393.945,-0.044,0.587,-0.809,0.005,-0.082,0.07,-0.757,0.225,-0.106,-0.054,-0.627,0.828
2024-10-15 13:54:02.502,74393.955,-0.043,0.592,-0.805,0.015,-0.106,0.055,-0.604,0.147,-0.148,-0.053,-0.634,0.826
2024-10-15 13:54:02.512,74393.965,-0.043,0.596,-0.802,0.021,-0.087,0.045,-0.318,0.092,-0.133,-0.053,-0.638,0.824
2024-10-15 13:54:02.522,74393.975,-0.043,0.597,-0.801,0.022,-0.07,0.037,-0.074,0.16,-0.134,-0.053,-0.64,0.822
2024-10-15 13:54:02.532,74393.985,-0.042,0.597,-0.801,0.031,0.071,0.052,0.107,0.077,-0.162,-0.053,-0.64,0.821
2024-10-15 13:54:02.542,74393.995,-0.043,0.595,-0.802,0.019,0.145,0.055,0.368,-0.032,-0.187,-0.054,-0.637,0.818
2024-10-15 13:54:02.552,74394.005,-0.044,0.592,-0.805,0.02,0.067,0.022,0.426,0.015,-0.124,-0.055,-0.633,0.817
2024-10-15 13:54:02.562,74394.015,-0.045,0.589,-0.807,0.045,0.054,0.052,0.12,-0.017,-0.071,-0.055,-0.63,0.816
2024-10-15 13:54:02.572,74394.025,-0.046,0.589,-0.807,0.042,0.019,0.08,-0.15,-0.179,0.006,-0.057,-0.63,0.815
2024-10-15 13:54:02.582,74394.035,-0.047,0.591,-0.805,0.043,-0.084,0.021,-0.165,-0.16,0.016,-0.059,-0.632,0.815
2024-10-15 13:54:02.592,74394.045,-0.048,0.592,-0.805,0.037,-0.008,-0.091,-0.021,-0.09,0.017,-0.06,-0.633,0.816
2024-10-15 13:54:02.602,74394.055,-0.049,0.591,-0.805,-0.04,0.075,-0.113,0.157,-0.098,0.018,-0.06,-0.632,0.816
2024-10-15 13:54:02.612,74394.065,-0.049,0.589,-0.806,-0.042,0.082,-0.067,0.312,-0.109,0.013,-0.061,-0.63,0.816
2024-10-15 13:54:02.621,74394.075,-0.05,0.586,-0.809,0.022,0.123,-0.014,0.478,-0.119,-0.029,-0.062,-0.626,0.816
2024-10-15 13:54:02.631,74394.085,-0.052,0.582,-0.812,0.047,0.147,0.035,0.658,-0.136,-0.044,-0.064,-0.621,0.816
2024-10-15 13:54:02.641,74394.095,-0.053,0.576,-0.816,0.061,0.143,0.044,0.796,-0.103,-0.025,-0.065,-0.613,0.816
2024-10-15 13:54:02.651,74394.105,-0.054,0.569,-0.821,0.071,0.137,0.017,0.882,-0.132,0.002,-0.066,-0.605,0.817
2024-10-15 13:54:02.661,74394.115,-0.055,0.561,-0.826,0.049,0.101,-0.012,0.908,-0.11,0.048,-0.066,-0.596,0.818
2024-10-15 13:54:02.672,74394.125,-0.055,0.554,-0.831,0.044,0.088,0.001,0.86,-0.15,0.066,-0.067,-0.587,0.819
2024-10-15 13:54:02.682,74394.135,-0.057,0.547,-0.835,0.056,0.081,0.016,0.861,-0.258,0.085,-0.068,-0.579,0.821
2024-10-15 13:54:02.692,74394.145,-0.059,0.54,-0.84,0.059,0.034,0.005,0.839,-0.283,0.083,-0.07,-0.57,0.823
2024-10-15 13:54:02.702,74394.155,-0.061,0.533,-0.844,0.066,0.011,-0.013,0.891,-0.254,0.051,-0.072,-0.562,0.824
2024-10-15 13:54:02.711,74394.165,-0.062,0.525,-0.849,0.049,0.037,0.009,0.938,-0.232,0.02,-0.073,-0.553,0.825
2024-10-15 13:54:02.721,74394.175,-0.064,0.516,-0.854,0.038,0.03,0.017,1.071,-0.273,-0.002,-0.075,-0.543,0.826
2024-10-15 13:54:02.732,74394.185,-0.067,0.507,-0.859,0.061,0.017,0.032,1.152,-0.258,-0.0,-0.078,-0.531,0.827
2024-10-15 13:54:02.741,74394.195,-0.069,0.497,-0.865,0.076,-0.001,0.05,1.255,-0.303,-0.015,-0.08,-0.52,0.828
2024-10-15 13:54:02.751,74394.205,-0.072,0.485,-0.872,0.085,0.029,0.065,1.498,-0.354,-0.099,-0.083,-0.506,0.829
2024-10-15 13:54:02.761,74394.215,-0.076,0.471,-0.879,0.078,0.083,0.034,1.631,-0.273,-0.121,-0.086,-0.49,0.829
2024-10-15 13:54:02.772,74394.224,-0.078,0.457,-0.886,0.071,0.141,0.058,1.465,-0.244,-0.028,-0.088,-0.474,0.83
2024-10-15 13:54:02.781,74394.234,-0.081,0.445,-0.892,0.033,0.082,0.114,1.218,-0.314,0.031,-0.09,-0.461,0.831
2024-10-15 13:54:02.791,74394.244,-0.083,0.435,-0.897,0.028,-0.045,0.13,1.067,-0.335,0.066,-0.093,-0.45,0.833
2024-10-15 13:54:02.802,74394.254,-0.086,0.426,-0.901,0.044,-0.074,0.121,0.963,-0.263,0.065,-0.095,-0.44,0.835
2024-10-15 13:54:02.812,74394.264,-0.088,0.418,-0.904,0.031,-0.023,0.104,0.883,-0.236,0.054,-0.097,-0.431,0.836
2024-10-15 13:54:02.821,74394.274,-0.09,0.41,-0.908,-0.016,-0.027,0.082,0.821,-0.252,0.004,-0.099,-0.422,0.838
2024-10-15 13:54:02.831,74394.284,-0.092,0.403,-0.911,-0.01,-0.048,0.049,0.815,-0.28,-0.052,-0.101,-0.414,0.838
2024-10-15 13:54:02.841,74394.294,-0.095,0.395,-0.914,0.005,-0.059,0.0,0.776,-0.264,-0.037,-0.104,-0.406,0.839
2024-10-15 13:54:02.851,74394.304,-0.097,0.388,-0.916,-0.027,-0.057,-0.049,0.788,-0.213,0.008,-0.106,-0.399,0.839
2024-10-15 13:54:02.861,74394.314,-0.099,0.381,-0.919,-0.059,-0.034,-0.055,0.682,-0.149,0.1,-0.107,-0.391,0.841
2024-10-15 13:54:02.871,74394.324,-0.1,0.376,-0.921,-0.069,0.009,-0.008,0.445,-0.123,0.099,-0.108,-0.386,0.842
2024-10-15 13:54:02.881,74394.334,-0.101,0.373,-0.922,-0.066,0.035,-0.041,0.299,-0.201,0.18,-0.109,-0.382,0.844
2024-10-15 13:54:02.891,74394.344,-0.101,0.371,-0.923,-0.06,-0.032,-0.07,0.311,-0.133,0.234,-0.109,-0.38,0.847
2024-10-15 13:54:02.901,74394.354,-0.101,0.367,-0.925,-0.05,-0.008,-0.075,0.464,0.003,0.227,-0.109,-0.376,0.85
2024-10-15 13:54:02.911,74394.364,-0.1,0.363,-0.927,-0.061,0.111,-0.067,0.598,0.128,0.195,-0.107,-0.371,0.853
2024-10-15 13:54:02.921,74394.374,-0.098,0.357,-0.929,-0.058,0.138,-0.083,0.562,0.18,0.185,-0.105,-0.365,0.855
2024-10-15 13:54:02.931,74394.384,-0.095,0.353,-0.931,-0.002,0.067,-0.087,0.325,0.144,0.255,-0.102,-0.361,0.858
2024-10-15 13:54:02.941,74394.394,-0.094,0.351,-0.932,0.047,-0.017,-0.073,0.192,-0.001,0.284,-0.1,-0.359,0.861
2024-10-15 13:54:02.951,74394.404,-0.093,0.35,-0.932,0.066,-0.036,-0.039,0.202,-0.072,0.286,-0.099,-0.357,0.865
2024-10-15 13:54:02.961,74394.414,-0.093,0.348,-0.933,0.114,-0.022,0.029,0.299,-0.119,0.254,-0.099,-0.355,0.868
2024-10-15 13:54:02.971,74394.424,-0.093,0.345,-0.934,0.161,-0.005,0.102,0.409,-0.138,0.207,-0.1,-0.352,0.87
2024-10-15 13:54:02.981,74394.434,-0.094,0.34,-0.936,0.159,-0.014,0.123,0.622,-0.183,0.119,-0.1,-0.347,0.873
2024-10-15 13:54:02.991,74394.444,-0.096,0.333,-0.938,0.129,-0.034,0.106,0.922,-0.173,-0.06,-0.102,-0.339,0.874
2024-10-15 13:54:03.001,74394.454,-0.097,0.323,-0.941,0.08,-0.022,0.06,1.131,-0.026,-0.156,-0.103,-0.329,0.874
2024-10-15 13:54:03.011,74394.464,-0.097,0.312,-0.945,0.026,0.023,0.023,1.089,0.07,-0.147,-0.103,-0.318,0.873
2024-10-15 13:54:03.021,74394.474,-0.097,0.303,-0.948,-0.052,-0.008,0.006,0.865,0.003,-0.128,-0.102,-0.308,0.873
2024-10-15 13:54:03.031,74394.484,-0.098,0.296,-0.95,-0.096,-0.078,-0.006,0.704,-0.088,-0.131,-0.103,-0.3,0.873
2024-10-15 13:54:03.041,74394.494,-0.1,0.289,-0.952,-0.089,-0.054,0.022,0.75,-0.115,-0.18,-0.104,-0.293,0.872
2024-10-15 13:54:03.051,74394.504,-0.101,0.281,-0.954,-0.108,0.022,0.031,0.844,0.023,-0.185,-0.105,-0.285,0.871
2024-10-15 13:54:03.061,74394.514,-0.101,0.273,-0.957,-0.137,0.103,0.042,0.754,-0.001,-0.167,-0.105,-0.276,0.87
2024-10-15 13:54:03.071,74394.524,-0.102,0.266,-0.959,-0.148,0.108,0.029,0.606,-0.099,-0.134,-0.106,-0.269,0.869
2024-10-15 13:54:03.081,74394.534,-0.103,0.261,-0.96,-0.131,0.046,0.057,0.495,-0.139,-0.129,-0.107,-0.264,0.868
2024-10-15 13:54:03.091,74394.544,-0.105,0.256,-0.961,-0.08,0.051,0.103,0.447,-0.142,-0.117,-0.109,-0.259,0.867
2024-10-15 13:54:03.101,74394.554,-0.106,0.252,-0.962,-0.064,0.086,0.098,0.535,-0.069,-0.093,-0.11,-0.254,0.867
2024-10-15 13:54:03.111,74394.564,-0.107,0.246,-0.963,-0.072,0.11,0.072,0.668,0.075,-0.112,-0.11,-0.248,0.867
2024-10-15 13:54:03.121,74394.574,-0.106,0.239,-0.965,-0.062,0.103,0.031,0.604,0.177,-0.066,-0.109,-0.242,0.866
2024-10-15 13:54:03.131,74394.584,-0.105,0.235,-0.966,-0.059,0.027,0.003,0.211,0.021,0.148,-0.108,-0.238,0.867
2024-10-15 13:54:03.140,74394.594,-0.104,0.236,-0.966,-0.053,-0.114,-0.002,-0.219,-0.112,0.243,-0.108,-0.238,0.869
2024-10-15 13:54:03.150,74394.604,-0.105,0.239,-0.965,0.024,-0.178,0.045,-0.445,-0.202,0.226,-0.109,-0.242,0.871
2024-10-15 13:54:03.160,74394.614,-0.106,0.244,-0.964,0.121,-0.125,0.034,-0.359,-0.119,0.262,-0.11,-0.246,0.873
2024-10-15 13:54:03.170,74394.624,-0.107,0.246,-0.963,0.107,-0.035,-0.022,-0.134,-0.047,0.2,-0.11,-0.249,0.876
2024-10-15 13:54:03.180,74394.634,-0.106,0.246,-0.963,0.049,0.031,-0.055,0.157,0.076,0.038,-0.11,-0.249,0.877
2024-10-15 13:54:03.191,74394.644,-0.105,0.244,-0.964,0.057,0.037,-0.074,0.326,0.2,-0.031,-0.108,-0.246,0.877
2024-10-15 13:54:03.201,74394.654,-0.103,0.241,-0.965,0.059,-0.024,-0.065,0.254,0.214,-0.069,-0.106,-0.243,0.877
2024-10-15 13:54:03.211,74394.664,-0.101,0.239,-0.966,0.04,-0.113,-0.044,0.063,0.143,-0.104,-0.105,-0.242,0.876
