Date,TimeStamp,GravityX,GravityY,GravityZ,UserAccelerationX,UserAccelerationY,UserAccelerationZ,RotationRateX,RotationRateY,RotationRateZ,AttitudeRoll,AttitudePitch,AttitudeYaw
2024-10-15 11:19:36.632,65128.023,0.006,0.293,-0.956,0.103,-0.027,0.224,-0.334,0.154,-0.083,0.006,-0.297,0.305
2024-10-15 11:19:36.642,65128.033,0.006,0.297,-0.955,-0.176,0.31,0.398,-0.439,-0.159,0.338,0.006,-0.301,0.306
2024-10-15 11:19:36.652,65128.043,0.005,0.299,-0.954,-0.122,0.591,0.412,-0.017,-0.227,0.453,0.006,-0.304,0.311
2024-10-15 11:19:36.662,65128.053,0.004,0.296,-0.955,0.052,0.706,0.285,0.665,-0.317,0.528,0.004,-0.3,0.316
2024-10-15 11:19:36.672,65128.063,0.003,0.288,-0.958,-0.106,0.709,0.068,0.825,-0.286,0.573,0.003,-0.292,0.321
2024-10-15 11:19:36.682,65128.073,0.002,0.281,-0.96,-0.123,0.371,-0.241,0.583,-0.114,0.441,0.002,-0.285,0.327
2024-10-15 11:19:36.692,65128.083,0.003,0.278,-0.961,-0.092,-0.063,-0.408,0.083,-0.099,0.313,0.003,-0.282,0.331
2024-10-15 11:19:36.702,65128.093,0.001,0.282,-0.96,-0.121,-0.353,-0.352,-0.899,-0.431,0.28,0.001,-0.285,0.334
2024-10-15 11:19:36.712,65128.103,-0.001,0.295,-0.955,-0.025,-0.526,-0.116,-1.771,-0.255,0.26,-0.002,-0.3,0.337
2024-10-15 11:19:36.722,65128.113,-0.002,0.311,-0.95,0.089,-0.564,0.239,-1.344,-0.083,0.265,-0.003,-0.316,0.339
2024-10-15 11:19:36.732,65128.123,-0.002,0.317,-0.949,-0.047,-0.36,0.367,0.159,-0.072,0.246,-0.002,-0.322,0.342
2024-10-15 11:19:36.742,65128.133,-0.004,0.309,-0.951,-0.146,0.015,0.203,1.193,-0.409,-0.009,-0.004,-0.315,0.343
2024-10-15 11:19:36.752,65128.143,-0.008,0.3,-0.954,0.039,0.12,-0.158,0.62,-0.388,-0.09,-0.009,-0.305,0.343
2024-10-15 11:19:36.762,65128.153,-0.01,0.298,-0.954,0.255,-0.311,-0.434,-0.207,0.121,-0.384,-0.011,-0.303,0.34
2024-10-15 11:19:36.772,65128.163,-0.009,0.302,-0.953,0.195,-0.596,-0.29,-0.431,0.276,-0.4,-0.01,-0.307,0.336
2024-10-15 11:19:36.782,65128.173,-0.008,0.305,-0.952,-0.062,-0.451,-0.06,-0.257,0.161,-0.327,-0.009,-0.31,0.332
2024-10-15 11:19:36.792,65128.183,-0.008,0.306,-0.952,0.039,-0.136,0.051,0.039,0.078,-0.362,-0.009,-0.311,0.329
2024-10-15 11:19:36.802,65128.193,-0.008,0.304,-0.953,0.144,0.153,0.088,0.47,0.264,-0.351,-0.008,-0.309,0.325
2024-10-15 11:19:36.812,65128.203,-0.007,0.297,-0.955,0.071,0.283,0.087,0.853,0.138,-0.389,-0.008,-0.302,0.321
2024-10-15 11:19:36.822,65128.213,-0.007,0.291,-0.957,-0.027,0.294,0.016,0.476,0.185,-0.276,-0.007,-0.295,0.318
2024-10-15 11:19:36.832,65128.223,-0.005,0.288,-0.958,-0.011,0.197,0.039,0.149,0.261,-0.277,-0.006,-0.292,0.315
2024-10-15 11:19:36.842,65128.233,-0.004,0.288,-0.958,-0.005,0.163,0.153,-0.087,0.141,-0.08,-0.004,-0.292,0.313
2024-10-15 11:19:36.852,65128.243,-0.003,0.289,-0.957,-0.101,0.222,0.264,-0.232,0.018,0.152,-0.003,-0.293,0.313
2024-10-15 11:19:36.862,65128.253,-0.002,0.291,-0.957,-0.046,0.319,0.314,0.028,0.021,0.328,-0.002,-0.295,0.316
2024-10-15 11:19:36.872,65128.263,-0.001,0.287,-0.958,-0.07,0.51,0.307,0.698,-0.076,0.47,-0.001,-0.291,0.32
2024-10-15 11:19:36.882,65128.273,-0.001,0.278,-0.96,-0.116,0.594,0.152,1.067,-0.175,0.572,-0.001,-0.282,0.326
2024-10-15 11:19:36.892,65128.283,-0.001,0.268,-0.963,-0.074,0.408,-0.141,0.996,-0.104,0.484,-0.001,-0.272,0.331
2024-10-15 11:19:36.902,65128.293,-0.001,0.26,-0.965,-0.031,0.073,-0.33,0.549,-0.142,0.365,-0.001,-0.264,0.336
2024-10-15 11:19:36.912,65128.303,-0.002,0.26,-0.966,-0.056,-0.272,-0.361,-0.587,-0.356,0.409,-0.003,-0.263,0.339
2024-10-15 11:19:36.922,65128.313,-0.004,0.272,-0.962,-0.003,-0.53,-0.189,-1.645,-0.172,0.353,-0.004,-0.275,0.344
2024-10-15 11:19:36.932,65128.323,-0.004,0.286,-0.958,0.09,-0.58,0.17,-1.11,0.091,0.282,-0.004,-0.29,0.347
2024-10-15 11:19:36.942,65128.333,-0.003,0.289,-0.957,-0.045,-0.382,0.326,0.511,-0.089,0.204,-0.003,-0.293,0.349
2024-10-15 11:19:36.952,65128.343,-0.006,0.28,-0.96,-0.152,-0.014,0.092,1.124,-0.595,0.117,-0.006,-0.284,0.351
2024-10-15 11:19:36.962,65128.353,-0.01,0.273,-0.962,0.077,-0.02,-0.226,0.359,-0.33,-0.05,-0.011,-0.277,0.352
2024-10-15 11:19:36.972,65128.363,-0.012,0.272,-0.962,0.287,-0.374,-0.295,-0.041,0.052,-0.346,-0.013,-0.275,0.349
2024-10-15 11:19:36.982,65128.373,-0.013,0.273,-0.962,0.057,-0.439,-0.122,-0.089,-0.014,-0.187,-0.013,-0.276,0.346
2024-10-15 11:19:36.992,65128.383,-0.014,0.273,-0.962,-0.084,-0.312,-0.048,0.017,-0.064,-0.243,-0.014,-0.276,0.344
2024-10-15 11:19:37.002,65128.393,-0.015,0.272,-0.962,0.124,-0.064,0.006,0.176,-0.007,-0.295,-0.015,-0.275,0.342
2024-10-15 11:19:37.012,65128.403,-0.015,0.269,-0.963,0.086,0.138,0.015,0.462,0.21,-0.308,-0.015,-0.272,0.339
2024-10-15 11:19:37.022,65128.413,-0.013,0.261,-0.965,0.018,0.15,-0.019,1.191,0.311,-0.578,-0.013,-0.264,0.334
2024-10-15 11:19:37.032,65128.423,-0.013,0.251,-0.968,-0.049,0.169,-0.081,0.808,0.131,-0.496,-0.013,-0.254,0.329
2024-10-15 11:19:37.041,65128.433,-0.012,0.247,-0.969,-0.052,0.018,-0.099,0.033,0.28,-0.666,-0.012,-0.25,0.323
2024-10-15 11:19:37.051,65128.443,-0.011,0.249,-0.968,0.1,-0.225,0.101,-0.408,0.268,-0.558,-0.011,-0.252,0.316
2024-10-15 11:19:37.061,65128.453,-0.01,0.254,-0.967,-0.083,-0.173,0.31,-0.65,0.092,-0.348,-0.011,-0.257,0.312
2024-10-15 11:19:37.071,65128.462,-0.01,0.261,-0.965,-0.099,0.127,0.407,-0.777,0.035,-0.033,-0.011,-0.264,0.31
2024-10-15 11:19:37.081,65128.472,-0.01,0.267,-0.964,-0.03,0.434,0.383,-0.349,0.032,0.22,-0.01,-0.27,0.31
2024-10-15 11:19:37.091,65128.482,-0.009,0.267,-0.964,-0.066,0.711,0.286,0.367,-0.053,0.41,-0.009,-0.27,0.314
2024-10-15 11:19:37.101,65128.492,-0.008,0.261,-0.965,-0.099,0.855,0.065,0.799,-0.062,0.497,-0.009,-0.264,0.319
2024-10-15 11:19:37.111,65128.502,-0.007,0.253,-0.967,-0.043,0.658,-0.215,0.775,0.032,0.465,-0.007,-0.256,0.324
2024-10-15 11:19:37.121,65128.512,-0.006,0.248,-0.969,-0.012,0.197,-0.418,0.354,0.046,0.334,-0.006,-0.25,0.328
2024-10-15 11:19:37.131,65128.522,-0.005,0.248,-0.969,-0.033,-0.188,-0.39,-0.564,-0.201,0.295,-0.006,-0.251,0.331
2024-10-15 11:19:37.142,65128.532,-0.007,0.261,-0.965,0.018,-0.469,-0.179,-2.064,-0.279,0.51,-0.008,-0.264,0.335
2024-10-15 11:19:37.152,65128.542,-0.007,0.283,-0.959,0.097,-0.566,0.174,-2.223,-0.086,0.611,-0.008,-0.287,0.34
2024-10-15 11:19:37.161,65128.552,-0.006,0.298,-0.954,0.055,-0.329,0.514,-0.763,-0.117,0.764,-0.006,-0.303,0.348
2024-10-15 11:19:37.171,65128.562,-0.007,0.295,-0.955,-0.135,0.221,0.513,1.343,-0.493,0.57,-0.007,-0.3,0.355
2024-10-15 11:19:37.181,65128.572,-0.012,0.279,-0.96,-0.047,0.596,0.108,1.764,-0.81,0.392,-0.013,-0.282,0.36
2024-10-15 11:19:37.191,65128.582,-0.017,0.267,-0.963,0.144,0.185,-0.472,0.522,-0.295,-0.035,-0.018,-0.271,0.362
2024-10-15 11:19:37.201,65128.592,-0.017,0.267,-0.963,0.177,-0.583,-0.673,-0.437,0.335,-0.423,-0.018,-0.271,0.36
2024-10-15 11:19:37.211,65128.602,-0.015,0.273,-0.962,-0.108,-1.058,-0.387,-0.74,0.309,-0.419,-0.016,-0.277,0.355
2024-10-15 11:19:37.222,65128.612,-0.014,0.28,-0.96,-0.181,-0.964,-0.107,-0.683,0.142,-0.506,-0.015,-0.284,0.35
2024-10-15 11:19:37.231,65128.622,-0.015,0.285,-0.958,0.087,-0.517,0.165,-0.324,0.08,-0.544,-0.015,-0.289,0.345
2024-10-15 11:19:37.241,65128.632,-0.015,0.285,-0.958,0.163,-0.134,0.265,0.459,0.288,-0.61,-0.016,-0.289,0.339
2024-10-15 11:19:37.251,65128.642,-0.015,0.277,-0.961,0.046,0.19,0.164,0.98,0.039,-0.703,-0.015,-0.281,0.332
2024-10-15 11:19:37.261,65128.652,-0.016,0.271,-0.963,-0.071,0.325,-0.05,0.186,0.147,-0.556,-0.017,-0.274,0.326
2024-10-15 11:19:37.271,65128.662,-0.014,0.271,-0.962,0.032,0.106,-0.124,-0.179,0.52,-0.693,-0.015,-0.274,0.319
2024-10-15 11:19:37.281,65128.672,-0.011,0.272,-0.962,0.021,0.018,0.056,-0.113,0.364,-0.397,-0.012,-0.276,0.313
2024-10-15 11:19:37.291,65128.682,-0.01,0.274,-0.962,-0.199,0.239,0.237,-0.173,0.084,-0.168,-0.01,-0.277,0.31
2024-10-15 11:19:37.301,65128.692,-0.01,0.276,-0.961,0.002,0.493,0.287,-0.311,0.007,0.118,-0.01,-0.279,0.31
2024-10-15 11:19:37.311,65128.702,-0.009,0.278,-0.96,0.076,0.605,0.298,-0.155,-0.0,0.361,-0.009,-0.282,0.312
2024-10-15 11:19:37.321,65128.712,-0.008,0.278,-0.961,-0.034,0.706,0.255,0.261,-0.068,0.509,-0.008,-0.282,0.317
2024-10-15 11:19:37.331,65128.722,-0.007,0.274,-0.962,-0.087,0.732,0.071,0.615,-0.111,0.575,-0.008,-0.277,0.323
2024-10-15 11:19:37.341,65128.732,-0.007,0.268,-0.963,-0.049,0.476,-0.21,0.586,-0.129,0.528,-0.007,-0.271,0.329
2024-10-15 11:19:37.351,65128.742,-0.007,0.265,-0.964,-0.057,0.044,-0.408,-0.181,-0.26,0.488,-0.008,-0.268,0.334
2024-10-15 11:19:37.361,65128.752,-0.009,0.274,-0.962,-0.083,-0.319,-0.342,-1.763,-0.324,0.633,-0.009,-0.278,0.339
2024-10-15 11:19:37.371,65128.762,-0.009,0.293,-0.956,0.006,-0.53,0.007,-1.948,0.016,0.489,-0.009,-0.297,0.345
2024-10-15 11:19:37.381,65128.772,-0.006,0.304,-0.953,0.031,-0.428,0.414,-0.202,0.14,0.386,-0.007,-0.309,0.35
2024-10-15 11:19:37.391,65128.782,-0.007,0.297,-0.955,-0.189,-0.04,0.425,1.398,-0.557,0.159,-0.008,-0.302,0.352
2024-10-15 11:19:37.401,65128.792,-0.013,0.286,-0.958,-0.098,0.143,-0.008,0.69,-0.489,0.025,-0.013,-0.291,0.354
2024-10-15 11:19:37.411,65128.802,-0.015,0.285,-0.958,0.287,-0.464,-0.522,-0.393,0.195,-0.611,-0.016,-0.289,0.351
2024-10-15 11:19:37.421,65128.812,-0.014,0.292,-0.956,0.183,-0.908,-0.44,-0.925,0.369,-0.53,-0.014,-0.296,0.344
2024-10-15 11:19:37.431,65128.822,-0.012,0.301,-0.954,-0.181,-0.901,-0.191,-0.898,0.272,-0.556,-0.013,-0.305,0.339
2024-10-15 11:19:37.441,65128.832,-0.012,0.307,-0.952,0.009,-0.455,0.024,-0.463,0.208,-0.581,-0.012,-0.312,0.333
2024-10-15 11:19:37.451,65128.842,-0.011,0.307,-0.952,0.112,0.014,0.133,0.518,0.274,-0.755,-0.011,-0.312,0.326
2024-10-15 11:19:37.461,65128.852,-0.012,0.301,-0.954,0.046,0.241,0.065,0.563,0.041,-0.548,-0.012,-0.305,0.319
2024-10-15 11:19:37.471,65128.862,-0.011,0.299,-0.954,-0.071,0.214,-0.072,-0.073,0.381,-0.646,-0.012,-0.303,0.313
2024-10-15 11:19:37.481,65128.872,-0.009,0.3,-0.954,0.078,-0.002,-0.002,-0.094,0.539,-0.621,-0.009,-0.304,0.306
2024-10-15 11:19:37.491,65128.882,-0.006,0.3,-0.954,-0.1,0.063,0.15,0.023,0.291,-0.393,-0.007,-0.304,0.301
2024-10-15 11:19:37.501,65128.892,-0.005,0.3,-0.954,-0.168,0.322,0.222,-0.136,0.119,-0.21,-0.006,-0.305,0.297
2024-10-15 11:19:37.511,65128.902,-0.005,0.302,-0.953,0.026,0.45,0.215,-0.288,0.056,0.079,-0.005,-0.307,0.297
2024-10-15 11:19:37.521,65128.912,-0.003,0.304,-0.953,-0.002,0.527,0.298,-0.039,0.06,0.336,-0.004,-0.309,0.299
2024-10-15 11:19:37.531,65128.922,-0.002,0.302,-0.953,-0.06,0.651,0.293,0.537,-0.027,0.434,-0.002,-0.307,0.303
2024-10-15 11:19:37.541,65128.932,-0.001,0.295,-0.955,-0.075,0.746,0.114,0.784,-0.083,0.49,-0.001,-0.3,0.308
2024-10-15 11:19:37.551,65128.942,-0.0,0.289,-0.957,-0.027,0.511,-0.197,0.601,0.048,0.402,-0.0,-0.293,0.313
2024-10-15 11:19:37.561,65128.952,0.001,0.285,-0.959,-0.003,0.047,-0.389,0.095,0.007,0.279,0.001,-0.289,0.316
2024-10-15 11:19:37.571,65128.962,0.001,0.289,-0.957,-0.063,-0.297,-0.327,-0.975,-0.199,0.352,0.001,-0.293,0.319
2024-10-15 11:19:37.581,65128.972,0.0,0.302,-0.953,-0.006,-0.489,-0.077,-1.573,-0.037,0.233,0.0,-0.307,0.323
2024-10-15 11:19:37.591,65128.982,0.001,0.315,-0.949,0.056,-0.477,0.261,-0.999,-0.044,0.313,0.001,-0.32,0.325
2024-10-15 11:19:37.600,65128.992,0.002,0.318,-0.948,-0.129,-0.26,0.338,0.389,-0.055,0.2,0.002,-0.324,0.328
2024-10-15 11:19:37.611,65129.002,-0.0,0.311,-0.951,-0.12,0.035,0.147,0.943,-0.388,0.074,-0.0,-0.316,0.329
2024-10-15 11:19:37.621,65129.012,-0.003,0.305,-0.952,0.033,-0.048,-0.199,0.043,-0.204,0.05,-0.003,-0.31,0.33
2024-10-15 11:19:37.631,65129.022,-0.003,0.308,-0.952,0.172,-0.449,-0.475,-0.373,0.382,-0.384,-0.003,-0.313,0.328
2024-10-15 11:19:37.640,65129.032,-0.0,0.31,-0.951,0.06,-0.546,-0.257,-0.079,0.276,-0.305,-0.0,-0.315,0.325
2024-10-15 11:19:37.651,65129.042,0.0,0.309,-0.951,-0.139,-0.382,-0.009,0.137,0.004,-0.266,0.0,-0.315,0.322
2024-10-15 11:19:37.660,65129.052,-0.001,0.308,-0.952,0.129,-0.154,0.069,0.286,0.046,-0.459,-0.001,-0.313,0.318
2024-10-15 11:19:37.670,65129.061,-0.002,0.303,-0.953,0.222,0.058,0.145,0.66,0.128,-0.631,-0.002,-0.308,0.312
2024-10-15 11:19:37.681,65129.071,-0.002,0.296,-0.955,0.039,0.104,0.082,0.667,0.201,-0.583,-0.002,-0.301,0.306
2024-10-15 11:19:37.690,65129.081,-0.002,0.293,-0.956,-0.087,0.042,-0.031,-0.013,0.129,-0.544,-0.002,-0.297,0.3
2024-10-15 11:19:37.700,65129.091,-0.001,0.296,-0.955,-0.038,-0.028,-0.013,-0.65,0.291,-0.473,-0.002,-0.301,0.295
2024-10-15 11:19:37.711,65129.101,0.0,0.303,-0.953,0.007,0.006,0.131,-0.639,0.247,-0.22,0.0,-0.307,0.291
2024-10-15 11:19:37.721,65129.111,0.001,0.308,-0.952,-0.106,0.299,0.262,-0.349,0.021,0.177,0.002,-0.313,0.291
2024-10-15 11:19:37.730,65129.121,0.002,0.308,-0.951,-0.075,0.597,0.297,0.204,-0.059,0.337,0.002,-0.314,0.293
2024-10-15 11:19:37.741,65129.131,0.002,0.304,-0.953,0.033,0.777,0.241,0.786,-0.163,0.48,0.002,-0.308,0.298
2024-10-15 11:19:37.750,65129.141,0.002,0.295,-0.956,-0.018,0.756,0.107,0.981,-0.166,0.495,0.002,-0.299,0.303
2024-10-15 11:19:37.760,65129.151,0.002,0.286,-0.958,-0.001,0.441,-0.122,0.843,-0.084,0.392,0.002,-0.29,0.308
2024-10-15 11:19:37.770,65129.161,0.002,0.28,-0.96,-0.014,-0.006,-0.298,0.276,-0.187,0.383,0.002,-0.284,0.312
2024-10-15 11:19:37.780,65129.171,0.0,0.283,-0.959,-0.053,-0.395,-0.302,-0.982,-0.343,0.439,0.0,-0.287,0.316
2024-10-15 11:19:37.790,65129.181,-0.002,0.297,-0.955,0.02,-0.528,-0.077,-1.666,-0.239,0.232,-0.002,-0.301,0.319
2024-10-15 11:19:37.800,65129.191,-0.002,0.31,-0.951,0.06,-0.44,0.25,-1.141,-0.104,0.4,-0.002,-0.316,0.322
2024-10-15 11:19:37.810,65129.201,-0.002,0.315,-0.949,-0.082,-0.307,0.297,0.222,-0.288,0.252,-0.003,-0.32,0.326
2024-10-15 11:19:37.820,65129.211,-0.007,0.31,-0.951,-0.059,0.033,0.118,0.525,-0.684,0.271,-0.007,-0.315,0.328
2024-10-15 11:19:37.830,65129.221,-0.012,0.308,-0.951,0.102,0.029,-0.178,-0.156,-0.435,0.08,-0.012,-0.313,0.331
2024-10-15 11:19:37.840,65129.231,-0.013,0.311,-0.95,0.236,-0.251,-0.347,-0.253,0.053,-0.139,-0.014,-0.316,0.33
2024-10-15 11:19:37.850,65129.241,-0.013,0.311,-0.95,-0.009,-0.372,-0.267,0.196,-0.025,-0.054,-0.014,-0.316,0.329
2024-10-15 11:19:37.860,65129.251,-0.015,0.309,-0.951,-0.135,-0.294,-0.218,0.259,-0.2,-0.141,-0.016,-0.314,0.328
2024-10-15 11:19:37.870,65129.261,-0.017,0.307,-0.951,0.097,-0.129,-0.171,0.015,-0.066,-0.331,-0.018,-0.312,0.326
2024-10-15 11:19:37.880,65129.271,-0.017,0.307,-0.951,0.166,-0.098,-0.041,0.084,0.273,-0.406,-0.018,-0.312,0.322
2024-10-15 11:19:37.890,65129.281,-0.016,0.304,-0.953,0.009,-0.121,0.07,0.716,0.3,-0.623,-0.017,-0.308,0.316
2024-10-15 11:19:37.900,65129.291,-0.016,0.296,-0.955,-0.099,-0.015,0.051,0.725,0.132,-0.673,-0.016,-0.3,0.31
2024-10-15 11:19:37.910,65129.301,-0.017,0.292,-0.956,-0.08,-0.016,0.022,-0.104,0.048,-0.637,-0.018,-0.297,0.303
2024-10-15 11:19:37.920,65129.311,-0.017,0.297,-0.955,0.025,-0.168,0.098,-0.824,0.274,-0.551,-0.018,-0.302,0.297
2024-10-15 11:19:37.930,65129.321,-0.016,0.305,-0.952,-0.012,-0.101,0.384,-0.852,0.114,-0.235,-0.017,-0.31,0.292
2024-10-15 11:19:37.940,65129.331,-0.016,0.312,-0.95,-0.147,0.316,0.493,-0.559,-0.047,0.215,-0.017,-0.318,0.292
2024-10-15 11:19:37.950,65129.341,-0.016,0.314,-0.949,-0.074,0.712,0.388,0.181,-0.146,0.284,-0.017,-0.32,0.295
2024-10-15 11:19:37.960,65129.351,-0.017,0.31,-0.951,-0.004,0.945,0.212,0.706,-0.217,0.471,-0.018,-0.315,0.299
2024-10-15 11:19:37.970,65129.361,-0.017,0.303,-0.953,-0.035,0.751,-0.057,0.642,-0.075,0.372,-0.018,-0.308,0.303
2024-10-15 11:19:37.980,65129.371,-0.016,0.299,-0.954,0.024,0.315,-0.305,0.171,0.11,0.182,-0.017,-0.304,0.306
2024-10-15 11:19:37.991,65129.381,-0.014,0.3,-0.954,-0.025,-0.129,-0.333,-0.436,0.112,0.038,-0.015,-0.305,0.307
2024-10-15 11:19:38.000,65129.391,-0.014,0.308,-0.951,-0.027,-0.474,-0.186,-1.199,-0.089,-0.002,-0.015,-0.313,0.307
2024-10-15 11:19:38.010,65129.401,-0.015,0.322,-0.947,0.02,-0.638,0.046,-1.624,0.004,-0.036,-0.016,-0.328,0.307
2024-10-15 11:19:38.020,65129.411,-0.015,0.336,-0.942,0.034,-0.586,0.317,-1.367,-0.032,-0.058,-0.016,-0.343,0.306
2024-10-15 11:19:38.030,65129.421,-0.016,0.348,-0.937,-0.069,-0.321,0.384,-1.166,-0.265,-0.041,-0.017,-0.355,0.306
2024-10-15 11:19:38.040,65129.431,-0.019,0.36,-0.933,-0.074,-0.062,0.255,-1.525,-0.235,-0.141,-0.021,-0.368,0.304
2024-10-15 11:19:38.050,65129.441,-0.021,0.377,-0.926,0.026,0.01,0.053,-2.2,-0.036,-0.203,-0.023,-0.387,0.302
2024-10-15 11:19:38.060,65129.451,-0.021,0.399,-0.917,-0.032,-0.08,-0.085,-2.403,0.276,-0.148,-0.023,-0.41,0.299
2024-10-15 11:19:38.070,65129.461,-0.018,0.418,-0.908,-0.104,-0.123,-0.118,-1.669,0.464,-0.044,-0.019,-0.431,0.298
2024-10-15 11:19:38.080,65129.471,-0.015,0.428,-0.903,-0.108,0.062,-0.16,-0.704,0.153,0.082,-0.016,-0.443,0.298
2024-10-15 11:19:38.090,65129.481,-0.014,0.433,-0.901,-0.037,0.34,-0.247,-0.448,-0.112,0.038,-0.016,-0.448,0.299
2024-10-15 11:19:38.100,65129.491,-0.015,0.437,-0.899,0.141,0.363,-0.159,-0.489,0.028,0.017,-0.016,-0.453,0.299
2024-10-15 11:19:38.110,65129.501,-0.014,0.442,-0.897,0.167,0.096,0.016,-0.431,0.172,0.1,-0.015,-0.457,0.299
2024-10-15 11:19:38.120,65129.511,-0.011,0.444,-0.896,-0.016,-0.04,0.051,-0.151,0.156,0.149,-0.013,-0.461,0.301
2024-10-15 11:19:38.130,65129.521,-0.01,0.444,-0.896,-0.044,0.015,0.031,0.277,0.027,0.184,-0.011,-0.46,0.303
2024-10-15 11:19:38.140,65129.531,-0.009,0.439,-0.898,0.05,0.068,0.012,0.746,-0.041,0.222,-0.01,-0.455,0.305
2024-10-15 11:19:38.150,65129.541,-0.008,0.431,-0.902,0.078,0.122,0.012,1.171,-0.044,0.219,-0.009,-0.445,0.307
2024-10-15 11:19:38.159,65129.551,-0.008,0.419,-0.908,0.031,0.183,0.02,1.444,-0.135,0.18,-0.009,-0.432,0.31
2024-10-15 11:19:38.170,65129.561,-0.009,0.406,-0.914,0.008,0.204,0.017,1.418,-0.195,0.198,-0.01,-0.418,0.312
2024-10-15 11:19:38.180,65129.571,-0.01,0.394,-0.919,0.04,0.092,0.0,1.045,-0.06,0.21,-0.01,-0.405,0.314
2024-10-15 11:19:38.190,65129.581,-0.009,0.387,-0.922,0.035,-0.005,0.035,0.556,0.053,0.107,-0.01,-0.397,0.316
2024-10-15 11:19:38.200,65129.591,-0.008,0.382,-0.924,-0.001,-0.061,-0.018,0.462,0.078,0.137,-0.009,-0.392,0.317
2024-10-15 11:19:38.210,65129.601,-0.007,0.378,-0.926,-0.027,-0.151,-0.115,0.437,-0.04,0.172,-0.008,-0.388,0.319
2024-10-15 11:19:38.219,65129.611,-0.007,0.375,-0.927,-0.027,-0.067,-0.037,0.256,-0.11,0.159,-0.008,-0.384,0.321
2024-10-15 11:19:38.230,65129.621,-0.007,0.373,-0.928,0.037,0.006,-0.062,0.144,-0.039,0.176,-0.008,-0.382,0.323
2024-10-15 11:19:38.239,65129.631,-0.007,0.372,-0.928,0.016,-0.001,-0.092,0.168,-0.01,0.251,-0.007,-0.381,0.325
2024-10-15 11:19:38.249,65129.641,-0.006,0.37,-0.929,-0.036,-0.003,-0.107,0.233,-0.111,0.279,-0.007,-0.379,0.328
2024-10-15 11:19:38.259,65129.651,-0.007,0.368,-0.93,0.001,0.007,-0.119,0.048,-0.259,0.379,-0.007,-0.377,0.332
2024-10-15 11:19:38.269,65129.66,-0.007,0.368,-0.93,0.062,-0.01,-0.092,0.063,-0.097,0.287,-0.008,-0.377,0.335
2024-10-15 11:19:38.279,65129.67,-0.007,0.367,-0.93,0.08,-0.04,-0.019,0.235,-0.097,0.264,-0.008,-0.376,0.338
2024-10-15 11:19:38.289,65129.68,-0.007,0.364,-0.931,-0.019,-0.117,-0.024,0.283,-0.168,0.223,-0.008,-0.373,0.341
2024-10-15 11:19:38.299,65129.69,-0.008,0.362,-0.932,0.047,-0.236,-0.065,0.2,-0.143,0.01,-0.009,-0.371,0.342
2024-10-15 11:19:38.310,65129.7,-0.01,0.361,-0.932,0.113,-0.311,-0.032,-0.049,-0.12,-0.188,-0.011,-0.37,0.341
2024-10-15 11:19:38.319,65129.71,-0.012,0.363,-0.932,0.074,-0.372,0.031,-0.322,-0.065,-0.286,-0.013,-0.372,0.339
2024-10-15 11:19:38.329,65129.72,-0.013,0.366,-0.93,0.066,-0.424,0.08,-0.386,-0.006,-0.32,-0.014,-0.375,0.335
2024-10-15 11:19:38.339,65129.73,-0.014,0.369,-0.929,0.03,-0.289,0.155,-0.22,-0.016,-0.266,-0.016,-0.378,0.332
2024-10-15 11:19:38.349,65129.74,-0.015,0.37,-0.929,-0.015,-0.001,0.211,0.115,0.032,-0.174,-0.016,-0.379,0.33
2024-10-15 11:19:38.359,65129.75,-0.015,0.367,-0.93,-0.023,0.256,0.171,0.616,0.069,-0.138,-0.016,-0.375,0.328
2024-10-15 11:19:38.369,65129.76,-0.015,0.36,-0.933,-0.063,0.443,0.077,0.822,0.023,-0.049,-0.016,-0.368,0.327
2024-10-15 11:19:38.380,65129.77,-0.015,0.353,-0.936,-0.08,0.463,-0.006,0.572,-0.001,0.01,-0.016,-0.361,0.327
2024-10-15 11:19:38.389,65129.78,-0.015,0.35,-0.937,-0.031,0.313,-0.002,0.086,0.004,0.129,-0.016,-0.357,0.328
2024-10-15 11:19:38.399,65129.79,-0.014,0.35,-0.937,-0.031,0.166,0.13,-0.127,-0.018,0.268,-0.015,-0.358,0.33
2024-10-15 11:19:38.409,65129.8,-0.014,0.35,-0.937,-0.054,0.206,0.267,0.205,-0.108,0.364,-0.015,-0.358,0.333
2024-10-15 11:19:38.419,65129.81,-0.014,0.346,-0.938,-0.077,0.333,0.284,0.667,-0.235,0.451,-0.015,-0.353,0.338
2024-10-15 11:19:38.429,65129.82,-0.015,0.339,-0.941,-0.088,0.35,0.154,0.884,-0.314,0.441,-0.016,-0.346,0.343
2024-10-15 11:19:38.439,65129.83,-0.016,0.331,-0.943,-0.055,0.194,-0.056,0.691,-0.261,0.369,-0.017,-0.338,0.347
2024-10-15 11:19:38.449,65129.84,-0.018,0.327,-0.945,-0.048,-0.086,-0.213,0.149,-0.206,0.307,-0.019,-0.333,0.351
2024-10-15 11:19:38.459,65129.85,-0.018,0.328,-0.945,-0.062,-0.294,-0.234,-0.257,-0.093,0.147,-0.019,-0.334,0.353
2024-10-15 11:19:38.469,65129.86,-0.019,0.331,-0.943,-0.028,-0.372,-0.146,-0.384,-0.132,0.108,-0.02,-0.337,0.354
2024-10-15 11:19:38.479,65129.87,-0.02,0.335,-0.942,-0.024,-0.361,-0.077,-0.406,-0.179,0.124,-0.021,-0.341,0.356
2024-10-15 11:19:38.489,65129.88,-0.021,0.339,-0.941,0.035,-0.362,-0.078,-0.383,-0.167,0.092,-0.023,-0.345,0.357
2024-10-15 11:19:38.499,65129.89,-0.022,0.342,-0.94,0.077,-0.337,-0.07,-0.243,-0.15,0.078,-0.024,-0.349,0.357
2024-10-15 11:19:38.509,65129.9,-0.024,0.343,-0.939,0.084,-0.242,-0.056,0.015,-0.166,0.065,-0.025,-0.35,0.358
2024-10-15 11:19:38.518,65129.91,-0.025,0.341,-0.94,0.119,-0.128,-0.054,0.257,-0.224,0.081,-0.027,-0.348,0.359
2024-10-15 11:19:38.528,65129.92,-0.027,0.338,-0.941,0.136,-0.029,-0.081,0.405,-0.236,0.036,-0.029,-0.345,0.36
2024-10-15 11:19:38.538,65129.93,-0.029,0.335,-0.942,0.134,0.039,-0.104,0.341,-0.218,-0.002,-0.031,-0.341,0.36
2024-10-15 11:19:38.549,65129.94,-0.031,0.332,-0.943,0.1,0.079,-0.11,0.217,-0.106,-0.046,-0.033,-0.339,0.36
2024-10-15 11:19:38.559,65129.95,-0.032,0.33,-0.943,0.082,0.031,-0.076,0.182,-0.031,-0.061,-0.034,-0.337,0.359
2024-10-15 11:19:38.569,65129.96,-0.032,0.329,-0.944,0.029,-0.006,-0.028,0.156,0.04,-0.1,-0.034,-0.335,0.359
2024-10-15 11:19:38.579,65129.97,-0.032,0.327,-0.945,0.008,-0.011,0.037,0.254,0.082,-0.251,-0.034,-0.333,0.357
2024-10-15 11:19:38.589,65129.98,-0.032,0.324,-0.945,0.003,-0.023,0.073,0.261,0.15,-0.314,-0.034,-0.33,0.354
2024-10-15 11:19:38.599,65129.99,-0.031,0.321,-0.947,-0.047,-0.045,0.093,0.489,0.349,-0.534,-0.032,-0.327,0.35
2024-10-15 11:19:38.609,65130.0,-0.029,0.315,-0.949,-0.078,-0.049,0.104,0.62,0.326,-0.584,-0.031,-0.32,0.344
2024-10-15 11:19:38.619,65130.01,-0.028,0.31,-0.95,-0.151,-0.06,0.043,0.276,0.176,-0.65,-0.03,-0.315,0.338
2024-10-15 11:19:38.629,65130.02,-0.029,0.312,-0.95,-0.102,-0.056,0.017,-0.78,0.103,-0.343,-0.031,-0.317,0.332
2024-10-15 11:19:38.639,65130.03,-0.028,0.323,-0.946,-0.065,-0.036,0.183,-1.48,0.308,-0.127,-0.029,-0.329,0.329
2024-10-15 11:19:38.648,65130.04,-0.025,0.335,-0.942,-0.072,0.216,0.436,-0.991,0.283,0.18,-0.026,-0.342,0.329
2024-10-15 11:19:38.659,65130.05,-0.023,0.339,-0.94,-0.183,0.639,0.468,0.169,-0.052,0.44,-0.024,-0.346,0.332
2024-10-15 11:19:38.669,65130.06,-0.023,0.334,-0.942,-0.093,0.922,0.303,0.99,-0.304,0.592,-0.024,-0.34,0.338
2024-10-15 11:19:38.679,65130.07,-0.024,0.325,-0.945,0.091,0.8,-0.015,0.692,-0.591,0.659,-0.026,-0.331,0.345
2024-10-15 11:19:38.689,65130.08,-0.027,0.327,-0.945,0.098,0.359,-0.331,-1.16,-0.482,1.023,-0.029,-0.333,0.354
2024-10-15 11:19:38.699,65130.09,-0.025,0.341,-0.94,0.053,-0.065,-0.26,-1.495,0.336,0.699,-0.026,-0.348,0.363
2024-10-15 11:19:38.709,65130.1,-0.021,0.347,-0.938,0.071,-0.157,0.112,0.219,-0.061,0.443,-0.022,-0.354,0.368
2024-10-15 11:19:38.719,65130.11,-0.023,0.344,-0.939,-0.253,0.033,0.169,0.39,-0.735,0.837,-0.024,-0.351,0.375
2024-10-15 11:19:38.728,65130.12,-0.026,0.342,-0.939,-0.001,-0.113,-0.111,0.059,-0.316,0.194,-0.028,-0.349,0.381
2024-10-15 11:19:38.739,65130.13,-0.027,0.342,-0.939,0.312,-0.398,-0.193,0.006,0.047,-0.04,-0.029,-0.349,0.382
2024-10-15 11:19:38.749,65130.14,-0.026,0.341,-0.94,-0.166,-0.612,-0.122,0.25,0.139,-0.163,-0.028,-0.347,0.381
2024-10-15 11:19:38.759,65130.15,-0.027,0.338,-0.941,-0.162,-0.716,-0.193,0.174,-0.052,-0.335,-0.028,-0.345,0.378
2024-10-15 11:19:38.769,65130.16,-0.029,0.339,-0.94,0.014,-0.632,-0.233,-0.51,-0.05,-0.431,-0.031,-0.346,0.374
2024-10-15 11:19:38.779,65130.17,-0.03,0.346,-0.938,0.111,-0.562,-0.119,-0.891,0.149,-0.543,-0.032,-0.353,0.368
2024-10-15 11:19:38.788,65130.18,-0.03,0.354,-0.935,0.063,-0.423,0.042,-0.697,0.211,-0.398,-0.032,-0.362,0.363
2024-10-15 11:19:38.798,65130.19,-0.029,0.358,-0.933,-0.081,-0.127,0.071,-0.113,0.214,-0.261,-0.031,-0.366,0.359
2024-10-15 11:19:38.809,65130.2,-0.028,0.355,-0.934,-0.026,0.225,0.028,0.661,0.197,-0.306,-0.03,-0.363,0.357
2024-10-15 11:19:38.818,65130.21,-0.028,0.346,-0.938,0.013,0.499,-0.014,1.252,0.169,-0.489,-0.03,-0.353,0.353
2024-10-15 11:19:38.829,65130.22,-0.028,0.334,-0.942,-0.018,0.494,-0.097,1.04,0.257,-0.538,-0.029,-0.341,0.348
2024-10-15 11:19:38.839,65130.23,-0.027,0.328,-0.944,-0.05,0.17,-0.135,0.302,0.308,-0.596,-0.028,-0.334,0.342
2024-10-15 11:19:38.849,65130.24,-0.026,0.329,-0.944,-0.067,-0.142,0.007,-0.527,0.3,-0.439,-0.027,-0.335,0.336
2024-10-15 11:19:38.858,65130.25,-0.025,0.336,-0.942,-0.062,-0.222,0.237,-0.961,0.15,-0.199,-0.026,-0.342,0.332
2024-10-15 11:19:38.868,65130.259,-0.024,0.345,-0.938,-0.003,0.069,0.472,-0.834,0.011,0.163,-0.025,-0.352,0.332
2024-10-15 11:19:38.878,65130.269,-0.024,0.349,-0.937,0.039,0.514,0.564,0.075,-0.23,0.408,-0.025,-0.356,0.335
2024-10-15 11:19:38.888,65130.279,-0.025,0.343,-0.939,0.038,0.923,0.437,0.982,-0.479,0.641,-0.027,-0.351,0.341
2024-10-15 11:19:38.898,65130.289,-0.028,0.333,-0.943,-0.005,1.021,0.082,1.256,-0.47,0.674,-0.029,-0.339,0.348
2024-10-15 11:19:38.909,65130.299,-0.03,0.323,-0.946,0.004,0.7,-0.346,0.64,-0.424,0.711,-0.031,-0.329,0.356
2024-10-15 11:19:38.919,65130.309,-0.032,0.326,-0.945,-0.099,0.085,-0.567,-1.286,-0.52,1.16,-0.033,-0.332,0.365
2024-10-15 11:19:38.928,65130.319,-0.031,0.344,-0.939,-0.095,-0.4,-0.336,-1.998,-0.034,0.846,-0.033,-0.351,0.376
2024-10-15 11:19:38.938,65130.329,-0.029,0.356,-0.934,0.056,-0.322,0.255,-0.391,-0.065,0.511,-0.031,-0.364,0.382
2024-10-15 11:19:38.948,65130.339,-0.031,0.354,-0.935,-0.166,-0.126,0.473,0.659,-0.763,0.766,-0.033,-0.362,0.389
2024-10-15 11:19:38.958,65130.349,-0.035,0.347,-0.937,-0.098,-0.145,0.13,0.772,-0.463,0.286,-0.037,-0.355,0.396
2024-10-15 11:19:38.968,65130.359,-0.037,0.34,-0.94,0.279,-0.454,-0.215,0.68,-0.022,-0.309,-0.039,-0.347,0.395
2024-10-15 11:19:38.978,65130.369,-0.038,0.335,-0.941,0.016,-0.759,-0.329,0.305,0.049,-0.504,-0.04,-0.342,0.391
2024-10-15 11:19:38.988,65130.379,-0.039,0.335,-0.941,-0.088,-0.99,-0.359,-0.329,0.147,-0.664,-0.042,-0.342,0.385
2024-10-15 11:19:38.998,65130.389,-0.04,0.34,-0.94,0.115,-0.95,-0.199,-0.73,0.308,-0.77,-0.042,-0.347,0.377
2024-10-15 11:19:39.008,65130.399,-0.038,0.345,-0.938,0.097,-0.515,0.039,-0.296,0.566,-0.747,-0.041,-0.353,0.369
2024-10-15 11:19:39.019,65130.409,-0.035,0.342,-0.939,0.008,-0.056,0.069,1.06,0.541,-0.814,-0.038,-0.349,0.361
2024-10-15 11:19:39.028,65130.419,-0.035,0.329,-0.944,-0.076,0.338,-0.087,1.381,0.199,-0.779,-0.037,-0.335,0.353
2024-10-15 11:19:39.038,65130.429,-0.036,0.32,-0.947,-0.022,0.374,-0.255,0.35,0.259,-0.812,-0.038,-0.326,0.345
2024-10-15 11:19:39.048,65130.439,-0.033,0.321,-0.946,0.13,0.056,-0.237,-0.493,0.676,-0.743,-0.035,-0.327,0.336
2024-10-15 11:19:39.058,65130.449,-0.029,0.325,-0.945,-0.056,-0.097,0.051,-0.376,0.628,-0.505,-0.031,-0.332,0.329
2024-10-15 11:19:39.068,65130.459,-0.026,0.327,-0.945,-0.236,0.189,0.348,0.002,0.118,-0.129,-0.028,-0.333,0.326
2024-10-15 11:19:39.078,65130.469,-0.027,0.327,-0.945,-0.064,0.528,0.391,-0.077,-0.18,0.192,-0.029,-0.333,0.326
2024-10-15 11:19:39.088,65130.479,-0.027,0.328,-0.944,0.127,0.693,0.339,-0.047,-0.062,0.369,-0.029,-0.334,0.329
2024-10-15 11:19:39.098,65130.489,-0.026,0.326,-0.945,0.05,0.764,0.344,0.464,-0.114,0.514,-0.028,-0.332,0.334
2024-10-15 11:19:39.108,65130.499,-0.026,0.32,-0.947,-0.084,0.748,0.189,0.823,-0.189,0.641,-0.028,-0.326,0.341
2024-10-15 11:19:39.118,65130.509,-0.026,0.313,-0.949,-0.019,0.516,-0.142,0.713,-0.184,0.602,-0.027,-0.318,0.347
2024-10-15 11:19:39.128,65130.519,-0.026,0.309,-0.951,0.029,0.119,-0.394,-0.058,-0.368,0.565,-0.028,-0.315,0.354
2024-10-15 11:19:39.138,65130.529,-0.028,0.316,-0.948,-0.035,-0.232,-0.363,-1.365,-0.335,0.729,-0.029,-0.322,0.36
2024-10-15 11:19:39.148,65130.539,-0.028,0.331,-0.943,0.024,-0.438,-0.057,-1.582,-0.173,0.62,-0.029,-0.338,0.367
2024-10-15 11:19:39.158,65130.549,-0.027,0.341,-0.94,0.021,-0.333,0.315,-0.279,-0.074,0.54,-0.029,-0.348,0.373
2024-10-15 11:19:39.168,65130.559,-0.028,0.335,-0.942,-0.131,-0.065,0.366,1.358,-0.397,0.282,-0.029,-0.342,0.377
2024-10-15 11:19:39.178,65130.569,-0.031,0.322,-0.946,-0.074,-0.016,0.057,1.394,-0.551,0.279,-0.033,-0.327,0.381
2024-10-15 11:19:39.188,65130.579,-0.035,0.312,-0.949,0.103,-0.399,-0.441,0.615,-0.076,-0.315,-0.036,-0.317,0.381
2024-10-15 11:19:39.198,65130.589,-0.035,0.309,-0.95,0.114,-0.649,-0.452,0.097,0.24,-0.526,-0.037,-0.314,0.376
2024-10-15 11:19:39.208,65130.599,-0.034,0.308,-0.951,-0.104,-0.777,-0.173,-0.031,0.221,-0.446,-0.036,-0.314,0.371
2024-10-15 11:19:39.218,65130.609,-0.033,0.307,-0.951,-0.032,-0.635,-0.017,0.373,0.316,-0.589,-0.035,-0.312,0.366
2024-10-15 11:19:39.228,65130.619,-0.033,0.299,-0.954,0.073,-0.175,0.109,1.271,0.193,-0.855,-0.034,-0.304,0.359
2024-10-15 11:19:39.238,65130.629,-0.034,0.287,-0.957,0.016,0.098,0.019,1.005,-0.016,-0.711,-0.036,-0.291,0.351
2024-10-15 11:19:39.248,65130.639,-0.036,0.282,-0.959,-0.016,0.013,-0.081,-0.001,0.123,-0.662,-0.038,-0.286,0.344
2024-10-15 11:19:39.258,65130.649,-0.035,0.285,-0.958,0.081,-0.118,0.083,-0.491,0.314,-0.545,-0.037,-0.289,0.338
2024-10-15 11:19:39.268,65130.659,-0.035,0.289,-0.957,-0.006,0.01,0.382,-0.448,-0.015,-0.215,-0.037,-0.293,0.333
2024-10-15 11:19:39.278,65130.669,-0.036,0.293,-0.956,-0.034,0.387,0.399,-0.288,-0.146,0.092,-0.038,-0.297,0.333
2024-10-15 11:19:39.287,65130.679,-0.037,0.294,-0.955,0.108,0.749,0.259,0.105,-0.195,0.28,-0.039,-0.298,0.334
2024-10-15 11:19:39.297,65130.689,-0.038,0.291,-0.956,0.055,0.947,0.126,0.514,-0.179,0.469,-0.04,-0.295,0.339
2024-10-15 11:19:39.307,65130.699,-0.038,0.285,-0.958,-0.052,0.868,-0.052,0.704,-0.096,0.472,-0.039,-0.289,0.344
2024-10-15 11:19:39.318,65130.709,-0.037,0.279,-0.96,-0.046,0.593,-0.204,0.602,-0.037,0.409,-0.039,-0.282,0.349
2024-10-15 11:19:39.328,65130.719,-0.036,0.274,-0.961,-0.058,0.2,-0.288,0.298,0.011,0.331,-0.038,-0.278,0.353
2024-10-15 11:19:39.337,65130.729,-0.036,0.275,-0.961,-0.051,-0.241,-0.258,-0.369,-0.219,0.367,-0.038,-0.278,0.356
2024-10-15 11:19:39.347,65130.739,-0.037,0.283,-0.959,-0.057,-0.479,-0.056,-1.26,-0.255,0.411,-0.039,-0.287,0.36
2024-10-15 11:19:39.358,65130.749,-0.038,0.295,-0.955,0.023,-0.486,0.269,-1.27,-0.19,0.3,-0.04,-0.3,0.363
2024-10-15 11:19:39.368,65130.759,-0.039,0.304,-0.952,-0.014,-0.326,0.446,-0.405,-0.091,0.274,-0.041,-0.309,0.366
2024-10-15 11:19:39.377,65130.769,-0.04,0.302,-0.952,-0.158,-0.087,0.298,0.66,-0.234,0.023,-0.042,-0.307,0.367
2024-10-15 11:19:39.388,65130.779,-0.043,0.297,-0.954,-0.116,-0.038,-0.05,0.387,-0.286,0.126,-0.045,-0.302,0.369
2024-10-15 11:19:39.399,65130.789,-0.044,0.296,-0.954,0.001,-0.36,-0.452,-0.215,0.111,-0.296,-0.046,-0.301,0.368
2024-10-15 11:19:39.408,65130.799,-0.043,0.3,-0.953,0.065,-0.514,-0.459,-0.508,0.25,-0.403,-0.045,-0.304,0.364
2024-10-15 11:19:39.417,65130.809,-0.042,0.305,-0.952,-0.089,-0.493,-0.251,-0.55,0.202,-0.386,-0.044,-0.31,0.359
2024-10-15 11:19:39.427,65130.819,-0.041,0.309,-0.95,0.024,-0.319,-0.088,-0.324,0.185,-0.42,-0.043,-0.314,0.355
2024-10-15 11:19:39.437,65130.829,-0.041,0.309,-0.95,0.103,-0.078,0.071,0.216,0.26,-0.508,-0.043,-0.315,0.35
2024-10-15 11:19:39.447,65130.839,-0.041,0.305,-0.952,0.072,0.105,0.137,0.608,0.039,-0.535,-0.043,-0.31,0.344
2024-10-15 11:19:39.457,65130.849,-0.042,0.301,-0.953,0.004,0.186,0.06,0.133,0.142,-0.403,-0.044,-0.306,0.34
2024-10-15 11:19:39.467,65130.858,-0.04,0.301,-0.953,0.024,0.09,0.063,-0.063,0.398,-0.456,-0.042,-0.305,0.335
2024-10-15 11:19:39.477,65130.868,-0.038,0.3,-0.953,0.002,0.08,0.133,0.115,0.314,-0.314,-0.04,-0.305,0.331
2024-10-15 11:19:39.487,65130.878,-0.037,0.299,-0.954,-0.112,0.226,0.182,0.071,0.104,-0.166,-0.038,-0.304,0.329
2024-10-15 11:19:39.497,65130.888,-0.036,0.3,-0.953,0.023,0.365,0.178,-0.187,0.055,0.007,-0.038,-0.304,0.328
2024-10-15 11:19:39.507,65130.898,-0.035,0.302,-0.953,0.086,0.403,0.181,-0.259,0.106,0.185,-0.037,-0.307,0.329
2024-10-15 11:19:39.517,65130.908,-0.034,0.303,-0.952,0.001,0.477,0.198,0.068,0.049,0.268,-0.035,-0.308,0.331
2024-10-15 11:19:39.527,65130.918,-0.033,0.301,-0.953,-0.034,0.575,0.152,0.415,-0.077,0.354,-0.035,-0.306,0.335
2024-10-15 11:19:39.538,65130.928,-0.033,0.296,-0.955,0.01,0.489,0.017,0.574,-0.08,0.373,-0.034,-0.301,0.339
2024-10-15 11:19:39.548,65130.938,-0.033,0.291,-0.956,0.037,0.175,-0.138,0.463,-0.118,0.339,-0.034,-0.295,0.343
2024-10-15 11:19:39.557,65130.948,-0.033,0.289,-0.957,-0.034,-0.129,-0.234,-0.025,-0.199,0.301,-0.035,-0.293,0.346
2024-10-15 11:19:39.567,65130.958,-0.036,0.294,-0.955,-0.059,-0.316,-0.221,-1.128,-0.51,0.428,-0.037,-0.299,0.349
2024-10-15 11:19:39.577,65130.968,-0.038,0.31,-0.95,-0.044,-0.393,-0.094,-1.98,-0.195,0.602,-0.04,-0.316,0.355
2024-10-15 11:19:39.587,65130.978,-0.037,0.325,-0.945,-0.019,-0.357,0.196,-0.774,0.066,0.366,-0.039,-0.331,0.359
2024-10-15 11:19:39.597,65130.988,-0.037,0.323,-0.946,-0.202,0.059,0.362,0.924,-0.466,0.432,-0.039,-0.329,0.363
2024-10-15 11:19:39.607,65130.998,-0.042,0.314,-0.949,-0.255,0.29,0.145,0.992,-0.679,0.403,-0.044,-0.319,0.368
2024-10-15 11:19:39.617,65131.008,-0.045,0.307,-0.951,0.187,-0.112,-0.167,0.41,-0.164,-0.218,-0.048,-0.312,0.37
2024-10-15 11:19:39.627,65131.018,-0.047,0.305,-0.951,0.226,-0.529,-0.19,0.107,0.081,-0.475,-0.049,-0.31,0.366
2024-10-15 11:19:39.637,65131.028,-0.048,0.304,-0.951,-0.05,-0.867,-0.113,-0.014,0.011,-0.545,-0.05,-0.309,0.361
2024-10-15 11:19:39.647,65131.038,-0.05,0.305,-0.951,0.07,-0.882,-0.107,-0.258,-0.014,-0.618,-0.052,-0.31,0.354
2024-10-15 11:19:39.658,65131.048,-0.05,0.307,-0.95,0.17,-0.467,-0.046,-0.227,0.26,-0.65,-0.053,-0.312,0.348
2024-10-15 11:19:39.667,65131.058,-0.049,0.306,-0.951,0.086,-0.024,-0.048,0.528,0.437,-0.561,-0.051,-0.311,0.341
2024-10-15 11:19:39.677,65131.068,-0.048,0.297,-0.954,-0.049,0.318,-0.171,1.066,0.111,-0.669,-0.05,-0.302,0.335
2024-10-15 11:19:39.687,65131.078,-0.049,0.291,-0.956,-0.018,0.476,-0.275,0.148,0.096,-0.506,-0.051,-0.295,0.329
2024-10-15 11:19:39.697,65131.088,-0.048,0.292,-0.955,0.168,0.154,-0.153,-0.407,0.395,-0.486,-0.05,-0.297,0.324
2024-10-15 11:19:39.708,65131.098,-0.045,0.296,-0.954,0.085,0.034,0.082,-0.293,0.285,-0.155,-0.047,-0.3,0.32
2024-10-15 11:19:39.718,65131.108,-0.044,0.298,-0.954,-0.218,0.38,0.228,-0.093,0.012,0.157,-0.046,-0.302,0.32
2024-10-15 11:19:39.727,65131.118,-0.044,0.298,-0.954,-0.059,0.616,0.262,0.073,-0.122,0.34,-0.046,-0.302,0.323
2024-10-15 11:19:39.737,65131.128,-0.044,0.296,-0.954,0.035,0.7,0.287,0.228,-0.103,0.419,-0.046,-0.301,0.327
2024-10-15 11:19:39.747,65131.138,-0.043,0.294,-0.955,-0.039,0.632,0.28,0.393,-0.09,0.439,-0.045,-0.298,0.332
2024-10-15 11:19:39.757,65131.148,-0.043,0.29,-0.956,-0.065,0.392,0.141,0.466,-0.099,0.437,-0.045,-0.294,0.337
2024-10-15 11:19:39.767,65131.158,-0.042,0.286,-0.957,-0.043,0.025,-0.07,0.322,-0.069,0.373,-0.044,-0.29,0.341
2024-10-15 11:19:39.777,65131.168,-0.042,0.284,-0.958,-0.041,-0.275,-0.203,0.093,-0.066,0.25,-0.044,-0.288,0.344
2024-10-15 11:19:39.787,65131.178,-0.043,0.285,-0.958,-0.072,-0.348,-0.197,-0.354,-0.222,0.246,-0.045,-0.289,0.347
2024-10-15 11:19:39.797,65131.188,-0.044,0.291,-0.956,-0.054,-0.359,-0.085,-0.747,-0.096,0.299,-0.046,-0.295,0.35
2024-10-15 11:19:39.807,65131.198,-0.043,0.296,-0.954,-0.01,-0.277,0.078,-0.338,-0.007,0.156,-0.045,-0.301,0.351
2024-10-15 11:19:39.817,65131.208,-0.043,0.297,-0.954,-0.079,-0.07,0.156,0.224,-0.106,0.246,-0.045,-0.301,0.354
2024-10-15 11:19:39.827,65131.218,-0.044,0.293,-0.955,-0.095,0.014,-0.006,0.62,-0.112,0.147,-0.046,-0.297,0.356
2024-10-15 11:19:39.837,65131.228,-0.044,0.286,-0.957,0.063,-0.061,-0.153,0.727,-0.097,0.063,-0.046,-0.29,0.357
2024-10-15 11:19:39.847,65131.238,-0.045,0.28,-0.959,0.068,-0.159,-0.2,0.635,-0.035,-0.059,-0.047,-0.283,0.358
2024-10-15 11:19:39.857,65131.248,-0.046,0.275,-0.96,0.07,-0.251,-0.16,0.395,-0.024,-0.139,-0.047,-0.278,0.357
2024-10-15 11:19:39.867,65131.258,-0.046,0.272,-0.961,0.085,-0.325,-0.049,0.084,0.005,-0.261,-0.048,-0.276,0.355
2024-10-15 11:19:39.877,65131.268,-0.047,0.273,-0.961,0.101,-0.3,0.076,-0.221,0.024,-0.367,-0.049,-0.276,0.352
2024-10-15 11:19:39.887,65131.278,-0.048,0.276,-0.96,0.084,-0.253,0.175,-0.435,0.113,-0.466,-0.05,-0.279,0.347
2024-10-15 11:19:39.897,65131.288,-0.047,0.279,-0.959,0.059,-0.204,0.206,-0.139,0.32,-0.687,-0.049,-0.282,0.341
2024-10-15 11:19:39.907,65131.298,-0.046,0.278,-0.959,0.003,-0.095,0.133,0.125,0.176,-0.675,-0.048,-0.282,0.334
2024-10-15 11:19:39.917,65131.308,-0.047,0.278,-0.959,-0.08,-0.002,0.012,-0.261,0.134,-0.457,-0.049,-0.282,0.328
2024-10-15 11:19:39.926,65131.318,-0.046,0.282,-0.958,0.009,0.046,-0.003,-0.435,0.273,-0.368,-0.048,-0.285,0.323
2024-10-15 11:19:39.936,65131.328,-0.044,0.285,-0.957,-0.039,0.295,0.068,-0.326,0.211,-0.004,-0.046,-0.289,0.321
2024-10-15 11:19:39.946,65131.338,-0.042,0.287,-0.957,-0.183,0.571,0.123,0.004,0.07,0.242,-0.044,-0.291,0.323
2024-10-15 11:19:39.956,65131.348,-0.041,0.285,-0.958,-0.054,0.687,0.098,0.315,-0.039,0.3,-0.043,-0.289,0.325
2024-10-15 11:19:39.966,65131.358,-0.041,0.282,-0.959,0.008,0.659,0.061,0.407,-0.066,0.255,-0.043,-0.286,0.329
2024-10-15 11:19:39.976,65131.368,-0.041,0.279,-0.96,-0.001,0.389,0.032,0.264,-0.002,0.127,-0.042,-0.282,0.331
2024-10-15 11:19:39.987,65131.378,-0.04,0.277,-0.96,-0.016,-0.053,-0.041,-0.013,0.063,-0.034,-0.042,-0.281,0.331
2024-10-15 11:19:39.997,65131.388,-0.04,0.279,-0.959,-0.053,-0.39,-0.087,-0.373,0.078,-0.224,-0.042,-0.283,0.33
2024-10-15 11:19:40.007,65131.398,-0.04,0.285,-0.958,-0.055,-0.552,-0.094,-0.842,0.043,-0.36,-0.042,-0.289,0.327
2024-10-15 11:19:40.017,65131.408,-0.041,0.295,-0.955,-0.028,-0.599,-0.065,-1.301,0.051,-0.417,-0.043,-0.299,0.322
2024-10-15 11:19:40.027,65131.418,-0.041,0.308,-0.95,-0.006,-0.535,0.019,-1.506,0.133,-0.408,-0.044,-0.313,0.317
2024-10-15 11:19:40.037,65131.428,-0.041,0.323,-0.946,0.004,-0.374,0.078,-1.519,0.109,-0.283,-0.044,-0.328,0.313
2024-10-15 11:19:40.047,65131.438,-0.041,0.336,-0.941,-0.006,-0.118,0.038,-1.367,0.037,-0.184,-0.044,-0.343,0.31
2024-10-15 11:19:40.056,65131.448,-0.042,0.348,-0.936,0.025,0.156,-0.068,-1.241,-0.055,-0.146,-0.045,-0.356,0.307
2024-10-15 11:19:40.066,65131.457,-0.043,0.36,-0.932,0.058,0.271,-0.139,-1.211,-0.052,-0.151,-0.046,-0.368,0.305
2024-10-15 11:19:40.076,65131.467,-0.044,0.371,-0.928,0.079,0.188,-0.108,-1.241,-0.012,-0.149,-0.047,-0.38,0.303
2024-10-15 11:19:40.086,65131.477,-0.044,0.382,-0.923,0.072,0.027,-0.068,-1.279,0.02,-0.145,-0.048,-0.392,0.301
2024-10-15 11:19:40.096,65131.487,-0.045,0.394,-0.918,0.053,-0.07,-0.04,-1.341,0.02,-0.134,-0.049,-0.405,0.298
2024-10-15 11:19:40.106,65131.497,-0.045,0.407,-0.912,0.049,-0.07,-0.036,-1.364,0.032,-0.138,-0.049,-0.419,0.296
2024-10-15 11:19:40.116,65131.507,-0.045,0.418,-0.907,0.056,-0.037,-0.037,-1.194,0.123,-0.156,-0.049,-0.432,0.294
2024-10-15 11:19:40.127,65131.517,-0.045,0.428,-0.903,0.051,-0.018,-0.055,-1.015,0.1,-0.19,-0.049,-0.443,0.291
2024-10-15 11:19:40.136,65131.527,-0.045,0.438,-0.898,0.026,0.02,-0.066,-1.165,0.025,-0.161,-0.05,-0.453,0.289
2024-10-15 11:19:40.147,65131.537,-0.045,0.45,-0.892,0.064,-0.016,-0.019,-1.502,0.059,-0.113,-0.05,-0.466,0.287
2024-10-15 11:19:40.156,65131.547,-0.045,0.464,-0.885,0.117,-0.121,0.01,-1.765,0.15,-0.099,-0.05,-0.483,0.284
2024-10-15 11:19:40.167,65131.557,-0.043,0.48,-0.876,0.036,-0.068,-0.011,-1.948,0.235,-0.08,-0.049,-0.501,0.282
2024-10-15 11:19:40.176,65131.567,-0.042,0.498,-0.866,-0.027,0.015,-0.043,-2.022,0.266,-0.061,-0.048,-0.521,0.28
2024-10-15 11:19:40.186,65131.577,-0.039,0.515,-0.856,-0.008,0.025,-0.051,-2.076,0.261,-0.04,-0.046,-0.541,0.279
2024-10-15 11:19:40.196,65131.587,-0.037,0.533,-0.845,0.024,0.026,-0.033,-2.14,0.271,-0.019,-0.044,-0.562,0.277
2024-10-15 11:19:40.206,65131.597,-0.035,0.551,-0.834,0.06,0.007,-0.012,-2.087,0.296,0.005,-0.042,-0.584,0.276
2024-10-15 11:19:40.216,65131.607,-0.033,0.568,-0.823,0.091,-0.027,-0.006,-1.904,0.28,0.019,-0.04,-0.604,0.275
2024-10-15 11:19:40.226,65131.617,-0.03,0.582,-0.812,0.103,-0.023,-0.008,-1.693,0.23,0.051,-0.037,-0.621,0.275
2024-10-15 11:19:40.236,65131.627,-0.028,0.595,-0.803,0.132,-0.022,-0.003,-1.485,0.15,0.089,-0.035,-0.637,0.275
2024-10-15 11:19:40.246,65131.637,-0.027,0.606,-0.795,0.164,-0.021,0.009,-1.267,0.111,0.106,-0.034,-0.651,0.276
2024-10-15 11:19:40.256,65131.647,-0.025,0.615,-0.788,0.16,-0.007,0.017,-0.995,0.12,0.123,-0.032,-0.662,0.277
2024-10-15 11:19:40.266,65131.657,-0.023,0.622,-0.783,0.13,-0.011,0.008,-0.717,0.12,0.136,-0.03,-0.671,0.278
2024-10-15 11:19:40.276,65131.667,-0.022,0.626,-0.779,0.106,-0.011,-0.005,-0.482,0.123,0.145,-0.028,-0.677,0.279
2024-10-15 11:19:40.286,65131.677,-0.02,0.63,-0.777,0.102,0.001,0.002,-0.3,0.153,0.138,-0.025,-0.681,0.281
2024-10-15 11:19:40.296,65131.687,-0.017,0.631,-0.775,0.104,0.003,0.011,-0.132,0.201,0.121,-0.023,-0.683,0.283
2024-10-15 11:19:40.306,65131.697,-0.015,0.632,-0.775,0.089,0.028,0.009,0.023,0.229,0.12,-0.019,-0.684,0.284
2024-10-15 11:19:40.316,65131.707,-0.012,0.631,-0.776,0.077,0.05,0.002,0.14,0.248,0.142,-0.016,-0.683,0.286
2024-10-15 11:19:40.326,65131.717,-0.009,0.63,-0.777,0.077,0.049,-0.012,0.228,0.256,0.164,-0.012,-0.681,0.288
2024-10-15 11:19:40.336,65131.727,-0.006,0.628,-0.778,0.076,0.039,-0.017,0.28,0.25,0.183,-0.008,-0.679,0.29
2024-10-15 11:19:40.346,65131.737,-0.003,0.625,-0.78,0.073,0.019,-0.016,0.286,0.233,0.199,-0.004,-0.676,0.293
2024-10-15 11:19:40.356,65131.747,-0.0,0.623,-0.782,0.068,0.008,0.0,0.257,0.219,0.197,-0.0,-0.673,0.295
2024-10-15 11:19:40.366,65131.757,0.003,0.621,-0.783,0.049,0.004,0.027,0.228,0.243,0.181,0.003,-0.671,0.298
2024-10-15 11:19:40.376,65131.767,0.006,0.62,-0.785,0.013,0.003,0.051,0.19,0.261,0.192,0.007,-0.669,0.3
2024-10-15 11:19:40.386,65131.777,0.009,0.618,-0.786,-0.026,-0.01,0.055,0.167,0.273,0.216,0.012,-0.667,0.303
2024-10-15 11:19:40.396,65131.787,0.013,0.617,-0.787,-0.045,-0.018,0.05,0.166,0.277,0.208,0.016,-0.665,0.305
2024-10-15 11:19:40.406,65131.797,0.016,0.616,-0.788,-0.046,-0.006,0.05,0.184,0.281,0.179,0.02,-0.663,0.308
2024-10-15 11:19:40.416,65131.807,0.019,0.614,-0.789,-0.044,0.0,0.049,0.201,0.258,0.154,0.024,-0.661,0.31
2024-10-15 11:19:40.426,65131.817,0.022,0.612,-0.79,-0.039,-0.006,0.043,0.236,0.224,0.118,0.028,-0.659,0.311
2024-10-15 11:19:40.436,65131.827,0.024,0.61,-0.792,-0.025,-0.017,0.039,0.306,0.197,0.086,0.031,-0.656,0.313
2024-10-15 11:19:40.446,65131.837,0.026,0.608,-0.794,-0.024,-0.025,0.03,0.382,0.165,0.067,0.033,-0.653,0.313
2024-10-15 11:19:40.456,65131.847,0.027,0.604,-0.797,-0.034,-0.014,0.019,0.55,0.102,0.043,0.034,-0.648,0.314
2024-10-15 11:19:40.466,65131.857,0.028,0.599,-0.8,-0.045,0.005,0.01,0.683,0.035,0.06,0.035,-0.642,0.314
2024-10-15 11:19:40.476,65131.867,0.029,0.593,-0.805,-0.054,0.007,0.0,0.901,-0.012,0.054,0.036,-0.634,0.315
2024-10-15 11:19:40.486,65131.877,0.029,0.585,-0.811,-0.07,0.044,0.007,1.073,-0.033,0.039,0.036,-0.624,0.315
2024-10-15 11:19:40.495,65131.887,0.029,0.575,-0.817,-0.094,0.065,0.036,1.186,-0.052,0.037,0.035,-0.613,0.315
2024-10-15 11:19:40.506,65131.897,0.028,0.565,-0.824,-0.103,0.057,0.072,1.277,-0.089,0.055,0.034,-0.601,0.315
2024-10-15 11:19:40.516,65131.907,0.028,0.554,-0.832,-0.099,0.029,0.072,1.333,-0.111,0.064,0.034,-0.588,0.315
2024-10-15 11:19:40.526,65131.917,0.027,0.543,-0.839,-0.1,0.033,0.083,1.361,-0.088,0.046,0.033,-0.574,0.315
2024-10-15 11:19:40.536,65131.927,0.027,0.531,-0.847,-0.096,0.047,0.093,1.488,-0.066,0.053,0.032,-0.56,0.315
2024-10-15 11:19:40.546,65131.937,0.027,0.518,-0.855,-0.085,0.057,0.061,1.697,-0.067,0.061,0.031,-0.544,0.315
2024-10-15 11:19:40.556,65131.947,0.026,0.503,-0.864,-0.082,0.099,0.021,1.79,-0.118,0.074,0.03,-0.527,0.315
2024-10-15 11:19:40.566,65131.957,0.026,0.487,-0.873,-0.076,0.126,-0.008,1.767,-0.13,0.07,0.029,-0.509,0.316
2024-10-15 11:19:40.575,65131.967,0.025,0.472,-0.881,-0.064,0.096,-0.012,1.598,-0.145,0.077,0.028,-0.492,0.316
2024-10-15 11:19:40.586,65131.977,0.023,0.46,-0.888,-0.071,0.035,-0.011,1.1,-0.321,0.077,0.026,-0.478,0.316
2024-10-15 11:19:40.595,65131.987,0.021,0.455,-0.89,-0.085,-0.005,-0.002,0.115,-0.2,0.111,0.024,-0.472,0.317
2024-10-15 11:19:40.606,65131.997,0.021,0.457,-0.889,-0.085,-0.09,0.045,-0.523,0.069,0.115,0.024,-0.474,0.319
2024-10-15 11:19:40.616,65132.007,0.023,0.461,-0.887,-0.153,-0.126,0.002,-0.42,0.163,0.157,0.026,-0.479,0.32
2024-10-15 11:19:40.625,65132.017,0.024,0.463,-0.886,-0.223,-0.034,0.014,0.052,-0.033,0.18,0.027,-0.481,0.322
2024-10-15 11:19:40.635,65132.027,0.024,0.46,-0.887,-0.12,0.121,0.099,0.492,-0.291,0.247,0.027,-0.478,0.324
2024-10-15 11:19:40.645,65132.037,0.022,0.455,-0.89,0.025,0.169,0.094,0.81,-0.355,0.309,0.025,-0.472,0.327
2024-10-15 11:19:40.655,65132.047,0.021,0.446,-0.895,0.031,0.155,0.018,1.052,-0.278,0.312,0.023,-0.462,0.331
2024-10-15 11:19:40.665,65132.056,0.02,0.437,-0.899,-0.073,0.128,-0.078,1.044,-0.233,0.355,0.022,-0.452,0.334
2024-10-15 11:19:40.675,65132.066,0.019,0.428,-0.904,-0.125,0.029,-0.157,0.87,-0.276,0.343,0.021,-0.442,0.338
2024-10-15 11:19:40.686,65132.076,0.016,0.423,-0.906,-0.073,-0.104,-0.215,0.007,-0.566,0.388,0.018,-0.437,0.341
2024-10-15 11:19:40.695,65132.086,0.013,0.429,-0.903,-0.009,-0.262,-0.252,-1.166,-0.579,0.432,0.014,-0.443,0.346
2024-10-15 11:19:40.706,65132.096,0.011,0.443,-0.897,0.057,-0.347,-0.135,-1.794,-0.213,0.412,0.012,-0.458,0.351
2024-10-15 11:19:40.715,65132.106,0.013,0.455,-0.89,-0.046,-0.336,0.074,-0.785,0.424,0.293,0.015,-0.472,0.355
2024-10-15 11:19:40.725,65132.116,0.019,0.453,-0.891,-0.176,-0.128,0.151,1.277,0.475,-0.088,0.021,-0.47,0.357
2024-10-15 11:19:40.735,65132.126,0.019,0.435,-0.9,-0.199,0.307,0.092,2.565,-0.275,-0.184,0.021,-0.45,0.354
2024-10-15 11:19:40.746,65132.136,0.014,0.413,-0.91,0.065,0.326,0.035,1.982,-0.596,-0.031,0.016,-0.426,0.353
2024-10-15 11:19:40.755,65132.146,0.01,0.4,-0.917,0.482,-0.072,0.007,1.04,-0.131,-0.27,0.011,-0.411,0.351
2024-10-15 11:19:40.765,65132.156,0.01,0.391,-0.92,0.334,-0.214,0.167,0.941,0.431,-0.42,0.011,-0.402,0.347
2024-10-15 11:19:40.775,65132.166,0.012,0.381,-0.925,-0.132,-0.123,0.187,1.426,0.319,-0.386,0.013,-0.39,0.342
2024-10-15 11:19:40.785,65132.176,0.012,0.367,-0.93,-0.223,0.063,0.041,1.344,-0.036,-0.334,0.013,-0.376,0.338
2024-10-15 11:19:40.795,65132.186,0.011,0.358,-0.934,0.032,0.064,-0.1,0.577,-0.066,-0.281,0.011,-0.366,0.335
2024-10-15 11:19:40.806,65132.196,0.01,0.357,-0.934,0.167,-0.058,-0.098,-0.21,0.103,-0.305,0.01,-0.365,0.332
2024-10-15 11:19:40.815,65132.206,0.01,0.361,-0.933,-0.01,0.014,0.063,-0.688,0.207,-0.204,0.011,-0.369,0.329
2024-10-15 11:19:40.825,65132.216,0.012,0.368,-0.93,-0.176,0.129,0.194,-0.822,0.119,-0.004,0.012,-0.377,0.328
2024-10-15 11:19:40.835,65132.226,0.012,0.375,-0.927,-0.144,0.21,0.271,-0.556,-0.045,0.194,0.013,-0.384,0.329
2024-10-15 11:19:40.845,65132.236,0.012,0.377,-0.926,-0.05,0.342,0.355,0.06,-0.225,0.317,0.013,-0.387,0.332
2024-10-15 11:19:40.855,65132.246,0.011,0.374,-0.927,-0.036,0.463,0.32,0.662,-0.39,0.434,0.011,-0.383,0.336
2024-10-15 11:19:40.865,65132.256,0.008,0.366,-0.931,-0.09,0.451,0.157,0.926,-0.441,0.532,0.009,-0.375,0.341
2024-10-15 11:19:40.875,65132.266,0.007,0.358,-0.934,-0.11,0.276,-0.071,0.876,-0.337,0.472,0.007,-0.366,0.346
2024-10-15 11:19:40.885,65132.276,0.005,0.351,-0.936,-0.113,0.055,-0.244,0.582,-0.226,0.342,0.006,-0.358,0.351
2024-10-15 11:19:40.895,65132.286,0.004,0.348,-0.937,-0.127,-0.16,-0.339,-0.094,-0.265,0.24,0.005,-0.355,0.354
2024-10-15 11:19:40.905,65132.296,0.002,0.355,-0.935,-0.075,-0.378,-0.342,-1.341,-0.357,0.334,0.002,-0.362,0.357
2024-10-15 11:19:40.915,65132.306,0.001,0.371,-0.929,0.022,-0.529,-0.223,-1.954,-0.026,0.199,0.001,-0.38,0.36
2024-10-15 11:19:40.925,65132.316,0.002,0.386,-0.922,0.067,-0.498,0.022,-1.269,0.208,0.138,0.003,-0.397,0.361
2024-10-15 11:19:40.936,65132.326,0.004,0.392,-0.92,-0.098,-0.275,0.101,0.084,0.065,0.142,0.005,-0.403,0.363
2024-10-15 11:19:40.945,65132.336,0.004,0.386,-0.922,-0.078,0.078,-0.004,0.976,-0.228,0.011,0.004,-0.397,0.364
2024-10-15 11:19:40.955,65132.346,0.001,0.378,-0.926,0.17,0.152,-0.082,0.82,-0.333,-0.071,0.001,-0.387,0.363
2024-10-15 11:19:40.965,65132.356,-0.002,0.373,-0.928,0.33,-0.078,-0.128,0.228,-0.066,-0.253,-0.002,-0.382,0.362
2024-10-15 11:19:40.975,65132.366,-0.002,0.372,-0.928,0.274,-0.278,-0.08,-0.061,0.175,-0.389,-0.002,-0.381,0.358
2024-10-15 11:19:40.985,65132.376,-0.002,0.373,-0.928,0.054,-0.285,-0.013,-0.205,0.211,-0.308,-0.002,-0.383,0.354
2024-10-15 11:19:40.995,65132.386,-0.001,0.376,-0.927,-0.032,-0.167,0.018,-0.254,0.218,-0.325,-0.001,-0.385,0.351
2024-10-15 11:19:41.005,65132.396,0.0,0.377,-0.926,0.066,-0.035,0.021,-0.09,0.306,-0.366,0.0,-0.387,0.347
2024-10-15 11:19:41.015,65132.406,0.002,0.377,-0.926,0.051,0.111,0.039,0.295,0.447,-0.411,0.002,-0.386,0.343
2024-10-15 11:19:41.025,65132.416,0.005,0.372,-0.928,-0.036,0.203,0.053,0.59,0.407,-0.46,0.005,-0.381,0.338
2024-10-15 11:19:41.035,65132.426,0.006,0.368,-0.93,-0.06,0.172,0.056,0.387,0.354,-0.457,0.007,-0.376,0.334
2024-10-15 11:19:41.045,65132.436,0.008,0.366,-0.931,-0.003,0.045,0.091,0.008,0.341,-0.457,0.009,-0.374,0.329
2024-10-15 11:19:41.055,65132.446,0.009,0.367,-0.93,-0.0,-0.027,0.207,-0.29,0.24,-0.344,0.01,-0.376,0.324
2024-10-15 11:19:41.065,65132.456,0.01,0.371,-0.929,-0.095,0.052,0.301,-0.491,0.102,-0.128,0.011,-0.38,0.322
2024-10-15 11:19:41.075,65132.466,0.011,0.375,-0.927,-0.136,0.241,0.327,-0.366,0.07,0.092,0.011,-0.385,0.322
2024-10-15 11:19:41.084,65132.476,0.012,0.376,-0.926,-0.159,0.426,0.273,0.145,0.014,0.269,0.013,-0.386,0.323
2024-10-15 11:19:41.095,65132.486,0.013,0.373,-0.928,-0.211,0.52,0.124,0.528,-0.086,0.406,0.014,-0.382,0.327
2024-10-15 11:19:41.105,65132.496,0.013,0.368,-0.93,-0.182,0.449,-0.087,0.525,-0.097,0.381,0.014,-0.376,0.331
2024-10-15 11:19:41.115,65132.506,0.014,0.364,-0.931,-0.08,0.219,-0.244,0.219,0.031,0.267,0.015,-0.373,0.335
2024-10-15 11:19:41.125,65132.516,0.015,0.364,-0.931,-0.064,-0.069,-0.298,-0.328,-0.007,0.179,0.016,-0.373,0.337
2024-10-15 11:19:41.135,65132.526,0.014,0.372,-0.928,-0.049,-0.34,-0.299,-1.411,-0.192,0.313,0.016,-0.381,0.34
2024-10-15 11:19:41.145,65132.536,0.015,0.387,-0.922,0.025,-0.486,-0.179,-1.607,0.091,0.167,0.016,-0.397,0.343
2024-10-15 11:19:41.155,65132.546,0.017,0.398,-0.917,0.089,-0.402,0.107,-0.66,0.075,0.232,0.018,-0.409,0.345
2024-10-15 11:19:41.164,65132.556,0.018,0.398,-0.917,-0.093,-0.16,0.154,0.526,-0.168,0.379,0.019,-0.409,0.349
2024-10-15 11:19:41.174,65132.566,0.017,0.39,-0.921,-0.018,0.124,0.015,1.168,-0.303,0.171,0.018,-0.4,0.351
2024-10-15 11:19:41.184,65132.576,0.014,0.379,-0.925,0.227,0.124,-0.119,0.961,-0.277,-0.054,0.015,-0.389,0.352
2024-10-15 11:19:41.195,65132.586,0.012,0.374,-0.928,0.268,-0.152,-0.233,0.258,-0.016,-0.262,0.013,-0.383,0.35
2024-10-15 11:19:41.205,65132.596,0.012,0.374,-0.927,0.218,-0.45,-0.185,-0.236,0.197,-0.393,0.013,-0.383,0.346
2024-10-15 11:19:41.214,65132.606,0.012,0.377,-0.926,0.122,-0.544,-0.061,-0.457,0.173,-0.38,0.013,-0.387,0.342
2024-10-15 11:19:41.224,65132.616,0.012,0.382,-0.924,0.062,-0.375,0.028,-0.51,0.155,-0.382,0.013,-0.392,0.338
2024-10-15 11:19:41.234,65132.626,0.012,0.386,-0.923,0.101,-0.112,0.085,-0.229,0.241,-0.347,0.014,-0.396,0.334
2024-10-15 11:19:41.244,65132.636,0.014,0.385,-0.923,0.08,0.105,0.093,0.455,0.319,-0.351,0.015,-0.395,0.331
2024-10-15 11:19:41.255,65132.646,0.015,0.378,-0.926,-0.016,0.299,0.082,0.83,0.156,-0.348,0.016,-0.388,0.326
2024-10-15 11:19:41.264,65132.655,0.015,0.371,-0.928,-0.055,0.367,0.052,0.587,0.201,-0.407,0.016,-0.381,0.322
2024-10-15 11:19:41.274,65132.665,0.016,0.368,-0.93,0.038,0.16,0.036,0.232,0.302,-0.418,0.017,-0.377,0.318
2024-10-15 11:19:41.285,65132.675,0.017,0.367,-0.93,-0.052,-0.016,0.13,-0.097,0.327,-0.298,0.019,-0.376,0.314
2024-10-15 11:19:41.294,65132.685,0.019,0.369,-0.929,-0.177,0.033,0.221,-0.28,0.266,-0.177,0.021,-0.378,0.311
2024-10-15 11:19:41.305,65132.695,0.021,0.372,-0.928,-0.151,0.201,0.243,-0.344,0.137,0.021,0.023,-0.381,0.311
2024-10-15 11:19:41.314,65132.705,0.023,0.375,-0.927,-0.134,0.377,0.208,-0.203,0.174,0.201,0.025,-0.384,0.312
2024-10-15 11:19:41.325,65132.715,0.025,0.374,-0.927,-0.136,0.486,0.139,0.265,0.167,0.318,0.027,-0.384,0.315
2024-10-15 11:19:41.334,65132.725,0.028,0.37,-0.928,-0.165,0.518,0.038,0.52,0.047,0.471,0.03,-0.38,0.319
2024-10-15 11:19:41.344,65132.735,0.03,0.365,-0.93,-0.121,0.382,-0.103,0.51,0.068,0.476,0.032,-0.374,0.324
2024-10-15 11:19:41.354,65132.745,0.033,0.361,-0.932,-0.008,0.102,-0.183,0.33,0.121,0.39,0.035,-0.37,0.328
2024-10-15 11:19:41.364,65132.755,0.034,0.36,-0.932,-0.021,-0.107,-0.209,-0.271,-0.193,0.347,0.036,-0.369,0.332
2024-10-15 11:19:41.374,65132.765,0.033,0.369,-0.929,-0.023,-0.253,-0.209,-1.516,-0.202,0.491,0.036,-0.377,0.337
2024-10-15 11:19:41.384,65132.775,0.035,0.383,-0.923,0.08,-0.383,-0.061,-1.551,0.139,0.402,0.038,-0.394,0.342
2024-10-15 11:19:41.394,65132.785,0.038,0.393,-0.919,0.057,-0.308,0.234,-0.455,0.054,0.521,0.041,-0.404,0.348
2024-10-15 11:19:41.403,65132.795,0.039,0.39,-0.92,-0.161,-0.023,0.201,0.914,-0.095,0.379,0.043,-0.401,0.353
2024-10-15 11:19:41.413,65132.805,0.038,0.379,-0.925,-0.002,0.176,0.03,1.418,-0.332,0.079,0.041,-0.388,0.355
2024-10-15 11:19:41.424,65132.815,0.035,0.369,-0.929,0.222,-0.129,-0.228,0.619,-0.234,-0.208,0.038,-0.378,0.354
2024-10-15 11:19:41.434,65132.825,0.034,0.368,-0.929,0.268,-0.606,-0.37,-0.29,0.232,-0.565,0.036,-0.377,0.349
2024-10-15 11:19:41.444,65132.835,0.035,0.372,-0.927,0.185,-0.893,-0.168,-0.622,0.351,-0.579,0.037,-0.382,0.343
2024-10-15 11:19:41.454,65132.845,0.035,0.379,-0.925,0.004,-0.762,-0.027,-0.618,0.247,-0.495,0.038,-0.388,0.338
2024-10-15 11:19:41.464,65132.855,0.036,0.383,-0.923,0.023,-0.259,0.017,-0.288,0.318,-0.437,0.039,-0.393,0.333
2024-10-15 11:19:41.474,65132.865,0.038,0.382,-0.924,0.092,0.17,0.034,0.672,0.306,-0.477,0.041,-0.392,0.328
2024-10-15 11:19:41.484,65132.875,0.037,0.374,-0.927,0.022,0.412,0.037,0.851,-0.005,-0.335,0.04,-0.383,0.323
2024-10-15 11:19:41.494,65132.885,0.036,0.368,-0.929,0.0,0.402,0.014,0.361,0.132,-0.477,0.039,-0.377,0.319
2024-10-15 11:19:41.504,65132.895,0.036,0.367,-0.93,0.166,0.133,0.077,0.021,0.256,-0.414,0.039,-0.376,0.314
2024-10-15 11:19:41.514,65132.905,0.037,0.367,-0.929,-0.028,-0.022,0.166,-0.038,0.221,-0.257,0.04,-0.376,0.31
2024-10-15 11:19:41.524,65132.915,0.038,0.368,-0.929,-0.185,0.168,0.194,0.014,0.079,-0.105,0.041,-0.376,0.308
2024-10-15 11:19:41.534,65132.925,0.038,0.367,-0.929,-0.125,0.37,0.197,0.064,-0.091,0.084,0.041,-0.376,0.308
2024-10-15 11:19:41.544,65132.935,0.038,0.366,-0.93,-0.091,0.484,0.198,0.145,-0.097,0.244,0.041,-0.375,0.31
2024-10-15 11:19:41.554,65132.945,0.038,0.364,-0.931,-0.12,0.535,0.163,0.368,-0.06,0.349,0.041,-0.372,0.313
2024-10-15 11:19:41.564,65132.955,0.039,0.36,-0.932,-0.182,0.472,0.068,0.452,-0.137,0.419,0.041,-0.368,0.317
2024-10-15 11:19:41.575,65132.965,0.039,0.356,-0.934,-0.183,0.311,-0.077,0.271,-0.084,0.421,0.042,-0.364,0.321
2024-10-15 11:19:41.584,65132.975,0.04,0.355,-0.934,-0.099,0.029,-0.211,-0.045,-0.018,0.332,0.043,-0.363,0.325
2024-10-15 11:19:41.594,65132.985,0.04,0.358,-0.933,-0.099,-0.196,-0.242,-0.845,-0.385,0.382,0.042,-0.366,0.329
2024-10-15 11:19:41.604,65132.995,0.039,0.371,-0.928,-0.097,-0.31,-0.172,-1.882,-0.16,0.583,0.042,-0.38,0.335
2024-10-15 11:19:41.614,65133.005,0.041,0.386,-0.921,0.054,-0.364,0.055,-1.245,0.149,0.512,0.044,-0.397,0.342
2024-10-15 11:19:41.624,65133.015,0.043,0.389,-0.92,-0.011,-0.084,0.31,0.613,-0.144,0.605,0.047,-0.4,0.348
2024-10-15 11:19:41.634,65133.025,0.042,0.377,-0.925,-0.197,0.372,0.267,1.758,-0.586,0.452,0.045,-0.387,0.353
2024-10-15 11:19:41.644,65133.035,0.037,0.363,-0.931,0.124,0.293,-0.033,1.117,-0.563,0.109,0.04,-0.371,0.356
2024-10-15 11:19:41.654,65133.045,0.034,0.358,-0.933,0.386,-0.322,-0.381,0.001,0.097,-0.378,0.037,-0.366,0.354
2024-10-15 11:19:41.664,65133.055,0.035,0.361,-0.932,0.243,-0.891,-0.389,-0.452,0.396,-0.504,0.038,-0.369,0.349
2024-10-15 11:19:41.674,65133.065,0.037,0.366,-0.93,-0.011,-1.067,-0.242,-0.607,0.248,-0.486,0.039,-0.374,0.344
2024-10-15 11:19:41.683,65133.075,0.037,0.372,-0.928,0.026,-0.693,-0.111,-0.585,0.217,-0.571,0.04,-0.381,0.339
2024-10-15 11:19:41.693,65133.085,0.037,0.375,-0.926,0.199,-0.2,0.049,-0.102,0.317,-0.449,0.04,-0.385,0.333
2024-10-15 11:19:41.704,65133.095,0.038,0.372,-0.928,0.117,0.165,0.123,1.032,0.242,-0.454,0.041,-0.381,0.328
2024-10-15 11:19:41.713,65133.105,0.038,0.36,-0.932,-0.026,0.47,0.105,1.269,-0.053,-0.344,0.04,-0.368,0.323
2024-10-15 11:19:41.724,65133.115,0.036,0.351,-0.936,-0.036,0.449,0.031,0.634,0.025,-0.491,0.038,-0.359,0.319
2024-10-15 11:19:41.734,65133.125,0.035,0.349,-0.937,0.138,0.077,0.03,0.049,0.25,-0.432,0.038,-0.356,0.313
2024-10-15 11:19:41.744,65133.135,0.036,0.349,-0.937,-0.03,-0.167,0.147,-0.027,0.234,-0.307,0.039,-0.356,0.309
2024-10-15 11:19:41.754,65133.145,0.037,0.349,-0.936,-0.205,0.042,0.246,-0.006,0.004,-0.126,0.039,-0.356,0.307
2024-10-15 11:19:41.764,65133.155,0.036,0.35,-0.936,-0.159,0.393,0.242,-0.146,-0.093,0.061,0.039,-0.357,0.307
2024-10-15 11:19:41.774,65133.165,0.037,0.351,-0.936,-0.098,0.651,0.175,-0.101,0.086,0.269,0.039,-0.358,0.309
2024-10-15 11:19:41.784,65133.175,0.039,0.35,-0.936,-0.187,0.755,0.084,0.377,0.153,0.405,0.042,-0.357,0.312
2024-10-15 11:19:41.794,65133.185,0.042,0.344,-0.938,-0.284,0.761,-0.053,0.693,0.127,0.582,0.045,-0.351,0.317
2024-10-15 11:19:41.804,65133.195,0.045,0.337,-0.94,-0.196,0.495,-0.209,0.71,0.137,0.513,0.048,-0.344,0.323
2024-10-15 11:19:41.814,65133.205,0.048,0.332,-0.942,-0.024,0.06,-0.225,0.341,0.053,0.331,0.051,-0.338,0.327
2024-10-15 11:19:41.824,65133.215,0.047,0.333,-0.942,-0.007,-0.241,-0.143,-0.809,-0.229,0.35,0.05,-0.34,0.33
2024-10-15 11:19:41.834,65133.225,0.047,0.346,-0.937,0.023,-0.488,-0.047,-1.6,0.06,0.19,0.05,-0.353,0.334
2024-10-15 11:19:41.843,65133.235,0.05,0.358,-0.932,0.037,-0.579,0.182,-0.881,0.357,0.284,0.054,-0.366,0.337
2024-10-15 11:19:41.854,65133.245,0.053,0.359,-0.932,-0.212,-0.398,0.287,0.545,0.062,0.308,0.057,-0.367,0.341
2024-10-15 11:19:41.864,65133.254,0.053,0.351,-0.935,-0.221,-0.002,-0.023,0.944,-0.236,0.228,0.057,-0.359,0.343
2024-10-15 11:19:41.873,65133.264,0.052,0.345,-0.937,0.115,-0.021,-0.279,0.345,-0.013,-0.019,0.056,-0.352,0.344
2024-10-15 11:19:41.883,65133.274,0.053,0.343,-0.938,0.282,-0.35,-0.311,0.089,0.295,-0.262,0.057,-0.351,0.342
2024-10-15 11:19:41.893,65133.284,0.055,0.342,-0.938,0.119,-0.487,-0.065,0.153,0.158,-0.288,0.058,-0.35,0.339
2024-10-15 11:19:41.903,65133.294,0.054,0.341,-0.938,0.075,-0.499,0.082,0.161,-0.014,-0.405,0.057,-0.348,0.335
2024-10-15 11:19:41.913,65133.304,0.052,0.34,-0.939,0.264,-0.42,0.145,0.069,-0.018,-0.575,0.055,-0.347,0.33
2024-10-15 11:19:41.923,65133.314,0.05,0.34,-0.939,0.295,-0.291,0.17,0.086,0.094,-0.534,0.054,-0.347,0.324
2024-10-15 11:19:41.933,65133.324,0.051,0.337,-0.94,0.143,-0.099,0.117,0.61,0.313,-0.463,0.054,-0.344,0.319
2024-10-15 11:19:41.943,65133.334,0.051,0.328,-0.943,0.005,0.17,0.024,1.317,0.138,-0.458,0.054,-0.334,0.313
2024-10-15 11:19:41.953,65133.344,0.051,0.317,-0.947,-0.065,0.356,-0.106,1.025,0.05,-0.552,0.053,-0.322,0.307
2024-10-15 11:19:41.964,65133.354,0.05,0.311,-0.949,0.018,0.274,-0.176,0.22,0.228,-0.599,0.053,-0.316,0.301
2024-10-15 11:19:41.981,65133.364,0.051,0.312,-0.949,0.041,0.024,-0.09,-0.393,0.296,-0.495,0.054,-0.318,0.295
2024-10-15 11:19:41.984,65133.374,0.052,0.318,-0.947,-0.135,0.0,0.119,-0.729,0.171,-0.271,0.055,-0.324,0.291
2024-10-15 11:19:41.993,65133.384,0.052,0.326,-0.944,-0.166,0.185,0.246,-0.863,0.042,-0.009,0.055,-0.332,0.29
2024-10-15 11:19:42.003,65133.394,0.053,0.333,-0.942,-0.091,0.394,0.26,-0.51,0.04,0.184,0.056,-0.339,0.292
2024-10-15 11:19:42.013,65133.404,0.054,0.334,-0.941,-0.109,0.609,0.23,0.199,-0.109,0.41,0.057,-0.34,0.295
2024-10-15 11:19:42.023,65133.414,0.054,0.33,-0.943,-0.159,0.672,0.123,0.568,-0.229,0.543,0.057,-0.336,0.3
2024-10-15 11:19:42.033,65133.424,0.054,0.325,-0.944,-0.084,0.498,-0.063,0.432,-0.157,0.451,0.057,-0.331,0.305
2024-10-15 11:19:42.043,65133.434,0.054,0.322,-0.945,-0.002,0.156,-0.225,0.06,-0.05,0.33,0.057,-0.328,0.309
2024-10-15 11:19:42.053,65133.444,0.054,0.324,-0.945,-0.046,-0.191,-0.249,-0.599,-0.295,0.271,0.057,-0.33,0.312
2024-10-15 11:19:42.063,65133.454,0.052,0.334,-0.941,-0.054,-0.423,-0.215,-1.709,-0.323,0.428,0.055,-0.341,0.317
2024-10-15 11:19:42.073,65133.464,0.052,0.35,-0.935,-0.001,-0.433,-0.048,-1.438,0.12,0.372,0.056,-0.358,0.322
2024-10-15 11:19:42.083,65133.474,0.055,0.356,-0.933,-0.045,-0.204,0.32,0.244,-0.009,0.457,0.059,-0.364,0.326
2024-10-15 11:19:42.093,65133.484,0.054,0.347,-0.936,-0.262,0.159,0.309,1.431,-0.556,0.445,0.058,-0.354,0.331
2024-10-15 11:19:42.103,65133.494,0.049,0.335,-0.941,-0.044,0.315,0.079,0.983,-0.531,0.081,0.052,-0.341,0.333
2024-10-15 11:19:42.113,65133.504,0.046,0.33,-0.943,0.364,-0.203,-0.203,0.127,-0.005,-0.4,0.049,-0.336,0.331
2024-10-15 11:19:42.123,65133.514,0.046,0.331,-0.942,0.261,-0.78,-0.257,-0.352,0.231,-0.519,0.049,-0.337,0.326
2024-10-15 11:19:42.133,65133.524,0.046,0.336,-0.941,0.015,-1.012,-0.16,-0.53,0.227,-0.6,0.049,-0.342,0.32
2024-10-15 11:19:42.143,65133.534,0.046,0.341,-0.939,0.081,-0.745,-0.064,-0.501,0.233,-0.665,0.049,-0.348,0.314
2024-10-15 11:19:42.153,65133.544,0.047,0.344,-0.938,0.165,-0.257,0.003,-0.094,0.33,-0.533,0.05,-0.351,0.308
2024-10-15 11:19:42.163,65133.554,0.047,0.342,-0.939,0.082,0.168,0.052,0.68,0.169,-0.451,0.051,-0.349,0.302
2024-10-15 11:19:42.173,65133.564,0.047,0.336,-0.941,0.005,0.444,0.065,0.55,-0.068,-0.363,0.049,-0.342,0.298
2024-10-15 11:19:42.183,65133.574,0.045,0.333,-0.942,0.025,0.517,0.063,-0.064,-0.005,-0.301,0.048,-0.34,0.294
2024-10-15 11:19:42.193,65133.584,0.045,0.336,-0.941,0.1,0.386,0.115,-0.416,0.091,-0.042,0.048,-0.343,0.292
2024-10-15 11:19:42.203,65133.594,0.046,0.339,-0.94,-0.065,0.333,0.231,-0.173,0.021,0.216,0.049,-0.346,0.293
2024-10-15 11:19:42.213,65133.604,0.046,0.338,-0.94,-0.187,0.548,0.29,0.262,-0.187,0.349,0.049,-0.345,0.296
2024-10-15 11:19:42.223,65133.614,0.045,0.335,-0.941,-0.127,0.679,0.203,0.399,-0.232,0.353,0.048,-0.342,0.3
2024-10-15 11:19:42.233,65133.624,0.045,0.331,-0.942,-0.062,0.539,0.031,0.331,-0.12,0.308,0.047,-0.338,0.303
2024-10-15 11:19:42.243,65133.634,0.045,0.329,-0.943,-0.102,0.171,-0.143,0.087,0.017,0.325,0.048,-0.336,0.307
2024-10-15 11:19:42.253,65133.644,0.046,0.329,-0.943,-0.143,-0.246,-0.267,-0.14,0.046,0.196,0.049,-0.336,0.309
2024-10-15 11:19:42.263,65133.654,0.047,0.332,-0.942,-0.115,-0.411,-0.274,-0.358,0.062,0.115,0.05,-0.338,0.311
2024-10-15 11:19:42.272,65133.664,0.047,0.337,-0.94,-0.078,-0.383,-0.219,-0.835,-0.197,0.223,0.05,-0.344,0.313
2024-10-15 11:19:42.283,65133.674,0.047,0.348,-0.936,-0.054,-0.316,-0.126,-1.26,0.044,0.43,0.05,-0.355,0.317
2024-10-15 11:19:42.293,65133.684,0.05,0.355,-0.934,0.004,-0.16,0.096,-0.085,0.165,0.332,0.053,-0.362,0.322
2024-10-15 11:19:42.303,65133.694,0.05,0.349,-0.936,-0.084,0.198,0.328,1.039,-0.425,0.545,0.054,-0.357,0.326
2024-10-15 11:19:42.313,65133.704,0.047,0.339,-0.94,-0.083,0.307,0.192,0.926,-0.493,0.215,0.05,-0.346,0.33
2024-10-15 11:19:42.323,65133.714,0.044,0.333,-0.942,0.343,-0.025,-0.112,0.283,-0.169,-0.259,0.046,-0.34,0.329
2024-10-15 11:19:42.333,65133.724,0.043,0.334,-0.942,0.259,-0.52,-0.242,-0.255,0.135,-0.374,0.045,-0.34,0.326
2024-10-15 11:19:42.343,65133.734,0.043,0.337,-0.94,0.009,-0.879,-0.202,-0.456,0.197,-0.504,0.045,-0.344,0.321
2024-10-15 11:19:42.353,65133.744,0.043,0.342,-0.939,0.019,-0.761,-0.07,-0.51,0.16,-0.596,0.045,-0.349,0.316
2024-10-15 11:19:42.363,65133.754,0.042,0.346,-0.937,0.1,-0.356,0.05,-0.317,0.173,-0.532,0.045,-0.354,0.31
2024-10-15 11:19:42.373,65133.764,0.043,0.347,-0.937,0.11,0.034,0.116,0.337,0.254,-0.406,0.045,-0.354,0.305
2024-10-15 11:19:42.382,65133.774,0.042,0.341,-0.939,0.003,0.36,0.151,0.808,-0.038,-0.372,0.045,-0.348,0.3
2024-10-15 11:19:42.393,65133.784,0.041,0.336,-0.941,-0.057,0.548,0.083,0.164,-0.057,-0.34,0.043,-0.343,0.296
2024-10-15 11:19:42.403,65133.794,0.04,0.339,-0.94,0.032,0.414,-0.016,-0.62,0.215,-0.251,0.043,-0.345,0.293
2024-10-15 11:19:42.413,65133.804,0.042,0.346,-0.937,-0.012,0.156,0.019,-0.858,0.302,-0.106,0.045,-0.353,0.292
2024-10-15 11:19:42.422,65133.814,0.044,0.354,-0.934,-0.195,0.158,0.154,-0.768,0.137,-0.022,0.047,-0.361,0.291
2024-10-15 11:19:42.432,65133.824,0.045,0.36,-0.932,-0.136,0.22,0.161,-0.685,0.029,-0.058,0.048,-0.369,0.292
2024-10-15 11:19:42.442,65133.834,0.045,0.367,-0.929,-0.018,0.128,0.109,-0.802,0.052,-0.158,0.048,-0.376,0.291
2024-10-15 11:19:42.453,65133.844,0.045,0.376,-0.926,-0.057,-0.04,0.059,-1.144,0.093,-0.234,0.048,-0.385,0.289
2024-10-15 11:19:42.462,65133.853,0.045,0.389,-0.92,-0.12,-0.243,-0.015,-1.594,0.121,-0.332,0.048,-0.399,0.287
2024-10-15 11:19:42.472,65133.863,0.044,0.406,-0.913,-0.125,-0.34,-0.05,-2.075,0.123,-0.356,0.048,-0.418,0.284
2024-10-15 11:19:42.482,65133.873,0.044,0.427,-0.903,-0.13,-0.323,-0.043,-2.46,0.159,-0.338,0.049,-0.441,0.281
2024-10-15 11:19:42.492,65133.883,0.044,0.45,-0.892,-0.121,-0.268,-0.022,-2.735,0.153,-0.245,0.049,-0.467,0.279
2024-10-15 11:19:42.503,65133.893,0.045,0.474,-0.879,-0.099,-0.192,0.008,-2.549,0.316,-0.072,0.052,-0.494,0.279
2024-10-15 11:19:42.512,65133.903,0.048,0.493,-0.869,-0.039,-0.052,0.01,-1.793,0.223,0.028,0.055,-0.515,0.28
2024-10-15 11:19:42.522,65133.913,0.049,0.506,-0.861,-0.036,0.232,-0.054,-1.428,-0.072,0.032,0.057,-0.531,0.282
2024-10-15 11:19:42.532,65133.923,0.048,0.518,-0.854,0.008,0.409,-0.022,-1.373,-0.14,0.108,0.056,-0.545,0.283
2024-10-15 11:19:42.542,65133.933,0.048,0.529,-0.847,0.165,0.214,0.024,-1.144,-0.112,0.216,0.056,-0.558,0.286
2024-10-15 11:19:42.552,65133.943,0.048,0.537,-0.842,0.103,0.09,0.065,-0.736,-0.144,0.256,0.057,-0.567,0.29
2024-10-15 11:19:42.563,65133.953,0.048,0.541,-0.84,-0.015,0.205,0.078,-0.213,-0.187,0.292,0.057,-0.572,0.293
2024-10-15 11:19:42.572,65133.963,0.048,0.54,-0.84,0.023,0.226,0.034,0.352,-0.246,0.266,0.057,-0.571,0.296
2024-10-15 11:19:42.583,65133.973,0.047,0.535,-0.844,0.081,0.2,-0.005,0.851,-0.261,0.235,0.056,-0.565,0.299
2024-10-15 11:19:42.592,65133.983,0.046,0.526,-0.849,0.073,0.178,-0.001,1.307,-0.23,0.189,0.054,-0.554,0.301
2024-10-15 11:19:42.603,65133.993,0.045,0.513,-0.857,0.077,0.077,0.004,1.587,-0.205,0.141,0.053,-0.539,0.302
2024-10-15 11:19:42.612,65134.003,0.044,0.499,-0.865,0.079,-0.001,0.022,1.625,-0.247,0.077,0.051,-0.523,0.302
2024-10-15 11:19:42.622,65134.013,0.042,0.486,-0.873,0.097,-0.043,0.034,1.452,-0.24,0.045,0.048,-0.507,0.302
2024-10-15 11:19:42.632,65134.023,0.04,0.474,-0.88,0.112,-0.095,0.055,1.204,-0.189,0.05,0.046,-0.494,0.302
2024-10-15 11:19:42.642,65134.033,0.039,0.464,-0.885,0.099,-0.127,0.063,1.048,-0.172,0.059,0.044,-0.483,0.302
2024-10-15 11:19:42.652,65134.043,0.038,0.455,-0.889,0.048,-0.069,0.032,0.929,-0.175,0.076,0.042,-0.473,0.302
2024-10-15 11:19:42.662,65134.053,0.036,0.448,-0.893,0.01,0.021,0.007,0.772,-0.184,0.134,0.041,-0.464,0.303
2024-10-15 11:19:42.672,65134.063,0.036,0.442,-0.896,-0.001,0.074,-0.006,0.576,-0.122,0.187,0.04,-0.458,0.304
2024-10-15 11:19:42.682,65134.073,0.035,0.436,-0.899,-0.024,0.126,-0.01,0.657,-0.171,0.235,0.039,-0.452,0.306
2024-10-15 11:19:42.692,65134.083,0.035,0.43,-0.902,-0.079,0.149,-0.07,0.73,-0.273,0.309,0.038,-0.444,0.309
2024-10-15 11:19:42.702,65134.093,0.033,0.424,-0.905,-0.074,0.133,0.016,0.604,-0.3,0.327,0.037,-0.438,0.312
2024-10-15 11:19:42.712,65134.103,0.032,0.418,-0.908,-0.007,0.086,0.073,0.62,-0.257,0.334,0.036,-0.431,0.316
2024-10-15 11:19:42.722,65134.113,0.031,0.412,-0.911,0.011,-0.025,0.022,0.674,-0.287,0.352,0.034,-0.425,0.319
2024-10-15 11:19:42.732,65134.123,0.03,0.406,-0.913,-0.02,-0.063,-0.056,0.499,-0.415,0.336,0.032,-0.418,0.323
2024-10-15 11:19:42.742,65134.133,0.027,0.404,-0.914,0.019,-0.112,-0.14,-0.104,-0.424,0.381,0.03,-0.416,0.327
2024-10-15 11:19:42.752,65134.143,0.026,0.406,-0.913,0.08,-0.227,-0.194,-0.213,-0.076,0.268,0.029,-0.418,0.33
2024-10-15 11:19:42.762,65134.153,0.027,0.406,-0.914,0.064,-0.242,-0.165,0.321,0.046,0.154,0.03,-0.418,0.333
2024-10-15 11:19:42.772,65134.163,0.027,0.401,-0.916,-0.059,-0.103,-0.193,0.654,-0.12,0.091,0.03,-0.412,0.334
2024-10-15 11:19:42.782,65134.173,0.026,0.395,-0.918,0.031,-0.044,-0.208,0.561,-0.109,-0.017,0.029,-0.406,0.334
2024-10-15 11:19:42.792,65134.183,0.026,0.391,-0.92,0.189,-0.202,-0.114,0.339,0.034,-0.159,0.028,-0.402,0.333
2024-10-15 11:19:42.802,65134.193,0.026,0.388,-0.921,0.134,-0.301,0.058,0.298,0.092,-0.238,0.028,-0.399,0.331
2024-10-15 11:19:42.812,65134.203,0.025,0.386,-0.922,0.045,-0.243,0.23,0.3,0.013,-0.248,0.027,-0.396,0.328
2024-10-15 11:19:42.822,65134.213,0.025,0.382,-0.924,0.043,-0.096,0.302,0.5,0.062,-0.248,0.027,-0.392,0.325
2024-10-15 11:19:42.832,65134.223,0.024,0.376,-0.926,0.033,0.089,0.273,0.784,0.046,-0.256,0.026,-0.386,0.322
2024-10-15 11:19:42.842,65134.233,0.023,0.369,-0.929,-0.064,0.222,0.155,0.648,-0.014,-0.174,0.025,-0.378,0.32
2024-10-15 11:19:42.852,65134.243,0.023,0.365,-0.931,-0.106,0.233,0.035,0.281,0.111,-0.121,0.025,-0.374,0.318
2024-10-15 11:19:42.862,65134.253,0.024,0.363,-0.931,-0.069,0.149,0.015,0.131,0.215,-0.076,0.026,-0.372,0.317
2024-10-15 11:19:42.872,65134.263,0.026,0.362,-0.932,-0.135,0.184,0.097,0.207,0.138,0.037,0.028,-0.37,0.316
2024-10-15 11:19:42.882,65134.273,0.027,0.36,-0.933,-0.161,0.271,0.169,0.296,-0.006,0.147,0.029,-0.368,0.317
2024-10-15 11:19:42.892,65134.283,0.027,0.357,-0.934,-0.094,0.3,0.181,0.329,-0.045,0.207,0.029,-0.365,0.319
2024-10-15 11:19:42.902,65134.293,0.028,0.353,-0.935,-0.075,0.304,0.142,0.351,-0.031,0.221,0.03,-0.361,0.321
2024-10-15 11:19:42.912,65134.303,0.028,0.35,-0.936,-0.12,0.257,0.053,0.317,-0.03,0.284,0.03,-0.358,0.324
2024-10-15 11:19:42.922,65134.313,0.029,0.348,-0.937,-0.133,0.096,-0.111,0.122,0.014,0.282,0.031,-0.355,0.327
2024-10-15 11:19:42.932,65134.323,0.03,0.348,-0.937,-0.098,-0.081,-0.217,-0.21,0.041,0.192,0.032,-0.356,0.33
2024-10-15 11:19:42.942,65134.333,0.031,0.352,-0.935,-0.053,-0.194,-0.209,-0.768,-0.093,0.125,0.033,-0.36,0.331
2024-10-15 11:19:42.952,65134.343,0.03,0.364,-0.931,0.027,-0.333,-0.188,-1.764,-0.185,0.269,0.032,-0.373,0.334
2024-10-15 11:19:42.962,65134.353,0.031,0.38,-0.924,0.105,-0.412,-0.097,-1.552,0.257,0.242,0.033,-0.39,0.337
2024-10-15 11:19:42.972,65134.363,0.034,0.388,-0.921,0.115,-0.304,0.11,0.025,0.153,0.237,0.037,-0.398,0.34
2024-10-15 11:19:42.983,65134.373,0.034,0.382,-0.924,-0.086,0.047,0.106,1.074,-0.362,0.242,0.037,-0.392,0.342
2024-10-15 11:19:42.992,65134.383,0.031,0.373,-0.928,0.063,0.237,-0.116,0.821,-0.361,-0.031,0.033,-0.382,0.343
2024-10-15 11:19:43.002,65134.393,0.029,0.368,-0.929,0.384,-0.122,-0.277,0.093,0.068,-0.278,0.031,-0.377,0.341
2024-10-15 11:19:43.011,65134.403,0.03,0.37,-0.929,0.248,-0.542,-0.277,-0.266,0.355,-0.326,0.032,-0.379,0.338
2024-10-15 11:19:43.021,65134.413,0.032,0.372,-0.928,-0.002,-0.614,-0.163,-0.201,0.359,-0.31,0.034,-0.381,0.335
2024-10-15 11:19:43.031,65134.423,0.034,0.373,-0.927,-0.016,-0.342,-0.051,0.055,0.311,-0.309,0.037,-0.382,0.331
2024-10-15 11:19:43.041,65134.433,0.036,0.369,-0.929,0.076,0.012,0.035,0.79,0.472,-0.361,0.039,-0.378,0.328
2024-10-15 11:19:43.052,65134.443,0.039,0.358,-0.933,0.056,0.287,0.1,1.508,0.263,-0.396,0.041,-0.366,0.323
2024-10-15 11:19:43.061,65134.452,0.039,0.346,-0.938,-0.05,0.396,0.086,1.125,0.195,-0.481,0.041,-0.353,0.318
2024-10-15 11:19:43.071,65134.462,0.04,0.338,-0.94,0.029,0.198,0.098,0.62,0.425,-0.647,0.042,-0.345,0.312
2024-10-15 11:19:43.081,65134.472,0.042,0.333,-0.942,0.064,-0.129,0.254,0.45,0.362,-0.581,0.044,-0.34,0.305
2024-10-15 11:19:43.092,65134.482,0.042,0.331,-0.943,-0.16,-0.148,0.396,0.116,0.07,-0.417,0.045,-0.337,0.299
2024-10-15 11:19:43.100,65134.492,0.041,0.332,-0.942,-0.171,0.098,0.408,-0.411,-0.019,-0.157,0.044,-0.339,0.296
2024-10-15 11:19:43.111,65134.502,0.042,0.336,-0.941,-0.124,0.365,0.312,-0.379,0.222,0.092,0.045,-0.343,0.296
2024-10-15 11:19:43.121,65134.512,0.045,0.336,-0.941,-0.247,0.598,0.19,0.44,0.197,0.376,0.048,-0.343,0.298
2024-10-15 11:19:43.130,65134.522,0.047,0.329,-0.943,-0.376,0.768,0.024,0.955,-0.029,0.587,0.05,-0.335,0.303
2024-10-15 11:19:43.141,65134.532,0.049,0.32,-0.946,-0.185,0.673,-0.222,0.844,0.031,0.483,0.052,-0.326,0.309
2024-10-15 11:19:43.151,65134.542,0.051,0.314,-0.948,0.063,0.321,-0.321,0.432,0.162,0.337,0.054,-0.319,0.313
2024-10-15 11:19:43.161,65134.552,0.052,0.313,-0.948,0.043,-0.111,-0.285,-0.549,-0.258,0.327,0.055,-0.319,0.316
2024-10-15 11:19:43.171,65134.562,0.051,0.326,-0.944,0.038,-0.44,-0.184,-1.911,-0.18,0.392,0.054,-0.332,0.321
2024-10-15 11:19:43.181,65134.572,0.052,0.343,-0.938,0.158,-0.552,0.111,-1.487,0.241,0.47,0.055,-0.35,0.326
2024-10-15 11:19:43.191,65134.582,0.056,0.347,-0.936,0.026,-0.338,0.374,0.682,0.069,0.493,0.06,-0.354,0.332
2024-10-15 11:19:43.201,65134.592,0.055,0.333,-0.941,-0.23,0.209,0.224,1.877,-0.702,0.589,0.058,-0.34,0.336
2024-10-15 11:19:43.211,65134.602,0.049,0.318,-0.947,-0.037,0.398,-0.188,1.053,-0.685,0.312,0.052,-0.324,0.341
2024-10-15 11:19:43.221,65134.612,0.046,0.314,-0.948,0.345,-0.138,-0.39,0.016,0.023,-0.031,0.049,-0.319,0.342
2024-10-15 11:19:43.231,65134.622,0.048,0.314,-0.948,0.143,-0.645,-0.206,0.1,0.24,-0.145,0.05,-0.319,0.341
2024-10-15 11:19:43.241,65134.632,0.048,0.312,-0.949,-0.159,-0.73,-0.046,0.232,-0.186,-0.167,0.05,-0.317,0.339
2024-10-15 11:19:43.251,65134.642,0.044,0.312,-0.949,-0.019,-0.551,-0.034,-0.186,-0.233,-0.441,0.047,-0.317,0.336
2024-10-15 11:19:43.261,65134.652,0.042,0.315,-0.948,0.296,-0.464,0.02,-0.522,0.02,-0.608,0.044,-0.321,0.33
2024-10-15 11:19:43.271,65134.662,0.041,0.32,-0.946,0.21,-0.398,0.072,-0.438,0.191,-0.457,0.043,-0.326,0.325
2024-10-15 11:19:43.281,65134.672,0.042,0.322,-0.946,-0.013,-0.129,0.048,0.138,0.281,-0.361,0.044,-0.328,0.321
2024-10-15 11:19:43.291,65134.682,0.043,0.317,-0.948,-0.016,0.248,0.011,1.072,0.176,-0.425,0.046,-0.322,0.316
2024-10-15 11:19:43.302,65134.692,0.042,0.306,-0.951,0.009,0.523,-0.024,1.018,-0.065,-0.413,0.044,-0.311,0.311
2024-10-15 11:19:43.310,65134.702,0.041,0.3,-0.953,0.039,0.453,-0.057,0.283,0.139,-0.453,0.043,-0.305,0.307
2024-10-15 11:19:43.321,65134.712,0.042,0.3,-0.953,0.088,0.123,0.02,-0.159,0.32,-0.302,0.044,-0.305,0.302
2024-10-15 11:19:43.330,65134.722,0.044,0.302,-0.952,-0.117,0.028,0.216,-0.155,0.16,-0.074,0.046,-0.306,0.301
2024-10-15 11:19:43.341,65134.732,0.045,0.303,-0.952,-0.186,0.278,0.342,-0.079,-0.052,0.153,0.047,-0.308,0.301
2024-10-15 11:19:43.351,65134.742,0.045,0.302,-0.952,-0.067,0.52,0.34,0.211,-0.047,0.266,0.047,-0.307,0.303
2024-10-15 11:19:43.361,65134.752,0.045,0.299,-0.953,-0.045,0.589,0.25,0.517,-0.114,0.39,0.047,-0.303,0.307
2024-10-15 11:19:43.371,65134.762,0.045,0.293,-0.955,-0.141,0.494,0.021,0.547,-0.101,0.5,0.048,-0.297,0.311
2024-10-15 11:19:43.381,65134.772,0.046,0.288,-0.956,-0.127,0.266,-0.229,0.351,0.001,0.458,0.048,-0.293,0.316
2024-10-15 11:19:43.391,65134.782,0.047,0.288,-0.957,-0.111,0.011,-0.345,-0.368,-0.372,0.417,0.049,-0.292,0.32
2024-10-15 11:19:43.401,65134.792,0.045,0.298,-0.953,-0.123,-0.212,-0.284,-1.958,-0.318,0.703,0.047,-0.303,0.327
2024-10-15 11:19:43.411,65134.802,0.047,0.316,-0.948,0.02,-0.425,0.015,-1.542,0.321,0.516,0.05,-0.322,0.334
2024-10-15 11:19:43.421,65134.812,0.05,0.321,-0.946,0.038,-0.264,0.351,0.421,-0.3,0.623,0.052,-0.327,0.34
2024-10-15 11:19:43.431,65134.822,0.046,0.313,-0.949,-0.275,0.208,0.219,1.007,-0.763,0.632,0.049,-0.318,0.347
2024-10-15 11:19:43.441,65134.832,0.041,0.305,-0.951,0.104,0.2,-0.134,0.5,-0.396,0.084,0.043,-0.31,0.35
2024-10-15 11:19:43.451,65134.842,0.04,0.303,-0.952,0.355,-0.327,-0.284,0.164,0.107,-0.162,0.042,-0.308,0.349
2024-10-15 11:19:43.461,65134.852,0.04,0.301,-0.953,0.015,-0.808,-0.26,0.201,0.034,-0.415,0.042,-0.306,0.346
2024-10-15 11:19:43.471,65134.862,0.038,0.301,-0.953,-0.003,-0.905,-0.172,-0.202,-0.082,-0.603,0.04,-0.306,0.341
2024-10-15 11:19:43.481,65134.872,0.036,0.305,-0.952,0.205,-0.749,-0.068,-0.623,0.135,-0.798,0.038,-0.31,0.334
2024-10-15 11:19:43.491,65134.882,0.037,0.311,-0.95,0.258,-0.486,0.057,-0.285,0.426,-0.707,0.039,-0.316,0.326
2024-10-15 11:19:43.501,65134.892,0.038,0.309,-0.95,-0.0,-0.061,0.076,0.601,0.16,-0.555,0.039,-0.314,0.319
2024-10-15 11:19:43.510,65134.902,0.036,0.304,-0.952,-0.103,0.346,-0.017,0.486,-0.027,-0.566,0.038,-0.308,0.313
2024-10-15 11:19:43.520,65134.912,0.035,0.302,-0.953,0.042,0.448,-0.042,-0.007,0.192,-0.524,0.037,-0.306,0.307
2024-10-15 11:19:43.531,65134.922,0.036,0.302,-0.952,0.094,0.252,0.041,-0.074,0.263,-0.333,0.038,-0.307,0.303
2024-10-15 11:19:43.541,65134.932,0.037,0.303,-0.952,-0.117,0.239,0.215,-0.026,0.018,-0.118,0.039,-0.308,0.3
2024-10-15 11:19:43.551,65134.942,0.037,0.304,-0.952,-0.141,0.446,0.251,-0.177,-0.086,0.078,0.038,-0.309,0.3
2024-10-15 11:19:43.561,65134.952,0.037,0.306,-0.951,-0.037,0.534,0.235,-0.187,0.005,0.231,0.038,-0.311,0.302
2024-10-15 11:19:43.571,65134.962,0.038,0.306,-0.951,-0.094,0.554,0.204,0.096,-0.002,0.34,0.039,-0.311,0.305
2024-10-15 11:19:43.581,65134.972,0.038,0.304,-0.952,-0.184,0.541,0.085,0.278,-0.047,0.4,0.04,-0.309,0.309
2024-10-15 11:19:43.590,65134.982,0.039,0.301,-0.953,-0.13,0.359,-0.102,0.186,-0.004,0.362,0.041,-0.306,0.313
2024-10-15 11:19:43.601,65134.992,0.04,0.301,-0.953,-0.056,0.022,-0.209,-0.045,0.028,0.223,0.042,-0.305,0.316
2024-10-15 11:19:43.610,65135.002,0.04,0.303,-0.952,-0.066,-0.232,-0.168,-0.569,-0.251,0.173,0.042,-0.308,0.318
2024-10-15 11:19:43.621,65135.012,0.038,0.313,-0.949,-0.055,-0.424,-0.096,-1.597,-0.305,0.403,0.04,-0.318,0.321
2024-10-15 11:19:43.631,65135.022,0.039,0.328,-0.944,0.007,-0.517,0.044,-1.274,0.256,0.27,0.042,-0.334,0.326
2024-10-15 11:19:43.640,65135.032,0.041,0.332,-0.942,-0.025,-0.283,0.3,0.282,-0.137,0.35,0.044,-0.339,0.329
2024-10-15 11:19:43.650,65135.042,0.039,0.326,-0.944,-0.264,0.095,0.142,0.752,-0.581,0.351,0.041,-0.332,0.333
2024-10-15 11:19:43.660,65135.051,0.035,0.321,-0.946,0.043,0.111,-0.218,0.295,-0.243,-0.152,0.037,-0.327,0.334
2024-10-15 11:19:43.670,65135.061,0.034,0.321,-0.947,0.313,-0.293,-0.289,-0.139,0.079,-0.282,0.036,-0.326,0.331
2024-10-15 11:19:43.680,65135.071,0.034,0.323,-0.946,0.024,-0.64,-0.25,-0.269,0.141,-0.355,0.036,-0.329,0.328
2024-10-15 11:19:43.690,65135.081,0.034,0.326,-0.945,-0.005,-0.64,-0.098,-0.251,0.127,-0.513,0.036,-0.332,0.323
2024-10-15 11:19:43.701,65135.091,0.033,0.327,-0.944,0.169,-0.419,0.027,-0.0,0.198,-0.581,0.035,-0.333,0.318
2024-10-15 11:19:43.710,65135.101,0.034,0.324,-0.945,0.206,-0.125,0.052,0.654,0.218,-0.625,0.036,-0.33,0.311
2024-10-15 11:19:43.720,65135.111,0.033,0.317,-0.948,0.096,0.185,0.014,0.768,0.111,-0.467,0.035,-0.323,0.305
2024-10-15 11:19:43.730,65135.121,0.033,0.312,-0.95,0.003,0.315,-0.025,0.391,0.176,-0.506,0.035,-0.317,0.3
2024-10-15 11:19:43.741,65135.131,0.034,0.31,-0.95,0.069,0.229,0.003,0.152,0.276,-0.437,0.036,-0.315,0.295
2024-10-15 11:19:43.751,65135.141,0.035,0.309,-0.95,-0.001,0.163,0.169,-0.001,0.095,-0.25,0.036,-0.314,0.291
2024-10-15 11:19:43.760,65135.151,0.035,0.31,-0.95,-0.068,0.28,0.236,-0.302,0.017,-0.02,0.036,-0.316,0.29
2024-10-15 11:19:43.770,65135.161,0.035,0.314,-0.949,-0.016,0.407,0.236,-0.309,0.068,0.143,0.037,-0.319,0.29
2024-10-15 11:19:43.780,65135.171,0.036,0.315,-0.948,-0.04,0.51,0.237,0.017,-0.032,0.309,0.038,-0.32,0.293
2024-10-15 11:19:43.790,65135.181,0.037,0.313,-0.949,-0.118,0.608,0.121,0.231,-0.066,0.366,0.039,-0.319,0.296
2024-10-15 11:19:43.800,65135.191,0.038,0.311,-0.95,-0.068,0.504,-0.056,0.333,0.0,0.395,0.04,-0.316,0.3
2024-10-15 11:19:43.810,65135.201,0.039,0.307,-0.951,-0.06,0.173,-0.206,0.262,0.009,0.351,0.041,-0.312,0.304
2024-10-15 11:19:43.820,65135.211,0.04,0.306,-0.951,-0.107,-0.138,-0.239,0.004,-0.052,0.175,0.042,-0.311,0.307
2024-10-15 11:19:43.831,65135.221,0.038,0.31,-0.95,-0.073,-0.321,-0.166,-0.866,-0.381,0.187,0.04,-0.315,0.309
2024-10-15 11:19:43.840,65135.231,0.036,0.323,-0.946,-0.032,-0.535,-0.07,-1.767,-0.071,0.322,0.038,-0.329,0.312
2024-10-15 11:19:43.850,65135.241,0.038,0.336,-0.941,0.014,-0.561,0.154,-0.784,0.22,0.127,0.04,-0.343,0.315
2024-10-15 11:19:43.860,65135.251,0.038,0.337,-0.941,-0.16,-0.175,0.322,0.452,-0.323,0.363,0.041,-0.344,0.318
2024-10-15 11:19:43.870,65135.261,0.035,0.331,-0.943,-0.233,0.109,0.022,0.624,-0.427,0.125,0.037,-0.337,0.321
2024-10-15 11:19:43.880,65135.271,0.033,0.327,-0.944,0.205,-0.01,-0.254,0.259,-0.096,-0.212,0.035,-0.333,0.32
2024-10-15 11:19:43.890,65135.281,0.032,0.326,-0.945,0.209,-0.333,-0.241,0.09,0.065,-0.3,0.034,-0.332,0.317
2024-10-15 11:19:43.900,65135.291,0.031,0.325,-0.945,0.039,-0.523,-0.138,-0.027,-0.025,-0.375,0.033,-0.331,0.313
2024-10-15 11:19:43.910,65135.301,0.029,0.327,-0.945,0.115,-0.44,-0.015,-0.204,-0.027,-0.468,0.031,-0.333,0.309
2024-10-15 11:19:43.920,65135.311,0.028,0.329,-0.944,0.195,-0.226,0.071,-0.191,0.129,-0.447,0.03,-0.335,0.304
2024-10-15 11:19:43.930,65135.321,0.028,0.329,-0.944,0.112,-0.006,0.096,0.283,0.123,-0.445,0.03,-0.335,0.299
2024-10-15 11:19:43.940,65135.331,0.028,0.325,-0.945,-0.01,0.214,0.057,0.405,0.058,-0.384,0.029,-0.331,0.295
2024-10-15 11:19:43.950,65135.341,0.027,0.322,-0.946,-0.027,0.298,0.013,0.287,0.123,-0.463,0.029,-0.328,0.29
2024-10-15 11:19:43.960,65135.351,0.027,0.321,-0.947,0.038,0.157,0.013,0.038,0.169,-0.385,0.029,-0.326,0.286
2024-10-15 11:19:43.970,65135.361,0.028,0.321,-0.947,-0.045,0.036,0.089,-0.076,0.163,-0.332,0.029,-0.327,0.282
2024-10-15 11:19:43.980,65135.371,0.028,0.322,-0.946,-0.084,0.151,0.183,-0.167,0.064,-0.122,0.029,-0.328,0.28
2024-10-15 11:19:43.990,65135.381,0.028,0.324,-0.946,-0.099,0.315,0.182,-0.263,0.054,0.112,0.03,-0.33,0.28
2024-10-15 11:19:44.000,65135.391,0.03,0.326,-0.945,-0.09,0.482,0.149,-0.047,0.126,0.273,0.032,-0.332,0.282
2024-10-15 11:19:44.010,65135.401,0.032,0.324,-0.945,-0.105,0.605,0.095,0.375,0.067,0.408,0.034,-0.33,0.285
2024-10-15 11:19:44.020,65135.411,0.034,0.32,-0.947,-0.102,0.583,-0.016,0.512,0.0,0.449,0.035,-0.325,0.29
2024-10-15 11:19:44.030,65135.421,0.035,0.316,-0.948,-0.01,0.36,-0.149,0.3,0.04,0.37,0.037,-0.321,0.294
2024-10-15 11:19:44.040,65135.431,0.036,0.314,-0.949,0.026,0.038,-0.216,-0.061,0.048,0.263,0.038,-0.32,0.297
2024-10-15 11:19:44.050,65135.441,0.036,0.32,-0.947,-0.026,-0.259,-0.214,-1.229,-0.324,0.47,0.038,-0.325,0.301
2024-10-15 11:19:44.060,65135.451,0.036,0.334,-0.942,-0.053,-0.441,-0.09,-1.547,0.121,0.441,0.038,-0.34,0.307
2024-10-15 11:19:44.070,65135.461,0.039,0.342,-0.939,0.018,-0.373,0.254,-0.12,0.036,0.392,0.041,-0.349,0.311
2024-10-15 11:19:44.080,65135.471,0.038,0.338,-0.94,-0.229,0.007,0.392,0.775,-0.551,0.545,0.04,-0.345,0.316
2024-10-15 11:19:44.090,65135.481,0.034,0.331,-0.943,-0.128,0.184,0.096,0.6,-0.396,0.124,0.036,-0.337,0.32
2024-10-15 11:19:44.100,65135.491,0.032,0.328,-0.944,0.255,-0.156,-0.169,0.117,0.004,-0.116,0.034,-0.334,0.319
2024-10-15 11:19:44.110,65135.501,0.033,0.327,-0.944,0.057,-0.624,-0.269,-0.035,0.153,-0.282,0.035,-0.334,0.317
2024-10-15 11:19:44.120,65135.511,0.032,0.328,-0.944,-0.048,-0.775,-0.22,-0.186,0.018,-0.428,0.034,-0.335,0.313
2024-10-15 11:19:44.130,65135.521,0.031,0.331,-0.943,0.081,-0.611,-0.123,-0.414,0.034,-0.558,0.033,-0.338,0.308
2024-10-15 11:19:44.140,65135.531,0.03,0.335,-0.942,0.216,-0.398,-0.004,-0.294,0.267,-0.515,0.032,-0.342,0.303
2024-10-15 11:19:44.150,65135.541,0.031,0.335,-0.942,0.12,-0.097,0.079,0.408,0.16,-0.527,0.033,-0.342,0.297
2024-10-15 11:19:44.160,65135.551,0.03,0.331,-0.943,-0.002,0.257,0.025,0.444,0.022,-0.383,0.032,-0.337,0.292
2024-10-15 11:19:44.170,65135.561,0.029,0.328,-0.944,0.022,0.396,-0.037,0.142,0.126,-0.434,0.031,-0.334,0.288
2024-10-15 11:19:44.180,65135.571,0.03,0.328,-0.944,0.104,0.275,-0.023,-0.105,0.201,-0.249,0.031,-0.334,0.284
2024-10-15 11:19:44.190,65135.581,0.03,0.329,-0.944,-0.054,0.219,0.084,-0.15,0.098,-0.127,0.032,-0.336,0.282
2024-10-15 11:19:44.200,65135.591,0.03,0.332,-0.943,-0.074,0.328,0.185,-0.317,-0.054,-0.005,0.032,-0.338,0.282
2024-10-15 11:19:44.209,65135.601,0.03,0.336,-0.941,-0.027,0.39,0.189,-0.546,-0.036,0.067,0.032,-0.342,0.282
2024-10-15 11:19:44.219,65135.611,0.03,0.341,-0.94,-0.036,0.323,0.173,-0.566,0.032,0.104,0.032,-0.348,0.283
2024-10-15 11:19:44.230,65135.621,0.031,0.346,-0.938,-0.115,0.162,0.141,-0.547,-0.048,0.087,0.033,-0.353,0.284
2024-10-15 11:19:44.240,65135.631,0.03,0.352,-0.936,-0.136,0.018,0.097,-0.755,-0.09,-0.038,0.032,-0.36,0.285
2024-10-15 11:19:44.249,65135.641,0.029,0.361,-0.932,-0.064,-0.151,0.036,-1.208,-0.048,-0.184,0.031,-0.369,0.284
2024-10-15 11:19:44.259,65135.65,0.028,0.375,-0.927,-0.066,-0.32,-0.04,-1.794,0.026,-0.267,0.03,-0.384,0.282
2024-10-15 11:19:44.270,65135.66,0.027,0.395,-0.918,-0.123,-0.395,-0.081,-2.454,0.04,-0.293,0.03,-0.406,0.28
2024-10-15 11:19:44.279,65135.67,0.027,0.421,-0.907,-0.134,-0.362,-0.1,-3.222,0.158,-0.132,0.03,-0.434,0.278
2024-10-15 11:19:44.289,65135.68,0.029,0.45,-0.892,-0.092,-0.283,-0.063,-3.342,0.361,-0.023,0.033,-0.467,0.279
2024-10-15 11:19:44.299,65135.69,0.032,0.48,-0.877,-0.03,-0.097,-0.047,-3.28,0.143,-0.04,0.036,-0.5,0.28
2024-10-15 11:19:44.309,65135.7,0.032,0.509,-0.86,-0.051,0.212,-0.05,-3.456,0.009,0.039,0.037,-0.534,0.281
2024-10-15 11:19:44.319,65135.71,0.033,0.538,-0.843,0.073,0.19,0.032,-3.214,0.014,0.131,0.039,-0.568,0.284
2024-10-15 11:19:44.329,65135.72,0.034,0.561,-0.827,0.149,-0.005,0.081,-2.264,0.025,0.233,0.041,-0.595,0.287
2024-10-15 11:19:44.339,65135.73,0.035,0.574,-0.818,0.027,0.094,0.113,-0.893,-0.083,0.293,0.043,-0.611,0.291
2024-10-15 11:19:44.349,65135.74,0.035,0.575,-0.817,-0.008,0.309,0.062,0.384,-0.292,0.292,0.043,-0.613,0.295
2024-10-15 11:19:44.359,65135.75,0.034,0.568,-0.822,0.066,0.388,0.019,1.42,-0.358,0.32,0.042,-0.604,0.298
2024-10-15 11:19:44.369,65135.76,0.033,0.552,-0.833,0.14,0.303,0.012,2.269,-0.313,0.229,0.04,-0.585,0.301
2024-10-15 11:19:44.379,65135.77,0.031,0.531,-0.847,0.127,0.212,0.026,2.669,-0.384,0.157,0.037,-0.56,0.302
2024-10-15 11:19:44.390,65135.78,0.029,0.509,-0.86,0.06,0.122,0.033,2.38,-0.379,0.125,0.033,-0.534,0.302
2024-10-15 11:19:44.400,65135.79,0.027,0.49,-0.871,0.11,-0.065,0.069,2.029,-0.165,0.106,0.031,-0.513,0.303
2024-10-15 11:19:44.409,65135.8,0.027,0.473,-0.881,0.13,-0.204,0.062,2.014,-0.044,0.13,0.03,-0.492,0.303
2024-10-15 11:19:44.419,65135.81,0.026,0.455,-0.89,0.015,-0.132,-0.022,2.07,-0.205,0.14,0.03,-0.472,0.304
2024-10-15 11:19:44.429,65135.82,0.025,0.438,-0.899,-0.017,0.072,-0.071,1.516,-0.249,0.221,0.028,-0.453,0.306
2024-10-15 11:19:44.439,65135.83,0.025,0.427,-0.904,0.063,0.127,-0.013,1.028,-0.011,0.122,0.027,-0.441,0.307
2024-10-15 11:19:44.449,65135.84,0.025,0.418,-0.908,0.069,0.064,-0.066,1.031,-0.032,0.173,0.028,-0.431,0.308
2024-10-15 11:19:44.459,65135.85,0.025,0.409,-0.912,-0.129,0.028,-0.107,0.867,-0.148,0.299,0.028,-0.421,0.311
2024-10-15 11:19:44.469,65135.86,0.025,0.402,-0.915,-0.107,0.089,0.062,0.674,-0.175,0.234,0.027,-0.413,0.313
2024-10-15 11:19:44.479,65135.87,0.024,0.396,-0.918,0.016,0.075,0.058,0.631,-0.155,0.285,0.027,-0.407,0.316
2024-10-15 11:19:44.489,65135.88,0.024,0.39,-0.921,-0.047,0.011,0.032,0.639,-0.17,0.375,0.026,-0.4,0.319
2024-10-15 11:19:44.499,65135.89,0.024,0.384,-0.923,-0.086,-0.009,0.012,0.631,-0.215,0.354,0.026,-0.394,0.323
2024-10-15 11:19:44.509,65135.9,0.023,0.378,-0.925,-0.038,-0.016,-0.052,0.526,-0.217,0.32,0.025,-0.388,0.327
2024-10-15 11:19:44.521,65135.91,0.022,0.374,-0.927,-0.008,-0.034,-0.102,0.255,-0.178,0.284,0.024,-0.384,0.33
2024-10-15 11:19:44.529,65135.92,0.021,0.374,-0.927,0.006,-0.115,-0.155,-0.22,-0.307,0.24,0.023,-0.383,0.333
2024-10-15 11:19:44.538,65135.93,0.019,0.38,-0.925,0.016,-0.193,-0.181,-1.113,-0.357,0.27,0.021,-0.39,0.336
2024-10-15 11:19:44.548,65135.94,0.018,0.392,-0.92,0.057,-0.255,-0.136,-1.525,-0.135,0.178,0.019,-0.403,0.338
2024-10-15 11:19:44.558,65135.95,0.018,0.406,-0.914,0.045,-0.25,0.022,-1.281,-0.075,0.178,0.019,-0.418,0.34
2024-10-15 11:19:44.568,65135.96,0.017,0.415,-0.91,-0.084,-0.199,0.061,-0.784,-0.217,0.238,0.019,-0.428,0.343
2024-10-15 11:19:44.579,65135.97,0.016,0.419,-0.908,-0.031,-0.09,0.01,-0.114,-0.222,0.184,0.018,-0.432,0.345
2024-10-15 11:19:44.589,65135.98,0.015,0.417,-0.909,0.102,-0.055,-0.025,0.542,-0.231,0.074,0.016,-0.43,0.347
2024-10-15 11:19:44.599,65135.99,0.012,0.411,-0.912,0.089,-0.004,-0.001,0.747,-0.359,0.015,0.013,-0.423,0.347
2024-10-15 11:19:44.609,65136.0,0.009,0.405,-0.914,0.096,-0.015,0.033,0.426,-0.342,-0.045,0.01,-0.417,0.347
2024-10-15 11:19:44.619,65136.01,0.006,0.403,-0.915,0.174,-0.153,0.06,-0.004,-0.18,-0.186,0.006,-0.415,0.346
2024-10-15 11:19:44.629,65136.02,0.004,0.405,-0.914,0.142,-0.267,0.084,-0.282,-0.049,-0.278,0.004,-0.417,0.343
2024-10-15 11:19:44.639,65136.03,0.003,0.408,-0.913,0.019,-0.242,0.07,-0.386,0.061,-0.31,0.003,-0.42,0.34
2024-10-15 11:19:44.649,65136.04,0.003,0.411,-0.912,-0.021,-0.141,0.03,-0.217,0.225,-0.286,0.003,-0.423,0.337
2024-10-15 11:19:44.659,65136.05,0.005,0.41,-0.912,-0.041,0.012,0.017,0.503,0.48,-0.306,0.005,-0.422,0.333
2024-10-15 11:19:44.669,65136.06,0.007,0.402,-0.916,-0.085,0.225,0.03,1.16,0.236,-0.285,0.008,-0.414,0.33
2024-10-15 11:19:44.679,65136.07,0.007,0.392,-0.92,-0.112,0.4,0.025,0.811,0.022,-0.189,0.008,-0.403,0.327
2024-10-15 11:19:44.689,65136.08,0.007,0.388,-0.922,0.052,0.3,0.058,0.098,0.099,-0.108,0.008,-0.399,0.326
2024-10-15 11:19:44.699,65136.09,0.008,0.389,-0.921,0.076,0.164,0.185,-0.272,0.172,0.059,0.009,-0.4,0.325
2024-10-15 11:19:44.709,65136.1,0.01,0.391,-0.92,-0.142,0.269,0.324,-0.011,0.166,0.221,0.011,-0.402,0.327
2024-10-15 11:19:44.719,65136.11,0.012,0.388,-0.921,-0.211,0.457,0.333,0.596,0.022,0.318,0.013,-0.399,0.33
2024-10-15 11:19:44.729,65136.12,0.013,0.381,-0.924,-0.182,0.564,0.184,0.895,-0.059,0.383,0.015,-0.391,0.334
2024-10-15 11:19:44.738,65136.13,0.015,0.373,-0.928,-0.126,0.459,-0.012,0.854,0.001,0.405,0.016,-0.382,0.338
2024-10-15 11:19:44.749,65136.14,0.017,0.366,-0.93,-0.085,0.125,-0.174,0.596,0.091,0.405,0.018,-0.375,0.342
2024-10-15 11:19:44.759,65136.15,0.018,0.363,-0.932,-0.105,-0.165,-0.241,-0.093,-0.238,0.362,0.019,-0.372,0.346
2024-10-15 11:19:44.768,65136.16,0.016,0.37,-0.929,-0.083,-0.267,-0.199,-1.453,-0.312,0.485,0.018,-0.379,0.351
2024-10-15 11:19:44.779,65136.17,0.017,0.386,-0.922,0.049,-0.389,-0.025,-1.774,-0.005,0.401,0.018,-0.396,0.356
2024-10-15 11:19:44.788,65136.18,0.018,0.399,-0.917,0.096,-0.443,0.166,-1.03,-0.075,0.527,0.02,-0.41,0.361
2024-10-15 11:19:44.799,65136.19,0.019,0.403,-0.915,-0.134,-0.167,0.123,0.014,-0.324,0.584,0.02,-0.415,0.367
2024-10-15 11:19:44.808,65136.2,0.017,0.399,-0.917,-0.04,0.175,0.021,0.819,-0.372,0.421,0.019,-0.411,0.373
2024-10-15 11:19:44.819,65136.21,0.016,0.389,-0.921,0.151,0.16,-0.11,1.283,-0.224,0.17,0.017,-0.4,0.376
2024-10-15 11:19:44.829,65136.22,0.015,0.378,-0.926,0.125,-0.008,-0.264,1.18,-0.086,-0.154,0.016,-0.387,0.376
2024-10-15 11:19:44.839,65136.23,0.013,0.37,-0.929,0.083,-0.333,-0.384,0.427,0.019,-0.347,0.014,-0.379,0.373
2024-10-15 11:19:44.848,65136.24,0.013,0.37,-0.929,0.129,-0.689,-0.274,-0.35,0.272,-0.53,0.014,-0.379,0.368
2024-10-15 11:19:44.860,65136.249,0.014,0.375,-0.927,0.171,-0.761,-0.035,-0.645,0.337,-0.573,0.015,-0.384,0.362
2024-10-15 11:19:44.868,65136.259,0.015,0.38,-0.925,0.065,-0.494,0.154,-0.322,0.48,-0.486,0.017,-0.39,0.357
2024-10-15 11:19:44.879,65136.269,0.017,0.379,-0.925,0.021,-0.101,0.207,0.662,0.38,-0.611,0.019,-0.388,0.351
2024-10-15 11:19:44.889,65136.279,0.018,0.371,-0.929,-0.004,0.256,0.118,0.943,0.159,-0.563,0.019,-0.38,0.344
2024-10-15 11:19:44.899,65136.289,0.017,0.364,-0.931,-0.02,0.32,0.01,0.588,0.198,-0.695,0.018,-0.372,0.337
2024-10-15 11:19:44.909,65136.299,0.017,0.361,-0.932,0.097,0.058,0.01,0.058,0.375,-0.628,0.018,-0.369,0.33
2024-10-15 11:19:44.918,65136.309,0.019,0.361,-0.932,-0.035,-0.143,0.116,-0.12,0.401,-0.561,0.02,-0.37,0.324
2024-10-15 11:19:44.927,65136.319,0.02,0.363,-0.932,-0.163,0.035,0.258,-0.137,0.176,-0.359,0.021,-0.371,0.319
2024-10-15 11:19:44.937,65136.329,0.02,0.364,-0.931,-0.164,0.312,0.275,-0.267,-0.041,-0.079,0.021,-0.373,0.316
2024-10-15 11:19:44.948,65136.339,0.019,0.367,-0.93,-0.094,0.503,0.24,-0.304,0.026,0.193,0.021,-0.376,0.317
2024-10-15 11:19:44.958,65136.349,0.021,0.368,-0.93,-0.103,0.624,0.205,0.252,0.12,0.335,0.023,-0.377,0.32
2024-10-15 11:19:44.968,65136.359,0.023,0.362,-0.932,-0.192,0.741,0.129,0.845,-0.07,0.509,0.025,-0.371,0.324
2024-10-15 11:19:44.978,65136.369,0.024,0.354,-0.935,-0.16,0.656,-0.103,0.933,-0.09,0.588,0.026,-0.362,0.33
2024-10-15 11:19:44.988,65136.379,0.026,0.346,-0.938,0.009,0.304,-0.289,0.697,0.015,0.498,0.027,-0.353,0.336
2024-10-15 11:19:44.998,65136.389,0.026,0.342,-0.939,0.008,-0.028,-0.348,-0.021,-0.363,0.439,0.028,-0.349,0.34
2024-10-15 11:19:45.008,65136.399,0.024,0.35,-0.937,-0.047,-0.248,-0.297,-1.778,-0.583,0.676,0.025,-0.357,0.347
2024-10-15 11:19:45.018,65136.409,0.023,0.369,-0.929,0.089,-0.455,-0.047,-2.154,0.0,0.561,0.025,-0.378,0.354
2024-10-15 11:19:45.028,65136.419,0.026,0.383,-0.923,0.126,-0.427,0.36,-0.696,0.018,0.572,0.028,-0.393,0.36
2024-10-15 11:19:45.039,65136.429,0.026,0.382,-0.924,-0.219,-0.106,0.362,0.827,-0.589,0.738,0.028,-0.392,0.367
2024-10-15 11:19:45.048,65136.439,0.022,0.371,-0.928,-0.141,0.253,0.013,1.314,-0.675,0.428,0.024,-0.38,0.374
2024-10-15 11:19:45.058,65136.449,0.018,0.361,-0.933,0.264,0.057,-0.262,0.844,-0.355,0.063,0.019,-0.369,0.376
2024-10-15 11:19:45.068,65136.459,0.016,0.355,-0.935,0.192,-0.388,-0.391,0.361,0.084,-0.254,0.018,-0.363,0.375
2024-10-15 11:19:45.078,65136.469,0.016,0.354,-0.935,0.035,-0.757,-0.313,-0.064,0.126,-0.438,0.017,-0.362,0.371
2024-10-15 11:19:45.088,65136.479,0.016,0.357,-0.934,0.036,-0.868,-0.202,-0.576,0.102,-0.566,0.017,-0.365,0.366
2024-10-15 11:19:45.098,65136.489,0.015,0.363,-0.932,0.171,-0.693,-0.053,-0.719,0.245,-0.65,0.016,-0.372,0.359
2024-10-15 11:19:45.108,65136.499,0.016,0.368,-0.93,0.196,-0.384,0.111,-0.019,0.501,-0.591,0.017,-0.376,0.353
2024-10-15 11:19:45.118,65136.509,0.018,0.362,-0.932,0.061,0.007,0.135,1.161,0.229,-0.526,0.019,-0.37,0.346
2024-10-15 11:19:45.128,65136.519,0.017,0.35,-0.937,-0.033,0.39,0.026,1.301,0.055,-0.568,0.018,-0.358,0.341
2024-10-15 11:19:45.138,65136.529,0.016,0.34,-0.94,0.079,0.423,-0.019,0.776,0.149,-0.669,0.017,-0.347,0.334
2024-10-15 11:19:45.148,65136.539,0.016,0.336,-0.942,0.146,0.128,0.011,0.172,0.323,-0.557,0.017,-0.343,0.327
2024-10-15 11:19:45.159,65136.549,0.018,0.336,-0.942,-0.062,-0.011,0.149,-0.053,0.365,-0.46,0.019,-0.342,0.322
2024-10-15 11:19:45.168,65136.559,0.019,0.337,-0.941,-0.181,0.185,0.258,-0.121,0.157,-0.19,0.02,-0.343,0.318
2024-10-15 11:19:45.178,65136.569,0.019,0.338,-0.941,-0.163,0.395,0.227,-0.284,0.002,0.093,0.021,-0.345,0.318
2024-10-15 11:19:45.188,65136.579,0.02,0.341,-0.94,-0.089,0.557,0.206,-0.186,0.072,0.325,0.022,-0.348,0.32
2024-10-15 11:19:45.198,65136.589,0.023,0.34,-0.94,-0.133,0.681,0.188,0.439,0.081,0.462,0.024,-0.347,0.324
2024-10-15 11:19:45.208,65136.599,0.024,0.333,-0.943,-0.194,0.666,0.09,0.895,-0.113,0.606,0.026,-0.34,0.33
2024-10-15 11:19:45.218,65136.609,0.025,0.325,-0.945,-0.146,0.44,-0.123,0.759,-0.118,0.528,0.026,-0.331,0.336
2024-10-15 11:19:45.228,65136.619,0.025,0.32,-0.947,-0.033,0.069,-0.241,0.243,-0.071,0.304,0.027,-0.325,0.34
2024-10-15 11:19:45.238,65136.629,0.024,0.323,-0.946,-0.047,-0.288,-0.22,-1.054,-0.372,0.373,0.025,-0.329,0.343
2024-10-15 11:19:45.248,65136.639,0.023,0.338,-0.941,-0.066,-0.593,-0.111,-1.999,-0.042,0.319,0.024,-0.345,0.347
2024-10-15 11:19:45.258,65136.649,0.026,0.354,-0.935,0.037,-0.671,0.173,-1.082,0.363,0.189,0.028,-0.362,0.351
2024-10-15 11:19:45.268,65136.659,0.028,0.356,-0.934,-0.125,-0.396,0.273,0.493,-0.161,0.203,0.03,-0.364,0.353
2024-10-15 11:19:45.278,65136.669,0.025,0.349,-0.937,-0.213,0.025,0.005,0.752,-0.462,0.074,0.027,-0.357,0.354
2024-10-15 11:19:45.288,65136.679,0.021,0.345,-0.938,0.212,-0.082,-0.305,0.062,-0.175,-0.323,0.023,-0.353,0.353
2024-10-15 11:19:45.298,65136.689,0.02,0.348,-0.937,0.344,-0.461,-0.329,-0.479,0.165,-0.486,0.021,-0.355,0.348
2024-10-15 11:19:45.308,65136.699,0.02,0.353,-0.935,0.08,-0.641,-0.162,-0.559,0.251,-0.5,0.022,-0.361,0.343
2024-10-15 11:19:45.318,65136.709,0.021,0.357,-0.934,0.019,-0.518,0.014,-0.175,0.306,-0.522,0.023,-0.365,0.338
2024-10-15 11:19:45.328,65136.719,0.021,0.355,-0.935,0.115,-0.198,0.076,0.599,0.091,-0.641,0.022,-0.363,0.331
2024-10-15 11:19:45.338,65136.729,0.019,0.349,-0.937,0.09,0.147,0.027,0.708,0.056,-0.49,0.021,-0.356,0.325
2024-10-15 11:19:45.348,65136.739,0.018,0.343,-0.939,0.038,0.227,0.005,0.557,0.171,-0.554,0.02,-0.35,0.32
2024-10-15 11:19:45.358,65136.749,0.019,0.338,-0.941,0.059,0.158,0.013,0.493,0.242,-0.543,0.02,-0.345,0.314
2024-10-15 11:19:45.368,65136.759,0.019,0.334,-0.942,-0.029,0.149,0.126,0.354,0.103,-0.416,0.02,-0.34,0.308
2024-10-15 11:19:45.378,65136.769,0.018,0.332,-0.943,-0.048,0.235,0.163,-0.001,-0.0,-0.249,0.019,-0.339,0.305
2024-10-15 11:19:45.388,65136.779,0.018,0.334,-0.942,-0.014,0.342,0.181,-0.315,-0.016,0.01,0.019,-0.34,0.304
2024-10-15 11:19:45.397,65136.789,0.018,0.337,-0.941,-0.052,0.453,0.219,-0.197,0.011,0.3,0.019,-0.343,0.305
2024-10-15 11:19:45.407,65136.799,0.019,0.335,-0.942,-0.122,0.628,0.223,0.452,-0.02,0.445,0.021,-0.342,0.309
2024-10-15 11:19:45.417,65136.809,0.02,0.328,-0.944,-0.136,0.725,0.119,0.985,-0.181,0.512,0.021,-0.334,0.314
2024-10-15 11:19:45.427,65136.819,0.02,0.319,-0.948,-0.091,0.572,-0.099,0.877,-0.154,0.466,0.021,-0.325,0.319
2024-10-15 11:19:45.437,65136.829,0.02,0.313,-0.95,-0.001,0.163,-0.256,0.417,-0.023,0.282,0.021,-0.318,0.323
2024-10-15 11:19:45.447,65136.839,0.021,0.311,-0.95,-0.032,-0.247,-0.239,-0.121,-0.009,0.16,0.022,-0.317,0.325
2024-10-15 11:19:45.458,65136.848,0.019,0.317,-0.948,-0.089,-0.516,-0.167,-1.234,-0.346,0.256,0.021,-0.323,0.327
2024-10-15 11:19:45.467,65136.858,0.018,0.333,-0.943,-0.051,-0.61,-0.051,-1.892,-0.097,0.29,0.019,-0.339,0.331
2024-10-15 11:19:45.478,65136.868,0.019,0.348,-0.937,0.005,-0.481,0.185,-1.171,0.13,0.302,0.021,-0.355,0.334
2024-10-15 11:19:45.487,65136.878,0.021,0.352,-0.936,-0.185,-0.089,0.29,0.239,-0.202,0.497,0.022,-0.36,0.339
2024-10-15 11:19:45.498,65136.888,0.019,0.345,-0.938,-0.247,0.329,0.13,1.1,-0.402,0.362,0.02,-0.353,0.343
2024-10-15 11:19:45.507,65136.898,0.016,0.335,-0.942,0.059,0.351,-0.063,0.864,-0.356,0.112,0.017,-0.342,0.346
2024-10-15 11:19:45.517,65136.908,0.014,0.33,-0.944,0.191,-0.036,-0.166,0.199,-0.011,-0.172,0.015,-0.337,0.345
2024-10-15 11:19:45.527,65136.918,0.014,0.331,-0.944,0.162,-0.542,-0.154,-0.162,0.185,-0.426,0.015,-0.337,0.342
2024-10-15 11:19:45.537,65136.928,0.014,0.333,-0.943,0.093,-0.782,-0.041,-0.424,0.081,-0.52,0.015,-0.34,0.337
2024-10-15 11:19:45.548,65136.938,0.013,0.338,-0.941,0.099,-0.676,0.016,-0.566,0.14,-0.639,0.014,-0.345,0.331
2024-10-15 11:19:45.558,65136.948,0.013,0.342,-0.94,0.194,-0.422,0.081,-0.11,0.395,-0.701,0.014,-0.349,0.324
2024-10-15 11:19:45.567,65136.958,0.014,0.339,-0.941,0.092,-0.087,0.061,0.602,0.236,-0.614,0.015,-0.346,0.317
2024-10-15 11:19:45.590,65136.968,0.014,0.334,-0.942,-0.045,0.252,-0.057,0.467,0.119,-0.536,0.015,-0.34,0.311
2024-10-15 11:19:45.593,65136.978,0.014,0.331,-0.943,0.055,0.344,-0.094,0.089,0.304,-0.534,0.015,-0.338,0.305
2024-10-15 11:19:45.597,65136.988,0.015,0.332,-0.943,0.107,0.268,-0.026,-0.075,0.295,-0.316,0.016,-0.338,0.3
2024-10-15 11:19:45.607,65136.998,0.017,0.333,-0.943,-0.083,0.327,0.114,-0.147,0.13,-0.043,0.018,-0.339,0.298
2024-10-15 11:19:45.617,65137.008,0.018,0.334,-0.942,-0.088,0.473,0.21,-0.165,-0.002,0.191,0.019,-0.341,0.299
2024-10-15 11:19:45.627,65137.018,0.018,0.335,-0.942,-0.02,0.581,0.256,0.063,-0.008,0.349,0.019,-0.341,0.302
2024-10-15 11:19:45.637,65137.028,0.019,0.332,-0.943,-0.061,0.637,0.237,0.498,-0.038,0.404,0.021,-0.339,0.306
2024-10-15 11:19:45.647,65137.038,0.02,0.326,-0.945,-0.137,0.558,0.084,0.669,-0.055,0.484,0.022,-0.332,0.311
2024-10-15 11:19:45.657,65137.048,0.022,0.32,-0.947,-0.116,0.212,-0.144,0.512,0.006,0.366,0.023,-0.326,0.315
2024-10-15 11:19:45.667,65137.058,0.023,0.317,-0.948,-0.077,-0.142,-0.267,0.09,0.021,0.184,0.024,-0.323,0.318
2024-10-15 11:19:45.677,65137.068,0.022,0.32,-0.947,-0.1,-0.379,-0.237,-0.696,-0.234,0.145,0.024,-0.325,0.32
2024-10-15 11:19:45.686,65137.078,0.021,0.331,-0.943,-0.072,-0.545,-0.113,-1.523,-0.068,0.207,0.023,-0.337,0.322
2024-10-15 11:19:45.697,65137.088,0.022,0.344,-0.939,-0.003,-0.533,0.14,-1.075,0.145,0.117,0.024,-0.351,0.324
2024-10-15 11:19:45.706,65137.098,0.023,0.349,-0.937,-0.071,-0.29,0.296,0.013,-0.125,0.241,0.025,-0.356,0.326
2024-10-15 11:19:45.717,65137.108,0.022,0.345,-0.938,-0.167,0.062,0.147,0.605,-0.358,0.221,0.023,-0.352,0.328
2024-10-15 11:19:45.727,65137.118,0.019,0.34,-0.94,0.086,0.121,-0.098,0.483,-0.315,0.08,0.02,-0.347,0.33
2024-10-15 11:19:45.737,65137.128,0.017,0.337,-0.941,0.212,-0.126,-0.24,0.163,-0.125,-0.025,0.018,-0.344,0.33
2024-10-15 11:19:45.747,65137.138,0.016,0.336,-0.942,0.127,-0.319,-0.221,0.029,-0.064,-0.12,0.017,-0.343,0.329
2024-10-15 11:19:45.757,65137.148,0.014,0.336,-0.942,0.079,-0.333,-0.135,-0.115,-0.162,-0.182,0.015,-0.343,0.328
2024-10-15 11:19:45.767,65137.158,0.012,0.339,-0.941,0.137,-0.278,-0.057,-0.358,-0.16,-0.279,0.013,-0.345,0.325
2024-10-15 11:19:45.777,65137.168,0.01,0.342,-0.94,0.185,-0.221,0.022,-0.385,-0.034,-0.352,0.011,-0.349,0.322
2024-10-15 11:19:45.787,65137.178,0.009,0.345,-0.939,0.108,-0.108,0.095,-0.068,0.1,-0.355,0.01,-0.352,0.318
2024-10-15 11:19:45.798,65137.188,0.009,0.343,-0.939,0.017,0.061,0.112,0.483,0.045,-0.369,0.009,-0.35,0.314
2024-10-15 11:19:45.807,65137.198,0.008,0.337,-0.941,-0.028,0.254,0.098,0.649,-0.005,-0.303,0.008,-0.344,0.311
2024-10-15 11:19:45.816,65137.208,0.007,0.332,-0.943,-0.024,0.324,0.067,0.482,0.055,-0.236,0.007,-0.338,0.308
2024-10-15 11:19:45.827,65137.218,0.007,0.329,-0.944,-0.017,0.314,0.046,0.207,0.119,-0.091,0.008,-0.335,0.306
2024-10-15 11:19:45.837,65137.228,0.008,0.328,-0.945,-0.093,0.369,0.089,0.022,0.122,0.159,0.009,-0.334,0.306
2024-10-15 11:19:45.847,65137.238,0.01,0.327,-0.945,-0.111,0.446,0.128,0.169,0.122,0.336,0.011,-0.333,0.309
2024-10-15 11:19:45.857,65137.248,0.012,0.323,-0.946,-0.065,0.551,0.177,0.676,0.023,0.365,0.013,-0.329,0.313
2024-10-15 11:19:45.867,65137.258,0.013,0.315,-0.949,-0.053,0.597,0.152,0.939,-0.09,0.427,0.014,-0.321,0.317
2024-10-15 11:19:45.877,65137.268,0.014,0.306,-0.952,-0.041,0.355,0.002,0.829,-0.043,0.347,0.014,-0.311,0.321
2024-10-15 11:19:45.887,65137.278,0.014,0.3,-0.954,-0.021,-0.033,-0.131,0.421,-0.059,0.177,0.015,-0.305,0.323
2024-10-15 11:19:45.897,65137.288,0.013,0.301,-0.953,-0.091,-0.338,-0.16,-0.694,-0.276,0.244,0.013,-0.306,0.325
2024-10-15 11:19:45.907,65137.298,0.012,0.312,-0.95,-0.083,-0.569,-0.046,-1.361,0.051,0.039,0.013,-0.317,0.327
2024-10-15 11:19:45.917,65137.308,0.013,0.322,-0.947,0.02,-0.615,0.207,-0.692,0.166,-0.041,0.014,-0.328,0.327
2024-10-15 11:19:45.927,65137.318,0.013,0.324,-0.946,-0.129,-0.435,0.185,0.171,-0.158,-0.065,0.014,-0.33,0.327
2024-10-15 11:19:45.937,65137.328,0.01,0.323,-0.946,-0.122,-0.166,-0.1,-0.043,-0.332,-0.207,0.011,-0.329,0.325
2024-10-15 11:19:45.947,65137.338,0.007,0.328,-0.945,0.12,-0.188,-0.262,-0.971,-0.101,-0.364,0.008,-0.334,0.322
2024-10-15 11:19:45.957,65137.348,0.006,0.341,-0.94,0.152,-0.397,-0.206,-1.749,0.065,-0.409,0.006,-0.348,0.318
2024-10-15 11:19:45.967,65137.358,0.005,0.36,-0.933,-0.006,-0.419,-0.037,-2.28,-0.027,-0.375,0.005,-0.368,0.314
2024-10-15 11:19:45.977,65137.368,0.002,0.383,-0.924,-0.021,-0.296,0.093,-2.682,-0.136,-0.414,0.003,-0.393,0.31
2024-10-15 11:19:45.987,65137.378,-0.001,0.408,-0.913,0.081,-0.178,0.164,-2.883,-0.148,-0.461,-0.001,-0.421,0.305
2024-10-15 11:19:45.997,65137.388,-0.004,0.434,-0.901,0.068,-0.099,0.169,-2.755,-0.044,-0.43,-0.004,-0.449,0.3
2024-10-15 11:19:46.007,65137.398,-0.004,0.455,-0.89,-0.028,-0.008,0.107,-1.884,0.275,-0.224,-0.005,-0.473,0.296
2024-10-15 11:19:46.016,65137.408,-0.002,0.467,-0.884,-0.115,0.151,-0.041,-0.708,0.188,-0.034,-0.003,-0.486,0.295
2024-10-15 11:19:46.027,65137.418,-0.002,0.47,-0.883,-0.17,0.508,-0.271,-0.218,-0.073,-0.024,-0.002,-0.49,0.295
2024-10-15 11:19:46.037,65137.428,-0.003,0.473,-0.881,-0.079,0.716,-0.127,-0.432,-0.123,0.01,-0.003,-0.493,0.295
2024-10-15 11:19:46.046,65137.438,-0.004,0.477,-0.879,0.107,0.333,0.094,-0.577,-0.056,0.134,-0.004,-0.498,0.295
2024-10-15 11:19:46.057,65137.447,-0.003,0.483,-0.876,0.047,0.062,0.165,-0.647,-0.068,0.245,-0.003,-0.504,0.298
2024-10-15 11:19:46.067,65137.457,-0.003,0.489,-0.872,-0.084,0.09,0.236,-0.657,-0.159,0.285,-0.003,-0.511,0.301
2024-10-15 11:19:46.077,65137.467,-0.003,0.494,-0.869,-0.01,0.084,0.223,-0.631,-0.229,0.326,-0.003,-0.517,0.304
2024-10-15 11:19:46.086,65137.477,-0.003,0.5,-0.866,0.057,0.05,0.154,-0.615,-0.206,0.353,-0.004,-0.523,0.308
2024-10-15 11:19:46.096,65137.487,-0.003,0.505,-0.863,0.032,0.073,0.084,-0.513,-0.147,0.311,-0.003,-0.529,0.312
2024-10-15 11:19:46.106,65137.497,-0.003,0.508,-0.861,0.013,0.087,0.027,-0.339,-0.079,0.253,-0.003,-0.533,0.315
2024-10-15 11:19:46.116,65137.507,-0.002,0.51,-0.86,0.019,0.071,-0.021,-0.106,-0.024,0.192,-0.002,-0.535,0.318
2024-10-15 11:19:46.126,65137.517,-0.001,0.51,-0.86,0.042,0.013,-0.065,0.128,0.016,0.174,-0.001,-0.535,0.32
2024-10-15 11:19:46.136,65137.527,0.0,0.508,-0.861,0.051,-0.043,-0.097,0.364,0.031,0.138,0.0,-0.533,0.322
2024-10-15 11:19:46.146,65137.537,0.001,0.504,-0.864,0.056,-0.051,-0.082,0.622,0.035,0.092,0.001,-0.528,0.323
2024-10-15 11:19:46.156,65137.547,0.001,0.497,-0.868,0.054,-0.023,-0.048,0.898,0.006,0.051,0.002,-0.52,0.324
2024-10-15 11:19:46.166,65137.557,0.001,0.488,-0.873,0.052,-0.006,-0.023,1.101,-0.08,0.059,0.002,-0.51,0.324
2024-10-15 11:19:46.176,65137.567,0.001,0.479,-0.878,0.037,0.004,-0.006,1.158,-0.115,0.092,0.001,-0.499,0.325
2024-10-15 11:19:46.187,65137.577,0.0,0.468,-0.884,0.011,0.039,0.01,1.152,-0.136,0.123,0.0,-0.487,0.326
2024-10-15 11:19:46.197,65137.587,-0.0,0.458,-0.889,-0.029,0.086,0.012,1.102,-0.216,0.193,-0.0,-0.476,0.328
2024-10-15 11:19:46.206,65137.597,-0.0,0.45,-0.893,-0.058,0.138,0.015,0.772,-0.052,0.295,-0.001,-0.466,0.331
2024-10-15 11:19:46.216,65137.607,0.0,0.444,-0.896,-0.042,0.141,0.058,0.453,-0.072,0.195,0.0,-0.46,0.334
2024-10-15 11:19:46.227,65137.617,0.001,0.441,-0.898,-0.048,0.125,-0.082,0.385,-0.027,0.251,0.001,-0.457,0.336
2024-10-15 11:19:46.236,65137.627,0.001,0.437,-0.899,-0.046,-0.012,-0.067,0.382,-0.126,0.332,0.002,-0.453,0.339
2024-10-15 11:19:46.246,65137.637,0.001,0.434,-0.901,-0.01,-0.045,-0.024,0.198,-0.295,0.444,0.001,-0.449,0.344
2024-10-15 11:19:46.256,65137.647,0.001,0.433,-0.901,0.007,0.011,-0.105,0.184,-0.165,0.421,0.001,-0.448,0.348
2024-10-15 11:19:46.266,65137.657,0.002,0.43,-0.903,0.023,0.026,-0.052,0.512,-0.093,0.377,0.002,-0.445,0.353
2024-10-15 11:19:46.276,65137.667,0.002,0.424,-0.906,-0.078,0.044,-0.049,0.905,-0.133,0.343,0.002,-0.437,0.357
2024-10-15 11:19:46.286,65137.677,0.002,0.414,-0.91,-0.031,0.006,-0.086,1.077,-0.131,0.244,0.002,-0.427,0.36
2024-10-15 11:19:46.296,65137.687,0.002,0.405,-0.914,0.088,-0.117,-0.127,0.856,-0.118,0.114,0.002,-0.417,0.362
2024-10-15 11:19:46.306,65137.697,0.001,0.4,-0.917,0.127,-0.273,-0.152,0.411,-0.043,-0.014,0.001,-0.411,0.363
2024-10-15 11:19:46.316,65137.707,0.001,0.398,-0.917,0.138,-0.429,-0.118,-0.045,0.051,-0.127,0.001,-0.409,0.362
2024-10-15 11:19:46.326,65137.717,0.001,0.399,-0.917,0.121,-0.531,-0.065,-0.222,0.163,-0.195,0.001,-0.411,0.36
2024-10-15 11:19:46.336,65137.727,0.002,0.401,-0.916,0.107,-0.501,-0.013,-0.063,0.173,-0.237,0.002,-0.412,0.358
2024-10-15 11:19:46.346,65137.737,0.002,0.4,-0.916,0.097,-0.31,0.042,0.234,0.094,-0.24,0.002,-0.412,0.355
2024-10-15 11:19:46.356,65137.747,0.002,0.395,-0.919,0.087,-0.004,0.119,0.845,0.175,-0.27,0.003,-0.406,0.352
2024-10-15 11:19:46.366,65137.757,0.003,0.384,-0.923,0.079,0.234,0.15,1.597,0.135,-0.283,0.003,-0.394,0.349
2024-10-15 11:19:46.376,65137.767,0.003,0.368,-0.93,-0.037,0.37,0.101,1.694,0.006,-0.294,0.003,-0.377,0.346
2024-10-15 11:19:46.386,65137.777,0.001,0.355,-0.935,-0.048,0.294,0.096,1.097,-0.145,-0.265,0.001,-0.363,0.343
2024-10-15 11:19:46.396,65137.787,-0.001,0.349,-0.937,0.036,0.025,0.108,0.169,-0.101,-0.164,-0.001,-0.357,0.341
2024-10-15 11:19:46.406,65137.797,-0.002,0.35,-0.937,-0.009,-0.122,0.219,-0.388,-0.018,-0.091,-0.002,-0.358,0.339
2024-10-15 11:19:46.416,65137.807,-0.002,0.354,-0.935,-0.153,0.052,0.296,-0.362,-0.036,0.123,-0.002,-0.362,0.339
2024-10-15 11:19:46.426,65137.817,-0.002,0.356,-0.935,-0.265,0.316,0.228,0.11,-0.089,0.29,-0.002,-0.364,0.342
2024-10-15 11:19:46.436,65137.827,-0.002,0.353,-0.936,-0.262,0.527,0.125,0.524,-0.165,0.403,-0.002,-0.36,0.345
2024-10-15 11:19:46.446,65137.837,-0.002,0.347,-0.938,-0.22,0.575,-0.01,0.622,-0.132,0.443,-0.002,-0.354,0.35
2024-10-15 11:19:46.455,65137.847,-0.001,0.342,-0.94,-0.136,0.448,-0.149,0.477,-0.003,0.423,-0.001,-0.349,0.355
2024-10-15 11:19:46.465,65137.857,0.001,0.338,-0.941,-0.101,0.187,-0.198,0.316,0.039,0.381,0.001,-0.345,0.359
2024-10-15 11:19:46.475,65137.867,0.002,0.336,-0.942,-0.085,-0.069,-0.176,0.08,-0.05,0.314,0.002,-0.343,0.363
2024-10-15 11:19:46.485,65137.877,0.0,0.339,-0.941,-0.018,-0.236,-0.124,-0.904,-0.482,0.361,0.0,-0.346,0.366
2024-10-15 11:19:46.495,65137.887,-0.003,0.353,-0.936,0.06,-0.343,-0.029,-1.879,-0.34,0.303,-0.003,-0.361,0.369
2024-10-15 11:19:46.506,65137.897,-0.003,0.37,-0.929,0.109,-0.412,0.168,-1.67,0.016,0.405,-0.003,-0.379,0.373
2024-10-15 11:19:46.516,65137.907,-0.001,0.379,-0.925,-0.094,-0.33,0.328,-0.125,0.094,0.39,-0.001,-0.389,0.378
2024-10-15 11:19:46.526,65137.917,-0.0,0.373,-0.928,-0.2,0.063,0.224,1.422,-0.297,0.219,-0.0,-0.382,0.381
2024-10-15 11:19:46.536,65137.927,-0.004,0.358,-0.934,-0.01,0.278,-0.035,1.499,-0.508,0.07,-0.004,-0.366,0.382
2024-10-15 11:19:46.546,65137.937,-0.008,0.348,-0.937,0.279,-0.066,-0.357,0.565,-0.151,-0.297,-0.008,-0.356,0.381
2024-10-15 11:19:46.556,65137.947,-0.009,0.347,-0.938,0.307,-0.54,-0.348,-0.254,0.218,-0.438,-0.009,-0.355,0.377
2024-10-15 11:19:46.567,65137.957,-0.008,0.351,-0.936,0.087,-0.763,-0.173,-0.431,0.298,-0.48,-0.008,-0.358,0.372
2024-10-15 11:19:46.576,65137.967,-0.007,0.354,-0.935,0.022,-0.573,-0.025,-0.383,0.156,-0.459,-0.008,-0.362,0.367
2024-10-15 11:19:46.586,65137.977,-0.007,0.358,-0.934,0.083,-0.224,0.053,-0.282,0.159,-0.461,-0.008,-0.366,0.362
2024-10-15 11:19:46.595,65137.987,-0.007,0.358,-0.934,0.152,0.043,0.05,0.208,0.371,-0.476,-0.007,-0.366,0.357
2024-10-15 11:19:46.605,65137.997,-0.005,0.353,-0.935,0.059,0.253,0.071,0.731,0.256,-0.48,-0.006,-0.361,0.352
2024-10-15 11:19:46.615,65138.007,-0.005,0.347,-0.938,-0.057,0.338,0.014,0.542,0.261,-0.508,-0.005,-0.355,0.347
2024-10-15 11:19:46.625,65138.017,-0.004,0.344,-0.939,0.013,0.205,-0.012,0.185,0.343,-0.538,-0.004,-0.351,0.341
2024-10-15 11:19:46.635,65138.027,-0.002,0.343,-0.939,0.017,0.019,0.088,-0.11,0.305,-0.425,-0.002,-0.351,0.336
2024-10-15 11:19:46.645,65138.037,-0.001,0.345,-0.938,-0.113,0.042,0.217,-0.309,0.176,-0.25,-0.001,-0.353,0.333
2024-10-15 11:19:46.655,65138.046,-0.0,0.349,-0.937,-0.127,0.21,0.288,-0.447,0.034,0.017,-0.0,-0.357,0.331
2024-10-15 11:19:46.665,65138.056,0.0,0.352,-0.936,-0.119,0.414,0.33,-0.219,0.04,0.236,0.0,-0.36,0.333
2024-10-15 11:19:46.675,65138.066,0.002,0.352,-0.936,-0.137,0.61,0.308,0.303,-0.02,0.376,0.002,-0.36,0.336
2024-10-15 11:19:46.685,65138.076,0.002,0.348,-0.938,-0.184,0.714,0.155,0.52,-0.118,0.494,0.002,-0.355,0.341
2024-10-15 11:19:46.696,65138.086,0.004,0.343,-0.939,-0.128,0.568,-0.147,0.423,0.031,0.486,0.004,-0.35,0.346
2024-10-15 11:19:46.706,65138.096,0.006,0.34,-0.94,-0.042,0.168,-0.376,0.172,0.122,0.381,0.006,-0.347,0.351
2024-10-15 11:19:46.715,65138.106,0.007,0.342,-0.94,-0.076,-0.184,-0.423,-0.689,-0.334,0.333,0.007,-0.349,0.354
2024-10-15 11:19:46.725,65138.116,0.005,0.356,-0.935,-0.032,-0.434,-0.315,-2.17,-0.303,0.38,0.005,-0.364,0.358
2024-10-15 11:19:46.735,65138.126,0.005,0.377,-0.926,0.132,-0.594,0.0,-2.218,0.106,0.377,0.005,-0.387,0.362
2024-10-15 11:19:46.745,65138.136,0.008,0.39,-0.921,0.052,-0.513,0.408,-0.475,0.194,0.383,0.009,-0.401,0.367
2024-10-15 11:19:46.755,65138.146,0.009,0.385,-0.923,-0.201,-0.01,0.462,1.556,-0.344,0.181,0.009,-0.395,0.37
2024-10-15 11:19:46.765,65138.156,0.004,0.369,-0.929,-0.03,0.313,0.149,1.566,-0.703,-0.036,0.004,-0.378,0.37
2024-10-15 11:19:46.775,65138.166,-0.002,0.361,-0.933,0.322,-0.132,-0.368,0.185,-0.138,-0.536,-0.002,-0.369,0.367
2024-10-15 11:19:46.785,65138.176,-0.002,0.364,-0.932,0.359,-0.771,-0.429,-0.708,0.452,-0.686,-0.002,-0.372,0.361
2024-10-15 11:19:46.795,65138.186,-0.0,0.371,-0.929,0.002,-1.028,-0.219,-0.805,0.383,-0.531,-0.0,-0.38,0.354
2024-10-15 11:19:46.805,65138.196,0.0,0.378,-0.926,-0.122,-0.651,-0.09,-0.585,0.213,-0.49,0.0,-0.387,0.349
2024-10-15 11:19:46.815,65138.206,0.001,0.381,-0.925,0.09,-0.067,-0.0,-0.085,0.199,-0.464,0.001,-0.391,0.343
2024-10-15 11:19:46.825,65138.216,0.001,0.378,-0.926,0.158,0.275,0.046,0.594,0.221,-0.392,0.001,-0.388,0.339
2024-10-15 11:19:46.835,65138.226,0.001,0.371,-0.929,0.048,0.455,0.072,0.925,0.133,-0.417,0.001,-0.38,0.334
2024-10-15 11:19:46.845,65138.236,0.001,0.363,-0.932,0.01,0.441,0.028,0.641,0.249,-0.461,0.001,-0.372,0.33
2024-10-15 11:19:46.855,65138.246,0.002,0.359,-0.933,0.055,0.169,-0.017,0.325,0.333,-0.488,0.002,-0.367,0.325
2024-10-15 11:19:46.865,65138.256,0.003,0.357,-0.934,-0.025,-0.031,0.052,0.052,0.284,-0.406,0.004,-0.365,0.32
2024-10-15 11:19:46.875,65138.266,0.004,0.358,-0.934,-0.107,-0.009,0.16,-0.151,0.159,-0.284,0.005,-0.366,0.316
2024-10-15 11:19:46.885,65138.276,0.005,0.36,-0.933,-0.078,0.159,0.215,-0.327,0.053,-0.034,0.005,-0.368,0.314
2024-10-15 11:19:46.895,65138.286,0.005,0.363,-0.932,-0.081,0.346,0.245,-0.312,0.039,0.192,0.006,-0.372,0.315
2024-10-15 11:19:46.905,65138.296,0.007,0.364,-0.931,-0.094,0.53,0.207,0.105,-0.004,0.349,0.007,-0.373,0.318
2024-10-15 11:19:46.915,65138.306,0.008,0.361,-0.933,-0.129,0.661,0.096,0.576,-0.102,0.51,0.008,-0.369,0.323
2024-10-15 11:19:46.925,65138.316,0.009,0.355,-0.935,-0.131,0.575,-0.103,0.708,-0.079,0.525,0.009,-0.362,0.328
2024-10-15 11:19:46.935,65138.326,0.01,0.349,-0.937,-0.092,0.272,-0.265,0.524,-0.038,0.443,0.011,-0.356,0.333
2024-10-15 11:19:46.945,65138.336,0.01,0.346,-0.938,-0.083,-0.098,-0.275,-0.072,-0.222,0.389,0.011,-0.353,0.338
2024-10-15 11:19:46.955,65138.346,0.008,0.352,-0.936,-0.072,-0.381,-0.197,-1.235,-0.41,0.488,0.009,-0.359,0.342
2024-10-15 11:19:46.965,65138.356,0.008,0.365,-0.931,0.001,-0.527,-0.012,-1.507,-0.075,0.432,0.008,-0.374,0.347
2024-10-15 11:19:46.975,65138.366,0.009,0.375,-0.927,0.026,-0.445,0.306,-0.422,-0.044,0.457,0.01,-0.384,0.352
2024-10-15 11:19:46.985,65138.376,0.01,0.372,-0.928,-0.138,-0.102,0.307,0.959,-0.247,0.372,0.01,-0.381,0.357
2024-10-15 11:19:46.995,65138.386,0.007,0.361,-0.932,-0.029,0.154,0.011,1.141,-0.487,0.044,0.007,-0.37,0.359
2024-10-15 11:19:47.005,65138.396,0.003,0.356,-0.935,0.243,-0.096,-0.329,0.069,-0.101,-0.301,0.003,-0.364,0.358
2024-10-15 11:19:47.015,65138.406,0.003,0.358,-0.934,0.291,-0.605,-0.433,-0.486,0.441,-0.604,0.004,-0.366,0.353
2024-10-15 11:19:47.025,65138.416,0.005,0.363,-0.932,0.087,-0.842,-0.192,-0.462,0.343,-0.502,0.006,-0.371,0.347
2024-10-15 11:19:47.035,65138.426,0.007,0.365,-0.931,-0.087,-0.606,-0.008,-0.001,0.42,-0.614,0.007,-0.374,0.341
2024-10-15 11:19:47.045,65138.436,0.007,0.361,-0.932,0.112,-0.168,0.075,0.774,0.228,-0.752,0.008,-0.369,0.333
2024-10-15 11:19:47.055,65138.446,0.007,0.354,-0.935,0.083,0.118,0.03,0.758,0.238,-0.696,0.007,-0.362,0.326
2024-10-15 11:19:47.065,65138.456,0.007,0.348,-0.938,0.025,0.125,-0.02,0.536,0.397,-0.782,0.008,-0.355,0.318
2024-10-15 11:19:47.075,65138.466,0.008,0.344,-0.939,0.043,0.026,0.049,0.259,0.314,-0.658,0.009,-0.351,0.31
2024-10-15 11:19:47.085,65138.476,0.008,0.343,-0.939,-0.06,0.03,0.184,-0.1,0.155,-0.479,0.009,-0.35,0.304
2024-10-15 11:19:47.095,65138.486,0.008,0.346,-0.938,-0.008,0.198,0.249,-0.452,0.005,-0.17,0.008,-0.353,0.3
2024-10-15 11:19:47.105,65138.496,0.008,0.35,-0.937,0.001,0.435,0.291,-0.437,-0.043,0.236,0.008,-0.358,0.301
2024-10-15 11:19:47.115,65138.506,0.008,0.352,-0.936,-0.061,0.733,0.31,0.264,-0.072,0.464,0.009,-0.359,0.305
2024-10-15 11:19:47.125,65138.516,0.009,0.345,-0.938,-0.124,0.987,0.208,0.973,-0.24,0.588,0.009,-0.353,0.31
2024-10-15 11:19:47.135,65138.526,0.008,0.336,-0.942,-0.134,0.959,-0.01,1.005,-0.257,0.598,0.009,-0.342,0.316
2024-10-15 11:19:47.145,65138.536,0.009,0.328,-0.945,-0.026,0.492,-0.289,0.555,-0.028,0.443,0.009,-0.334,0.322
2024-10-15 11:19:47.154,65138.546,0.01,0.325,-0.945,-0.047,-0.092,-0.363,0.015,0.108,0.259,0.011,-0.332,0.326
2024-10-15 11:19:47.164,65138.556,0.01,0.33,-0.944,-0.145,-0.473,-0.262,-1.102,-0.349,0.311,0.011,-0.336,0.328
2024-10-15 11:19:47.174,65138.566,0.009,0.346,-0.938,-0.105,-0.654,-0.099,-2.028,-0.072,0.332,0.009,-0.353,0.332
2024-10-15 11:19:47.184,65138.576,0.011,0.362,-0.932,0.049,-0.604,0.251,-1.209,0.15,0.313,0.011,-0.37,0.336
2024-10-15 11:19:47.194,65138.586,0.011,0.365,-0.931,-0.096,-0.237,0.463,0.388,-0.372,0.515,0.012,-0.374,0.34
2024-10-15 11:19:47.205,65138.596,0.008,0.358,-0.934,-0.246,0.342,0.317,1.067,-0.602,0.443,0.009,-0.366,0.345
2024-10-15 11:19:47.215,65138.606,0.005,0.349,-0.937,0.098,0.394,-0.015,0.63,-0.335,0.214,0.005,-0.357,0.349
2024-10-15 11:19:47.224,65138.616,0.004,0.346,-0.938,0.187,-0.066,-0.285,0.164,0.135,-0.023,0.005,-0.353,0.35
2024-10-15 11:19:47.235,65138.626,0.006,0.345,-0.939,-0.014,-0.454,-0.277,0.078,0.192,-0.164,0.006,-0.352,0.349
2024-10-15 11:19:47.245,65138.636,0.006,0.345,-0.939,-0.033,-0.66,-0.209,-0.137,0.024,-0.354,0.006,-0.352,0.346
2024-10-15 11:19:47.254,65138.645,0.005,0.348,-0.937,0.126,-0.617,-0.145,-0.574,0.073,-0.597,0.005,-0.356,0.341
2024-10-15 11:19:47.265,65138.655,0.004,0.355,-0.935,0.221,-0.533,0.008,-0.77,0.247,-0.629,0.004,-0.363,0.334
2024-10-15 11:19:47.274,65138.665,0.005,0.36,-0.933,0.108,-0.383,0.124,-0.267,0.434,-0.549,0.005,-0.369,0.328
2024-10-15 11:19:47.284,65138.675,0.006,0.359,-0.933,0.0,-0.043,0.123,0.59,0.194,-0.482,0.007,-0.367,0.322
2024-10-15 11:19:47.294,65138.685,0.006,0.352,-0.936,-0.027,0.334,0.053,0.737,0.119,-0.449,0.006,-0.36,0.318
2024-10-15 11:19:47.304,65138.695,0.006,0.346,-0.938,0.051,0.46,-0.003,0.504,0.206,-0.429,0.006,-0.354,0.313
2024-10-15 11:19:47.314,65138.705,0.007,0.344,-0.939,0.035,0.331,-0.022,0.097,0.266,-0.258,0.007,-0.351,0.309
2024-10-15 11:19:47.324,65138.715,0.008,0.344,-0.939,-0.105,0.224,0.093,-0.201,0.166,-0.072,0.009,-0.351,0.307
2024-10-15 11:19:47.335,65138.725,0.01,0.347,-0.938,-0.107,0.301,0.221,-0.351,0.026,0.195,0.01,-0.354,0.308
2024-10-15 11:19:47.344,65138.735,0.011,0.349,-0.937,-0.046,0.443,0.282,-0.079,0.008,0.359,0.011,-0.357,0.311
2024-10-15 11:19:47.354,65138.745,0.012,0.347,-0.938,-0.031,0.61,0.264,0.587,-0.127,0.439,0.012,-0.354,0.315
2024-10-15 11:19:47.364,65138.755,0.011,0.34,-0.94,-0.077,0.651,0.105,0.864,-0.231,0.51,0.012,-0.347,0.32
2024-10-15 11:19:47.375,65138.765,0.011,0.332,-0.943,-0.047,0.395,-0.176,0.755,-0.122,0.45,0.012,-0.338,0.325
2024-10-15 11:19:47.384,65138.775,0.012,0.327,-0.945,-0.048,-0.019,-0.363,0.285,-0.07,0.317,0.013,-0.333,0.329
2024-10-15 11:19:47.394,65138.785,0.01,0.329,-0.944,-0.138,-0.316,-0.36,-0.983,-0.377,0.412,0.011,-0.336,0.333
2024-10-15 11:19:47.404,65138.795,0.009,0.343,-0.939,-0.084,-0.498,-0.18,-1.727,-0.084,0.323,0.01,-0.35,0.337
2024-10-15 11:19:47.414,65138.805,0.011,0.355,-0.935,0.042,-0.503,0.172,-0.678,0.166,0.307,0.012,-0.363,0.341
2024-10-15 11:19:47.424,65138.815,0.011,0.354,-0.935,-0.164,-0.217,0.339,0.812,-0.427,0.349,0.012,-0.362,0.344
2024-10-15 11:19:47.434,65138.825,0.006,0.346,-0.938,-0.21,0.199,0.138,0.796,-0.686,0.258,0.007,-0.353,0.347
2024-10-15 11:19:47.444,65138.835,0.002,0.341,-0.94,0.19,0.07,-0.155,0.225,-0.202,-0.138,0.002,-0.348,0.348
2024-10-15 11:19:47.454,65138.845,0.001,0.34,-0.941,0.238,-0.323,-0.226,0.095,0.081,-0.124,0.001,-0.347,0.346
2024-10-15 11:19:47.464,65138.855,0.001,0.339,-0.941,-0.113,-0.508,-0.146,0.159,-0.012,-0.156,0.002,-0.345,0.345
2024-10-15 11:19:47.474,65138.865,-0.0,0.337,-0.941,-0.019,-0.448,-0.094,0.028,-0.132,-0.353,-0.0,-0.344,0.342
