Date,TimeStamp,GravityX,GravityY,GravityZ,UserAccelerationX,UserAccelerationY,UserAccelerationZ,RotationRateX,RotationRateY,RotationRateZ,AttitudeRoll,AttitudePitch,AttitudeYaw
2024-10-15 11:23:30.830,65362.208,-0.03,-0.378,-0.925,0.015,0.015,-0.01,0.053,-0.041,-0.005,-0.033,0.388,0.815
2024-10-15 11:23:30.842,65362.218,-0.03,-0.379,-0.925,0.036,0.016,-0.004,0.026,-0.015,0.005,-0.033,0.388,0.815
2024-10-15 11:23:30.844,65362.228,-0.031,-0.379,-0.925,0.005,-0.006,-0.007,0.005,0.004,0.01,-0.033,0.389,0.815
2024-10-15 11:23:30.847,65362.238,-0.031,-0.379,-0.925,-0.009,-0.007,-0.008,0.007,-0.001,-0.002,-0.033,0.389,0.815
2024-10-15 11:23:30.857,65362.248,-0.031,-0.379,-0.925,-0.001,-0.002,-0.011,0.008,0.004,-0.007,-0.033,0.389,0.815
2024-10-15 11:23:30.867,65362.258,-0.031,-0.379,-0.925,0.004,-0.0,-0.008,-0.002,0.012,-0.007,-0.033,0.389,0.815
2024-10-15 11:23:30.877,65362.268,-0.031,-0.379,-0.925,0.0,-0.006,-0.006,-0.01,0.022,-0.006,-0.033,0.389,0.815
2024-10-15 11:23:30.887,65362.278,-0.03,-0.379,-0.925,-0.004,-0.01,-0.007,0.001,0.029,-0.009,-0.033,0.389,0.815
2024-10-15 11:23:30.897,65362.288,-0.03,-0.379,-0.925,-0.003,-0.007,-0.004,0.009,0.027,-0.015,-0.032,0.389,0.815
2024-10-15 11:23:30.908,65362.298,-0.029,-0.379,-0.925,0.001,-0.002,-0.001,0.007,0.031,-0.017,-0.032,0.389,0.814
2024-10-15 11:23:30.917,65362.308,-0.029,-0.379,-0.925,0.001,-0.006,0.004,0.002,0.032,-0.021,-0.031,0.389,0.814
2024-10-15 11:23:30.928,65362.318,-0.029,-0.379,-0.925,-0.0,-0.008,0.004,0.003,0.027,-0.023,-0.031,0.389,0.814
2024-10-15 11:23:30.937,65362.328,-0.028,-0.379,-0.925,-0.0,-0.006,0.003,0.001,0.025,-0.027,-0.031,0.389,0.814
2024-10-15 11:23:30.947,65362.338,-0.028,-0.379,-0.925,0.001,-0.005,0.007,0.001,0.024,-0.029,-0.03,0.389,0.813
2024-10-15 11:23:30.958,65362.348,-0.028,-0.379,-0.925,-0.0,-0.004,0.008,0.004,0.018,-0.029,-0.03,0.389,0.813
2024-10-15 11:23:30.967,65362.358,-0.028,-0.379,-0.925,-0.002,-0.001,0.009,0.001,0.014,-0.03,-0.03,0.389,0.813
2024-10-15 11:23:30.978,65362.368,-0.027,-0.379,-0.925,-0.003,-0.001,0.012,-0.003,0.012,-0.028,-0.03,0.389,0.812
2024-10-15 11:23:30.987,65362.378,-0.027,-0.379,-0.925,-0.003,0.001,0.014,-0.009,0.013,-0.03,-0.029,0.389,0.812
2024-10-15 11:23:30.997,65362.388,-0.027,-0.379,-0.925,-0.006,-0.002,0.012,-0.016,0.014,-0.033,-0.029,0.389,0.812
2024-10-15 11:23:31.007,65362.398,-0.027,-0.379,-0.925,-0.009,-0.005,0.013,-0.019,0.015,-0.03,-0.029,0.389,0.811
2024-10-15 11:23:31.017,65362.408,-0.027,-0.379,-0.925,-0.009,-0.009,0.014,-0.026,0.01,-0.04,-0.029,0.389,0.811
2024-10-15 11:23:31.028,65362.418,-0.026,-0.379,-0.925,-0.009,-0.01,0.016,-0.04,0.012,-0.051,-0.028,0.388,0.811
2024-10-15 11:23:31.037,65362.428,-0.026,-0.378,-0.925,-0.011,-0.014,0.017,-0.058,0.008,-0.061,-0.028,0.388,0.81
2024-10-15 11:23:31.047,65362.437,-0.026,-0.378,-0.926,-0.017,-0.018,0.017,-0.077,0.016,-0.073,-0.028,0.387,0.809
2024-10-15 11:23:31.057,65362.447,-0.025,-0.377,-0.926,-0.021,-0.023,0.02,-0.092,0.03,-0.089,-0.027,0.387,0.808
2024-10-15 11:23:31.067,65362.457,-0.024,-0.376,-0.926,-0.024,-0.026,0.023,-0.072,0.039,-0.107,-0.026,0.386,0.807
2024-10-15 11:23:31.079,65362.467,-0.024,-0.376,-0.926,-0.03,-0.02,0.02,-0.024,0.029,-0.117,-0.026,0.385,0.806
2024-10-15 11:23:31.087,65362.477,-0.023,-0.376,-0.926,-0.031,-0.01,0.013,0.016,0.019,-0.131,-0.025,0.386,0.805
2024-10-15 11:23:31.097,65362.487,-0.023,-0.376,-0.926,-0.025,0.001,0.006,0.024,0.011,-0.14,-0.024,0.386,0.803
2024-10-15 11:23:31.107,65362.497,-0.022,-0.377,-0.926,-0.021,0.001,0.006,-0.001,0.007,-0.149,-0.024,0.386,0.802
2024-10-15 11:23:31.117,65362.507,-0.021,-0.377,-0.926,-0.024,-0.01,0.012,-0.042,0.016,-0.16,-0.023,0.386,0.8
2024-10-15 11:23:31.127,65362.517,-0.021,-0.376,-0.926,-0.027,-0.021,0.023,-0.065,0.022,-0.176,-0.022,0.386,0.798
2024-10-15 11:23:31.136,65362.527,-0.02,-0.376,-0.926,-0.029,-0.024,0.029,-0.076,0.029,-0.2,-0.022,0.385,0.796
2024-10-15 11:23:31.147,65362.537,-0.019,-0.375,-0.927,-0.032,-0.026,0.031,-0.084,0.04,-0.218,-0.021,0.385,0.794
2024-10-15 11:23:31.157,65362.547,-0.018,-0.375,-0.927,-0.036,-0.033,0.028,-0.086,0.044,-0.245,-0.019,0.384,0.792
2024-10-15 11:23:31.166,65362.557,-0.017,-0.374,-0.927,-0.043,-0.031,0.02,-0.079,0.046,-0.273,-0.018,0.383,0.789
2024-10-15 11:23:31.178,65362.567,-0.016,-0.373,-0.928,-0.045,-0.027,0.017,-0.101,0.061,-0.301,-0.017,0.383,0.786
2024-10-15 11:23:31.186,65362.577,-0.014,-0.372,-0.928,-0.047,-0.034,0.019,-0.13,0.083,-0.327,-0.015,0.382,0.783
2024-10-15 11:23:31.197,65362.587,-0.012,-0.371,-0.928,-0.047,-0.039,0.018,-0.158,0.113,-0.356,-0.013,0.38,0.779
2024-10-15 11:23:31.208,65362.597,-0.009,-0.37,-0.929,-0.05,-0.039,0.014,-0.172,0.156,-0.383,-0.01,0.379,0.775
2024-10-15 11:23:31.217,65362.607,-0.007,-0.368,-0.93,-0.051,-0.036,0.017,-0.194,0.153,-0.408,-0.007,0.377,0.771
2024-10-15 11:23:31.226,65362.617,-0.004,-0.367,-0.93,-0.052,-0.03,0.027,-0.229,0.152,-0.436,-0.004,0.376,0.766
2024-10-15 11:23:31.236,65362.627,-0.001,-0.364,-0.931,-0.042,-0.024,0.041,-0.314,0.157,-0.458,-0.001,0.373,0.762
2024-10-15 11:23:31.247,65362.637,0.002,-0.361,-0.933,-0.042,-0.029,0.05,-0.475,0.173,-0.484,0.002,0.369,0.757
2024-10-15 11:23:31.256,65362.647,0.006,-0.355,-0.935,-0.049,-0.04,0.055,-0.691,0.247,-0.522,0.006,0.363,0.751
2024-10-15 11:23:31.266,65362.657,0.01,-0.348,-0.938,-0.058,-0.059,0.045,-0.924,0.311,-0.564,0.011,0.355,0.746
2024-10-15 11:23:31.276,65362.667,0.016,-0.338,-0.941,-0.08,-0.069,0.014,-1.149,0.345,-0.609,0.016,0.345,0.739
2024-10-15 11:23:31.286,65362.677,0.021,-0.326,-0.945,-0.087,-0.065,0.008,-1.401,0.38,-0.668,0.022,0.332,0.733
2024-10-15 11:23:31.296,65362.687,0.027,-0.311,-0.95,-0.08,-0.069,0.027,-1.632,0.433,-0.735,0.029,0.316,0.726
2024-10-15 11:23:31.306,65362.697,0.034,-0.294,-0.955,-0.084,-0.082,0.052,-1.864,0.472,-0.782,0.035,0.299,0.719
2024-10-15 11:23:31.316,65362.707,0.041,-0.275,-0.961,-0.103,-0.087,0.076,-2.101,0.521,-0.846,0.042,0.279,0.711
2024-10-15 11:23:31.327,65362.717,0.048,-0.253,-0.966,-0.106,-0.084,0.092,-2.34,0.561,-0.906,0.05,0.256,0.703
2024-10-15 11:23:31.346,65362.727,0.056,-0.229,-0.972,-0.114,-0.087,0.083,-2.6,0.598,-0.946,0.058,0.231,0.703
2024-10-15 11:23:31.352,65362.737,0.065,-0.202,-0.977,-0.128,-0.089,0.08,-2.863,0.688,-1.012,0.066,0.203,0.695
2024-10-15 11:23:31.357,65362.747,0.074,-0.172,-0.982,-0.134,-0.107,0.072,-3.064,0.794,-1.068,0.075,0.173,0.686
2024-10-15 11:23:31.366,65362.757,0.084,-0.14,-0.987,-0.152,-0.125,0.057,-3.173,0.871,-1.087,0.085,0.141,0.678
2024-10-15 11:23:31.376,65362.767,0.094,-0.108,-0.99,-0.159,-0.115,0.051,-3.221,0.897,-1.102,0.094,0.108,0.67
2024-10-15 11:23:31.386,65362.777,0.104,-0.075,-0.992,-0.142,-0.088,0.052,-3.234,0.912,-1.141,0.104,0.075,0.662
2024-10-15 11:23:31.397,65362.787,0.114,-0.042,-0.993,-0.121,-0.08,0.061,-3.249,0.923,-1.156,0.114,0.042,0.654
2024-10-15 11:23:31.407,65362.797,0.123,-0.008,-0.992,-0.112,-0.091,0.06,-3.286,0.922,-1.148,0.123,0.008,0.646
2024-10-15 11:23:31.417,65362.807,0.132,0.026,-0.991,-0.112,-0.101,0.052,-3.329,0.925,-1.136,0.132,-0.026,0.639
2024-10-15 11:23:31.427,65362.817,0.141,0.061,-0.988,-0.109,-0.119,0.056,-3.383,0.934,-1.126,0.141,-0.061,0.632
2024-10-15 11:23:31.437,65362.827,0.149,0.096,-0.984,-0.107,-0.122,0.058,-3.418,0.95,-1.115,0.15,-0.096,0.626
2024-10-15 11:23:31.447,65362.837,0.157,0.132,-0.979,-0.109,-0.108,0.062,-3.429,0.954,-1.09,0.159,-0.132,0.621
2024-10-15 11:23:31.457,65362.847,0.165,0.167,-0.972,-0.105,-0.095,0.063,-3.435,0.949,-1.086,0.168,-0.167,0.615
2024-10-15 11:23:31.467,65362.857,0.172,0.202,-0.964,-0.096,-0.08,0.068,-3.388,0.948,-1.087,0.176,-0.203,0.61
2024-10-15 11:23:31.477,65362.867,0.179,0.235,-0.955,-0.085,-0.084,0.047,-3.272,0.93,-1.07,0.185,-0.238,0.606
2024-10-15 11:23:31.487,65362.877,0.185,0.268,-0.946,-0.089,-0.07,0.017,-3.108,0.901,-1.06,0.193,-0.271,0.601
2024-10-15 11:23:31.496,65362.887,0.19,0.298,-0.936,-0.093,-0.052,0.024,-2.917,0.862,-1.04,0.2,-0.302,0.597
2024-10-15 11:23:31.507,65362.897,0.194,0.326,-0.925,-0.08,-0.056,0.036,-2.719,0.803,-1.036,0.207,-0.332,0.592
2024-10-15 11:23:31.516,65362.907,0.198,0.352,-0.915,-0.064,-0.046,0.036,-2.584,0.708,-1.005,0.213,-0.36,0.587
2024-10-15 11:23:31.527,65362.917,0.2,0.378,-0.904,-0.049,-0.046,0.035,-2.605,0.612,-0.972,0.218,-0.387,0.583
2024-10-15 11:23:31.536,65362.927,0.202,0.404,-0.892,-0.032,-0.064,0.05,-2.725,0.575,-0.967,0.222,-0.415,0.579
2024-10-15 11:23:31.546,65362.937,0.203,0.43,-0.88,-0.017,-0.09,0.085,-2.865,0.541,-0.962,0.227,-0.445,0.575
2024-10-15 11:23:31.556,65362.947,0.203,0.458,-0.866,-0.013,-0.106,0.096,-2.952,0.517,-0.952,0.231,-0.475,0.572
2024-10-15 11:23:31.566,65362.957,0.203,0.485,-0.851,-0.016,-0.101,0.098,-2.917,0.482,-0.955,0.234,-0.506,0.569
2024-10-15 11:23:31.576,65362.967,0.202,0.511,-0.836,-0.014,-0.068,0.089,-2.825,0.391,-0.933,0.237,-0.536,0.566
2024-10-15 11:23:31.586,65362.977,0.2,0.535,-0.821,-0.008,-0.033,0.068,-2.664,0.313,-0.913,0.239,-0.565,0.564
2024-10-15 11:23:31.597,65362.987,0.197,0.558,-0.806,0.009,-0.003,0.057,-2.461,0.263,-0.895,0.24,-0.592,0.56
2024-10-15 11:23:31.606,65362.997,0.194,0.578,-0.792,0.005,0.014,0.041,-2.183,0.253,-0.886,0.241,-0.617,0.557
2024-10-15 11:23:31.616,65363.007,0.191,0.596,-0.78,-0.01,0.019,0.036,-1.941,0.227,-0.864,0.24,-0.639,0.552
2024-10-15 11:23:31.626,65363.017,0.188,0.612,-0.768,-0.015,0.017,0.026,-1.72,0.181,-0.854,0.239,-0.658,0.547
2024-10-15 11:23:31.636,65363.026,0.183,0.626,-0.758,0.0,0.024,0.031,-1.526,0.115,-0.853,0.237,-0.676,0.541
2024-10-15 11:23:31.646,65363.036,0.179,0.638,-0.749,0.024,0.021,0.025,-1.375,0.027,-0.859,0.234,-0.692,0.535
2024-10-15 11:23:31.656,65363.046,0.173,0.649,-0.741,0.037,0.027,0.03,-1.196,-0.019,-0.784,0.23,-0.707,0.528
2024-10-15 11:23:31.666,65363.056,0.168,0.659,-0.734,0.042,0.029,0.033,-0.97,-0.059,-0.677,0.225,-0.719,0.522
2024-10-15 11:23:31.676,65363.066,0.163,0.666,-0.728,0.046,0.058,0.034,-0.685,-0.071,-0.643,0.221,-0.728,0.516
2024-10-15 11:23:31.686,65363.076,0.159,0.671,-0.725,0.036,0.118,0.034,-0.42,-0.075,-0.631,0.215,-0.735,0.509
2024-10-15 11:23:31.696,65363.086,0.154,0.674,-0.722,0.028,0.128,0.033,-0.273,-0.124,-0.579,0.21,-0.74,0.502
2024-10-15 11:23:31.706,65363.096,0.149,0.677,-0.721,0.039,0.134,0.016,-0.193,-0.2,-0.549,0.203,-0.743,0.496
2024-10-15 11:23:31.716,65363.106,0.144,0.679,-0.72,0.066,0.103,0.021,-0.295,-0.258,-0.525,0.197,-0.746,0.489
2024-10-15 11:23:31.726,65363.116,0.138,0.683,-0.718,0.084,0.046,0.037,-0.499,-0.313,-0.492,0.19,-0.751,0.483
2024-10-15 11:23:31.736,65363.126,0.132,0.688,-0.714,0.085,0.032,0.064,-0.796,-0.345,-0.445,0.184,-0.758,0.479
2024-10-15 11:23:31.746,65363.136,0.127,0.695,-0.708,0.077,0.018,0.065,-1.073,-0.346,-0.413,0.178,-0.768,0.475
2024-10-15 11:23:31.756,65363.146,0.122,0.704,-0.7,0.07,0.011,0.071,-1.179,-0.319,-0.396,0.172,-0.78,0.472
2024-10-15 11:23:31.766,65363.156,0.117,0.712,-0.692,0.069,0.022,0.064,-1.099,-0.281,-0.381,0.167,-0.792,0.47
2024-10-15 11:23:31.776,65363.166,0.113,0.719,-0.685,0.067,0.041,0.042,-0.922,-0.257,-0.364,0.163,-0.803,0.467
2024-10-15 11:23:31.786,65363.176,0.108,0.725,-0.68,0.068,0.084,0.026,-0.723,-0.268,-0.354,0.158,-0.812,0.464
2024-10-15 11:23:31.796,65363.186,0.104,0.73,-0.675,0.084,0.118,0.017,-0.558,-0.271,-0.327,0.153,-0.818,0.46
2024-10-15 11:23:31.807,65363.196,0.1,0.734,-0.672,0.109,0.116,0.009,-0.395,-0.259,-0.297,0.147,-0.824,0.457
2024-10-15 11:23:31.816,65363.206,0.096,0.736,-0.67,0.117,0.107,-0.007,-0.219,-0.261,-0.267,0.142,-0.827,0.453
2024-10-15 11:23:31.827,65363.216,0.092,0.737,-0.669,0.109,0.09,-0.016,-0.097,-0.264,-0.24,0.137,-0.829,0.45
2024-10-15 11:23:31.836,65363.226,0.089,0.738,-0.669,0.101,0.068,-0.013,0.002,-0.268,-0.214,0.132,-0.83,0.447
2024-10-15 11:23:31.847,65363.236,0.086,0.738,-0.67,0.105,0.068,-0.003,0.076,-0.294,-0.181,0.127,-0.829,0.444
2024-10-15 11:23:31.856,65363.246,0.083,0.737,-0.671,0.105,0.077,0.007,0.132,-0.265,-0.117,0.123,-0.829,0.441
2024-10-15 11:23:31.866,65363.256,0.081,0.736,-0.672,0.107,0.096,0.027,0.248,-0.178,-0.027,0.119,-0.827,0.44
2024-10-15 11:23:31.876,65363.266,0.08,0.734,-0.675,0.11,0.124,-0.0,0.358,-0.116,-0.002,0.117,-0.824,0.439
2024-10-15 11:23:31.886,65363.276,0.079,0.731,-0.678,0.099,0.19,-0.062,0.437,-0.069,0.02,0.116,-0.82,0.439
2024-10-15 11:23:31.896,65363.286,0.079,0.728,-0.681,0.093,0.207,-0.105,0.409,-0.027,0.067,0.115,-0.816,0.439
2024-10-15 11:23:31.906,65363.296,0.079,0.726,-0.683,0.106,0.157,-0.141,0.277,-0.01,0.076,0.116,-0.812,0.439
2024-10-15 11:23:31.916,65363.306,0.08,0.724,-0.685,0.107,0.092,-0.163,0.099,0.017,0.108,0.116,-0.81,0.44
2024-10-15 11:23:31.926,65363.316,0.081,0.724,-0.685,0.086,0.02,-0.173,0.02,0.04,0.123,0.118,-0.809,0.442
2024-10-15 11:23:31.936,65363.326,0.082,0.724,-0.685,0.062,-0.006,-0.183,-0.02,0.043,0.134,0.12,-0.809,0.444
2024-10-15 11:23:31.946,65363.336,0.084,0.724,-0.685,0.035,0.002,-0.169,0.025,0.047,0.161,0.122,-0.809,0.446
2024-10-15 11:23:31.956,65363.346,0.085,0.723,-0.685,0.019,0.039,-0.11,0.113,0.019,0.156,0.123,-0.808,0.448
2024-10-15 11:23:31.966,65363.356,0.086,0.722,-0.687,0.016,0.049,-0.048,0.169,-0.026,0.122,0.125,-0.807,0.45
2024-10-15 11:23:31.976,65363.366,0.086,0.721,-0.688,0.023,0.032,0.011,0.23,-0.08,0.071,0.125,-0.805,0.451
2024-10-15 11:23:31.985,65363.376,0.086,0.719,-0.69,0.025,0.009,0.061,0.313,-0.104,0.032,0.124,-0.802,0.451
2024-10-15 11:23:31.996,65363.386,0.085,0.716,-0.693,0.019,-0.018,0.087,0.436,-0.123,0.007,0.123,-0.798,0.451
2024-10-15 11:23:32.006,65363.396,0.084,0.713,-0.697,0.007,-0.023,0.104,0.595,-0.156,-0.018,0.121,-0.793,0.45
2024-10-15 11:23:32.016,65363.406,0.083,0.708,-0.701,0.0,-0.016,0.105,0.609,-0.211,-0.056,0.118,-0.787,0.448
2024-10-15 11:23:32.026,65363.416,0.081,0.704,-0.705,0.004,-0.019,0.106,0.525,-0.225,-0.06,0.114,-0.781,0.446
2024-10-15 11:23:32.036,65363.426,0.079,0.701,-0.709,0.007,-0.052,0.085,0.417,-0.217,-0.022,0.111,-0.777,0.445
2024-10-15 11:23:32.046,65363.436,0.078,0.698,-0.712,-0.008,-0.092,0.056,0.362,-0.203,0.016,0.109,-0.773,0.444
2024-10-15 11:23:32.056,65363.446,0.076,0.696,-0.714,-0.018,-0.052,0.052,0.396,-0.204,0.011,0.106,-0.769,0.444
2024-10-15 11:23:32.065,65363.456,0.075,0.693,-0.717,-0.021,0.03,0.049,0.414,-0.155,0.0,0.104,-0.765,0.443
2024-10-15 11:23:32.075,65363.466,0.074,0.69,-0.72,-0.027,0.085,0.038,0.412,-0.104,-0.028,0.102,-0.761,0.443
2024-10-15 11:23:32.085,65363.476,0.073,0.687,-0.723,-0.039,0.12,0.032,0.318,-0.073,-0.049,0.101,-0.758,0.442
2024-10-15 11:23:32.095,65363.486,0.072,0.685,-0.725,-0.048,0.113,0.037,0.214,-0.027,-0.055,0.1,-0.755,0.441
2024-10-15 11:23:32.106,65363.496,0.072,0.684,-0.726,-0.047,0.073,0.043,0.091,-0.006,-0.056,0.099,-0.753,0.44
2024-10-15 11:23:32.115,65363.506,0.072,0.684,-0.726,-0.045,0.024,0.033,0.003,0.012,-0.04,0.098,-0.753,0.439
2024-10-15 11:23:32.125,65363.516,0.071,0.684,-0.726,-0.033,-0.006,0.054,-0.028,0.019,-0.049,0.098,-0.753,0.438
2024-10-15 11:23:32.135,65363.526,0.071,0.684,-0.726,-0.018,-0.023,0.071,-0.043,-0.002,-0.046,0.098,-0.754,0.438
2024-10-15 11:23:32.145,65363.536,0.071,0.685,-0.726,-0.004,-0.027,0.087,0.009,-0.029,-0.038,0.097,-0.754,0.437
2024-10-15 11:23:32.155,65363.546,0.07,0.684,-0.726,0.017,-0.015,0.101,0.131,-0.028,-0.029,0.096,-0.753,0.437
2024-10-15 11:23:32.166,65363.556,0.07,0.683,-0.727,0.019,-0.007,0.091,0.259,-0.035,-0.014,0.096,-0.751,0.436
2024-10-15 11:23:32.175,65363.566,0.069,0.68,-0.73,0.013,0.009,0.071,0.363,-0.05,-0.007,0.095,-0.748,0.435
2024-10-15 11:23:32.185,65363.576,0.069,0.678,-0.732,0.014,0.029,0.035,0.426,-0.059,0.001,0.094,-0.744,0.435
2024-10-15 11:23:32.195,65363.586,0.069,0.674,-0.735,0.016,0.037,0.02,0.439,-0.059,0.019,0.093,-0.74,0.434
2024-10-15 11:23:32.205,65363.596,0.068,0.671,-0.738,0.024,0.014,0.025,0.376,-0.04,0.019,0.092,-0.736,0.434
2024-10-15 11:23:32.215,65363.606,0.068,0.669,-0.74,0.03,-0.015,0.019,0.351,-0.012,0.04,0.092,-0.732,0.434
2024-10-15 11:23:32.225,65363.616,0.069,0.666,-0.743,0.027,-0.032,0.007,0.354,-0.007,0.061,0.092,-0.729,0.434
2024-10-15 11:23:32.236,65363.625,0.069,0.663,-0.745,0.024,0.013,-0.003,0.391,-0.023,0.069,0.092,-0.725,0.435
2024-10-15 11:23:32.245,65363.635,0.069,0.66,-0.748,0.022,0.08,0.008,0.394,-0.031,0.079,0.093,-0.721,0.435
2024-10-15 11:23:32.255,65363.645,0.07,0.658,-0.75,0.025,0.095,0.019,0.376,-0.061,0.077,0.093,-0.718,0.436
2024-10-15 11:23:32.265,65363.655,0.07,0.655,-0.752,0.029,0.062,0.013,0.279,-0.047,0.11,0.093,-0.714,0.437
2024-10-15 11:23:32.275,65363.665,0.07,0.653,-0.754,0.024,0.017,0.011,0.264,0.013,0.106,0.093,-0.712,0.438
2024-10-15 11:23:32.285,65363.675,0.071,0.651,-0.756,0.019,0.022,0.022,0.226,0.055,0.077,0.094,-0.709,0.439
2024-10-15 11:23:32.295,65363.685,0.072,0.65,-0.757,0.008,0.027,0.001,0.165,0.079,0.057,0.095,-0.707,0.44
2024-10-15 11:23:32.305,65363.695,0.073,0.649,-0.758,0.017,0.004,0.011,0.097,0.104,0.029,0.096,-0.706,0.44
2024-10-15 11:23:32.315,65363.705,0.074,0.648,-0.758,0.037,-0.056,0.013,0.034,0.128,0.026,0.098,-0.705,0.44
2024-10-15 11:23:32.325,65363.715,0.075,0.648,-0.758,0.042,-0.088,0.011,0.05,0.161,0.005,0.099,-0.705,0.44
2024-10-15 11:23:32.335,65363.725,0.077,0.647,-0.758,0.037,-0.046,-0.001,0.076,0.155,-0.024,0.101,-0.704,0.44
2024-10-15 11:23:32.345,65363.735,0.077,0.647,-0.759,0.031,-0.021,-0.029,0.077,0.112,-0.018,0.102,-0.703,0.44
2024-10-15 11:23:32.355,65363.745,0.078,0.646,-0.759,0.037,-0.028,-0.029,0.084,0.074,0.018,0.103,-0.703,0.44
2024-10-15 11:23:32.365,65363.755,0.079,0.645,-0.76,0.052,-0.036,-0.018,0.139,0.052,0.055,0.103,-0.701,0.44
2024-10-15 11:23:32.375,65363.765,0.079,0.644,-0.761,0.05,-0.008,-0.008,0.176,0.008,0.056,0.104,-0.7,0.44
2024-10-15 11:23:32.385,65363.775,0.08,0.642,-0.762,0.047,0.051,0.017,0.256,0.009,0.042,0.104,-0.698,0.441
2024-10-15 11:23:32.394,65363.785,0.08,0.64,-0.764,0.048,0.077,0.037,0.336,0.001,0.054,0.105,-0.695,0.441
2024-10-15 11:23:32.405,65363.795,0.081,0.637,-0.766,0.036,0.074,0.039,0.391,-0.006,0.044,0.105,-0.691,0.441
2024-10-15 11:23:32.415,65363.805,0.081,0.634,-0.769,0.034,0.088,0.044,0.353,0.007,0.013,0.105,-0.687,0.441
2024-10-15 11:23:32.425,65363.815,0.081,0.632,-0.771,0.031,0.071,0.025,0.259,-0.014,0.023,0.105,-0.684,0.441
2024-10-15 11:23:32.435,65363.825,0.081,0.63,-0.772,0.027,0.019,-0.005,0.116,-0.04,0.022,0.104,-0.682,0.441
2024-10-15 11:23:32.445,65363.835,0.081,0.63,-0.772,0.027,-0.034,-0.021,-0.128,-0.062,0.055,0.104,-0.682,0.442
2024-10-15 11:23:32.455,65363.845,0.081,0.632,-0.771,0.013,-0.087,-0.026,-0.292,-0.034,0.124,0.105,-0.684,0.443
2024-10-15 11:23:32.465,65363.855,0.082,0.634,-0.769,0.001,-0.075,-0.029,-0.361,-0.005,0.095,0.106,-0.687,0.445
2024-10-15 11:23:32.475,65363.865,0.082,0.637,-0.766,-0.034,-0.005,-0.039,-0.291,-0.002,0.066,0.107,-0.691,0.446
2024-10-15 11:23:32.485,65363.875,0.082,0.639,-0.765,-0.061,0.026,-0.028,-0.209,-0.02,0.059,0.107,-0.693,0.448
2024-10-15 11:23:32.495,65363.885,0.083,0.641,-0.763,-0.048,0.011,-0.032,-0.251,-0.044,0.019,0.108,-0.695,0.449
2024-10-15 11:23:32.504,65363.895,0.082,0.643,-0.761,-0.033,-0.012,-0.018,-0.441,-0.058,-0.034,0.107,-0.699,0.449
2024-10-15 11:23:32.514,65363.905,0.081,0.647,-0.758,-0.026,-0.053,0.016,-0.546,-0.051,-0.042,0.107,-0.704,0.449
2024-10-15 11:23:32.524,65363.915,0.081,0.651,-0.754,-0.03,-0.133,0.003,-0.566,-0.083,-0.033,0.107,-0.71,0.449
2024-10-15 11:23:32.534,65363.925,0.08,0.656,-0.751,-0.05,-0.159,-0.031,-0.551,-0.134,0.015,0.106,-0.715,0.45
2024-10-15 11:23:32.544,65363.935,0.079,0.66,-0.747,-0.057,-0.092,-0.014,-0.508,-0.16,0.039,0.105,-0.72,0.451
2024-10-15 11:23:32.555,65363.945,0.078,0.663,-0.745,-0.046,-0.022,0.002,-0.404,-0.182,0.023,0.104,-0.725,0.452
2024-10-15 11:23:32.565,65363.955,0.077,0.665,-0.743,-0.041,0.024,0.009,-0.214,-0.185,0.029,0.103,-0.728,0.453
2024-10-15 11:23:32.575,65363.965,0.076,0.666,-0.742,-0.047,0.043,0.016,-0.069,-0.19,0.045,0.101,-0.729,0.454
2024-10-15 11:23:32.585,65363.975,0.074,0.666,-0.742,-0.041,0.056,0.024,0.05,-0.176,0.035,0.1,-0.729,0.454
2024-10-15 11:23:32.595,65363.985,0.073,0.666,-0.743,-0.029,0.064,0.034,0.152,-0.171,0.029,0.099,-0.728,0.455
2024-10-15 11:23:32.604,65363.995,0.072,0.664,-0.744,-0.027,0.05,0.034,0.21,-0.178,0.015,0.097,-0.726,0.455
2024-10-15 11:23:32.614,65364.005,0.071,0.662,-0.746,-0.014,0.046,0.039,0.233,-0.188,-0.0,0.095,-0.724,0.454
2024-10-15 11:23:32.624,65364.015,0.07,0.661,-0.747,0.003,0.042,0.059,0.246,-0.154,-0.001,0.093,-0.722,0.454
2024-10-15 11:23:32.634,65364.025,0.069,0.659,-0.749,0.012,0.01,0.072,0.34,-0.072,-0.002,0.092,-0.719,0.454
2024-10-15 11:23:32.644,65364.035,0.068,0.656,-0.752,0.011,-0.013,0.057,0.428,-0.068,-0.011,0.091,-0.715,0.453
2024-10-15 11:23:32.654,65364.045,0.068,0.652,-0.755,0.008,0.003,0.041,0.441,-0.097,-0.033,0.089,-0.711,0.452
2024-10-15 11:23:32.665,65364.055,0.067,0.649,-0.758,0.036,0.007,0.05,0.376,-0.111,-0.043,0.088,-0.707,0.451
2024-10-15 11:23:32.675,65364.065,0.065,0.647,-0.76,0.067,-0.025,0.046,0.282,-0.096,-0.041,0.086,-0.703,0.451
2024-10-15 11:23:32.685,65364.075,0.065,0.645,-0.762,0.069,-0.045,0.034,0.223,-0.054,-0.041,0.085,-0.701,0.45
2024-10-15 11:23:32.694,65364.085,0.064,0.643,-0.763,0.054,-0.035,0.036,0.176,-0.048,-0.05,0.084,-0.699,0.449
2024-10-15 11:23:32.705,65364.095,0.063,0.642,-0.764,0.052,-0.02,0.03,0.136,-0.043,-0.09,0.083,-0.697,0.448
2024-10-15 11:23:32.715,65364.105,0.062,0.641,-0.765,0.061,-0.004,0.011,0.107,-0.004,-0.116,0.081,-0.696,0.446
2024-10-15 11:23:32.724,65364.115,0.062,0.641,-0.765,0.053,-0.012,-0.019,0.103,0.033,-0.054,0.081,-0.695,0.445
2024-10-15 11:23:32.734,65364.125,0.062,0.64,-0.766,0.04,-0.047,-0.05,0.139,0.023,0.01,0.081,-0.694,0.445
2024-10-15 11:23:32.745,65364.135,0.062,0.639,-0.767,0.036,-0.036,-0.056,0.19,-0.004,0.076,0.081,-0.693,0.445
2024-10-15 11:23:32.755,65364.145,0.063,0.637,-0.768,0.033,0.022,-0.033,0.234,-0.006,0.1,0.082,-0.69,0.446
2024-10-15 11:23:32.764,65364.155,0.063,0.635,-0.77,0.026,0.079,0.001,0.255,0.009,0.107,0.082,-0.688,0.447
2024-10-15 11:23:32.774,65364.165,0.064,0.633,-0.771,0.005,0.086,0.018,0.217,0.02,0.124,0.083,-0.685,0.448
2024-10-15 11:23:32.784,65364.175,0.065,0.631,-0.773,-0.013,0.054,0.016,0.204,0.039,0.145,0.084,-0.683,0.45
2024-10-15 11:23:32.794,65364.185,0.067,0.629,-0.774,-0.018,0.033,0.022,0.339,0.046,0.154,0.086,-0.681,0.452
2024-10-15 11:23:32.804,65364.195,0.068,0.626,-0.777,-0.02,0.049,0.037,0.574,0.022,0.153,0.087,-0.676,0.453
2024-10-15 11:23:32.814,65364.205,0.069,0.62,-0.782,-0.025,0.102,0.036,0.852,-0.051,0.176,0.088,-0.669,0.454
2024-10-15 11:23:32.825,65364.215,0.069,0.612,-0.787,-0.02,0.145,0.021,1.001,-0.171,0.196,0.088,-0.659,0.456
2024-10-15 11:23:32.834,65364.224,0.069,0.604,-0.794,-0.005,0.13,0.006,0.962,-0.227,0.204,0.087,-0.649,0.457
2024-10-15 11:23:32.844,65364.234,0.068,0.597,-0.799,0.001,0.056,0.015,0.835,-0.204,0.218,0.085,-0.64,0.459
2024-10-15 11:23:32.854,65364.244,0.068,0.591,-0.804,-0.017,-0.016,0.017,0.669,-0.178,0.243,0.085,-0.632,0.461
2024-10-15 11:23:32.864,65364.254,0.068,0.586,-0.807,-0.043,-0.034,0.007,0.521,-0.146,0.218,0.084,-0.626,0.463
2024-10-15 11:23:32.875,65364.264,0.068,0.582,-0.81,-0.047,-0.029,0.012,0.382,-0.143,0.183,0.084,-0.622,0.465
2024-10-15 11:23:32.884,65364.274,0.068,0.58,-0.812,-0.036,-0.042,0.014,0.257,-0.154,0.146,0.084,-0.618,0.467
2024-10-15 11:23:32.894,65364.284,0.068,0.578,-0.813,-0.016,-0.057,0.022,0.179,-0.149,0.123,0.083,-0.616,0.468
2024-10-15 11:23:32.904,65364.294,0.067,0.576,-0.814,-0.006,-0.065,0.019,0.168,-0.139,0.091,0.082,-0.614,0.469
2024-10-15 11:23:32.914,65364.304,0.066,0.575,-0.815,-0.009,-0.047,0.003,0.126,-0.151,0.044,0.081,-0.613,0.47
2024-10-15 11:23:32.924,65364.314,0.065,0.574,-0.816,-0.011,-0.024,-0.008,0.025,-0.144,0.011,0.08,-0.612,0.47
2024-10-15 11:23:32.934,65364.324,0.064,0.575,-0.816,-0.008,-0.04,0.001,-0.093,-0.104,0.021,0.078,-0.612,0.47
2024-10-15 11:23:32.944,65364.334,0.064,0.576,-0.815,-0.004,-0.076,0.012,-0.114,-0.055,0.004,0.078,-0.613,0.471
2024-10-15 11:23:32.954,65364.344,0.063,0.576,-0.815,-0.014,-0.059,0.012,-0.063,-0.036,-0.015,0.077,-0.614,0.471
2024-10-15 11:23:32.964,65364.354,0.063,0.577,-0.815,-0.022,-0.026,-0.0,-0.047,-0.073,-0.022,0.077,-0.615,0.47
2024-10-15 11:23:32.974,65364.364,0.062,0.577,-0.814,-0.011,-0.025,-0.017,-0.068,-0.111,-0.014,0.076,-0.615,0.47
2024-10-15 11:23:32.984,65364.374,0.061,0.578,-0.814,0.004,-0.032,-0.013,-0.069,-0.11,0.035,0.075,-0.616,0.47
2024-10-15 11:23:32.994,65364.384,0.06,0.578,-0.814,-0.002,-0.019,0.007,-0.042,-0.092,0.07,0.074,-0.617,0.471
2024-10-15 11:23:33.004,65364.394,0.06,0.578,-0.814,-0.021,0.029,0.037,-0.032,-0.108,0.084,0.074,-0.617,0.472
2024-10-15 11:23:33.014,65364.404,0.06,0.579,-0.813,-0.031,0.062,0.054,-0.076,-0.136,0.086,0.073,-0.617,0.473
2024-10-15 11:23:33.024,65364.414,0.059,0.579,-0.813,-0.019,0.056,0.061,-0.043,-0.097,0.086,0.073,-0.618,0.474
2024-10-15 11:23:33.034,65364.424,0.059,0.579,-0.813,-0.013,0.041,0.055,0.019,-0.099,0.105,0.072,-0.618,0.475
2024-10-15 11:23:33.044,65364.434,0.059,0.578,-0.814,-0.017,0.047,0.016,0.124,-0.117,0.09,0.072,-0.617,0.477
2024-10-15 11:23:33.054,65364.444,0.058,0.577,-0.815,-0.008,0.074,0.003,0.267,-0.122,0.077,0.071,-0.615,0.477
2024-10-15 11:23:33.064,65364.454,0.057,0.574,-0.817,-0.001,0.064,-0.011,0.374,-0.144,0.062,0.07,-0.611,0.478
2024-10-15 11:23:33.074,65364.464,0.057,0.57,-0.819,0.004,0.047,-0.019,0.456,-0.161,0.081,0.069,-0.607,0.479
2024-10-15 11:23:33.084,65364.474,0.056,0.567,-0.822,0.005,0.019,-0.009,0.436,-0.197,0.087,0.067,-0.603,0.479
2024-10-15 11:23:33.094,65364.484,0.054,0.564,-0.824,0.007,-0.03,-0.014,0.31,-0.211,0.101,0.066,-0.599,0.48
2024-10-15 11:23:33.104,65364.494,0.053,0.562,-0.826,0.008,-0.069,-0.005,0.18,-0.201,0.138,0.064,-0.597,0.481
2024-10-15 11:23:33.114,65364.504,0.052,0.561,-0.826,0.0,-0.05,0.004,0.098,-0.187,0.152,0.063,-0.595,0.483
2024-10-15 11:23:33.124,65364.514,0.052,0.56,-0.827,-0.011,0.014,0.019,0.046,-0.198,0.135,0.062,-0.595,0.485
2024-10-15 11:23:33.134,65364.524,0.051,0.56,-0.827,-0.016,0.057,0.049,0.019,-0.217,0.115,0.061,-0.594,0.486
2024-10-15 11:23:33.143,65364.534,0.049,0.56,-0.827,-0.007,0.049,0.068,0.023,-0.237,0.123,0.06,-0.594,0.487
2024-10-15 11:23:33.153,65364.544,0.048,0.559,-0.828,-0.002,0.022,0.088,0.166,-0.234,0.162,0.058,-0.593,0.489
2024-10-15 11:23:33.163,65364.554,0.047,0.557,-0.829,0.002,0.018,0.084,0.442,-0.241,0.204,0.057,-0.59,0.491
2024-10-15 11:23:33.173,65364.564,0.046,0.552,-0.833,0.003,0.04,0.039,0.706,-0.318,0.222,0.056,-0.584,0.493
2024-10-15 11:23:33.183,65364.574,0.045,0.545,-0.837,0.013,0.089,-0.012,0.869,-0.367,0.202,0.053,-0.576,0.495
2024-10-15 11:23:33.194,65364.584,0.043,0.537,-0.842,0.024,0.128,-0.041,0.911,-0.33,0.208,0.051,-0.567,0.497
2024-10-15 11:23:33.204,65364.594,0.041,0.53,-0.847,0.009,0.112,-0.058,0.897,-0.261,0.214,0.049,-0.558,0.499
2024-10-15 11:23:33.214,65364.604,0.041,0.522,-0.852,-0.018,0.093,-0.06,0.885,-0.213,0.226,0.048,-0.549,0.501
2024-10-15 11:23:33.224,65364.614,0.04,0.515,-0.856,-0.03,0.075,-0.032,0.828,-0.245,0.25,0.046,-0.541,0.503
2024-10-15 11:23:33.234,65364.624,0.039,0.508,-0.86,-0.012,0.044,0.007,0.672,-0.3,0.249,0.045,-0.533,0.506
2024-10-15 11:23:33.244,65364.634,0.037,0.503,-0.863,0.011,0.008,0.049,0.408,-0.323,0.243,0.043,-0.527,0.509
2024-10-15 11:23:33.254,65364.644,0.036,0.501,-0.865,0.006,-0.031,0.074,0.089,-0.321,0.24,0.041,-0.525,0.511
2024-10-15 11:23:33.264,65364.654,0.034,0.501,-0.865,-0.018,-0.051,0.077,-0.143,-0.298,0.224,0.04,-0.525,0.514
2024-10-15 11:23:33.274,65364.664,0.033,0.503,-0.864,-0.043,-0.047,0.063,-0.186,-0.263,0.21,0.038,-0.527,0.516
2024-10-15 11:23:33.283,65364.674,0.032,0.504,-0.863,-0.059,-0.017,0.044,-0.076,-0.259,0.21,0.037,-0.528,0.519
2024-10-15 11:23:33.294,65364.684,0.031,0.504,-0.863,-0.058,0.03,0.015,0.11,-0.296,0.26,0.035,-0.528,0.522
2024-10-15 11:23:33.304,65364.694,0.029,0.502,-0.864,-0.042,0.068,-0.009,0.274,-0.384,0.321,0.034,-0.526,0.525
2024-10-15 11:23:33.313,65364.704,0.027,0.499,-0.866,-0.017,0.108,-0.021,0.349,-0.451,0.356,0.031,-0.523,0.529
2024-10-15 11:23:33.323,65364.714,0.025,0.496,-0.868,-0.001,0.137,-0.004,0.35,-0.482,0.38,0.029,-0.519,0.533
2024-10-15 11:23:33.333,65364.724,0.023,0.493,-0.87,-0.002,0.083,0.028,0.237,-0.528,0.446,0.026,-0.516,0.537
2024-10-15 11:23:33.344,65364.734,0.02,0.492,-0.87,0.0,0.0,0.042,0.019,-0.573,0.506,0.023,-0.514,0.543
2024-10-15 11:23:33.353,65364.744,0.018,0.493,-0.87,0.015,-0.031,0.048,-0.18,-0.594,0.534,0.02,-0.515,0.549
2024-10-15 11:23:33.363,65364.754,0.015,0.495,-0.869,0.021,-0.019,0.048,-0.301,-0.585,0.514,0.017,-0.517,0.555
2024-10-15 11:23:33.373,65364.764,0.013,0.497,-0.868,0.01,0.02,0.056,-0.305,-0.557,0.453,0.014,-0.52,0.561
2024-10-15 11:23:33.384,65364.774,0.01,0.499,-0.866,-0.0,0.046,0.055,-0.197,-0.537,0.402,0.011,-0.523,0.566
2024-10-15 11:23:33.393,65364.784,0.007,0.5,-0.866,0.0,0.039,0.031,-0.055,-0.536,0.373,0.008,-0.524,0.57
2024-10-15 11:23:33.403,65364.794,0.004,0.5,-0.866,0.01,0.025,0.003,0.044,-0.529,0.35,0.005,-0.524,0.574
2024-10-15 11:23:33.413,65364.804,0.002,0.5,-0.866,0.021,0.006,-0.005,0.083,-0.517,0.34,0.002,-0.523,0.578
2024-10-15 11:23:33.423,65364.813,-0.001,0.499,-0.866,0.028,-0.014,-0.015,-0.003,-0.52,0.357,-0.001,-0.523,0.582
2024-10-15 11:23:33.433,65364.823,-0.004,0.5,-0.866,0.033,-0.052,-0.026,-0.118,-0.5,0.359,-0.004,-0.524,0.586
2024-10-15 11:23:33.443,65364.833,-0.006,0.501,-0.865,0.041,-0.072,-0.031,-0.169,-0.461,0.348,-0.007,-0.525,0.59
2024-10-15 11:23:33.453,65364.843,-0.008,0.503,-0.864,0.034,-0.044,-0.032,-0.143,-0.423,0.326,-0.01,-0.527,0.594
2024-10-15 11:23:33.463,65364.853,-0.01,0.504,-0.864,0.03,-0.017,-0.033,-0.059,-0.412,0.304,-0.012,-0.528,0.598
2024-10-15 11:23:33.473,65364.863,-0.012,0.504,-0.864,0.039,-0.011,-0.047,0.048,-0.402,0.283,-0.014,-0.528,0.601
2024-10-15 11:23:33.483,65364.873,-0.014,0.503,-0.864,0.047,-0.021,-0.061,0.135,-0.391,0.261,-0.017,-0.527,0.604
2024-10-15 11:23:33.493,65364.883,-0.016,0.501,-0.865,0.05,-0.044,-0.07,0.227,-0.358,0.223,-0.019,-0.525,0.607
2024-10-15 11:23:33.503,65364.893,-0.018,0.499,-0.866,0.047,-0.06,-0.056,0.338,-0.312,0.185,-0.021,-0.522,0.61
2024-10-15 11:23:33.513,65364.903,-0.02,0.496,-0.868,0.039,-0.062,-0.032,0.477,-0.272,0.144,-0.023,-0.518,0.612
2024-10-15 11:23:33.523,65364.913,-0.022,0.491,-0.871,0.042,-0.074,-0.012,0.557,-0.264,0.097,-0.025,-0.513,0.613
2024-10-15 11:23:33.533,65364.923,-0.024,0.486,-0.874,0.056,-0.096,-0.019,0.541,-0.278,0.074,-0.027,-0.508,0.614
2024-10-15 11:23:33.543,65364.933,-0.026,0.482,-0.876,0.074,-0.132,-0.045,0.484,-0.268,0.068,-0.029,-0.503,0.615
2024-10-15 11:23:33.553,65364.943,-0.028,0.478,-0.878,0.072,-0.112,-0.05,0.405,-0.242,0.067,-0.031,-0.498,0.616
2024-10-15 11:23:33.563,65364.953,-0.029,0.475,-0.88,0.06,-0.065,-0.02,0.327,-0.201,0.061,-0.033,-0.495,0.617
2024-10-15 11:23:33.573,65364.963,-0.031,0.472,-0.881,0.046,-0.015,0.005,0.264,-0.168,0.053,-0.035,-0.492,0.618
2024-10-15 11:23:33.583,65364.973,-0.032,0.47,-0.882,0.036,0.019,0.019,0.261,-0.139,0.049,-0.036,-0.489,0.618
2024-10-15 11:23:33.593,65364.983,-0.033,0.467,-0.883,0.037,0.024,0.02,0.313,-0.135,0.056,-0.037,-0.486,0.619
2024-10-15 11:23:33.603,65364.993,-0.034,0.464,-0.885,0.039,0.035,0.01,0.355,-0.155,0.067,-0.038,-0.483,0.62
2024-10-15 11:23:33.613,65365.003,-0.035,0.462,-0.886,0.04,0.053,0.012,0.246,-0.17,0.093,-0.039,-0.48,0.621
2024-10-15 11:23:33.623,65365.013,-0.036,0.46,-0.887,0.039,0.048,0.042,0.11,-0.077,0.047,-0.04,-0.478,0.622
2024-10-15 11:23:33.633,65365.023,-0.036,0.459,-0.888,0.027,0.017,0.072,0.204,-0.036,0.036,-0.04,-0.477,0.622
2024-10-15 11:23:33.643,65365.033,-0.036,0.456,-0.889,-0.019,0.01,-0.008,0.383,-0.07,0.078,-0.041,-0.474,0.623
2024-10-15 11:23:33.653,65365.043,-0.036,0.452,-0.891,-0.019,0.066,-0.023,0.537,-0.087,0.066,-0.041,-0.469,0.624
2024-10-15 11:23:33.663,65365.053,-0.037,0.447,-0.894,0.03,0.088,-0.008,0.583,-0.053,0.083,-0.041,-0.464,0.625
2024-10-15 11:23:33.673,65365.063,-0.037,0.443,-0.896,0.021,0.082,-0.025,0.444,-0.047,0.076,-0.041,-0.458,0.626
2024-10-15 11:23:33.683,65365.073,-0.037,0.44,-0.897,0.009,0.054,-0.005,0.21,-0.025,0.057,-0.041,-0.455,0.627
2024-10-15 11:23:33.693,65365.083,-0.037,0.439,-0.898,0.024,-0.1,0.025,-0.005,0.036,0.042,-0.041,-0.454,0.628
2024-10-15 11:23:33.703,65365.093,-0.036,0.44,-0.897,0.018,-0.171,0.056,-0.275,0.064,-0.036,-0.04,-0.456,0.628
2024-10-15 11:23:33.713,65365.103,-0.036,0.443,-0.896,0.005,-0.111,0.107,-0.401,0.145,-0.118,-0.04,-0.459,0.627
2024-10-15 11:23:33.723,65365.113,-0.034,0.446,-0.895,0.017,-0.09,0.108,-0.06,0.288,-0.196,-0.038,-0.462,0.625
2024-10-15 11:23:33.733,65365.123,-0.032,0.444,-0.895,-0.004,-0.027,0.028,0.376,0.321,-0.24,-0.036,-0.46,0.623
2024-10-15 11:23:33.743,65365.133,-0.031,0.44,-0.897,-0.023,0.111,-0.064,0.441,0.258,-0.273,-0.035,-0.456,0.62
2024-10-15 11:23:33.753,65365.143,-0.03,0.437,-0.899,0.041,0.056,-0.104,0.286,0.297,-0.35,-0.033,-0.452,0.617
2024-10-15 11:23:33.763,65365.153,-0.028,0.434,-0.9,0.088,-0.13,-0.096,0.191,0.457,-0.446,-0.031,-0.449,0.612
2024-10-15 11:23:33.773,65365.163,-0.026,0.433,-0.901,0.03,-0.178,-0.06,0.174,0.543,-0.509,-0.029,-0.447,0.607
2024-10-15 11:23:33.782,65365.173,-0.023,0.431,-0.902,-0.021,-0.132,-0.059,0.189,0.562,-0.531,-0.026,-0.445,0.601
2024-10-15 11:23:33.792,65365.183,-0.02,0.429,-0.903,0.001,-0.111,-0.078,0.253,0.563,-0.513,-0.022,-0.443,0.596
2024-10-15 11:23:33.802,65365.193,-0.017,0.426,-0.905,0.022,-0.068,-0.09,0.325,0.562,-0.488,-0.019,-0.44,0.59
2024-10-15 11:23:33.813,65365.203,-0.014,0.423,-0.906,0.019,0.021,-0.08,0.364,0.579,-0.483,-0.016,-0.437,0.585
2024-10-15 11:23:33.823,65365.213,-0.011,0.42,-0.908,0.011,0.101,-0.062,0.344,0.574,-0.481,-0.012,-0.433,0.58
2024-10-15 11:23:33.833,65365.223,-0.008,0.417,-0.909,-0.002,0.135,-0.047,0.316,0.532,-0.459,-0.009,-0.43,0.574
2024-10-15 11:23:33.843,65365.233,-0.005,0.413,-0.911,-0.012,0.114,-0.006,0.392,0.506,-0.371,-0.006,-0.426,0.57
2024-10-15 11:23:33.853,65365.243,-0.002,0.409,-0.913,-0.021,0.051,0.07,0.575,0.437,-0.295,-0.002,-0.421,0.566
2024-10-15 11:23:33.863,65365.253,0.0,0.403,-0.915,-0.049,0.064,0.136,0.681,0.293,-0.289,0.0,-0.415,0.563
2024-10-15 11:23:33.873,65365.263,0.001,0.397,-0.918,-0.077,0.146,0.22,0.569,0.143,-0.296,0.001,-0.409,0.56
2024-10-15 11:23:33.883,65365.273,0.0,0.393,-0.92,-0.064,0.116,0.264,0.398,0.012,-0.326,0.001,-0.404,0.557
2024-10-15 11:23:33.892,65365.283,-0.001,0.39,-0.921,-0.067,0.056,0.255,0.169,-0.125,-0.293,-0.001,-0.401,0.553
2024-10-15 11:23:33.902,65365.293,-0.004,0.39,-0.921,-0.12,0.045,0.241,-0.206,-0.288,-0.175,-0.004,-0.401,0.551
2024-10-15 11:23:33.912,65365.303,-0.008,0.394,-0.919,-0.153,0.039,0.191,-0.643,-0.414,0.002,-0.008,-0.405,0.55
2024-10-15 11:23:33.922,65365.313,-0.011,0.401,-0.916,-0.179,0.058,0.109,-0.717,-0.276,0.133,-0.012,-0.412,0.55
2024-10-15 11:23:33.932,65365.323,-0.012,0.405,-0.914,-0.239,0.113,0.029,-0.254,-0.076,0.142,-0.013,-0.417,0.552
2024-10-15 11:23:33.942,65365.333,-0.012,0.405,-0.914,-0.329,0.25,-0.085,0.208,-0.172,0.162,-0.013,-0.417,0.553
2024-10-15 11:23:33.952,65365.343,-0.013,0.402,-0.915,-0.327,0.338,-0.158,0.532,-0.304,0.29,-0.015,-0.414,0.556
2024-10-15 11:23:33.962,65365.353,-0.015,0.397,-0.918,-0.156,0.135,-0.11,0.547,-0.413,0.394,-0.017,-0.408,0.56
2024-10-15 11:23:33.972,65365.363,-0.018,0.394,-0.919,-0.059,-0.011,-0.086,-0.093,-0.644,0.562,-0.02,-0.405,0.565
2024-10-15 11:23:33.982,65365.373,-0.022,0.398,-0.917,-0.056,0.004,-0.053,-0.613,-0.577,0.654,-0.023,-0.41,0.572
2024-10-15 11:23:33.992,65365.383,-0.023,0.404,-0.914,0.013,-0.069,0.003,-0.645,-0.311,0.642,-0.025,-0.416,0.579
2024-10-15 11:23:34.002,65365.393,-0.023,0.41,-0.912,-0.028,-0.052,0.053,-0.605,-0.341,0.587,-0.025,-0.422,0.585
2024-10-15 11:23:34.012,65365.403,-0.024,0.416,-0.909,-0.011,0.057,-0.039,-0.567,-0.315,0.532,-0.026,-0.429,0.591
2024-10-15 11:23:34.023,65365.412,-0.024,0.419,-0.908,0.173,-0.107,-0.127,-0.081,0.049,0.155,-0.026,-0.432,0.595
2024-10-15 11:23:34.032,65365.422,-0.022,0.416,-0.909,0.249,-0.175,-0.112,0.645,0.343,-0.223,-0.024,-0.429,0.595
2024-10-15 11:23:34.042,65365.432,-0.02,0.409,-0.912,0.172,-0.081,-0.182,0.822,0.252,-0.305,-0.022,-0.422,0.592
2024-10-15 11:23:34.052,65365.442,-0.02,0.403,-0.915,0.275,-0.332,-0.215,0.389,0.134,-0.356,-0.022,-0.415,0.588
2024-10-15 11:23:34.063,65365.452,-0.021,0.403,-0.915,0.476,-0.63,-0.106,-0.265,0.134,-0.502,-0.022,-0.414,0.584
2024-10-15 11:23:34.072,65365.462,-0.021,0.408,-0.913,0.448,-0.576,0.044,-0.759,0.225,-0.539,-0.023,-0.42,0.578
2024-10-15 11:23:34.082,65365.472,-0.021,0.414,-0.91,0.299,-0.363,0.153,-0.721,0.385,-0.515,-0.023,-0.427,0.572
2024-10-15 11:23:34.093,65365.482,-0.019,0.419,-0.908,0.209,-0.136,0.126,-0.328,0.508,-0.498,-0.02,-0.432,0.566
2024-10-15 11:23:34.103,65365.492,-0.016,0.42,-0.907,0.14,0.124,0.06,0.105,0.521,-0.475,-0.018,-0.434,0.561
2024-10-15 11:23:34.117,65365.502,-0.013,0.417,-0.909,0.135,0.238,-0.062,0.541,0.52,-0.501,-0.015,-0.43,0.555
2024-10-15 11:23:34.121,65365.512,-0.011,0.411,-0.912,0.151,0.159,-0.124,0.802,0.496,-0.61,-0.012,-0.423,0.55
2024-10-15 11:23:34.132,65365.522,-0.01,0.403,-0.915,0.104,0.032,-0.046,0.768,0.282,-0.665,-0.011,-0.415,0.543
2024-10-15 11:23:34.141,65365.532,-0.011,0.397,-0.918,0.05,-0.089,0.018,0.578,0.13,-0.598,-0.012,-0.408,0.536
2024-10-15 11:23:34.152,65365.542,-0.012,0.392,-0.92,0.002,-0.108,0.072,0.634,0.097,-0.576,-0.013,-0.402,0.529
2024-10-15 11:23:34.162,65365.552,-0.014,0.385,-0.923,-0.158,0.113,0.12,0.675,-0.081,-0.45,-0.015,-0.396,0.524
2024-10-15 11:23:34.171,65365.562,-0.017,0.379,-0.925,-0.315,0.31,0.097,0.579,-0.295,-0.111,-0.018,-0.389,0.521
2024-10-15 11:23:34.181,65365.572,-0.02,0.375,-0.927,-0.348,0.306,0.113,0.465,-0.412,0.256,-0.021,-0.384,0.522
2024-10-15 11:23:34.192,65365.582,-0.023,0.37,-0.929,-0.361,0.246,0.13,0.529,-0.532,0.462,-0.024,-0.379,0.526
2024-10-15 11:23:34.202,65365.592,-0.026,0.364,-0.931,-0.415,0.335,0.204,0.872,-0.556,0.58,-0.028,-0.373,0.532
2024-10-15 11:23:34.212,65365.602,-0.029,0.354,-0.935,-0.449,0.425,0.26,1.174,-0.585,0.551,-0.031,-0.362,0.538
2024-10-15 11:23:34.222,65365.612,-0.034,0.348,-0.937,-0.419,0.343,0.17,0.161,-1.08,1.047,-0.036,-0.355,0.546
2024-10-15 11:23:34.232,65365.622,-0.042,0.352,-0.935,-0.286,-0.056,0.05,-0.828,-1.469,1.344,-0.045,-0.36,0.56
2024-10-15 11:23:34.242,65365.632,-0.05,0.359,-0.932,0.041,-0.396,0.137,-0.587,-1.184,1.085,-0.054,-0.368,0.572
2024-10-15 11:23:34.252,65365.642,-0.056,0.364,-0.93,-0.011,-0.103,0.22,-0.231,-0.929,1.117,-0.06,-0.372,0.584
2024-10-15 11:23:34.262,65365.652,-0.06,0.365,-0.929,-0.187,0.283,-0.061,0.054,-0.774,1.019,-0.064,-0.374,0.595
2024-10-15 11:23:34.272,65365.662,-0.062,0.364,-0.929,0.024,0.17,-0.41,0.376,-0.418,0.599,-0.067,-0.372,0.604
2024-10-15 11:23:34.282,65365.672,-0.064,0.358,-0.931,0.19,-0.073,-0.48,0.882,-0.15,0.146,-0.068,-0.366,0.609
2024-10-15 11:23:34.292,65365.682,-0.064,0.347,-0.936,0.224,-0.227,-0.439,1.396,0.201,-0.21,-0.068,-0.355,0.609
2024-10-15 11:23:34.302,65365.692,-0.062,0.334,-0.94,0.285,-0.417,-0.33,1.308,0.342,-0.413,-0.066,-0.341,0.607
2024-10-15 11:23:34.312,65365.702,-0.061,0.324,-0.944,0.327,-0.502,-0.128,0.748,0.166,-0.57,-0.065,-0.33,0.602
2024-10-15 11:23:34.322,65365.712,-0.062,0.318,-0.946,0.409,-0.563,0.046,0.497,0.179,-0.657,-0.065,-0.324,0.596
2024-10-15 11:23:34.332,65365.722,-0.061,0.311,-0.948,0.392,-0.354,0.221,1.06,0.4,-0.756,-0.064,-0.316,0.589
2024-10-15 11:23:34.342,65365.732,-0.059,0.298,-0.953,0.252,-0.018,0.252,1.457,0.431,-0.744,-0.062,-0.303,0.582
2024-10-15 11:23:34.352,65365.742,-0.058,0.285,-0.957,0.153,0.134,0.098,1.112,0.214,-0.787,-0.061,-0.289,0.575
2024-10-15 11:23:34.362,65365.752,-0.059,0.275,-0.96,0.195,-0.019,-0.065,0.939,0.246,-0.934,-0.061,-0.279,0.567
2024-10-15 11:23:34.372,65365.762,-0.058,0.264,-0.963,0.167,-0.177,-0.037,1.212,0.438,-1.053,-0.06,-0.267,0.557
2024-10-15 11:23:34.382,65365.772,-0.057,0.251,-0.966,-0.046,-0.007,0.048,1.249,0.323,-1.088,-0.059,-0.254,0.547
2024-10-15 11:23:34.392,65365.782,-0.057,0.24,-0.969,-0.173,0.188,0.001,1.103,0.154,-1.036,-0.059,-0.242,0.536
2024-10-15 11:23:34.402,65365.792,-0.058,0.229,-0.972,-0.184,0.206,-0.012,0.989,0.101,-0.84,-0.06,-0.231,0.527
2024-10-15 11:23:34.411,65365.802,-0.059,0.22,-0.974,-0.293,0.299,-0.001,0.698,-0.016,-0.41,-0.061,-0.222,0.521
2024-10-15 11:23:34.422,65365.812,-0.061,0.215,-0.975,-0.425,0.534,0.018,0.265,-0.176,0.161,-0.062,-0.217,0.52
2024-10-15 11:23:34.431,65365.822,-0.062,0.214,-0.975,-0.434,0.521,0.066,0.109,-0.267,0.745,-0.063,-0.216,0.525
2024-10-15 11:23:34.442,65365.832,-0.062,0.212,-0.975,-0.401,0.43,0.119,0.578,-0.242,0.944,-0.064,-0.213,0.534
2024-10-15 11:23:34.452,65365.842,-0.064,0.205,-0.977,-0.418,0.774,0.196,0.663,-0.531,1.081,-0.065,-0.207,0.545
2024-10-15 11:23:34.462,65365.852,-0.07,0.204,-0.977,-0.357,0.661,0.177,-0.345,-1.17,1.413,-0.071,-0.205,0.558
2024-10-15 11:23:34.472,65365.862,-0.078,0.212,-0.974,-0.094,-0.083,0.076,-0.833,-1.142,1.357,-0.08,-0.213,0.572
2024-10-15 11:23:34.482,65365.872,-0.085,0.22,-0.972,-0.01,-0.268,0.146,-0.546,-0.797,1.301,-0.087,-0.221,0.584
2024-10-15 11:23:34.491,65365.882,-0.09,0.228,-0.97,-0.287,0.192,0.158,-0.895,-0.991,1.607,-0.093,-0.23,0.598
2024-10-15 11:23:34.501,65365.892,-0.096,0.239,-0.966,-0.256,0.261,0.062,-1.181,-1.007,1.591,-0.099,-0.242,0.614
2024-10-15 11:23:34.511,65365.902,-0.101,0.251,-0.963,0.054,-0.026,-0.001,-0.856,-0.733,1.537,-0.104,-0.254,0.629
2024-10-15 11:23:34.521,65365.912,-0.104,0.258,-0.961,0.074,0.051,-0.043,-0.225,-0.645,1.291,-0.107,-0.261,0.643
2024-10-15 11:23:34.531,65365.922,-0.107,0.258,-0.96,0.143,0.016,-0.162,0.439,-0.553,0.782,-0.111,-0.261,0.654
2024-10-15 11:23:34.542,65365.932,-0.11,0.252,-0.962,0.359,-0.319,-0.312,0.94,-0.273,0.241,-0.113,-0.254,0.66
2024-10-15 11:23:34.551,65365.942,-0.111,0.242,-0.964,0.399,-0.603,-0.433,0.894,0.067,-0.217,-0.114,-0.245,0.661
2024-10-15 11:23:34.561,65365.952,-0.11,0.236,-0.966,0.338,-0.955,-0.443,0.387,0.148,-0.6,-0.114,-0.238,0.658
2024-10-15 11:23:34.571,65365.962,-0.111,0.234,-0.966,0.344,-1.257,-0.264,-0.153,0.101,-0.95,-0.114,-0.236,0.65
2024-10-15 11:23:34.581,65365.972,-0.112,0.234,-0.966,0.358,-1.06,0.025,0.013,0.234,-1.234,-0.116,-0.236,0.639
2024-10-15 11:23:34.591,65365.982,-0.111,0.227,-0.967,0.29,-0.583,0.17,1.014,0.767,-1.538,-0.114,-0.229,0.625
2024-10-15 11:23:34.602,65365.992,-0.107,0.218,-0.97,0.107,-0.148,0.036,0.634,0.495,-1.361,-0.11,-0.219,0.611
2024-10-15 11:23:34.611,65366.002,-0.107,0.211,-0.972,0.056,-0.108,-0.114,0.476,0.336,-1.496,-0.109,-0.213,0.597
2024-10-15 11:23:34.621,65366.011,-0.105,0.204,-0.973,0.211,-0.282,-0.071,0.691,0.544,-1.562,-0.108,-0.205,0.582
2024-10-15 11:23:34.631,65366.021,-0.103,0.195,-0.975,-0.01,0.321,0.084,0.623,0.51,-1.282,-0.105,-0.197,0.568
2024-10-15 11:23:34.641,65366.031,-0.1,0.189,-0.977,-0.226,0.796,-0.052,0.54,0.434,-0.736,-0.102,-0.19,0.559
2024-10-15 11:23:34.651,65366.041,-0.098,0.183,-0.978,-0.241,0.652,-0.092,0.596,0.28,-0.099,-0.099,-0.184,0.555
2024-10-15 11:23:34.661,65366.051,-0.096,0.178,-0.979,-0.283,0.64,0.073,0.48,-0.111,0.496,-0.098,-0.179,0.558
2024-10-15 11:23:34.671,65366.061,-0.098,0.174,-0.98,-0.285,0.832,0.201,0.443,-0.405,0.871,-0.099,-0.175,0.565
2024-10-15 11:23:34.681,65366.071,-0.1,0.17,-0.98,-0.248,0.913,0.355,0.666,-0.413,0.957,-0.102,-0.171,0.575
2024-10-15 11:23:34.691,65366.081,-0.103,0.165,-0.981,-0.297,0.743,0.362,0.234,-0.437,1.102,-0.104,-0.166,0.586
2024-10-15 11:23:34.701,65366.091,-0.107,0.171,-0.98,-0.401,0.44,0.195,-1.09,-0.913,1.721,-0.108,-0.172,0.6
2024-10-15 11:23:34.711,65366.101,-0.113,0.183,-0.977,-0.274,-0.149,0.094,-0.745,-0.781,1.418,-0.115,-0.184,0.615
2024-10-15 11:23:34.721,65366.111,-0.116,0.188,-0.975,-0.131,-0.091,0.233,-0.308,-0.428,1.427,-0.118,-0.19,0.628
2024-10-15 11:23:34.731,65366.121,-0.119,0.198,-0.973,-0.359,0.586,0.233,-1.274,-0.956,1.73,-0.122,-0.199,0.643
2024-10-15 11:23:34.741,65366.131,-0.124,0.214,-0.969,-0.181,0.196,-0.017,-1.472,-0.75,1.63,-0.128,-0.216,0.658
2024-10-15 11:23:34.751,65366.141,-0.127,0.228,-0.965,0.088,-0.331,0.014,-0.95,-0.576,1.713,-0.131,-0.23,0.674
2024-10-15 11:23:34.761,65366.151,-0.13,0.236,-0.963,-0.026,0.037,0.057,-0.166,-0.772,1.454,-0.134,-0.238,0.689
2024-10-15 11:23:34.771,65366.161,-0.134,0.234,-0.963,0.163,-0.04,-0.148,0.725,-0.637,0.879,-0.138,-0.237,0.702
2024-10-15 11:23:34.781,65366.171,-0.137,0.226,-0.965,0.352,-0.357,-0.369,1.253,-0.332,0.33,-0.141,-0.228,0.709
2024-10-15 11:23:34.792,65366.181,-0.137,0.212,-0.968,0.301,-0.681,-0.619,1.573,0.251,-0.225,-0.141,-0.213,0.712
2024-10-15 11:23:34.800,65366.191,-0.135,0.198,-0.971,0.212,-1.031,-0.724,1.13,0.358,-0.501,-0.138,-0.199,0.71
2024-10-15 11:23:34.811,65366.201,-0.133,0.189,-0.973,0.17,-1.062,-0.524,0.645,0.277,-0.841,-0.136,-0.19,0.704
2024-10-15 11:23:34.821,65366.211,-0.131,0.18,-0.975,0.3,-0.929,-0.097,1.05,0.482,-1.229,-0.134,-0.181,0.695
2024-10-15 11:23:34.831,65366.221,-0.127,0.162,-0.979,0.273,-0.451,0.28,1.914,0.97,-1.714,-0.129,-0.163,0.682
2024-10-15 11:23:34.841,65366.231,-0.121,0.146,-0.982,0.075,-0.012,0.183,0.779,0.631,-1.474,-0.123,-0.147,0.668
2024-10-15 11:23:34.851,65366.241,-0.118,0.14,-0.983,0.023,-0.29,0.027,0.32,0.503,-1.687,-0.119,-0.14,0.653
2024-10-15 11:23:34.861,65366.251,-0.114,0.133,-0.985,0.15,-0.596,0.127,0.628,0.772,-1.638,-0.115,-0.134,0.637
2024-10-15 11:23:34.871,65366.261,-0.109,0.126,-0.986,-0.115,0.232,0.361,0.534,0.638,-1.35,-0.11,-0.126,0.622
2024-10-15 11:23:34.881,65366.271,-0.105,0.121,-0.987,-0.257,0.816,0.198,0.255,0.448,-0.924,-0.106,-0.121,0.611
2024-10-15 11:23:34.891,65366.281,-0.102,0.118,-0.988,-0.197,0.739,0.096,0.251,0.305,-0.417,-0.103,-0.118,0.605
2024-10-15 11:23:34.901,65366.291,-0.1,0.115,-0.988,-0.228,0.796,0.211,0.315,0.117,0.198,-0.101,-0.115,0.604
2024-10-15 11:23:34.911,65366.301,-0.1,0.112,-0.989,-0.272,0.81,0.304,0.278,-0.172,0.753,-0.1,-0.113,0.609
2024-10-15 11:23:34.921,65366.311,-0.101,0.109,-0.989,-0.278,0.685,0.262,0.532,-0.225,0.916,-0.102,-0.11,0.618
2024-10-15 11:23:34.931,65366.321,-0.101,0.104,-0.989,-0.327,0.642,0.173,0.45,-0.026,0.896,-0.102,-0.105,0.628
2024-10-15 11:23:34.941,65366.331,-0.101,0.109,-0.989,-0.45,0.541,-0.005,-1.229,-0.33,1.619,-0.102,-0.109,0.639
2024-10-15 11:23:34.951,65366.341,-0.104,0.129,-0.986,-0.387,-0.085,-0.153,-2.061,-0.566,1.693,-0.105,-0.129,0.655
2024-10-15 11:23:34.961,65366.351,-0.105,0.146,-0.984,-0.058,-0.511,0.008,-1.046,-0.001,1.347,-0.106,-0.146,0.668
2024-10-15 11:23:34.971,65366.361,-0.104,0.158,-0.982,-0.164,0.278,0.22,-1.421,-0.42,1.715,-0.106,-0.159,0.682
2024-10-15 11:23:34.981,65366.371,-0.107,0.178,-0.978,-0.197,0.442,0.06,-2.001,-0.685,1.597,-0.109,-0.179,0.697
2024-10-15 11:23:34.991,65366.381,-0.109,0.197,-0.974,0.242,-0.448,-0.031,-1.541,-0.248,1.46,-0.111,-0.198,0.71
2024-10-15 11:23:35.001,65366.391,-0.109,0.209,-0.972,0.183,-0.479,-0.023,-0.63,-0.258,1.148,-0.111,-0.211,0.723
2024-10-15 11:23:35.011,65366.401,-0.109,0.212,-0.971,0.087,-0.248,-0.162,0.246,-0.213,0.543,-0.112,-0.213,0.731
2024-10-15 11:23:35.020,65366.411,-0.109,0.208,-0.972,0.308,-0.548,-0.32,0.537,0.075,0.034,-0.112,-0.209,0.735
2024-10-15 11:23:35.031,65366.421,-0.108,0.204,-0.973,0.339,-0.896,-0.417,0.217,0.251,-0.373,-0.111,-0.205,0.733
2024-10-15 11:23:35.040,65366.431,-0.107,0.204,-0.973,0.312,-1.184,-0.336,-0.32,0.154,-0.667,-0.11,-0.205,0.728
2024-10-15 11:23:35.051,65366.441,-0.107,0.206,-0.973,0.362,-1.074,-0.035,-0.082,0.19,-1.026,-0.11,-0.207,0.719
2024-10-15 11:23:35.061,65366.451,-0.106,0.198,-0.974,0.371,-0.537,0.181,1.343,0.758,-1.64,-0.108,-0.199,0.706
2024-10-15 11:23:35.071,65366.461,-0.101,0.183,-0.978,0.181,0.04,0.035,1.023,0.673,-1.305,-0.103,-0.184,0.692
2024-10-15 11:23:35.081,65366.471,-0.099,0.175,-0.98,0.032,0.082,-0.278,0.542,0.375,-1.435,-0.1,-0.176,0.68
2024-10-15 11:23:35.090,65366.481,-0.095,0.164,-0.982,0.232,-0.501,-0.337,1.345,0.874,-1.614,-0.097,-0.165,0.665
2024-10-15 11:23:35.101,65366.491,-0.089,0.15,-0.985,0.034,0.017,-0.132,1.174,0.699,-1.523,-0.091,-0.15,0.65
2024-10-15 11:23:35.111,65366.501,-0.087,0.141,-0.986,-0.218,0.721,-0.076,0.347,0.377,-1.443,-0.087,-0.142,0.636
2024-10-15 11:23:35.120,65366.511,-0.084,0.139,-0.987,-0.078,0.373,-0.032,-0.061,0.428,-1.075,-0.085,-0.139,0.623
2024-10-15 11:23:35.130,65366.521,-0.081,0.14,-0.987,-0.184,0.446,0.021,-0.319,0.386,-0.355,-0.082,-0.141,0.616
2024-10-15 11:23:35.141,65366.531,-0.078,0.144,-0.987,-0.39,0.806,0.08,-0.286,0.174,0.462,-0.079,-0.144,0.616
2024-10-15 11:23:35.150,65366.541,-0.077,0.144,-0.987,-0.372,0.825,0.169,0.31,-0.035,1.189,-0.077,-0.145,0.624
2024-10-15 11:23:35.160,65366.551,-0.076,0.14,-0.987,-0.352,1.087,0.255,0.716,-0.165,1.429,-0.076,-0.14,0.638
2024-10-15 11:23:35.170,65366.561,-0.077,0.14,-0.987,-0.377,1.429,0.304,-0.702,-0.543,1.979,-0.078,-0.14,0.655
2024-10-15 11:23:35.181,65366.571,-0.082,0.158,-0.984,-0.294,0.689,0.25,-2.235,-1.063,2.495,-0.083,-0.159,0.677
2024-10-15 11:23:35.190,65366.581,-0.087,0.177,-0.98,-0.01,-0.413,0.279,-0.958,-0.626,1.912,-0.088,-0.178,0.698
2024-10-15 11:23:35.200,65366.591,-0.088,0.185,-0.979,-0.128,0.322,0.459,-0.779,-0.66,2.126,-0.09,-0.186,0.717
2024-10-15 11:23:35.210,65366.601,-0.092,0.198,-0.976,-0.365,0.742,0.113,-1.408,-0.827,1.964,-0.094,-0.199,0.737
2024-10-15 11:23:35.220,65366.61,-0.093,0.21,-0.973,0.059,-0.667,-0.425,-0.657,-0.031,1.339,-0.096,-0.212,0.753
2024-10-15 11:23:35.230,65366.62,-0.09,0.212,-0.973,0.086,-1.038,-0.501,0.484,0.094,0.657,-0.093,-0.214,0.763
2024-10-15 11:23:35.240,65366.63,-0.089,0.204,-0.975,-0.038,-0.564,-0.532,1.074,0.19,-0.231,-0.091,-0.205,0.766
2024-10-15 11:23:35.250,65366.64,-0.087,0.196,-0.977,0.242,-0.912,-0.489,0.448,0.336,-0.611,-0.089,-0.197,0.762
2024-10-15 11:23:35.260,65366.65,-0.085,0.195,-0.977,0.304,-1.388,-0.299,-0.362,0.384,-0.958,-0.087,-0.196,0.754
2024-10-15 11:23:35.270,65366.66,-0.083,0.196,-0.977,0.308,-1.502,0.072,0.071,0.456,-1.52,-0.085,-0.197,0.742
2024-10-15 11:23:35.280,65366.67,-0.081,0.187,-0.979,0.305,-0.955,0.407,1.205,0.712,-2.082,-0.083,-0.189,0.724
2024-10-15 11:23:35.290,65366.68,-0.079,0.178,-0.981,0.153,-0.307,0.18,0.234,0.408,-1.734,-0.08,-0.179,0.705
2024-10-15 11:23:35.300,65366.69,-0.078,0.175,-0.981,0.083,-0.394,-0.053,0.348,0.509,-1.904,-0.079,-0.176,0.687
2024-10-15 11:23:35.310,65366.7,-0.075,0.166,-0.983,0.192,-0.516,0.038,1.159,0.693,-1.91,-0.076,-0.167,0.668
2024-10-15 11:23:35.319,65366.71,-0.073,0.154,-0.985,-0.104,0.492,0.112,0.82,0.3,-1.537,-0.074,-0.155,0.651
2024-10-15 11:23:35.329,65366.72,-0.072,0.148,-0.986,-0.18,1.094,-0.212,0.246,0.254,-1.045,-0.073,-0.149,0.639
2024-10-15 11:23:35.339,65366.73,-0.07,0.146,-0.987,-0.104,0.772,-0.281,0.284,0.344,-0.28,-0.071,-0.146,0.632
2024-10-15 11:23:35.349,65366.74,-0.068,0.142,-0.987,-0.288,0.795,-0.154,0.359,0.051,0.584,-0.069,-0.143,0.634
2024-10-15 11:23:35.360,65366.75,-0.068,0.138,-0.988,-0.33,1.091,0.061,0.644,-0.319,1.112,-0.069,-0.139,0.643
2024-10-15 11:23:35.370,65366.76,-0.07,0.131,-0.989,-0.202,1.372,0.204,0.842,-0.4,1.309,-0.071,-0.132,0.656
2024-10-15 11:23:35.380,65366.77,-0.072,0.127,-0.989,-0.254,1.381,0.183,-0.037,-0.472,1.55,-0.073,-0.127,0.67
2024-10-15 11:23:35.390,65366.78,-0.076,0.138,-0.988,-0.35,0.704,0.053,-1.702,-0.725,2.297,-0.077,-0.138,0.689
2024-10-15 11:23:35.400,65366.79,-0.079,0.154,-0.985,-0.253,-0.261,0.066,-1.112,-0.567,1.877,-0.08,-0.155,0.709
2024-10-15 11:23:35.410,65366.8,-0.082,0.164,-0.983,-0.192,0.036,0.324,-0.814,-0.603,1.929,-0.083,-0.164,0.727
2024-10-15 11:23:35.420,65366.81,-0.087,0.178,-0.98,-0.348,0.644,0.341,-1.685,-1.027,2.101,-0.088,-0.179,0.747
2024-10-15 11:23:35.431,65366.82,-0.091,0.196,-0.976,-0.019,-0.246,0.058,-1.419,-0.637,1.784,-0.093,-0.197,0.765
2024-10-15 11:23:35.440,65366.83,-0.094,0.206,-0.974,0.107,-0.784,0.048,-0.322,-0.549,1.287,-0.096,-0.208,0.78
2024-10-15 11:23:35.449,65366.84,-0.097,0.204,-0.974,-0.007,-0.478,-0.087,0.847,-0.493,0.426,-0.099,-0.206,0.789
2024-10-15 11:23:35.460,65366.85,-0.099,0.193,-0.976,0.189,-0.729,-0.416,1.3,0.052,-0.393,-0.101,-0.194,0.79
2024-10-15 11:23:35.470,65366.86,-0.099,0.183,-0.978,0.206,-1.101,-0.585,0.492,0.23,-0.741,-0.101,-0.184,0.785
2024-10-15 11:23:35.480,65366.87,-0.098,0.181,-0.978,0.117,-1.482,-0.547,-0.246,0.238,-1.155,-0.1,-0.182,0.776
2024-10-15 11:23:35.490,65366.88,-0.097,0.179,-0.979,0.249,-1.458,-0.095,0.642,0.501,-1.741,-0.099,-0.18,0.762
2024-10-15 11:23:35.500,65366.89,-0.094,0.164,-0.982,0.223,-0.649,0.249,1.802,0.729,-2.052,-0.096,-0.164,0.743
2024-10-15 11:23:35.510,65366.9,-0.091,0.15,-0.984,0.027,-0.009,-0.015,0.604,0.396,-1.707,-0.093,-0.15,0.726
2024-10-15 11:23:35.520,65366.91,-0.09,0.144,-0.985,0.062,-0.281,-0.105,0.494,0.498,-1.891,-0.091,-0.144,0.708
2024-10-15 11:23:35.530,65366.92,-0.087,0.135,-0.987,0.191,-0.469,0.075,0.874,0.65,-1.766,-0.088,-0.135,0.69
2024-10-15 11:23:35.540,65366.93,-0.084,0.127,-0.988,-0.135,0.573,0.27,0.329,0.323,-1.36,-0.085,-0.128,0.675
2024-10-15 11:23:35.550,65366.94,-0.083,0.126,-0.989,-0.152,1.062,0.105,-0.208,0.252,-0.801,-0.083,-0.127,0.664
2024-10-15 11:23:35.560,65366.95,-0.081,0.129,-0.988,-0.051,0.724,0.036,-0.395,0.228,0.11,-0.081,-0.129,0.66
2024-10-15 11:23:35.570,65366.96,-0.079,0.133,-0.988,-0.195,0.818,0.051,-0.224,0.051,0.869,-0.079,-0.133,0.665
2024-10-15 11:23:35.580,65366.97,-0.077,0.133,-0.988,-0.25,1.342,0.107,0.33,-0.052,1.201,-0.078,-0.133,0.676
2024-10-15 11:23:35.590,65366.98,-0.077,0.13,-0.988,-0.218,1.6,0.219,0.152,-0.331,1.338,-0.078,-0.131,0.689
2024-10-15 11:23:35.600,65366.99,-0.08,0.139,-0.987,-0.188,1.015,0.172,-1.758,-0.777,2.224,-0.081,-0.139,0.706
2024-10-15 11:23:35.610,65367.0,-0.085,0.159,-0.984,-0.063,-0.094,0.138,-1.596,-0.821,1.936,-0.086,-0.16,0.726
2024-10-15 11:23:35.620,65367.01,-0.089,0.168,-0.982,0.032,-0.263,0.404,-0.108,-0.444,1.376,-0.09,-0.169,0.741
2024-10-15 11:23:35.630,65367.02,-0.091,0.175,-0.98,-0.296,0.439,0.398,-1.082,-0.672,1.524,-0.093,-0.176,0.756
2024-10-15 11:23:35.640,65367.03,-0.094,0.188,-0.978,-0.212,-0.354,-0.299,-1.21,-0.243,0.933,-0.096,-0.189,0.767
2024-10-15 11:23:35.650,65367.04,-0.093,0.196,-0.976,0.054,-1.512,-0.615,-0.173,0.234,0.314,-0.094,-0.197,0.773
2024-10-15 11:23:35.660,65367.05,-0.09,0.193,-0.977,-0.142,-1.027,-0.5,0.764,0.195,-0.344,-0.092,-0.194,0.773
2024-10-15 11:23:35.670,65367.06,-0.089,0.184,-0.979,0.014,-0.776,-0.524,0.681,0.25,-0.696,-0.091,-0.185,0.768
2024-10-15 11:23:35.679,65367.07,-0.089,0.179,-0.98,0.272,-0.995,-0.345,0.263,0.195,-0.889,-0.09,-0.18,0.761
2024-10-15 11:23:35.690,65367.08,-0.088,0.174,-0.981,0.281,-0.893,-0.039,0.789,0.254,-1.29,-0.09,-0.175,0.75
2024-10-15 11:23:35.700,65367.09,-0.087,0.16,-0.983,0.2,-0.354,0.203,1.765,0.43,-1.537,-0.088,-0.16,0.737
2024-10-15 11:23:35.709,65367.1,-0.085,0.14,-0.987,0.034,0.208,0.136,1.84,0.565,-1.802,-0.086,-0.14,0.722
2024-10-15 11:23:35.719,65367.11,-0.082,0.126,-0.989,-0.041,0.069,-0.037,0.606,0.358,-1.613,-0.083,-0.126,0.705
2024-10-15 11:23:35.729,65367.12,-0.082,0.123,-0.989,-0.015,-0.4,0.083,-0.082,0.111,-1.473,-0.083,-0.123,0.69
2024-10-15 11:23:35.739,65367.13,-0.082,0.122,-0.989,0.053,-0.282,0.321,0.007,0.125,-1.158,-0.083,-0.123,0.677
2024-10-15 11:23:35.749,65367.14,-0.082,0.121,-0.989,-0.1,0.71,0.392,0.138,0.098,-0.671,-0.083,-0.121,0.668
2024-10-15 11:23:35.759,65367.15,-0.082,0.12,-0.989,-0.231,1.506,0.181,-0.13,-0.072,0.236,-0.083,-0.12,0.665
2024-10-15 11:23:35.769,65367.16,-0.083,0.121,-0.989,-0.206,1.179,-0.103,0.141,-0.103,0.915,-0.083,-0.121,0.671
2024-10-15 11:23:35.779,65367.17,-0.082,0.117,-0.99,-0.146,0.9,-0.205,0.885,0.001,1.076,-0.083,-0.117,0.682
2024-10-15 11:23:35.789,65367.18,-0.082,0.11,-0.991,-0.289,1.532,-0.096,0.424,-0.248,1.191,-0.082,-0.11,0.694
2024-10-15 11:23:35.799,65367.19,-0.084,0.117,-0.99,-0.275,1.164,-0.034,-1.716,-0.694,2.242,-0.085,-0.117,0.71
2024-10-15 11:23:35.809,65367.199,-0.089,0.141,-0.986,-0.061,-0.251,-0.047,-2.441,-0.867,2.508,-0.09,-0.141,0.733
2024-10-15 11:23:35.820,65367.209,-0.094,0.161,-0.982,0.005,-0.227,0.444,-1.129,-0.92,2.349,-0.095,-0.162,0.755
2024-10-15 11:23:35.829,65367.219,-0.101,0.17,-0.98,-0.235,0.961,0.875,-0.445,-1.152,2.03,-0.102,-0.171,0.776
2024-10-15 11:23:35.839,65367.229,-0.109,0.182,-0.977,-0.15,0.835,0.476,-1.524,-1.236,2.151,-0.111,-0.183,0.797
2024-10-15 11:23:35.849,65367.239,-0.114,0.199,-0.973,0.035,-0.463,-0.135,-1.174,-0.582,1.69,-0.117,-0.2,0.815
2024-10-15 11:23:35.859,65367.249,-0.115,0.206,-0.972,-0.039,-1.197,-0.496,0.087,-0.165,1.029,-0.117,-0.207,0.828
2024-10-15 11:23:35.869,65367.259,-0.115,0.202,-0.973,-0.209,-0.777,-0.509,0.804,-0.175,0.162,-0.118,-0.203,0.835
2024-10-15 11:23:35.879,65367.269,-0.115,0.193,-0.974,0.014,-0.902,-0.645,0.817,0.265,-0.652,-0.118,-0.194,0.833
2024-10-15 11:23:35.889,65367.279,-0.113,0.187,-0.976,0.114,-1.47,-0.65,0.138,0.507,-1.089,-0.115,-0.188,0.825
2024-10-15 11:23:35.899,65367.289,-0.111,0.187,-0.976,-0.002,-1.632,-0.356,-0.231,0.42,-1.495,-0.113,-0.188,0.811
2024-10-15 11:23:35.909,65367.299,-0.11,0.183,-0.977,0.107,-1.427,0.137,0.665,0.496,-2.132,-0.112,-0.184,0.793
2024-10-15 11:23:35.919,65367.309,-0.108,0.173,-0.979,0.156,-0.741,0.351,0.776,0.659,-2.06,-0.11,-0.174,0.773
2024-10-15 11:23:35.929,65367.319,-0.105,0.165,-0.981,-0.042,-0.211,0.14,0.377,0.64,-1.968,-0.107,-0.166,0.753
2024-10-15 11:23:35.939,65367.329,-0.102,0.16,-0.982,-0.05,-0.288,-0.053,0.386,0.714,-1.891,-0.103,-0.161,0.734
2024-10-15 11:23:35.949,65367.339,-0.097,0.154,-0.983,-0.039,0.225,0.071,0.471,0.729,-1.539,-0.098,-0.154,0.717
2024-10-15 11:23:35.959,65367.349,-0.092,0.149,-0.985,-0.121,1.139,0.014,0.296,0.624,-0.85,-0.093,-0.149,0.705
2024-10-15 11:23:35.969,65367.359,-0.088,0.147,-0.985,-0.117,1.317,-0.07,-0.039,0.392,0.03,-0.089,-0.148,0.701
2024-10-15 11:23:35.979,65367.369,-0.085,0.149,-0.985,-0.03,1.116,-0.015,-0.195,0.103,0.89,-0.086,-0.149,0.706
2024-10-15 11:23:35.989,65367.379,-0.083,0.15,-0.985,0.008,1.204,0.125,0.276,-0.036,1.11,-0.084,-0.15,0.716
2024-10-15 11:23:35.999,65367.389,-0.083,0.147,-0.986,-0.023,1.582,0.437,0.107,-0.369,1.212,-0.084,-0.148,0.728
2024-10-15 11:23:36.009,65367.399,-0.087,0.157,-0.984,-0.068,1.131,0.434,-1.904,-1.031,2.207,-0.088,-0.158,0.744
2024-10-15 11:23:36.019,65367.409,-0.094,0.179,-0.979,0.044,-0.151,0.242,-1.849,-1.021,2.076,-0.096,-0.18,0.765
2024-10-15 11:23:36.029,65367.419,-0.098,0.191,-0.977,0.084,-0.271,0.488,-0.303,-0.589,1.544,-0.1,-0.192,0.782
2024-10-15 11:23:36.039,65367.429,-0.102,0.201,-0.974,-0.327,0.913,0.501,-1.461,-1.026,2.079,-0.104,-0.202,0.799
2024-10-15 11:23:36.049,65367.439,-0.107,0.218,-0.97,-0.268,0.391,-0.205,-1.509,-0.706,1.977,-0.11,-0.22,0.818
2024-10-15 11:23:36.059,65367.449,-0.107,0.23,-0.967,0.043,-0.807,-0.637,-0.342,-0.222,1.852,-0.11,-0.232,0.837
2024-10-15 11:23:36.069,65367.459,-0.106,0.231,-0.967,-0.236,-0.119,-0.491,0.368,-0.488,1.402,-0.109,-0.233,0.854
2024-10-15 11:23:36.079,65367.469,-0.108,0.226,-0.968,-0.061,-0.109,-0.511,0.885,-0.246,0.488,-0.111,-0.228,0.864
2024-10-15 11:23:36.089,65367.479,-0.108,0.216,-0.97,0.215,-0.998,-0.503,1.069,0.259,-0.46,-0.111,-0.218,0.866
2024-10-15 11:23:36.099,65367.489,-0.106,0.207,-0.973,-0.026,-1.299,-0.401,0.388,0.502,-1.169,-0.108,-0.209,0.858
2024-10-15 11:23:36.109,65367.499,-0.104,0.206,-0.973,-0.152,-1.683,-0.22,-0.291,0.4,-1.563,-0.107,-0.208,0.844
2024-10-15 11:23:36.119,65367.509,-0.103,0.203,-0.974,-0.033,-1.868,0.098,0.773,0.747,-2.437,-0.105,-0.204,0.824
2024-10-15 11:23:36.129,65367.519,-0.099,0.189,-0.977,-0.037,-1.185,0.276,1.12,1.103,-2.652,-0.101,-0.19,0.799
2024-10-15 11:23:36.139,65367.529,-0.094,0.182,-0.979,-0.299,-0.33,0.009,-0.009,0.832,-2.337,-0.096,-0.183,0.774
2024-10-15 11:23:36.149,65367.539,-0.089,0.18,-0.98,-0.209,-0.566,-0.114,0.053,1.072,-2.289,-0.091,-0.181,0.751
2024-10-15 11:23:36.159,65367.549,-0.082,0.177,-0.981,-0.061,-0.205,0.172,0.312,1.028,-1.827,-0.083,-0.178,0.73
2024-10-15 11:23:36.169,65367.559,-0.076,0.173,-0.982,-0.21,1.284,0.263,0.158,0.637,-0.924,-0.078,-0.174,0.716
2024-10-15 11:23:36.179,65367.569,-0.072,0.173,-0.982,-0.057,1.67,0.068,-0.158,0.307,0.176,-0.074,-0.174,0.712
2024-10-15 11:23:36.189,65367.579,-0.07,0.175,-0.982,0.122,1.362,0.053,-0.189,-0.019,1.22,-0.071,-0.176,0.719
2024-10-15 11:23:36.200,65367.589,-0.069,0.176,-0.982,0.132,1.587,0.237,0.438,-0.3,1.412,-0.07,-0.176,0.733
2024-10-15 11:23:36.209,65367.599,-0.072,0.174,-0.982,0.126,2.006,0.546,-0.24,-0.921,1.683,-0.073,-0.175,0.748
2024-10-15 11:23:36.219,65367.609,-0.081,0.187,-0.979,0.116,1.265,0.428,-1.763,-1.539,2.382,-0.082,-0.188,0.769
2024-10-15 11:23:36.229,65367.619,-0.089,0.202,-0.975,0.255,-0.316,0.208,-0.883,-0.877,1.602,-0.091,-0.204,0.788
2024-10-15 11:23:36.239,65367.629,-0.094,0.214,-0.972,-0.052,-0.119,0.456,-1.422,-1.053,1.912,-0.097,-0.216,0.804
2024-10-15 11:23:36.248,65367.639,-0.101,0.231,-0.968,-0.508,0.259,0.15,-1.588,-1.036,1.741,-0.104,-0.233,0.821
2024-10-15 11:23:36.258,65367.649,-0.104,0.244,-0.964,-0.071,-0.95,-0.448,-0.714,-0.412,1.338,-0.108,-0.247,0.836
2024-10-15 11:23:36.269,65367.659,-0.105,0.248,-0.963,-0.202,-0.795,-0.62,0.008,-0.311,0.873,-0.108,-0.251,0.847
2024-10-15 11:23:36.279,65367.669,-0.106,0.245,-0.964,-0.274,-0.425,-0.679,0.703,-0.098,0.04,-0.109,-0.248,0.852
2024-10-15 11:23:36.289,65367.679,-0.105,0.237,-0.966,0.037,-1.032,-0.729,0.749,0.359,-0.662,-0.109,-0.24,0.85
2024-10-15 11:23:36.298,65367.689,-0.103,0.232,-0.967,0.003,-1.087,-0.558,0.155,0.396,-0.801,-0.106,-0.234,0.843
2024-10-15 11:23:36.309,65367.699,-0.102,0.231,-0.968,0.01,-1.345,-0.275,-0.032,0.431,-1.207,-0.105,-0.233,0.833
2024-10-15 11:23:36.318,65367.709,-0.101,0.226,-0.969,0.171,-1.032,0.208,1.015,0.551,-1.888,-0.104,-0.228,0.817
2024-10-15 11:23:36.329,65367.719,-0.099,0.211,-0.973,0.11,-0.279,0.312,1.377,0.782,-1.956,-0.101,-0.212,0.798
2024-10-15 11:23:36.339,65367.729,-0.095,0.201,-0.975,-0.072,-0.109,-0.104,0.415,0.668,-1.703,-0.097,-0.202,0.781
2024-10-15 11:23:36.348,65367.739,-0.091,0.195,-0.977,-0.079,-0.385,-0.205,0.472,0.979,-1.723,-0.093,-0.196,0.764
2024-10-15 11:23:36.359,65367.749,-0.084,0.187,-0.979,-0.059,0.038,0.041,0.815,0.912,-1.423,-0.086,-0.188,0.748
2024-10-15 11:23:36.368,65367.759,-0.08,0.179,-0.981,-0.186,1.143,0.28,0.526,0.446,-0.791,-0.081,-0.18,0.738
2024-10-15 11:23:36.378,65367.769,-0.077,0.177,-0.981,-0.0,1.227,0.215,-0.018,0.134,-0.076,-0.079,-0.178,0.734
2024-10-15 11:23:36.388,65367.779,-0.077,0.179,-0.981,0.149,1.046,0.247,-0.29,-0.209,0.845,-0.078,-0.18,0.737
2024-10-15 11:23:36.398,65367.789,-0.079,0.181,-0.98,0.071,1.041,0.317,0.071,-0.551,1.464,-0.08,-0.182,0.749
2024-10-15 11:23:36.408,65367.798,-0.083,0.179,-0.98,0.075,1.095,0.403,0.428,-0.92,1.347,-0.084,-0.179,0.764
2024-10-15 11:23:36.418,65367.808,-0.091,0.186,-0.978,0.008,1.267,0.369,-1.994,-1.541,2.31,-0.093,-0.187,0.781
2024-10-15 11:23:36.428,65367.818,-0.102,0.211,-0.972,0.007,0.231,0.083,-2.159,-1.417,2.142,-0.104,-0.212,0.803
2024-10-15 11:23:36.438,65367.828,-0.109,0.224,-0.968,0.21,-0.653,0.258,-0.196,-0.769,1.396,-0.112,-0.226,0.819
2024-10-15 11:23:36.448,65367.838,-0.114,0.232,-0.966,-0.358,0.379,0.336,-1.247,-1.165,1.605,-0.118,-0.234,0.833
2024-10-15 11:23:36.458,65367.848,-0.121,0.246,-0.962,-0.36,-0.067,-0.286,-1.222,-0.566,0.833,-0.125,-0.249,0.844
2024-10-15 11:23:36.468,65367.858,-0.12,0.254,-0.96,0.085,-1.435,-0.726,-0.232,0.208,0.262,-0.125,-0.257,0.849
2024-10-15 11:23:36.478,65367.868,-0.118,0.253,-0.96,-0.335,-0.874,-0.688,0.298,0.373,-0.332,-0.122,-0.256,0.849
2024-10-15 11:23:36.488,65367.878,-0.115,0.25,-0.961,-0.247,-0.722,-0.651,0.097,0.493,-0.82,-0.119,-0.253,0.843
2024-10-15 11:23:36.498,65367.888,-0.112,0.251,-0.962,0.082,-1.144,-0.52,-0.42,0.468,-0.967,-0.116,-0.253,0.834
2024-10-15 11:23:36.508,65367.898,-0.11,0.252,-0.962,0.129,-1.031,-0.136,0.107,0.63,-1.27,-0.114,-0.255,0.822
2024-10-15 11:23:36.518,65367.908,-0.107,0.244,-0.964,0.131,-0.629,0.268,1.086,0.644,-1.698,-0.111,-0.246,0.807
2024-10-15 11:23:36.528,65367.918,-0.107,0.235,-0.966,0.003,0.029,0.364,0.219,0.211,-1.525,-0.11,-0.237,0.791
2024-10-15 11:23:36.538,65367.928,-0.109,0.235,-0.966,0.001,0.072,0.275,-0.505,0.078,-1.105,-0.112,-0.238,0.778
2024-10-15 11:23:36.548,65367.938,-0.11,0.238,-0.965,0.179,-0.212,0.292,-0.19,0.249,-0.773,-0.113,-0.241,0.768
2024-10-15 11:23:36.558,65367.948,-0.109,0.238,-0.965,-0.076,0.656,0.448,0.078,0.1,-0.158,-0.112,-0.24,0.763
2024-10-15 11:23:36.568,65367.958,-0.109,0.239,-0.965,-0.296,1.756,0.294,-0.246,-0.175,0.609,-0.112,-0.241,0.765
2024-10-15 11:23:36.578,65367.968,-0.109,0.242,-0.964,-0.098,1.589,0.067,-0.022,-0.232,1.181,-0.112,-0.244,0.774
2024-10-15 11:23:36.588,65367.978,-0.108,0.239,-0.965,0.029,1.009,0.046,0.861,-0.317,1.126,-0.112,-0.241,0.787
2024-10-15 11:23:36.598,65367.988,-0.112,0.236,-0.965,-0.087,1.027,0.129,-0.292,-0.942,1.324,-0.115,-0.238,0.799
2024-10-15 11:23:36.608,65367.998,-0.119,0.252,-0.961,-0.096,0.423,0.012,-2.149,-1.294,1.967,-0.123,-0.254,0.815
2024-10-15 11:23:36.618,65368.008,-0.126,0.269,-0.955,0.195,-0.802,0.103,-0.834,-0.871,0.964,-0.131,-0.273,0.828
2024-10-15 11:23:36.628,65368.018,-0.13,0.274,-0.953,-0.024,-0.325,0.466,-0.443,-0.796,1.054,-0.136,-0.277,0.837
2024-10-15 11:23:36.638,65368.028,-0.135,0.281,-0.95,-0.557,0.232,0.052,-0.709,-0.681,0.631,-0.141,-0.285,0.846
2024-10-15 11:23:36.648,65368.038,-0.137,0.285,-0.949,-0.038,-1.126,-0.573,-0.192,0.241,-0.414,-0.144,-0.289,0.846
2024-10-15 11:23:36.658,65368.048,-0.135,0.287,-0.948,-0.131,-1.465,-0.736,-0.24,0.439,-0.49,-0.141,-0.291,0.841
2024-10-15 11:23:36.668,65368.058,-0.132,0.286,-0.949,-0.306,-1.375,-0.693,0.231,0.506,-0.562,-0.138,-0.29,0.835
2024-10-15 11:23:36.678,65368.068,-0.13,0.281,-0.951,0.181,-1.355,-0.385,0.61,0.281,-0.726,-0.136,-0.285,0.83
2024-10-15 11:23:36.688,65368.078,-0.13,0.271,-0.954,0.263,-0.2,-0.014,1.312,0.28,-1.267,-0.136,-0.275,0.821
2024-10-15 11:23:36.698,65368.088,-0.13,0.253,-0.959,0.344,0.391,0.147,1.938,0.491,-1.633,-0.135,-0.256,0.808
2024-10-15 11:23:36.708,65368.098,-0.129,0.237,-0.963,0.205,0.184,-0.205,0.81,0.611,-1.399,-0.133,-0.24,0.794
2024-10-15 11:23:36.718,65368.108,-0.124,0.231,-0.965,-0.048,-0.067,-0.323,0.335,1.024,-1.457,-0.128,-0.233,0.781
2024-10-15 11:23:36.727,65368.118,-0.118,0.225,-0.967,-0.053,-0.202,0.004,0.411,0.874,-1.315,-0.121,-0.227,0.767
2024-10-15 11:23:36.738,65368.128,-0.115,0.222,-0.968,-0.192,0.51,0.384,-0.011,0.303,-0.971,-0.118,-0.224,0.755
2024-10-15 11:23:36.748,65368.138,-0.115,0.224,-0.968,-0.019,0.735,0.514,-0.445,-0.037,-0.357,-0.118,-0.226,0.748
2024-10-15 11:23:36.758,65368.148,-0.117,0.229,-0.966,0.106,0.5,0.539,-0.641,-0.313,0.338,-0.12,-0.231,0.747
2024-10-15 11:23:36.768,65368.158,-0.119,0.234,-0.965,-0.055,0.871,0.56,-0.171,-0.503,0.796,-0.123,-0.236,0.753
2024-10-15 11:23:36.778,65368.168,-0.122,0.233,-0.965,-0.152,1.36,0.481,0.515,-0.488,0.911,-0.126,-0.235,0.762
2024-10-15 11:23:36.788,65368.178,-0.125,0.231,-0.965,-0.208,1.369,0.165,-0.109,-0.625,0.92,-0.129,-0.233,0.772
2024-10-15 11:23:36.798,65368.188,-0.129,0.243,-0.961,-0.218,0.508,-0.298,-2.139,-0.9,1.686,-0.134,-0.245,0.783
2024-10-15 11:23:36.808,65368.198,-0.133,0.266,-0.955,-0.151,-0.567,-0.324,-2.012,-0.71,1.673,-0.138,-0.269,0.798
2024-10-15 11:23:36.818,65368.208,-0.136,0.279,-0.951,-0.072,-0.407,0.408,-0.244,-0.896,1.479,-0.142,-0.283,0.813
2024-10-15 11:23:36.828,65368.218,-0.142,0.28,-0.949,-0.209,0.593,0.496,0.241,-1.008,1.126,-0.148,-0.284,0.826
2024-10-15 11:23:36.838,65368.228,-0.147,0.281,-0.948,0.057,0.052,-0.253,-0.186,-0.473,-0.143,-0.154,-0.285,0.832
2024-10-15 11:23:36.848,65368.238,-0.148,0.283,-0.948,0.176,-1.242,-0.882,-0.252,0.485,-0.593,-0.155,-0.286,0.826
2024-10-15 11:23:36.857,65368.248,-0.143,0.283,-0.948,-0.256,-1.864,-1.051,0.167,0.784,-0.415,-0.15,-0.287,0.822
2024-10-15 11:23:36.868,65368.258,-0.139,0.279,-0.95,-0.122,-1.933,-0.787,0.472,0.433,-0.717,-0.145,-0.282,0.816
2024-10-15 11:23:36.878,65368.268,-0.139,0.272,-0.952,0.222,-0.509,-0.117,0.673,0.179,-1.049,-0.145,-0.276,0.808
2024-10-15 11:23:36.887,65368.278,-0.139,0.261,-0.955,0.414,0.142,0.211,1.291,0.374,-1.321,-0.145,-0.264,0.797
2024-10-15 11:23:36.898,65368.288,-0.138,0.246,-0.959,0.346,0.161,0.215,1.361,0.489,-1.156,-0.143,-0.249,0.787
2024-10-15 11:23:36.908,65368.298,-0.136,0.232,-0.963,0.097,0.07,-0.007,1.209,0.624,-1.243,-0.14,-0.235,0.776
2024-10-15 11:23:36.917,65368.308,-0.133,0.222,-0.966,0.062,-0.023,-0.045,0.613,0.423,-1.129,-0.137,-0.224,0.765
2024-10-15 11:23:36.927,65368.318,-0.132,0.217,-0.967,0.029,0.045,0.062,0.2,0.215,-0.916,-0.136,-0.219,0.756
2024-10-15 11:23:36.937,65368.328,-0.132,0.214,-0.968,0.055,0.213,0.244,0.101,0.121,-0.675,-0.136,-0.216,0.748
2024-10-15 11:23:36.947,65368.338,-0.133,0.214,-0.968,-0.049,0.61,0.333,-0.241,-0.118,-0.272,-0.137,-0.216,0.743
2024-10-15 11:23:36.957,65368.348,-0.135,0.217,-0.967,-0.168,0.922,0.269,-0.411,-0.254,0.245,-0.139,-0.219,0.742
2024-10-15 11:23:36.968,65368.358,-0.137,0.221,-0.966,-0.138,0.71,0.208,-0.082,-0.355,0.633,-0.141,-0.223,0.746
2024-10-15 11:23:36.978,65368.368,-0.14,0.22,-0.965,-0.203,0.78,0.286,0.338,-0.436,0.72,-0.144,-0.222,0.753
2024-10-15 11:23:36.987,65368.378,-0.143,0.219,-0.965,-0.271,1.025,0.275,0.097,-0.504,0.705,-0.147,-0.22,0.761
2024-10-15 11:23:36.997,65368.388,-0.147,0.227,-0.963,-0.226,0.414,0.074,-1.593,-0.834,1.273,-0.151,-0.229,0.769
2024-10-15 11:23:37.007,65368.397,-0.152,0.247,-0.957,-0.186,-0.496,-0.097,-1.841,-0.894,1.418,-0.158,-0.25,0.781
2024-10-15 11:23:37.017,65368.407,-0.157,0.26,-0.953,-0.08,-0.523,0.272,-0.474,-0.769,1.146,-0.163,-0.263,0.792
2024-10-15 11:23:37.027,65368.417,-0.163,0.264,-0.951,-0.159,0.471,0.469,-0.255,-1.037,0.947,-0.17,-0.268,0.802
2024-10-15 11:23:37.037,65368.427,-0.168,0.27,-0.948,-0.008,0.321,-0.266,-0.619,-0.586,0.888,-0.176,-0.274,0.811
2024-10-15 11:23:37.047,65368.437,-0.169,0.274,-0.947,0.206,-0.709,-0.777,0.175,0.03,0.69,-0.176,-0.278,0.818
2024-10-15 11:23:37.057,65368.447,-0.166,0.269,-0.949,-0.005,-0.588,-0.783,1.063,0.156,0.202,-0.173,-0.272,0.824
2024-10-15 11:23:37.067,65368.457,-0.164,0.258,-0.952,0.019,-0.223,-0.611,1.144,0.301,-0.235,-0.171,-0.261,0.826
2024-10-15 11:23:37.077,65368.467,-0.162,0.249,-0.955,0.26,-0.537,-0.453,0.616,0.357,-0.291,-0.168,-0.252,0.825
2024-10-15 11:23:37.086,65368.477,-0.159,0.244,-0.957,0.347,-0.999,-0.15,0.25,0.277,-0.488,-0.165,-0.247,0.821
2024-10-15 11:23:37.097,65368.487,-0.159,0.241,-0.957,0.364,-0.724,0.407,0.24,0.102,-0.814,-0.165,-0.243,0.815
2024-10-15 11:23:37.106,65368.497,-0.161,0.237,-0.958,0.385,-0.38,0.685,0.352,0.076,-0.926,-0.166,-0.239,0.807
2024-10-15 11:23:37.117,65368.507,-0.161,0.232,-0.959,0.333,-0.311,0.484,0.349,0.23,-0.996,-0.167,-0.234,0.798
2024-10-15 11:23:37.126,65368.517,-0.161,0.226,-0.961,0.167,-0.245,0.163,0.63,0.431,-1.04,-0.166,-0.228,0.788
2024-10-15 11:23:37.137,65368.527,-0.158,0.215,-0.964,0.021,-0.129,-0.165,1.196,0.729,-1.33,-0.162,-0.217,0.778
2024-10-15 11:23:37.147,65368.537,-0.153,0.2,-0.968,-0.081,0.09,-0.381,1.304,0.915,-1.615,-0.156,-0.202,0.765
2024-10-15 11:23:37.157,65368.547,-0.147,0.189,-0.971,-0.175,0.184,-0.543,0.421,0.872,-1.7,-0.15,-0.19,0.75
2024-10-15 11:23:37.167,65368.557,-0.142,0.188,-0.972,-0.189,-0.063,-0.395,-0.458,0.716,-1.403,-0.145,-0.189,0.734
2024-10-15 11:23:37.177,65368.567,-0.139,0.191,-0.972,-0.191,-0.213,-0.005,-0.52,0.478,-0.823,-0.142,-0.192,0.722
2024-10-15 11:23:37.187,65368.577,-0.136,0.195,-0.971,-0.273,0.256,0.452,-0.532,0.148,-0.232,-0.14,-0.197,0.716
2024-10-15 11:23:37.197,65368.587,-0.138,0.201,-0.97,-0.321,1.096,0.804,-0.624,-0.43,0.491,-0.141,-0.202,0.716
2024-10-15 11:23:37.207,65368.597,-0.142,0.206,-0.968,-0.234,1.203,0.779,-0.086,-0.838,0.972,-0.146,-0.208,0.723
2024-10-15 11:23:37.217,65368.607,-0.148,0.206,-0.967,-0.196,1.152,0.666,0.327,-0.822,1.06,-0.152,-0.207,0.734
2024-10-15 11:23:37.227,65368.617,-0.155,0.211,-0.965,-0.393,1.34,0.332,-1.342,-1.146,1.8,-0.159,-0.213,0.747
2024-10-15 11:23:37.237,65368.627,-0.162,0.231,-0.959,-0.429,0.327,-0.226,-1.594,-1.088,1.847,-0.167,-0.233,0.763
2024-10-15 11:23:37.247,65368.637,-0.167,0.243,-0.956,-0.23,-0.431,-0.141,-0.398,-0.837,1.694,-0.173,-0.245,0.779
2024-10-15 11:23:37.257,65368.647,-0.172,0.253,-0.952,-0.441,0.602,0.016,-1.144,-1.144,1.824,-0.178,-0.255,0.796
2024-10-15 11:23:37.267,65368.657,-0.177,0.267,-0.947,-0.239,0.305,-0.325,-1.177,-0.726,1.491,-0.184,-0.271,0.811
2024-10-15 11:23:37.277,65368.667,-0.178,0.277,-0.944,0.148,-0.716,-0.403,-0.213,-0.39,1.354,-0.186,-0.28,0.824
2024-10-15 11:23:37.287,65368.677,-0.178,0.276,-0.945,0.026,-0.306,-0.369,0.832,-0.3,0.741,-0.186,-0.279,0.836
2024-10-15 11:23:37.297,65368.687,-0.179,0.267,-0.947,0.269,-0.34,-0.405,1.092,0.008,-0.536,-0.187,-0.27,0.838
2024-10-15 11:23:37.307,65368.697,-0.179,0.259,-0.949,0.434,-0.883,-0.48,0.18,0.338,-0.622,-0.186,-0.262,0.833
2024-10-15 11:23:37.317,65368.707,-0.177,0.258,-0.95,0.303,-1.667,-0.593,-0.134,0.517,-0.697,-0.184,-0.261,0.827
2024-10-15 11:23:37.326,65368.717,-0.174,0.256,-0.951,0.387,-1.866,-0.313,0.382,0.567,-1.27,-0.181,-0.259,0.817
2024-10-15 11:23:37.336,65368.727,-0.172,0.245,-0.954,0.343,-0.584,0.224,1.212,0.773,-1.959,-0.178,-0.247,0.802
2024-10-15 11:23:37.346,65368.737,-0.169,0.234,-0.957,0.258,0.042,0.083,0.287,0.637,-1.631,-0.175,-0.236,0.785
2024-10-15 11:23:37.356,65368.747,-0.166,0.23,-0.959,0.183,-0.48,-0.292,0.282,0.885,-1.508,-0.171,-0.232,0.77
2024-10-15 11:23:37.366,65368.757,-0.16,0.222,-0.962,0.145,-0.547,-0.101,0.791,0.995,-1.515,-0.165,-0.224,0.755
2024-10-15 11:23:37.377,65368.767,-0.156,0.213,-0.965,-0.08,0.402,0.283,0.473,0.515,-1.4,-0.16,-0.215,0.742
2024-10-15 11:23:37.387,65368.777,-0.154,0.209,-0.966,-0.031,0.708,0.144,-0.047,0.368,-1.155,-0.159,-0.211,0.729
2024-10-15 11:23:37.397,65368.787,-0.153,0.209,-0.966,0.02,0.438,0.102,-0.264,0.32,-0.684,-0.157,-0.211,0.719
2024-10-15 11:23:37.407,65368.797,-0.152,0.211,-0.966,-0.224,0.751,0.266,-0.216,0.056,-0.049,-0.156,-0.213,0.715
2024-10-15 11:23:37.417,65368.807,-0.152,0.213,-0.965,-0.334,0.995,0.4,-0.16,-0.319,0.648,-0.157,-0.215,0.718
2024-10-15 11:23:37.427,65368.817,-0.155,0.215,-0.964,-0.291,0.974,0.419,0.139,-0.618,1.033,-0.16,-0.217,0.727
2024-10-15 11:23:37.437,65368.827,-0.158,0.213,-0.964,-0.347,1.247,0.372,0.519,-0.508,1.11,-0.163,-0.215,0.738
2024-10-15 11:23:37.447,65368.837,-0.161,0.216,-0.963,-0.501,1.308,0.224,-0.86,-0.617,1.836,-0.165,-0.218,0.752
2024-10-15 11:23:37.457,65368.847,-0.164,0.234,-0.958,-0.546,0.448,-0.103,-1.587,-1.062,2.292,-0.17,-0.236,0.772
2024-10-15 11:23:37.466,65368.857,-0.168,0.245,-0.955,-0.281,-0.305,0.059,-0.051,-0.707,1.6,-0.175,-0.248,0.789
2024-10-15 11:23:37.476,65368.867,-0.172,0.251,-0.953,-0.301,0.646,0.454,-0.739,-1.175,1.914,-0.179,-0.253,0.807
2024-10-15 11:23:37.486,65368.877,-0.178,0.262,-0.948,-0.305,0.497,0.004,-0.898,-0.792,1.391,-0.186,-0.265,0.822
2024-10-15 11:23:37.497,65368.887,-0.179,0.269,-0.946,0.175,-1.209,-0.402,-0.011,-0.119,0.903,-0.187,-0.272,0.833
2024-10-15 11:23:37.506,65368.897,-0.179,0.268,-0.947,-0.05,-0.946,-0.434,0.117,0.015,-0.145,-0.187,-0.272,0.837
2024-10-15 11:23:37.517,65368.907,-0.178,0.269,-0.946,0.022,-0.819,-0.64,-0.375,0.355,-0.337,-0.186,-0.273,0.834
2024-10-15 11:23:37.526,65368.917,-0.173,0.27,-0.947,0.305,-1.861,-0.84,0.163,0.728,-0.314,-0.181,-0.273,0.83
2024-10-15 11:23:37.536,65368.927,-0.168,0.265,-0.949,0.337,-1.468,-0.564,0.696,0.577,-0.55,-0.175,-0.268,0.827
2024-10-15 11:23:37.546,65368.937,-0.166,0.255,-0.953,0.347,-0.159,-0.014,1.281,0.295,-1.027,-0.173,-0.257,0.821
2024-10-15 11:23:37.556,65368.947,-0.165,0.237,-0.957,0.509,0.19,0.162,2.004,0.676,-1.296,-0.171,-0.239,0.812
2024-10-15 11:23:37.566,65368.957,-0.16,0.217,-0.963,0.377,-0.006,0.049,1.674,0.898,-1.3,-0.165,-0.219,0.802
2024-10-15 11:23:37.576,65368.967,-0.155,0.203,-0.967,0.055,-0.126,-0.066,0.773,0.697,-1.331,-0.159,-0.205,0.79
2024-10-15 11:23:37.586,65368.977,-0.152,0.195,-0.969,0.074,-0.458,0.095,0.505,0.627,-1.368,-0.155,-0.197,0.778
2024-10-15 11:23:37.596,65368.987,-0.149,0.189,-0.971,0.08,-0.219,0.393,0.312,0.438,-1.238,-0.152,-0.19,0.765
2024-10-15 11:23:37.607,65368.996,-0.148,0.187,-0.971,-0.089,0.57,0.496,-0.205,0.107,-0.879,-0.152,-0.188,0.754
2024-10-15 11:23:37.616,65369.006,-0.149,0.19,-0.97,-0.12,0.769,0.32,-0.652,-0.054,-0.224,-0.153,-0.192,0.748
2024-10-15 11:23:37.626,65369.016,-0.15,0.197,-0.969,-0.193,0.749,0.168,-0.573,-0.133,0.461,-0.153,-0.198,0.748
2024-10-15 11:23:37.636,65369.026,-0.149,0.2,-0.968,-0.341,0.975,0.097,0.158,0.007,0.677,-0.153,-0.202,0.754
2024-10-15 11:23:37.646,65369.036,-0.147,0.196,-0.969,-0.454,1.428,0.114,0.74,0.064,0.887,-0.151,-0.198,0.763
2024-10-15 11:23:37.656,65369.046,-0.147,0.197,-0.969,-0.504,1.151,0.063,-0.771,-0.362,1.357,-0.15,-0.198,0.773
2024-10-15 11:23:37.666,65369.056,-0.15,0.215,-0.965,-0.335,-0.118,-0.096,-2.161,-0.828,1.587,-0.154,-0.217,0.787
2024-10-15 11:23:37.676,65369.066,-0.154,0.233,-0.96,-0.108,-0.675,0.303,-0.907,-0.614,1.013,-0.159,-0.235,0.797
2024-10-15 11:23:37.686,65369.076,-0.158,0.237,-0.959,-0.165,0.114,0.771,-0.11,-0.692,0.83,-0.163,-0.24,0.806
2024-10-15 11:23:37.697,65369.086,-0.163,0.245,-0.956,-0.284,0.452,0.264,-1.222,-0.783,0.803,-0.169,-0.248,0.813
2024-10-15 11:23:37.706,65369.096,-0.165,0.258,-0.952,0.003,-0.715,-0.493,-1.016,0.041,0.57,-0.172,-0.261,0.818
2024-10-15 11:23:37.716,65369.106,-0.162,0.264,-0.951,-0.011,-0.945,-0.544,-0.142,0.112,0.628,-0.169,-0.268,0.823
2024-10-15 11:23:37.726,65369.116,-0.161,0.263,-0.951,-0.095,-0.15,-0.45,0.496,-0.031,0.362,-0.167,-0.267,0.829
2024-10-15 11:23:37.736,65369.126,-0.16,0.257,-0.953,0.336,-0.157,-0.465,0.861,0.147,0.023,-0.166,-0.26,0.832
2024-10-15 11:23:37.746,65369.136,-0.158,0.249,-0.956,0.482,-0.388,-0.462,0.817,0.349,-0.307,-0.164,-0.251,0.832
2024-10-15 11:23:37.756,65369.146,-0.156,0.242,-0.958,0.394,-0.561,-0.362,0.44,0.298,-0.592,-0.161,-0.244,0.828
2024-10-15 11:23:37.766,65369.156,-0.155,0.238,-0.959,0.409,-0.732,-0.095,0.207,0.239,-0.792,-0.16,-0.24,0.822
2024-10-15 11:23:37.776,65369.166,-0.154,0.231,-0.961,0.427,-0.712,0.181,0.983,0.477,-1.233,-0.159,-0.233,0.813
2024-10-15 11:23:37.786,65369.176,-0.151,0.217,-0.964,0.279,-0.353,0.246,1.209,0.719,-1.448,-0.155,-0.219,0.8
2024-10-15 11:23:37.796,65369.186,-0.149,0.209,-0.966,0.038,-0.133,-0.008,0.039,0.379,-1.433,-0.153,-0.211,0.787
2024-10-15 11:23:37.806,65369.196,-0.147,0.206,-0.967,0.071,-0.62,-0.197,0.272,0.619,-1.505,-0.151,-0.208,0.772
2024-10-15 11:23:37.816,65369.206,-0.144,0.2,-0.969,0.01,-0.389,0.034,0.56,0.664,-1.454,-0.147,-0.201,0.758
2024-10-15 11:23:37.826,65369.216,-0.142,0.195,-0.971,-0.275,0.756,0.231,0.066,0.3,-1.057,-0.145,-0.196,0.746
2024-10-15 11:23:37.836,65369.226,-0.141,0.193,-0.971,-0.203,0.851,-0.006,-0.025,0.237,-0.44,-0.144,-0.195,0.738
2024-10-15 11:23:37.846,65369.236,-0.139,0.194,-0.971,-0.169,0.612,-0.055,-0.032,0.07,0.407,-0.142,-0.195,0.738
2024-10-15 11:23:37.856,65369.246,-0.139,0.195,-0.971,-0.347,1.084,0.104,-0.013,-0.273,0.918,-0.142,-0.196,0.745
2024-10-15 11:23:37.866,65369.256,-0.14,0.195,-0.971,-0.314,1.41,0.395,0.329,-0.468,1.065,-0.144,-0.196,0.755
2024-10-15 11:23:37.876,65369.266,-0.144,0.196,-0.97,-0.282,1.284,0.499,-0.559,-0.836,1.344,-0.148,-0.198,0.767
2024-10-15 11:23:37.886,65369.276,-0.151,0.213,-0.965,-0.31,0.464,0.245,-2.161,-1.293,1.953,-0.155,-0.215,0.782
2024-10-15 11:23:37.896,65369.286,-0.158,0.232,-0.96,-0.192,-0.486,0.184,-1.073,-0.821,1.055,-0.164,-0.234,0.794
2024-10-15 11:23:37.906,65369.296,-0.162,0.238,-0.957,-0.23,-0.089,0.512,-0.465,-0.667,1.08,-0.168,-0.241,0.803
2024-10-15 11:23:37.916,65369.306,-0.167,0.249,-0.954,-0.511,0.393,0.008,-1.175,-0.755,1.163,-0.173,-0.252,0.814
2024-10-15 11:23:37.926,65369.316,-0.168,0.259,-0.951,-0.105,-0.713,-0.629,-0.449,-0.027,0.935,-0.175,-0.262,0.823
2024-10-15 11:23:37.936,65369.326,-0.165,0.261,-0.951,-0.032,-0.683,-0.6,0.473,0.026,0.939,-0.172,-0.264,0.832
2024-10-15 11:23:37.946,65369.336,-0.164,0.255,-0.953,-0.105,0.113,-0.525,0.859,0.023,0.241,-0.17,-0.258,0.84
2024-10-15 11:23:37.956,65369.346,-0.162,0.249,-0.955,0.349,-0.323,-0.475,0.343,0.251,-0.176,-0.168,-0.252,0.841
2024-10-15 11:23:37.966,65369.356,-0.16,0.248,-0.955,0.436,-0.953,-0.351,-0.245,0.365,-0.376,-0.166,-0.251,0.838
2024-10-15 11:23:37.976,65369.366,-0.158,0.251,-0.955,0.439,-1.412,-0.127,-0.586,0.266,-0.548,-0.164,-0.254,0.833
2024-10-15 11:23:37.986,65369.376,-0.158,0.256,-0.953,0.442,-1.06,0.37,-0.556,0.033,-0.905,-0.165,-0.259,0.825
2024-10-15 11:23:37.996,65369.386,-0.16,0.255,-0.954,0.485,-0.546,0.553,0.633,0.311,-1.349,-0.166,-0.258,0.813
2024-10-15 11:23:38.006,65369.396,-0.159,0.243,-0.957,0.364,-0.164,0.338,1.265,0.642,-1.388,-0.164,-0.245,0.801
2024-10-15 11:23:38.016,65369.406,-0.157,0.232,-0.96,0.06,-0.005,-0.203,0.521,0.363,-1.103,-0.162,-0.235,0.79
2024-10-15 11:23:38.026,65369.416,-0.155,0.224,-0.962,0.059,-0.321,-0.482,1.005,0.616,-1.171,-0.16,-0.226,0.779
2024-10-15 11:23:38.036,65369.426,-0.15,0.209,-0.966,0.084,-0.133,-0.332,1.643,0.932,-1.268,-0.154,-0.21,0.769
2024-10-15 11:23:38.046,65369.436,-0.144,0.193,-0.971,-0.23,0.943,-0.1,1.171,0.691,-1.111,-0.148,-0.194,0.759
2024-10-15 11:23:38.056,65369.446,-0.141,0.184,-0.973,-0.226,0.921,-0.166,0.472,0.452,-0.755,-0.144,-0.185,0.751
2024-10-15 11:23:38.066,65369.456,-0.138,0.181,-0.974,-0.081,0.167,-0.003,0.086,0.237,-0.238,-0.141,-0.182,0.746
2024-10-15 11:23:38.075,65369.466,-0.138,0.181,-0.974,-0.209,0.344,0.345,-0.242,-0.21,0.284,-0.141,-0.182,0.746
2024-10-15 11:23:38.085,65369.476,-0.141,0.185,-0.973,-0.312,0.88,0.659,-0.206,-0.6,0.684,-0.144,-0.186,0.751
2024-10-15 11:23:38.096,65369.486,-0.145,0.185,-0.972,-0.287,0.979,0.689,0.386,-0.525,0.85,-0.148,-0.186,0.759
2024-10-15 11:23:38.106,65369.496,-0.148,0.186,-0.971,-0.423,0.975,0.446,-0.399,-0.475,1.305,-0.151,-0.187,0.769
2024-10-15 11:23:38.115,65369.506,-0.152,0.202,-0.968,-0.543,0.526,0.04,-2.237,-0.94,1.914,-0.156,-0.203,0.784
2024-10-15 11:23:38.126,65369.516,-0.157,0.223,-0.962,-0.326,-0.216,-0.03,-1.328,-0.821,1.437,-0.162,-0.225,0.798
2024-10-15 11:23:38.135,65369.526,-0.161,0.229,-0.96,-0.182,0.148,0.358,0.157,-0.668,1.161,-0.166,-0.232,0.81
2024-10-15 11:23:38.145,65369.536,-0.166,0.236,-0.958,-0.351,0.844,0.191,-1.134,-0.936,1.371,-0.171,-0.238,0.822
2024-10-15 11:23:38.155,65369.546,-0.169,0.25,-0.953,-0.083,-0.183,-0.406,-1.157,-0.245,0.874,-0.176,-0.252,0.831
2024-10-15 11:23:38.165,65369.556,-0.167,0.257,-0.952,0.115,-1.038,-0.477,-0.063,0.149,0.811,-0.174,-0.26,0.839
2024-10-15 11:23:38.175,65369.566,-0.165,0.254,-0.953,-0.083,-0.427,-0.279,0.828,0.022,-0.209,-0.172,-0.257,0.843
2024-10-15 11:23:38.185,65369.576,-0.164,0.246,-0.955,0.225,-0.331,-0.351,0.544,0.408,-0.493,-0.17,-0.248,0.84
2024-10-15 11:23:38.195,65369.586,-0.161,0.242,-0.957,0.347,-0.98,-0.512,0.128,0.619,-0.439,-0.166,-0.245,0.836
2024-10-15 11:23:38.205,65369.595,-0.156,0.24,-0.958,0.384,-1.433,-0.478,0.243,0.662,-0.674,-0.161,-0.242,0.831
2024-10-15 11:23:38.215,65369.605,-0.153,0.236,-0.96,0.412,-0.699,0.067,0.302,0.28,-1.007,-0.158,-0.238,0.823
2024-10-15 11:23:38.225,65369.615,-0.153,0.231,-0.961,0.481,-0.138,0.251,0.488,0.403,-1.235,-0.158,-0.233,0.812
2024-10-15 11:23:38.235,65369.625,-0.149,0.22,-0.964,0.487,-0.234,0.141,1.283,1.094,-1.507,-0.153,-0.222,0.8
2024-10-15 11:23:38.245,65369.635,-0.141,0.205,-0.969,0.143,-0.141,-0.056,1.126,1.013,-1.72,-0.145,-0.206,0.785
2024-10-15 11:23:38.255,65369.645,-0.138,0.198,-0.971,-0.07,-0.108,-0.33,0.083,0.453,-1.546,-0.141,-0.199,0.769
2024-10-15 11:23:38.265,65369.655,-0.135,0.193,-0.972,0.132,-0.625,-0.284,0.47,0.805,-1.601,-0.139,-0.194,0.754
2024-10-15 11:23:38.275,65369.665,-0.13,0.185,-0.974,0.006,-0.222,0.084,0.678,0.848,-1.443,-0.132,-0.186,0.739
2024-10-15 11:23:38.285,65369.675,-0.127,0.18,-0.976,-0.427,0.891,0.292,0.088,0.183,-1.065,-0.129,-0.181,0.727
2024-10-15 11:23:38.295,65369.685,-0.129,0.18,-0.975,-0.229,0.575,0.27,-0.287,-0.251,-0.552,-0.131,-0.181,0.719
2024-10-15 11:23:38.306,65369.695,-0.133,0.183,-0.974,-0.058,0.105,0.355,-0.44,-0.576,0.059,-0.136,-0.184,0.716
2024-10-15 11:23:38.315,65369.705,-0.139,0.186,-0.973,-0.305,0.813,0.441,-0.048,-0.735,0.483,-0.142,-0.187,0.718
2024-10-15 11:23:38.325,65369.715,-0.145,0.184,-0.972,-0.489,1.35,0.402,0.669,-0.545,0.75,-0.148,-0.185,0.725
2024-10-15 11:23:38.335,65369.725,-0.147,0.179,-0.973,-0.628,1.364,0.096,0.336,-0.302,1.018,-0.15,-0.18,0.735
2024-10-15 11:23:38.345,65369.735,-0.149,0.187,-0.971,-0.688,0.907,-0.202,-1.655,-0.762,1.83,-0.152,-0.188,0.748
2024-10-15 11:23:38.355,65369.745,-0.154,0.208,-0.966,-0.471,-0.183,-0.327,-1.634,-0.894,1.656,-0.158,-0.209,0.763
2024-10-15 11:23:38.365,65369.755,-0.158,0.218,-0.963,-0.153,-0.304,0.155,-0.09,-0.552,1.322,-0.162,-0.219,0.776
2024-10-15 11:23:38.376,65369.765,-0.163,0.226,-0.96,-0.265,0.775,0.468,-1.168,-1.288,1.71,-0.168,-0.228,0.791
2024-10-15 11:23:38.385,65369.775,-0.17,0.24,-0.956,-0.009,0.215,-0.043,-1.234,-0.836,1.216,-0.176,-0.243,0.804
2024-10-15 11:23:38.395,65369.785,-0.173,0.251,-0.953,0.399,-0.849,-0.239,-0.576,-0.371,1.181,-0.179,-0.254,0.814
2024-10-15 11:23:38.405,65369.795,-0.174,0.256,-0.951,0.103,-0.383,-0.247,-0.056,-0.415,0.74,-0.181,-0.259,0.824
2024-10-15 11:23:38.415,65369.805,-0.176,0.254,-0.951,0.327,-0.375,-0.385,0.445,-0.087,-0.134,-0.183,-0.257,0.827
2024-10-15 11:23:38.425,65369.815,-0.176,0.25,-0.952,0.546,-0.854,-0.48,0.25,0.152,-0.262,-0.183,-0.253,0.825
2024-10-15 11:23:38.435,65369.825,-0.174,0.247,-0.953,0.403,-1.202,-0.561,0.272,0.37,-0.435,-0.181,-0.25,0.822
2024-10-15 11:23:38.445,65369.835,-0.172,0.244,-0.954,0.432,-1.254,-0.328,0.149,0.251,-0.657,-0.179,-0.246,0.817
2024-10-15 11:23:38.455,65369.845,-0.172,0.239,-0.956,0.415,-0.58,0.114,0.612,0.277,-1.092,-0.178,-0.242,0.809
2024-10-15 11:23:38.465,65369.855,-0.17,0.226,-0.959,0.456,-0.239,0.264,1.522,0.845,-1.384,-0.175,-0.228,0.798
2024-10-15 11:23:38.475,65369.865,-0.165,0.213,-0.963,0.291,-0.203,0.034,0.681,0.592,-1.269,-0.17,-0.214,0.787
2024-10-15 11:23:38.485,65369.875,-0.163,0.206,-0.965,0.183,-0.443,-0.278,0.352,0.548,-1.225,-0.167,-0.208,0.775
2024-10-15 11:23:38.495,65369.885,-0.157,0.197,-0.968,0.307,-0.721,-0.239,1.329,1.117,-1.429,-0.161,-0.198,0.763
2024-10-15 11:23:38.505,65369.895,-0.15,0.18,-0.972,0.018,0.2,0.06,1.331,0.792,-1.434,-0.154,-0.181,0.751
2024-10-15 11:23:38.515,65369.905,-0.147,0.169,-0.975,-0.121,0.669,-0.185,0.627,0.484,-1.441,-0.15,-0.17,0.738
2024-10-15 11:23:38.525,65369.915,-0.144,0.162,-0.976,0.102,-0.03,-0.319,0.393,0.525,-1.269,-0.147,-0.163,0.725
2024-10-15 11:23:38.534,65369.925,-0.142,0.157,-0.977,-0.122,0.025,-0.06,0.233,0.306,-1.026,-0.144,-0.158,0.714
2024-10-15 11:23:38.545,65369.935,-0.142,0.155,-0.978,-0.405,0.57,0.244,-0.056,-0.058,-0.694,-0.144,-0.156,0.706
2024-10-15 11:23:38.555,65369.945,-0.145,0.156,-0.977,-0.381,0.629,0.401,-0.176,-0.293,-0.167,-0.147,-0.157,0.701
2024-10-15 11:23:38.565,65369.955,-0.148,0.158,-0.976,-0.456,0.642,0.468,-0.149,-0.438,0.327,-0.15,-0.158,0.702
2024-10-15 11:23:38.575,65369.965,-0.152,0.159,-0.976,-0.604,0.79,0.499,0.066,-0.412,0.5,-0.154,-0.16,0.706
2024-10-15 11:23:38.585,65369.975,-0.154,0.158,-0.975,-0.7,1.045,0.448,0.311,-0.226,0.652,-0.156,-0.158,0.712
2024-10-15 11:23:38.595,65369.985,-0.155,0.157,-0.975,-0.75,0.917,0.196,-0.029,-0.348,0.933,-0.158,-0.158,0.72
2024-10-15 11:23:38.605,65369.995,-0.157,0.163,-0.974,-0.656,0.306,-0.224,-0.895,-0.38,1.306,-0.16,-0.164,0.73
2024-10-15 11:23:38.615,65370.005,-0.157,0.179,-0.971,-0.532,0.086,-0.361,-1.714,-0.219,1.982,-0.16,-0.18,0.745
2024-10-15 11:23:38.625,65370.015,-0.155,0.193,-0.969,-0.393,0.362,-0.126,-0.377,-0.137,1.878,-0.159,-0.194,0.763
2024-10-15 11:23:38.635,65370.025,-0.153,0.192,-0.969,-0.151,0.831,-0.172,0.946,-0.194,1.909,-0.157,-0.194,0.782
2024-10-15 11:23:38.645,65370.035,-0.153,0.188,-0.97,-0.039,1.169,-0.153,0.325,-0.606,1.725,-0.157,-0.19,0.802
2024-10-15 11:23:38.655,65370.045,-0.156,0.189,-0.97,0.329,0.421,-0.309,0.07,-0.302,1.169,-0.159,-0.19,0.817
2024-10-15 11:23:38.665,65370.055,-0.154,0.189,-0.97,0.525,-0.744,-0.421,0.276,0.24,0.552,-0.157,-0.19,0.826
2024-10-15 11:23:38.674,65370.065,-0.15,0.188,-0.971,0.24,-0.921,-0.084,-0.048,0.429,-0.174,-0.154,-0.189,0.828
2024-10-15 11:23:38.685,65370.075,-0.146,0.189,-0.971,0.177,-1.155,-0.046,-0.399,0.761,-0.788,-0.149,-0.19,0.822
2024-10-15 11:23:38.695,65370.085,-0.139,0.193,-0.971,0.239,-1.62,-0.182,-0.752,0.998,-1.164,-0.142,-0.195,0.812
2024-10-15 11:23:38.705,65370.095,-0.131,0.2,-0.971,0.107,-1.556,-0.14,-0.873,1.076,-1.575,-0.134,-0.201,0.797
2024-10-15 11:23:38.715,65370.105,-0.125,0.205,-0.971,0.139,-1.412,0.1,-0.702,0.953,-1.793,-0.128,-0.207,0.778
2024-10-15 11:23:38.724,65370.115,-0.121,0.209,-0.97,0.257,-1.297,0.326,-0.486,0.599,-1.783,-0.124,-0.21,0.759
2024-10-15 11:23:38.734,65370.125,-0.121,0.211,-0.97,0.311,-0.87,0.409,-0.399,0.241,-1.72,-0.124,-0.212,0.741
2024-10-15 11:23:38.745,65370.135,-0.123,0.214,-0.969,0.304,-0.372,0.382,-0.676,0.085,-1.478,-0.126,-0.215,0.724
2024-10-15 11:23:38.754,65370.145,-0.124,0.221,-0.967,0.235,-0.099,0.28,-1.201,0.15,-1.159,-0.128,-0.223,0.71
2024-10-15 11:23:38.765,65370.155,-0.124,0.234,-0.964,0.141,0.158,0.171,-1.752,0.332,-0.888,-0.128,-0.236,0.697
2024-10-15 11:23:38.774,65370.165,-0.122,0.253,-0.96,0.033,0.437,0.126,-2.266,0.463,-0.629,-0.127,-0.255,0.687
2024-10-15 11:23:38.784,65370.175,-0.119,0.276,-0.954,-0.004,0.53,0.125,-2.715,0.408,-0.356,-0.124,-0.28,0.678
2024-10-15 11:23:38.794,65370.184,-0.117,0.302,-0.946,0.055,0.42,0.156,-2.879,0.266,-0.132,-0.123,-0.307,0.672
2024-10-15 11:23:38.804,65370.194,-0.115,0.328,-0.937,0.133,0.321,0.204,-2.603,0.092,-0.021,-0.122,-0.335,0.668
2024-10-15 11:23:38.814,65370.204,-0.115,0.35,-0.93,0.122,0.359,0.248,-1.876,-0.098,-0.001,-0.123,-0.357,0.665
2024-10-15 11:23:38.824,65370.214,-0.117,0.362,-0.925,0.064,0.39,0.258,-0.9,-0.318,-0.011,-0.126,-0.371,0.663
2024-10-15 11:23:38.834,65370.224,-0.121,0.367,-0.922,0.005,0.383,0.188,-0.225,-0.478,-0.059,-0.131,-0.376,0.662
2024-10-15 11:23:38.844,65370.234,-0.125,0.368,-0.921,-0.068,0.414,0.132,-0.12,-0.151,-0.098,-0.135,-0.377,0.661
2024-10-15 11:23:38.854,65370.244,-0.125,0.368,-0.921,-0.193,0.319,-0.081,0.2,0.206,0.05,-0.134,-0.377,0.661
2024-10-15 11:23:38.864,65370.254,-0.121,0.364,-0.923,-0.431,0.173,-0.55,0.581,0.467,0.117,-0.13,-0.373,0.662
2024-10-15 11:23:38.874,65370.264,-0.117,0.359,-0.926,-0.482,0.218,-0.352,0.499,0.255,0.054,-0.126,-0.367,0.664
2024-10-15 11:23:38.884,65370.274,-0.116,0.356,-0.927,-0.243,0.2,-0.156,0.262,0.058,-0.056,-0.124,-0.364,0.665
2024-10-15 11:23:38.894,65370.284,-0.115,0.354,-0.928,-0.038,-0.026,-0.065,0.187,0.126,-0.108,-0.124,-0.361,0.664
2024-10-15 11:23:38.904,65370.294,-0.114,0.352,-0.929,-0.092,-0.073,0.013,0.135,0.215,-0.127,-0.122,-0.36,0.663
2024-10-15 11:23:38.914,65370.304,-0.112,0.35,-0.93,-0.193,0.006,0.053,0.204,0.253,-0.121,-0.12,-0.358,0.662
2024-10-15 11:23:38.924,65370.314,-0.111,0.348,-0.931,-0.182,0.008,0.06,0.264,0.21,-0.13,-0.118,-0.356,0.661
2024-10-15 11:23:38.934,65370.324,-0.11,0.345,-0.932,-0.122,0.024,0.074,0.302,0.078,-0.108,-0.117,-0.353,0.66
2024-10-15 11:23:38.944,65370.334,-0.11,0.343,-0.933,-0.063,0.111,0.152,0.274,-0.122,-0.039,-0.117,-0.35,0.659
2024-10-15 11:23:38.954,65370.344,-0.112,0.34,-0.934,-0.014,0.17,0.235,0.384,-0.311,0.082,-0.119,-0.346,0.66
2024-10-15 11:23:38.964,65370.354,-0.115,0.335,-0.935,-0.014,0.284,0.274,0.732,-0.407,0.265,-0.122,-0.341,0.662
2024-10-15 11:23:38.974,65370.364,-0.118,0.327,-0.938,-0.066,0.429,0.191,0.988,-0.523,0.563,-0.125,-0.333,0.668
2024-10-15 11:23:38.984,65370.374,-0.121,0.319,-0.94,-0.126,0.524,0.009,0.872,-0.64,0.773,-0.128,-0.324,0.676
2024-10-15 11:23:38.994,65370.384,-0.125,0.315,-0.941,-0.123,0.567,-0.002,0.05,-0.785,1.155,-0.132,-0.32,0.687
2024-10-15 11:23:39.004,65370.394,-0.129,0.323,-0.938,-0.106,0.337,-0.013,-1.166,-1.002,1.704,-0.137,-0.328,0.701
2024-10-15 11:23:39.015,65370.404,-0.132,0.336,-0.933,0.001,0.01,-0.052,-1.055,-0.866,1.622,-0.141,-0.343,0.717
2024-10-15 11:23:39.024,65370.414,-0.134,0.344,-0.929,0.022,0.16,-0.012,-0.289,-0.715,1.41,-0.144,-0.352,0.732
2024-10-15 11:23:39.034,65370.424,-0.136,0.345,-0.929,-0.046,0.171,-0.068,0.596,-0.714,1.17,-0.146,-0.352,0.746
2024-10-15 11:23:39.044,65370.434,-0.139,0.336,-0.932,0.157,-0.25,-0.339,1.687,-0.405,0.597,-0.148,-0.342,0.757
2024-10-15 11:23:39.054,65370.444,-0.139,0.316,-0.939,0.283,-0.636,-0.541,2.521,0.227,-0.078,-0.147,-0.321,0.763
2024-10-15 11:23:39.064,65370.454,-0.136,0.294,-0.946,0.152,-0.733,-0.627,1.877,0.42,-0.445,-0.143,-0.298,0.764
2024-10-15 11:23:39.074,65370.464,-0.135,0.282,-0.95,0.115,-1.009,-0.643,0.489,0.258,-0.652,-0.141,-0.286,0.76
2024-10-15 11:23:39.084,65370.474,-0.134,0.279,-0.951,0.311,-1.364,-0.381,0.053,0.491,-0.972,-0.14,-0.283,0.752
2024-10-15 11:23:39.094,65370.484,-0.131,0.275,-0.952,0.346,-1.021,0.055,0.499,0.644,-1.228,-0.137,-0.279,0.74
2024-10-15 11:23:39.104,65370.494,-0.129,0.27,-0.954,0.149,-0.269,0.219,0.266,0.437,-1.113,-0.134,-0.273,0.729
2024-10-15 11:23:39.114,65370.504,-0.129,0.268,-0.955,0.13,-0.016,0.168,-0.21,0.313,-1.12,-0.134,-0.271,0.718
2024-10-15 11:23:39.124,65370.514,-0.128,0.269,-0.955,0.234,-0.163,0.156,-0.205,0.424,-1.058,-0.133,-0.272,0.706
2024-10-15 11:23:39.134,65370.524,-0.127,0.268,-0.955,0.122,-0.111,0.28,0.161,0.387,-0.941,-0.132,-0.271,0.696
2024-10-15 11:23:39.144,65370.534,-0.127,0.264,-0.956,-0.011,0.148,0.312,0.452,0.135,-0.91,-0.132,-0.267,0.687
2024-10-15 11:23:39.154,65370.544,-0.129,0.259,-0.957,-0.022,0.329,0.26,0.348,-0.11,-0.851,-0.134,-0.262,0.678
2024-10-15 11:23:39.164,65370.554,-0.133,0.255,-0.958,-0.049,0.444,0.171,0.088,-0.254,-0.689,-0.138,-0.258,0.671
2024-10-15 11:23:39.174,65370.564,-0.137,0.255,-0.957,-0.191,0.657,0.107,-0.035,-0.244,-0.357,-0.142,-0.257,0.665
2024-10-15 11:23:39.184,65370.574,-0.139,0.257,-0.957,-0.402,0.902,0.117,-0.38,-0.16,0.206,-0.144,-0.259,0.664
2024-10-15 11:23:39.194,65370.584,-0.138,0.261,-0.955,-0.542,0.936,0.122,-0.351,-0.027,0.703,-0.144,-0.264,0.668
2024-10-15 11:23:39.204,65370.594,-0.136,0.263,-0.955,-0.538,0.796,0.165,0.216,0.185,0.664,-0.141,-0.266,0.675
2024-10-15 11:23:39.214,65370.604,-0.132,0.258,-0.957,-0.498,0.787,0.186,0.843,0.238,0.497,-0.137,-0.261,0.682
2024-10-15 11:23:39.224,65370.614,-0.13,0.254,-0.958,-0.44,0.576,0.065,0.004,-0.18,0.744,-0.135,-0.257,0.689
2024-10-15 11:23:39.234,65370.624,-0.132,0.26,-0.956,-0.198,-0.334,-0.228,-1.054,-0.593,1.055,-0.137,-0.263,0.697
2024-10-15 11:23:39.244,65370.634,-0.134,0.27,-0.953,0.069,-0.874,-0.279,-0.561,-0.304,0.771,-0.14,-0.274,0.706
2024-10-15 11:23:39.253,65370.644,-0.133,0.273,-0.953,-0.011,-0.472,-0.074,0.124,-0.075,0.833,-0.139,-0.276,0.713
2024-10-15 11:23:39.264,65370.654,-0.133,0.272,-0.953,-0.195,-0.02,-0.126,0.335,-0.238,0.659,-0.138,-0.275,0.722
2024-10-15 11:23:39.274,65370.664,-0.134,0.268,-0.954,0.118,-0.339,-0.281,0.478,-0.097,-0.072,-0.139,-0.271,0.726
2024-10-15 11:23:39.283,65370.674,-0.134,0.263,-0.956,0.397,-0.701,-0.206,0.512,0.123,-0.658,-0.14,-0.266,0.722
2024-10-15 11:23:39.293,65370.684,-0.136,0.258,-0.956,0.363,-0.738,0.003,0.147,-0.017,-1.053,-0.141,-0.261,0.714
2024-10-15 11:23:39.303,65370.694,-0.139,0.256,-0.957,0.433,-1.059,0.186,0.039,-0.024,-1.335,-0.145,-0.259,0.702
2024-10-15 11:23:39.314,65370.704,-0.142,0.252,-0.957,0.418,-0.943,0.228,0.492,0.297,-1.627,-0.147,-0.254,0.687
2024-10-15 11:23:39.323,65370.714,-0.142,0.245,-0.959,0.137,-0.31,0.081,0.382,0.566,-1.482,-0.147,-0.247,0.672
2024-10-15 11:23:39.333,65370.724,-0.139,0.239,-0.961,-0.067,-0.071,-0.164,0.345,0.678,-1.45,-0.144,-0.242,0.657
2024-10-15 11:23:39.343,65370.734,-0.136,0.234,-0.963,0.0,-0.096,-0.271,0.485,0.747,-1.388,-0.14,-0.236,0.644
2024-10-15 11:23:39.353,65370.744,-0.132,0.227,-0.965,0.009,0.349,-0.117,0.598,0.568,-1.172,-0.136,-0.228,0.631
2024-10-15 11:23:39.363,65370.754,-0.13,0.219,-0.967,-0.01,0.861,-0.032,0.638,0.304,-0.736,-0.134,-0.221,0.622
2024-10-15 11:23:39.373,65370.764,-0.129,0.213,-0.969,-0.003,0.935,0.015,0.512,0.134,-0.235,-0.132,-0.215,0.618
2024-10-15 11:23:39.383,65370.774,-0.129,0.209,-0.969,-0.086,1.061,0.157,0.309,-0.049,0.242,-0.132,-0.21,0.619
2024-10-15 11:23:39.393,65370.783,-0.129,0.208,-0.97,-0.193,1.124,0.309,0.104,-0.309,0.75,-0.133,-0.209,0.624
2024-10-15 11:23:39.404,65370.793,-0.131,0.207,-0.97,-0.221,0.832,0.388,0.42,-0.367,0.885,-0.134,-0.208,0.633
2024-10-15 11:23:39.413,65370.803,-0.132,0.202,-0.971,-0.255,0.652,0.384,0.773,-0.247,0.745,-0.136,-0.203,0.642
2024-10-15 11:23:39.423,65370.813,-0.134,0.2,-0.971,-0.38,0.471,0.235,-0.454,-0.451,1.065,-0.137,-0.201,0.651
2024-10-15 11:23:39.433,65370.823,-0.137,0.215,-0.967,-0.368,-0.233,-0.096,-1.958,-0.772,1.671,-0.141,-0.217,0.664
2024-10-15 11:23:39.443,65370.833,-0.14,0.233,-0.962,-0.151,-0.7,-0.016,-1.115,-0.391,1.097,-0.145,-0.235,0.675
2024-10-15 11:23:39.453,65370.843,-0.141,0.241,-0.96,-0.169,0.009,0.339,-0.498,-0.425,1.358,-0.145,-0.244,0.686
2024-10-15 11:23:39.463,65370.853,-0.143,0.249,-0.958,-0.377,0.641,0.119,-0.686,-0.654,1.432,-0.148,-0.251,0.7
2024-10-15 11:23:39.473,65370.863,-0.144,0.258,-0.955,0.014,0.056,-0.302,-0.812,-0.362,1.299,-0.15,-0.261,0.713
2024-10-15 11:23:39.483,65370.873,-0.144,0.265,-0.954,0.2,-0.572,-0.339,-0.058,-0.209,1.005,-0.149,-0.268,0.724
2024-10-15 11:23:39.493,65370.883,-0.144,0.261,-0.954,0.153,-0.571,-0.349,0.916,-0.129,0.243,-0.149,-0.265,0.731
2024-10-15 11:23:39.503,65370.893,-0.144,0.25,-0.957,0.296,-0.632,-0.318,1.206,0.173,-0.563,-0.149,-0.253,0.731
2024-10-15 11:23:39.513,65370.903,-0.144,0.241,-0.96,0.354,-0.874,-0.346,0.452,0.213,-0.852,-0.148,-0.244,0.725
2024-10-15 11:23:39.523,65370.913,-0.144,0.238,-0.961,0.313,-1.307,-0.314,-0.043,0.281,-1.104,-0.149,-0.241,0.715
2024-10-15 11:23:39.533,65370.923,-0.143,0.234,-0.962,0.315,-1.248,-0.038,0.626,0.539,-1.321,-0.147,-0.237,0.703
2024-10-15 11:23:39.543,65370.933,-0.14,0.222,-0.965,0.155,-0.379,0.173,1.416,0.678,-1.399,-0.144,-0.224,0.691
2024-10-15 11:23:39.553,65370.943,-0.137,0.208,-0.968,0.019,0.25,0.026,0.977,0.518,-1.346,-0.14,-0.21,0.679
2024-10-15 11:23:39.563,65370.953,-0.135,0.199,-0.971,0.057,0.1,-0.09,0.687,0.53,-1.316,-0.138,-0.2,0.667
2024-10-15 11:23:39.573,65370.963,-0.132,0.191,-0.973,0.083,-0.175,-0.049,0.558,0.519,-1.293,-0.135,-0.192,0.654
2024-10-15 11:23:39.583,65370.973,-0.13,0.185,-0.974,-0.069,0.279,0.195,0.327,0.386,-1.146,-0.133,-0.186,0.642
2024-10-15 11:23:39.593,65370.983,-0.128,0.182,-0.975,-0.166,0.831,0.211,-0.051,0.281,-0.607,-0.131,-0.183,0.634
2024-10-15 11:23:39.603,65370.993,-0.127,0.184,-0.975,-0.213,0.869,0.1,-0.436,0.127,0.235,-0.129,-0.186,0.631
2024-10-15 11:23:39.613,65371.003,-0.125,0.189,-0.974,-0.255,0.797,0.073,-0.357,0.042,0.777,-0.128,-0.19,0.636
2024-10-15 11:23:39.623,65371.013,-0.123,0.19,-0.974,-0.302,1.124,0.224,0.41,0.029,0.914,-0.126,-0.192,0.645
2024-10-15 11:23:39.633,65371.023,-0.122,0.186,-0.975,-0.341,1.416,0.375,0.653,-0.163,1.023,-0.124,-0.187,0.655
2024-10-15 11:23:39.643,65371.033,-0.123,0.188,-0.974,-0.275,0.871,0.234,-0.853,-0.658,1.694,-0.126,-0.189,0.668
2024-10-15 11:23:39.653,65371.043,-0.128,0.204,-0.971,-0.133,-0.063,0.015,-1.484,-0.885,1.66,-0.131,-0.205,0.685
2024-10-15 11:23:39.663,65371.053,-0.131,0.214,-0.968,0.003,-0.379,0.309,-0.306,-0.443,1.109,-0.135,-0.216,0.697
2024-10-15 11:23:39.673,65371.063,-0.135,0.22,-0.966,-0.268,0.252,0.482,-0.839,-0.853,1.551,-0.139,-0.222,0.71
2024-10-15 11:23:39.683,65371.073,-0.139,0.233,-0.962,-0.326,0.113,0.002,-1.209,-0.69,1.223,-0.144,-0.235,0.723
2024-10-15 11:23:39.693,65371.083,-0.141,0.243,-0.96,0.117,-0.899,-0.314,-0.567,-0.219,0.838,-0.146,-0.246,0.731
2024-10-15 11:23:39.702,65371.093,-0.141,0.245,-0.959,-0.012,-0.93,-0.453,0.379,-0.214,0.445,-0.146,-0.248,0.738
2024-10-15 11:23:39.713,65371.103,-0.143,0.239,-0.96,0.002,-0.636,-0.65,0.679,-0.063,-0.188,-0.147,-0.242,0.74
2024-10-15 11:23:39.723,65371.113,-0.143,0.234,-0.962,0.262,-0.858,-0.706,0.274,0.111,-0.567,-0.148,-0.236,0.737
2024-10-15 11:23:39.733,65371.123,-0.143,0.232,-0.962,0.273,-1.093,-0.588,-0.011,0.335,-0.966,-0.148,-0.234,0.729
2024-10-15 11:23:39.742,65371.133,-0.142,0.23,-0.963,0.26,-1.106,-0.181,0.197,0.428,-1.295,-0.146,-0.232,0.718
2024-10-15 11:23:39.753,65371.143,-0.141,0.222,-0.965,0.224,-0.664,0.164,1.072,0.609,-1.846,-0.145,-0.224,0.703
2024-10-15 11:23:39.763,65371.153,-0.138,0.211,-0.968,0.163,-0.24,0.06,0.537,0.651,-1.671,-0.142,-0.212,0.686
2024-10-15 11:23:39.773,65371.163,-0.135,0.205,-0.969,-0.003,-0.146,-0.021,0.329,0.637,-1.699,-0.139,-0.206,0.67
2024-10-15 11:23:39.784,65371.173,-0.132,0.198,-0.971,0.049,-0.399,0.022,0.517,0.693,-1.625,-0.135,-0.2,0.654
2024-10-15 11:23:39.793,65371.183,-0.129,0.191,-0.973,-0.056,0.148,0.307,0.491,0.489,-1.433,-0.132,-0.192,0.639
2024-10-15 11:23:39.803,65371.193,-0.128,0.186,-0.974,-0.136,0.936,0.335,0.268,0.246,-0.862,-0.131,-0.187,0.627
2024-10-15 11:23:39.813,65371.203,-0.127,0.184,-0.975,-0.118,0.992,0.166,-0.054,0.104,0.05,-0.13,-0.186,0.623
2024-10-15 11:23:39.823,65371.213,-0.126,0.185,-0.975,-0.164,1.037,0.097,0.052,0.054,0.761,-0.128,-0.187,0.628
2024-10-15 11:23:39.832,65371.223,-0.124,0.184,-0.975,-0.241,1.435,0.196,0.604,-0.002,1.033,-0.126,-0.185,0.637
2024-10-15 11:23:39.843,65371.233,-0.122,0.176,-0.977,-0.25,1.662,0.326,1.039,-0.103,1.016,-0.125,-0.177,0.649
2024-10-15 11:23:39.852,65371.243,-0.123,0.173,-0.977,-0.192,1.193,0.227,-0.329,-0.39,1.216,-0.125,-0.174,0.66
2024-10-15 11:23:39.862,65371.253,-0.127,0.191,-0.973,-0.113,0.033,-0.017,-2.613,-0.892,1.878,-0.129,-0.192,0.674
2024-10-15 11:23:39.872,65371.263,-0.131,0.216,-0.967,0.024,-0.841,0.165,-1.877,-0.697,1.506,-0.135,-0.218,0.688
2024-10-15 11:23:39.882,65371.273,-0.134,0.226,-0.965,-0.025,-0.365,0.646,0.339,-0.477,1.041,-0.138,-0.228,0.7
2024-10-15 11:23:39.892,65371.283,-0.137,0.223,-0.965,-0.345,0.715,0.508,-0.139,-0.783,1.197,-0.141,-0.225,0.711
2024-10-15 11:23:39.902,65371.293,-0.141,0.232,-0.962,-0.218,0.319,-0.365,-1.032,-0.574,1.196,-0.146,-0.234,0.723
2024-10-15 11:23:39.912,65371.303,-0.141,0.24,-0.96,0.13,-1.192,-0.808,-0.231,0.186,0.75,-0.145,-0.242,0.732
2024-10-15 11:23:39.923,65371.313,-0.138,0.238,-0.962,-0.06,-1.114,-0.531,0.776,0.132,0.143,-0.142,-0.24,0.737
2024-10-15 11:23:39.933,65371.323,-0.138,0.229,-0.964,-0.092,-0.465,-0.352,0.89,0.106,-0.698,-0.142,-0.231,0.736
2024-10-15 11:23:39.943,65371.333,-0.138,0.223,-0.965,0.313,-0.915,-0.334,-0.007,0.192,-1.075,-0.142,-0.225,0.727
2024-10-15 11:23:39.952,65371.343,-0.138,0.225,-0.965,0.32,-1.445,-0.173,-0.554,0.313,-1.441,-0.143,-0.226,0.714
2024-10-15 11:23:39.962,65371.353,-0.138,0.226,-0.964,0.2,-1.395,0.105,-0.053,0.556,-1.823,-0.142,-0.228,0.697
2024-10-15 11:23:39.972,65371.363,-0.136,0.222,-0.965,0.038,-0.689,0.269,0.126,0.585,-1.709,-0.14,-0.224,0.679
2024-10-15 11:23:39.982,65371.373,-0.135,0.219,-0.966,-0.072,-0.12,0.17,0.151,0.601,-1.756,-0.138,-0.22,0.661
2024-10-15 11:23:39.992,65371.382,-0.132,0.215,-0.968,-0.008,0.025,0.034,0.108,0.705,-1.633,-0.135,-0.217,0.644
2024-10-15 11:23:40.003,65371.392,-0.128,0.212,-0.969,-0.062,0.433,-0.023,0.074,0.629,-1.189,-0.132,-0.214,0.63
2024-10-15 11:23:40.012,65371.402,-0.125,0.211,-0.969,-0.133,0.907,-0.052,-0.106,0.54,-0.546,-0.128,-0.213,0.621
2024-10-15 11:23:40.022,65371.412,-0.12,0.213,-0.97,-0.125,1.084,-0.056,-0.283,0.505,0.018,-0.123,-0.215,0.618
2024-10-15 11:23:40.032,65371.422,-0.115,0.216,-0.969,-0.12,1.257,0.086,-0.321,0.348,0.368,-0.119,-0.218,0.62
2024-10-15 11:23:40.043,65371.432,-0.112,0.219,-0.969,-0.09,1.21,0.252,-0.182,0.166,0.465,-0.115,-0.221,0.624
2024-10-15 11:23:40.052,65371.442,-0.11,0.22,-0.969,-0.022,0.895,0.333,0.061,0.189,0.324,-0.113,-0.222,0.628
2024-10-15 11:23:40.062,65371.452,-0.107,0.22,-0.97,-0.044,0.454,0.284,0.084,0.268,0.112,-0.11,-0.221,0.63
2024-10-15 11:23:40.072,65371.462,-0.104,0.22,-0.97,-0.129,-0.137,0.091,-0.09,0.339,-0.094,-0.107,-0.221,0.631
2024-10-15 11:23:40.082,65371.472,-0.101,0.222,-0.97,-0.189,-0.598,-0.079,-0.38,0.374,-0.276,-0.104,-0.224,0.628
2024-10-15 11:23:40.092,65371.482,-0.098,0.226,-0.969,-0.23,-0.732,-0.106,-0.629,0.387,-0.426,-0.101,-0.228,0.624
2024-10-15 11:23:40.102,65371.492,-0.095,0.233,-0.968,-0.206,-0.709,-0.051,-0.788,0.368,-0.434,-0.098,-0.235,0.619
2024-10-15 11:23:40.112,65371.502,-0.093,0.24,-0.966,-0.136,-0.63,0.036,-0.865,0.31,-0.408,-0.096,-0.243,0.614
2024-10-15 11:23:40.122,65371.512,-0.091,0.248,-0.964,-0.04,-0.435,0.11,-0.842,0.281,-0.463,-0.094,-0.251,0.609
2024-10-15 11:23:40.132,65371.522,-0.09,0.255,-0.963,0.039,-0.157,0.134,-0.637,0.261,-0.461,-0.093,-0.258,0.603
2024-10-15 11:23:40.142,65371.532,-0.088,0.259,-0.962,0.077,0.006,0.074,-0.258,0.273,-0.377,-0.092,-0.262,0.598
2024-10-15 11:23:40.152,65371.542,-0.087,0.259,-0.962,0.092,0.128,-0.009,0.141,0.282,-0.281,-0.09,-0.262,0.595
2024-10-15 11:23:40.162,65371.552,-0.085,0.257,-0.963,0.085,0.283,-0.069,0.336,0.265,-0.245,-0.088,-0.26,0.593
2024-10-15 11:23:40.172,65371.562,-0.082,0.253,-0.964,0.091,0.325,-0.097,0.386,0.318,-0.274,-0.085,-0.256,0.59
2024-10-15 11:23:40.181,65371.572,-0.079,0.249,-0.965,0.092,0.243,-0.085,0.335,0.433,-0.245,-0.082,-0.252,0.588
2024-10-15 11:23:40.192,65371.582,-0.076,0.246,-0.966,0.046,0.128,-0.048,0.22,0.445,-0.229,-0.078,-0.249,0.586
2024-10-15 11:23:40.202,65371.592,-0.072,0.245,-0.967,0.044,0.019,-0.006,0.079,0.416,-0.207,-0.074,-0.247,0.584
2024-10-15 11:23:40.211,65371.602,-0.069,0.244,-0.967,0.085,-0.033,0.058,0.05,0.38,-0.243,-0.071,-0.247,0.581
2024-10-15 11:23:40.222,65371.612,-0.066,0.244,-0.968,0.106,-0.021,0.103,0.002,0.3,-0.23,-0.068,-0.246,0.579
2024-10-15 11:23:40.232,65371.622,-0.064,0.244,-0.968,0.081,-0.008,0.079,-0.085,0.268,-0.222,-0.066,-0.246,0.576
2024-10-15 11:23:40.242,65371.632,-0.062,0.245,-0.968,0.051,-0.024,0.049,-0.188,0.27,-0.222,-0.064,-0.248,0.574
2024-10-15 11:23:40.252,65371.642,-0.06,0.247,-0.967,0.006,-0.046,-0.012,-0.285,0.289,-0.215,-0.062,-0.25,0.572
2024-10-15 11:23:40.262,65371.652,-0.057,0.25,-0.967,-0.039,-0.04,-0.068,-0.349,0.336,-0.219,-0.059,-0.253,0.569
2024-10-15 11:23:40.272,65371.662,-0.054,0.254,-0.966,-0.067,-0.032,-0.103,-0.421,0.35,-0.194,-0.056,-0.257,0.567
2024-10-15 11:23:40.282,65371.672,-0.052,0.258,-0.965,-0.075,-0.039,-0.11,-0.536,0.33,-0.177,-0.054,-0.261,0.565
2024-10-15 11:23:40.292,65371.682,-0.049,0.264,-0.963,-0.045,-0.053,-0.078,-0.601,0.307,-0.175,-0.051,-0.267,0.563
2024-10-15 11:23:40.302,65371.692,-0.047,0.27,-0.962,-0.012,-0.061,-0.037,-0.643,0.253,-0.182,-0.049,-0.273,0.561
2024-10-15 11:23:40.312,65371.702,-0.045,0.276,-0.96,0.003,-0.049,-0.012,-0.661,0.232,-0.172,-0.047,-0.279,0.558
2024-10-15 11:23:40.322,65371.712,-0.043,0.282,-0.958,0.01,-0.054,-0.001,-0.674,0.226,-0.164,-0.045,-0.286,0.556
2024-10-15 11:23:40.332,65371.722,-0.042,0.288,-0.957,0.015,-0.066,-0.006,-0.644,0.199,-0.152,-0.044,-0.292,0.554
2024-10-15 11:23:40.342,65371.732,-0.04,0.294,-0.955,0.023,-0.045,-0.018,-0.602,0.164,-0.141,-0.042,-0.299,0.553
2024-10-15 11:23:40.352,65371.742,-0.039,0.3,-0.953,0.038,-0.016,-0.036,-0.584,0.147,-0.138,-0.041,-0.304,0.551
2024-10-15 11:23:40.362,65371.752,-0.038,0.305,-0.952,0.046,0.016,-0.044,-0.524,0.157,-0.13,-0.04,-0.31,0.549
2024-10-15 11:23:40.372,65371.762,-0.037,0.309,-0.95,0.041,0.023,-0.043,-0.387,0.162,-0.114,-0.039,-0.315,0.548
2024-10-15 11:23:40.382,65371.772,-0.036,0.312,-0.949,0.036,0.033,-0.044,-0.245,0.124,-0.075,-0.038,-0.318,0.547
2024-10-15 11:23:40.392,65371.782,-0.035,0.314,-0.949,0.039,0.064,-0.021,-0.117,0.079,-0.057,-0.037,-0.319,0.546
2024-10-15 11:23:40.402,65371.792,-0.035,0.315,-0.949,0.05,0.088,0.012,-0.007,0.049,-0.059,-0.037,-0.32,0.545
2024-10-15 11:23:40.412,65371.802,-0.035,0.314,-0.949,0.037,0.087,0.025,0.044,0.038,-0.048,-0.036,-0.32,0.545
2024-10-15 11:23:40.423,65371.812,-0.034,0.314,-0.949,0.009,0.056,0.021,0.035,0.034,-0.035,-0.036,-0.319,0.544
2024-10-15 11:23:40.432,65371.822,-0.034,0.314,-0.949,-0.014,0.013,0.015,0.01,0.043,-0.024,-0.036,-0.319,0.544
2024-10-15 11:23:40.441,65371.832,-0.034,0.314,-0.949,-0.032,-0.013,0.01,-0.006,0.041,-0.024,-0.036,-0.319,0.544
2024-10-15 11:23:40.451,65371.842,-0.034,0.314,-0.949,-0.042,-0.023,0.009,-0.011,0.033,-0.013,-0.035,-0.319,0.543
2024-10-15 11:23:40.461,65371.852,-0.033,0.314,-0.949,-0.041,-0.033,0.016,-0.04,0.02,-0.005,-0.035,-0.319,0.543
2024-10-15 11:23:40.471,65371.862,-0.033,0.315,-0.949,-0.028,-0.046,0.025,-0.09,0.01,-0.012,-0.035,-0.32,0.543
2024-10-15 11:23:40.481,65371.872,-0.033,0.316,-0.948,-0.018,-0.043,0.033,-0.119,0.025,-0.022,-0.035,-0.321,0.543
2024-10-15 11:23:40.491,65371.882,-0.033,0.317,-0.948,-0.015,-0.031,0.026,-0.105,0.028,-0.026,-0.035,-0.323,0.543
2024-10-15 11:23:40.501,65371.892,-0.033,0.318,-0.947,-0.01,-0.011,0.013,-0.084,0.013,-0.018,-0.034,-0.324,0.543
2024-10-15 11:23:40.511,65371.902,-0.033,0.319,-0.947,0.0,0.008,0.01,-0.09,0.003,-0.013,-0.035,-0.325,0.542
2024-10-15 11:23:40.521,65371.912,-0.033,0.32,-0.947,0.012,0.018,0.012,-0.108,0.012,-0.013,-0.035,-0.326,0.542
2024-10-15 11:23:40.532,65371.922,-0.033,0.321,-0.947,0.014,0.024,0.011,-0.076,0.028,-0.009,-0.035,-0.326,0.542
2024-10-15 11:23:40.541,65371.932,-0.033,0.321,-0.947,0.014,0.02,0.005,-0.011,0.016,0.004,-0.035,-0.327,0.542
2024-10-15 11:23:40.552,65371.942,-0.033,0.321,-0.947,0.016,0.025,-0.007,0.014,-0.012,0.026,-0.035,-0.326,0.542
2024-10-15 11:23:40.561,65371.952,-0.033,0.32,-0.947,0.029,0.027,-0.009,-0.007,-0.012,0.025,-0.035,-0.326,0.542
2024-10-15 11:23:40.570,65371.962,-0.033,0.32,-0.947,0.034,0.011,-0.001,-0.036,-0.006,0.019,-0.035,-0.326,0.542
2024-10-15 11:23:40.580,65371.972,-0.034,0.321,-0.947,0.02,-0.003,0.001,-0.065,-0.018,0.019,-0.035,-0.326,0.542
2024-10-15 11:23:40.590,65371.981,-0.034,0.322,-0.946,0.017,-0.025,-0.001,-0.106,-0.02,0.015,-0.036,-0.327,0.542
2024-10-15 11:23:40.600,65371.991,-0.034,0.323,-0.946,0.019,-0.041,-0.005,-0.144,-0.013,0.008,-0.036,-0.329,0.543
2024-10-15 11:23:40.611,65372.001,-0.034,0.325,-0.945,0.011,-0.024,0.002,-0.201,0.001,0.005,-0.035,-0.331,0.543
2024-10-15 11:23:40.621,65372.011,-0.033,0.327,-0.944,0.003,-0.021,0.008,-0.245,0.014,-0.009,-0.035,-0.333,0.543
2024-10-15 11:23:40.631,65372.021,-0.033,0.33,-0.943,0.002,-0.028,0.009,-0.239,0.012,-0.018,-0.035,-0.336,0.542
2024-10-15 11:23:40.641,65372.031,-0.032,0.332,-0.943,0.001,-0.02,-0.0,-0.177,0.009,-0.013,-0.034,-0.338,0.542
2024-10-15 11:23:40.651,65372.041,-0.032,0.333,-0.942,-0.001,-0.0,-0.015,-0.073,0.007,0.003,-0.033,-0.34,0.543
2024-10-15 11:23:40.661,65372.051,-0.031,0.333,-0.942,-0.003,0.026,-0.017,0.037,-0.006,0.014,-0.033,-0.339,0.543
2024-10-15 11:23:40.671,65372.061,-0.031,0.332,-0.943,-0.006,0.053,-0.013,0.114,-0.017,0.019,-0.033,-0.338,0.543
2024-10-15 11:23:40.681,65372.071,-0.031,0.33,-0.943,-0.005,0.073,-0.0,0.157,-0.016,0.028,-0.033,-0.336,0.543
2024-10-15 11:23:40.691,65372.081,-0.031,0.328,-0.944,-0.011,0.064,0.007,0.162,-0.009,0.031,-0.033,-0.335,0.544
2024-10-15 11:23:40.701,65372.091,-0.031,0.327,-0.945,-0.019,0.048,0.013,0.136,0.003,0.025,-0.033,-0.333,0.544
2024-10-15 11:23:40.711,65372.101,-0.031,0.326,-0.945,-0.023,0.021,0.026,0.08,0.006,0.022,-0.033,-0.332,0.544
2024-10-15 11:23:40.721,65372.111,-0.031,0.325,-0.945,-0.019,-0.011,0.04,0.02,-0.0,0.011,-0.032,-0.331,0.545
2024-10-15 11:23:40.731,65372.121,-0.031,0.325,-0.945,-0.008,-0.027,0.045,-0.035,-0.001,0.0,-0.032,-0.331,0.545
2024-10-15 11:23:40.741,65372.131,-0.031,0.326,-0.945,-0.006,-0.036,0.03,-0.046,0.017,0.006,-0.032,-0.332,0.545
2024-10-15 11:23:40.751,65372.141,-0.03,0.326,-0.945,-0.013,-0.031,0.019,-0.028,0.01,0.012,-0.032,-0.333,0.545
2024-10-15 11:23:40.761,65372.151,-0.03,0.327,-0.945,-0.009,-0.017,0.01,0.019,-0.001,0.016,-0.032,-0.333,0.545
2024-10-15 11:23:40.771,65372.161,-0.03,0.327,-0.945,0.001,-0.003,0.001,0.036,-0.009,0.008,-0.032,-0.333,0.545
2024-10-15 11:23:40.781,65372.171,-0.031,0.327,-0.945,0.008,0.016,-0.007,0.042,-0.002,0.007,-0.032,-0.333,0.545
2024-10-15 11:23:40.791,65372.181,-0.031,0.327,-0.945,0.003,0.024,-0.009,0.041,0.005,0.006,-0.033,-0.333,0.545
2024-10-15 11:23:40.801,65372.191,-0.031,0.326,-0.945,0.004,0.019,-0.007,0.035,0.006,0.003,-0.033,-0.332,0.545
2024-10-15 11:23:40.819,65372.201,-0.031,0.326,-0.945,0.004,0.01,-0.003,0.001,0.008,0.001,-0.033,-0.332,0.545
2024-10-15 11:23:40.821,65372.211,-0.031,0.326,-0.945,0.007,-0.007,0.006,-0.025,0.022,-0.009,-0.032,-0.332,0.545
2024-10-15 11:23:40.831,65372.221,-0.031,0.326,-0.945,0.005,-0.014,0.013,-0.04,0.025,-0.01,-0.032,-0.332,0.545
2024-10-15 11:23:40.841,65372.231,-0.03,0.326,-0.945,0.001,-0.008,0.025,-0.037,0.013,-0.02,-0.032,-0.333,0.545
2024-10-15 11:23:40.851,65372.241,-0.03,0.327,-0.945,0.006,-0.011,0.033,-0.028,0.001,-0.015,-0.032,-0.333,0.545
2024-10-15 11:23:40.861,65372.251,-0.03,0.327,-0.944,0.005,-0.009,0.024,-0.028,-0.005,-0.004,-0.032,-0.333,0.544
2024-10-15 11:23:40.871,65372.261,-0.03,0.328,-0.944,-0.005,-0.0,0.008,-0.024,-0.002,-0.001,-0.032,-0.334,0.544
2024-10-15 11:23:40.881,65372.271,-0.03,0.328,-0.944,-0.016,0.005,-0.003,-0.011,0.003,0.007,-0.032,-0.334,0.544
2024-10-15 11:23:40.891,65372.281,-0.03,0.328,-0.944,-0.02,0.008,-0.0,0.018,0.001,0.012,-0.032,-0.334,0.545
2024-10-15 11:23:40.901,65372.291,-0.03,0.328,-0.944,-0.014,0.007,0.007,0.011,-0.018,0.014,-0.032,-0.334,0.545
2024-10-15 11:23:40.911,65372.301,-0.03,0.327,-0.944,-0.005,-0.003,0.015,0.007,-0.019,0.011,-0.032,-0.334,0.545
2024-10-15 11:23:40.921,65372.311,-0.03,0.328,-0.944,-0.001,-0.009,0.016,-0.023,-0.012,0.005,-0.032,-0.334,0.545
2024-10-15 11:23:40.931,65372.321,-0.03,0.328,-0.944,-0.009,-0.008,0.014,-0.042,0.011,-0.01,-0.032,-0.334,0.545
2024-10-15 11:23:40.941,65372.331,-0.03,0.328,-0.944,-0.011,-0.01,0.015,-0.031,0.013,-0.008,-0.032,-0.334,0.545
2024-10-15 11:23:40.951,65372.341,-0.03,0.328,-0.944,-0.009,-0.001,0.009,-0.016,0.002,-0.002,-0.032,-0.335,0.545
2024-10-15 11:23:40.960,65372.351,-0.03,0.329,-0.944,-0.001,0.007,0.006,-0.011,-0.005,-0.002,-0.032,-0.335,0.545
2024-10-15 11:23:40.971,65372.361,-0.031,0.329,-0.944,0.004,0.009,0.012,-0.017,0.006,-0.005,-0.033,-0.335,0.545
2024-10-15 11:23:40.980,65372.371,-0.031,0.329,-0.944,0.003,0.011,0.019,-0.031,0.011,-0.002,-0.033,-0.335,0.545
2024-10-15 11:23:40.991,65372.381,-0.031,0.33,-0.944,0.001,0.001,0.019,-0.036,0.012,0.004,-0.033,-0.336,0.545
2024-10-15 11:23:41.000,65372.391,-0.031,0.33,-0.944,0.004,-0.008,0.012,-0.04,0.018,0.006,-0.032,-0.336,0.545
2024-10-15 11:23:41.010,65372.401,-0.031,0.33,-0.943,0.008,-0.004,0.009,-0.059,0.02,0.003,-0.032,-0.337,0.545
2024-10-15 11:23:41.020,65372.411,-0.031,0.331,-0.943,0.009,-0.005,0.009,-0.082,0.022,-0.005,-0.032,-0.337,0.544
2024-10-15 11:23:41.030,65372.421,-0.03,0.332,-0.943,0.012,-0.012,0.002,-0.107,0.028,-0.005,-0.032,-0.338,0.544
2024-10-15 11:23:41.040,65372.431,-0.03,0.333,-0.943,0.012,-0.018,-0.006,-0.13,0.034,-0.013,-0.032,-0.339,0.544
2024-10-15 11:23:41.051,65372.441,-0.03,0.334,-0.942,0.01,-0.01,-0.005,-0.145,0.041,-0.023,-0.032,-0.341,0.544
2024-10-15 11:23:41.060,65372.451,-0.03,0.336,-0.942,0.006,-0.002,-0.007,-0.124,0.048,-0.023,-0.031,-0.342,0.544
2024-10-15 11:23:41.071,65372.461,-0.029,0.337,-0.941,0.002,0.0,-0.007,-0.078,0.041,-0.016,-0.031,-0.343,0.543
2024-10-15 11:23:41.080,65372.471,-0.029,0.337,-0.941,-0.002,0.009,-0.011,-0.052,0.036,-0.005,-0.031,-0.344,0.543
2024-10-15 11:23:41.090,65372.481,-0.029,0.337,-0.941,-0.004,0.025,-0.005,-0.042,0.03,-0.004,-0.03,-0.344,0.543
2024-10-15 11:23:41.100,65372.491,-0.028,0.338,-0.941,-0.004,0.027,0.01,-0.037,0.039,-0.005,-0.03,-0.344,0.543
2024-10-15 11:23:41.110,65372.501,-0.028,0.338,-0.941,-0.007,0.014,0.02,-0.031,0.041,-0.006,-0.029,-0.345,0.543
2024-10-15 11:23:41.120,65372.511,-0.027,0.338,-0.941,-0.011,0.0,0.021,-0.031,0.035,-0.002,-0.029,-0.345,0.543
2024-10-15 11:23:41.130,65372.521,-0.027,0.338,-0.941,-0.01,-0.003,0.018,-0.028,0.03,-0.01,-0.029,-0.345,0.543
2024-10-15 11:23:41.140,65372.531,-0.027,0.338,-0.941,-0.008,-0.001,0.024,-0.045,0.018,-0.011,-0.028,-0.345,0.543
2024-10-15 11:23:41.150,65372.541,-0.026,0.339,-0.941,-0.005,-0.004,0.023,-0.049,0.018,-0.014,-0.028,-0.345,0.543
2024-10-15 11:23:41.160,65372.551,-0.026,0.339,-0.94,-0.004,-0.006,0.011,-0.04,0.023,-0.016,-0.028,-0.346,0.543
2024-10-15 11:23:41.170,65372.561,-0.026,0.34,-0.94,-0.01,0.006,0.002,-0.024,0.024,-0.02,-0.028,-0.346,0.542
2024-10-15 11:23:41.180,65372.571,-0.026,0.34,-0.94,-0.008,0.018,-0.004,-0.006,0.019,-0.025,-0.028,-0.347,0.542
2024-10-15 11:23:41.191,65372.58,-0.026,0.34,-0.94,-0.004,0.025,-0.005,-0.0,0.014,-0.017,-0.028,-0.347,0.542
2024-10-15 11:23:41.200,65372.59,-0.026,0.34,-0.94,-0.001,0.027,-0.003,0.008,0.022,-0.013,-0.028,-0.347,0.542
2024-10-15 11:23:41.210,65372.6,-0.026,0.34,-0.94,0.0,0.021,-0.002,0.006,0.028,-0.012,-0.028,-0.347,0.542
2024-10-15 11:23:41.220,65372.61,-0.026,0.34,-0.94,0.002,0.015,-0.004,0.019,0.024,-0.01,-0.028,-0.347,0.541
2024-10-15 11:23:41.230,65372.62,-0.026,0.34,-0.94,0.01,0.003,0.0,0.027,0.016,-0.01,-0.028,-0.347,0.541
2024-10-15 11:23:41.240,65372.63,-0.026,0.34,-0.94,0.016,-0.014,0.003,0.026,0.003,-0.017,-0.028,-0.347,0.541
2024-10-15 11:23:41.250,65372.64,-0.026,0.34,-0.94,0.017,-0.012,0.004,0.001,-0.004,-0.026,-0.028,-0.346,0.541
2024-10-15 11:23:41.260,65372.65,-0.026,0.34,-0.94,0.014,-0.009,0.006,-0.017,0.014,-0.028,-0.028,-0.347,0.541
2024-10-15 11:23:41.270,65372.66,-0.026,0.34,-0.94,0.009,-0.021,0.003,-0.022,0.016,-0.028,-0.028,-0.347,0.54
2024-10-15 11:23:41.280,65372.67,-0.026,0.341,-0.94,0.002,-0.013,0.003,-0.009,0.008,-0.03,-0.028,-0.348,0.54
2024-10-15 11:23:41.290,65372.68,-0.027,0.341,-0.94,0.003,-0.002,0.006,0.01,0.007,-0.034,-0.028,-0.348,0.54
2024-10-15 11:23:41.300,65372.69,-0.027,0.341,-0.94,0.004,0.006,0.006,0.025,0.004,-0.035,-0.028,-0.348,0.539
2024-10-15 11:23:41.310,65372.7,-0.027,0.341,-0.94,-0.002,0.018,0.008,0.019,0.003,-0.038,-0.028,-0.348,0.539
2024-10-15 11:23:41.320,65372.71,-0.026,0.34,-0.94,-0.008,0.019,0.013,0.004,0.007,-0.038,-0.028,-0.347,0.539
2024-10-15 11:23:41.330,65372.72,-0.026,0.34,-0.94,-0.012,0.012,0.02,-0.005,0.015,-0.038,-0.028,-0.347,0.538
2024-10-15 11:23:41.340,65372.73,-0.026,0.34,-0.94,-0.016,0.008,0.032,-0.009,0.004,-0.04,-0.028,-0.347,0.538
2024-10-15 11:23:41.350,65372.74,-0.026,0.34,-0.94,-0.015,0.0,0.039,-0.001,0.003,-0.035,-0.028,-0.347,0.538
2024-10-15 11:23:41.360,65372.75,-0.026,0.34,-0.94,-0.014,-0.01,0.034,-0.0,0.003,-0.034,-0.028,-0.347,0.537
2024-10-15 11:23:41.370,65372.76,-0.026,0.34,-0.94,-0.013,-0.019,0.02,-0.013,0.008,-0.028,-0.028,-0.347,0.537
2024-10-15 11:23:41.380,65372.77,-0.026,0.34,-0.94,-0.016,-0.011,-0.001,-0.012,0.025,-0.018,-0.028,-0.347,0.537
2024-10-15 11:23:41.390,65372.78,-0.026,0.34,-0.94,-0.018,0.001,-0.014,-0.002,0.034,-0.011,-0.028,-0.347,0.536
2024-10-15 11:23:41.400,65372.79,-0.026,0.341,-0.94,-0.008,0.008,-0.019,0.029,0.033,-0.008,-0.027,-0.348,0.536
2024-10-15 11:23:41.410,65372.8,-0.026,0.34,-0.94,0.008,0.016,-0.014,0.061,0.037,-0.013,-0.027,-0.347,0.536
2024-10-15 11:23:41.420,65372.81,-0.025,0.34,-0.94,0.019,0.027,-0.009,0.078,0.025,-0.008,-0.027,-0.347,0.536
2024-10-15 11:23:41.430,65372.82,-0.025,0.339,-0.94,0.023,0.024,-0.005,0.079,0.023,-0.018,-0.027,-0.346,0.536
2024-10-15 11:23:41.440,65372.83,-0.025,0.339,-0.941,0.024,0.012,-0.006,0.069,0.028,-0.023,-0.027,-0.345,0.536
2024-10-15 11:23:41.450,65372.84,-0.025,0.338,-0.941,0.017,0.006,0.005,0.046,0.022,-0.029,-0.027,-0.345,0.535
2024-10-15 11:23:41.460,65372.85,-0.026,0.337,-0.941,0.011,-0.008,0.011,0.037,0.016,-0.033,-0.027,-0.344,0.535
2024-10-15 11:23:41.470,65372.86,-0.026,0.337,-0.941,0.008,-0.022,0.016,0.037,0.008,-0.018,-0.027,-0.344,0.535
2024-10-15 11:23:41.480,65372.87,-0.026,0.337,-0.941,0.0,-0.023,0.013,0.036,0.009,-0.015,-0.027,-0.344,0.534
2024-10-15 11:23:41.490,65372.88,-0.026,0.337,-0.941,-0.002,-0.02,0.018,0.023,0.004,-0.003,-0.027,-0.343,0.534
2024-10-15 11:23:41.499,65372.89,-0.025,0.337,-0.941,-0.005,-0.013,0.011,0.014,-0.001,0.011,-0.027,-0.343,0.534
2024-10-15 11:23:41.509,65372.9,-0.025,0.337,-0.941,-0.01,-0.001,0.01,0.037,0.002,0.01,-0.027,-0.343,0.535
2024-10-15 11:23:41.520,65372.91,-0.025,0.336,-0.941,-0.006,-0.001,0.003,0.058,0.003,0.025,-0.026,-0.343,0.535
2024-10-15 11:23:41.530,65372.92,-0.025,0.336,-0.942,-0.009,0.009,-0.004,0.068,-0.004,0.026,-0.026,-0.343,0.535
2024-10-15 11:23:41.540,65372.93,-0.025,0.335,-0.942,0.004,0.008,0.005,0.079,-0.003,0.028,-0.026,-0.342,0.536
2024-10-15 11:23:41.550,65372.94,-0.024,0.334,-0.942,0.009,0.005,0.007,0.084,-0.004,0.024,-0.026,-0.341,0.536
2024-10-15 11:23:41.559,65372.95,-0.024,0.333,-0.942,0.006,-0.002,0.009,0.067,-0.012,0.02,-0.026,-0.34,0.536
2024-10-15 11:23:41.570,65372.96,-0.025,0.333,-0.943,0.004,-0.004,0.011,0.034,-0.011,0.014,-0.026,-0.339,0.536
