,timestamp,UserAccelerationX,UserAccelerationY,UserAccelerationZ,AttitudePitch,AttitudeRoll,AttitudeYaw,GravityX,GravityY,GravityZ,RotationRateX,RotationRateY,RotationRateZ,Date
1178,1730433575.777031,0.0856943503022193,-0.0250443369150161,0.04310804605484,0.2163396385823247,0.0682931829495155,-0.3366288912171455,0.0666494145989418,-0.2146560251712799,-0.9744129776954652,-0.2315908819437027,-0.2574251294136047,0.4644559919834137,2024/09/23 03:33:52 PM
1706,1730433581.048192,0.0034727379679679,0.0019316971302032,0.0026769042015075,0.3052813178824584,-0.1094980234925168,0.1510098361793905,-0.1042265370488166,-0.3005614876747131,-0.9480504393577576,-0.0278201177716255,-0.002136131748557,0.0079902727156877,2024/09/23 03:42:40 PM
920,1730433573.2016869,0.1002745255827903,0.092654287815094,0.029933750629425,0.2583766331799805,0.0861285058699177,-0.3482397952172192,0.0831666514277458,-0.2555114030838012,-0.963222324848175,-0.3550155460834503,-0.6292921900749207,-0.1830487549304962,2024/09/23 03:29:34 PM
111,1730433565.127145,-0.0754249989986419,0.007317692041397,0.0255060791969299,0.3983051074501318,-0.1153262993693885,-0.1667505503248823,-0.1060630455613136,-0.3878566920757293,-0.9155969619750975,-0.2932378053665161,-0.1405179798603058,-1.1405998468399048,2024/09/23 03:16:05 PM
1011,1730433574.110466,-0.0098312422633171,0.0076645016670227,-0.0165807604789733,0.2530317687610731,0.0759336584712637,-0.3379583268112925,0.0734451413154602,-0.2503403425216675,-0.9653680920600892,0.0838975831866264,0.2003621160984039,0.0237661991268396,2024/09/23 03:31:05 PM
1100,1730433574.998691,-0.006264291703701,-0.0029088705778121,0.0035785436630249,0.2233233443295383,0.0654924705355795,-0.3570243516965249,0.0638204365968704,-0.2214716523885727,-0.9730761647224426,-0.0532901063561439,0.0027821939438581,-0.0071308366023004,2024/09/23 03:32:34 PM
1972,1730433583.706095,0.0610403418540954,-0.0375775396823883,0.0037193894386291,0.3564591120049253,-0.0919674330408822,0.1437950171080403,-0.086064763367176,-0.3489581346511841,-0.9331779479980468,-0.0745706856250763,-0.1550425887107849,-0.2971494495868683,2024/09/23 03:47:06 PM
1219,1730433576.1860929,0.0179273411631584,-0.0336220562458038,-0.0026877522468566,0.1614912229518088,0.0421425879048929,-0.3142892096961859,0.0415819436311721,-0.160790205001831,-0.9861122965812684,-0.139884278178215,-0.0893250927329063,-0.0021771972533315,2024/09/23 03:34:33 PM
1068,1730433574.678611,-0.0261760130524635,0.0566774308681488,-0.0018752813339233,0.2282401362028517,0.0537800816506358,-0.3193645569418633,0.0523601062595844,-0.2262636572122573,-0.9726577997207642,0.0508057810366153,-0.0188485328108072,-0.2453938424587249,2024/09/23 03:32:02 PM
846,1730433572.463222,-0.0643943920731544,0.0407115519046783,-0.012330949306488,0.2490585054137638,0.0773697440692292,-0.3343826047214784,0.0749077126383781,-0.2464916259050369,-0.966245710849762,0.4023690223693847,0.8149568438529968,0.0971413478255271,2024/09/23 03:28:20 PM
453,1730433568.538961,0.0081543326377868,0.0619811415672302,-0.020791471004486,0.255596801676784,0.0711658434298529,-0.3024523743614725,0.0687957480549812,-0.2528228759765625,-0.9650636315345764,0.0646631643176078,-0.0431528091430664,0.0454282462596893,2024/09/23 03:21:47 PM
703,1730433571.036779,0.0261798575520515,0.0163406729698181,0.0547872185707092,0.2542077063974526,0.0684009003812925,-0.3125825137685151,0.0661510825157165,-0.2514786422252655,-0.9655995965003968,-0.039612453430891,-0.0877791345119476,0.0042593968100845,2024/09/23 03:25:57 PM
764,1730433571.644556,0.0249008014798164,0.0087139308452606,0.0201749205589294,0.2718301649269726,0.1108421747174526,-0.3339827595491544,0.1065536737442016,-0.2684948444366455,-0.9573697447776794,0.0450189858675003,0.112953171133995,-0.0355152897536754,2024/09/23 03:26:58 PM
421,1730433568.220107,0.0071652010083198,0.0350585579872131,0.0177567601203918,0.2565369001949353,0.0781726811803102,-0.3010269664447828,0.0755374506115913,-0.2537323236465454,-0.9643204808235168,-0.0046022534370422,0.0375196672976017,0.0016854515997692,2024/09/23 03:21:15 PM
1818,1730433582.166304,0.0035510137677192,0.0309887528419494,0.0173553824424743,0.3433600158465786,-0.0856446057388517,0.1288109012923122,-0.0805468782782554,-0.3366528749465942,-0.938177525997162,0.1947290152311325,0.422634869813919,0.7353306412696838,2024/09/23 03:44:32 PM
1966,1730433583.643948,0.0010237619280815,-0.0176193118095397,0.009829044342041,0.3476481880474178,-0.1010409942993107,0.144895968478344,-0.0948348119854927,-0.34068763256073,-0.9353813529014589,0.0434488914906978,0.0085977390408515,0.0264501329511404,2024/09/23 03:47:00 PM
537,1730433569.378028,-0.0081568285822868,0.0276962518692016,0.0001622438430786,0.2591802063186535,0.0823155489738207,-0.3082296563901896,0.0794764161109924,-0.2562882304191589,-0.9633274674415588,0.0932648926973342,0.0195116382092237,-0.0102628208696842,2024/09/23 03:23:11 PM
1673,1730433580.7185612,0.009009875357151,-0.0122388899326324,0.0148578286170959,0.310906878430916,-0.1092900177037554,0.1523514815817446,-0.1038432642817497,-0.3059221506118774,-0.946376383304596,-0.0120359547436237,-0.0104353399947285,0.0078444369137287,2024/09/23 03:42:07 PM
1992,1730433583.907238,0.0409634783864021,-0.0191361606121063,0.0258995294570922,0.351100654712241,-0.0953634896069143,0.1388921279990366,-0.0894101485610008,-0.3439315259456634,-0.9347282648086548,-0.0732519403100013,-0.1343048214912414,-0.0647907182574272,2024/09/23 03:47:26 PM
512,1730433569.128391,-0.007355123758316,0.0270235836505889,0.0164075493812561,0.2546825248098168,0.078587115084114,-0.3078537421704636,0.0759738981723785,-0.2519381940364837,-0.9647564888000488,-0.0300608202815055,0.0019257214153185,0.022452462464571,2024/09/23 03:22:46 PM
1381,1730433577.803913,0.0094103179872035,0.0149915814399719,0.0184922814369201,0.1374331262610207,0.0319578109655357,-0.3250653992184667,0.0316510908305645,-0.1370009034872055,-0.9900651574134828,0.1025989204645156,0.0167094599455595,-0.0226529650390148,2024/09/23 03:37:15 PM
833,1730433572.3326569,0.0118252784013748,0.0498480349779129,-0.0072239637374877,0.2482519755886445,0.0703908421238044,-0.3402081310021124,0.0681765675544738,-0.2457098960876464,-0.9669429063796996,-0.1697262823581695,-0.2713920772075653,-0.0286756493151187,2024/09/23 03:28:07 PM
292,1730433566.932354,0.007549338042736,0.0372220277786254,0.0018466114997863,0.3007375393838741,0.0417768575674685,-0.3187278867579597,0.0398902334272861,-0.2962247133255005,-0.9542849063873292,-0.0665199905633926,0.1200800538063049,0.0023299898020923,2024/09/23 03:19:06 PM
1468,1730433578.671404,0.0716988071799278,-0.1768763661384582,-0.0636031627655029,0.4663900450200836,-0.111406145257566,-0.0093106219898985,-0.0993019640445709,-0.449664831161499,-0.8876602053642273,-0.0606531836092472,0.1014613658189773,0.1328010261058807,2024/09/23 03:38:42 PM
120,1730433565.214896,-0.0818591862916946,-0.1029617190361023,0.1094837188720703,0.3369409096264156,-0.0721273468695317,-0.3025890155073746,-0.0680126473307609,-0.3306015729904175,-0.941316545009613,-1.3707849979400637,-0.0435826405882835,-1.6758381128311155,2024/09/23 03:16:14 PM
56,1730433564.575848,0.0411277711391449,0.0895614326000213,-0.0063295364379882,0.4249438572265457,-0.1886372257146084,0.0402429572963919,-0.1708427518606186,-0.4122696220874786,-0.8949002623558044,0.0332375988364219,-0.0453214198350906,-0.003017317969352,2024/09/23 03:15:10 PM
994,1730433573.941359,0.0157972797751426,0.0340888798236846,0.0236904621124267,0.2758237577068147,0.1183677164128941,-0.3290410301791867,0.1136277839541435,-0.2723396420478821,-0.9554684162139891,-0.1051419451832771,-0.3083429038524627,-0.0657931417226791,2024/09/23 03:30:48 PM
790,1730433571.903689,-0.0104732140898704,0.0075214803218841,-0.0010022521018981,0.2779792285779437,0.1284127239712356,-0.3334516553907415,0.123144119977951,-0.2744130194187164,-0.9536944031715392,0.0434237979352474,0.1602996438741684,0.0177696663886308,2024/09/23 03:27:24 PM
1388,1730433577.873544,-0.0030685663223266,0.0205779671669006,-0.0020384192466735,0.1475933742997291,0.0328968196818625,-0.3281060452074097,0.0325332917273044,-0.1470580995082855,-0.9885926842689514,0.3208077549934387,0.029523791745305,-0.1003676205873489,2024/09/23 03:37:22 PM
813,1730433572.1334162,0.0404519438743591,0.0160898864269256,0.0120483040809631,0.3029603068627867,0.1889023400486857,-0.3342771325486015,0.1792288571596145,-0.298346996307373,-0.9374786019325256,0.008765559643507,-0.1791449934244156,-0.1079972684383392,2024/09/23 03:27:47 PM
997,1730433573.970248,0.0202126204967498,0.0287348628044128,0.0016759634017944,0.2722593465383849,0.1093770939455562,-0.3287499276876697,0.1051383465528488,-0.2689082324504852,-0.957410216331482,-0.1531621366739273,-0.3184844851493835,0.0353447720408439,2024/09/23 03:30:51 PM
1464,1730433578.6325011,0.0422223657369613,-0.0125139355659484,0.0303433537483215,0.475922610663115,-0.1072054680906654,-0.0114243197502295,-0.0951093435287475,-0.4581587314605713,-0.8837673664093018,-0.0174084436148405,0.0644950941205024,0.1333425492048263,2024/09/23 03:38:38 PM
414,1730433568.15048,-0.0211018025875091,0.0979734361171722,-0.0324130058288574,0.2579283037321854,0.0746166238125353,-0.3007189904738853,0.072081409394741,-0.2550779283046722,-0.9642300009727478,0.0348868444561958,0.0534871816635131,-0.037817109376192,2024/09/23 03:21:08 PM
898,1730433572.981934,-0.012840561568737,0.0059360563755035,0.004276692867279,0.2746025329999317,0.1238651679817496,-0.3233255559012412,0.1189196854829788,-0.2711643874645233,-0.9551585912704468,0.3448079228401184,0.7176806330680847,0.1077222451567649,2024/09/23 03:29:12 PM
845,1730433572.456558,-0.0728673860430717,0.0412573665380477,-0.0157851576805114,0.2450892500756929,0.0696160107682932,-0.3353940064992885,0.0674810484051704,-0.2426429092884063,-0.9677658677101136,0.3700107932090759,0.7884442806243896,0.1560131907463073,2024/09/23 03:28:19 PM
447,1730433568.483031,0.0047307163476943,0.0204384922981262,0.0051316618919372,0.256029885595998,0.0791360369719444,-0.302488788237317,0.0764765590429306,-0.2532418668270111,-0.964375376701355,0.0438209399580955,-0.0074073262512683,-0.0217751320451498,2024/09/23 03:21:41 PM
1814,1730433582.126482,-0.0119961574673652,-0.0127174258232116,-0.0012499690055847,0.3374785117773541,-0.0894446445071449,0.0961770030886128,-0.0842868089675903,-0.3311088979244232,-0.9398205280303956,0.155691921710968,0.2337158024311065,0.563963770866394,2024/09/23 03:44:28 PM
697,1730433570.975714,-0.0181313082575798,0.0527218580245971,-0.0261155366897583,0.2514698670575339,0.0667256942065681,-0.3093730770237967,0.064579077064991,-0.2488278597593307,-0.9663923978805542,0.0902487784624099,0.0719572678208351,-0.0715343803167343,2024/09/23 03:25:51 PM
1138,1730433575.3779268,-0.0236562490463256,-0.0180835127830505,-0.0074802637100219,0.22283071404167,0.0682731635842883,-0.3597020232450713,0.0665334463119506,-0.220991238951683,-0.9730036854743958,0.0380476750433445,0.0975100323557853,0.1570734828710556,2024/09/23 03:33:12 PM
1840,1730433582.3872828,-0.0257103443145751,0.0031909048557281,0.0050247311592102,0.3393156381421847,-0.0896200690279126,0.1033423368480897,-0.084397092461586,-0.3328418433666229,-0.9391983151435852,0.1898959875106811,0.2974388897418976,0.680314302444458,2024/09/23 03:44:54 PM
75,1730433564.765823,0.0268877744674682,0.0665833055973053,-0.0072590112686157,0.4123362515707652,-0.1862094821904906,0.0374542264784905,-0.1696185171604156,-0.4007508754730224,-0.900348961353302,0.0117903174832463,-0.0485244020819664,-0.0141005422919988,2024/09/23 03:15:29 PM
241,1730433566.423118,-0.1165412962436676,0.0157861113548278,0.0311226248741149,0.2968605682543626,0.012345265284432,-0.5655088683075785,0.0118049783632159,-0.2925195395946502,-0.9561867117881776,0.1632791012525558,0.3994091749191284,0.6955204010009766,2024/09/23 03:18:15 PM
169,1730433565.704782,0.0088384971022605,0.1259922981262207,-0.0309454798698425,-0.4432169211993608,-0.0885093005175047,-0.8173622669588616,-0.0798528939485549,0.4288477599620819,-0.8998405933380127,-0.5685298442840576,-0.0441174060106277,0.2576431334018707,2024/09/23 03:17:03 PM
1533,1730433579.3211389,-0.0332892686128616,-0.0930193066596984,-0.0573770999908447,0.1004478982667592,-0.1441109313291709,0.1451045340882097,-0.1428887397050857,-0.1002790704369545,-0.9846456050872804,1.0978134870529177,-0.0277022123336792,-0.2615421116352081,2024/09/23 03:39:47 PM
347,1730433567.481629,-0.0104832872748374,0.0218429565429687,-0.038277268409729,0.2764177445469831,0.0562570139106829,-0.3016945873341095,0.054092913866043,-0.2729111313819885,-0.9605172872543336,0.0515981987118721,0.0402656532824039,0.0494433306157588,2024/09/23 03:20:01 PM
47,1730433496.370929,0.0121809244155883,0.0038719773292541,-0.007291555404663,0.8114586833295119,0.1568047246698946,-0.0847603387295314,0.1075089871883392,-0.7252921462059021,-0.6799948811531067,0.0014023232506588,-0.1223765239119529,-0.0008025105926208,2024/09/23 03:15:01 PM
1005,1730433574.0496712,-0.0619934946298599,0.0208755135536193,-0.0148215889930725,0.2528551880953184,0.0737413964838947,-0.3367322513345905,0.0713318884372711,-0.2501693665981293,-0.965570867061615,-0.0623761489987373,-0.1387826651334762,-0.0647965297102928,2024/09/23 03:30:59 PM
1616,1730433580.151792,0.0026596784591674,-0.0103163719177246,0.0440131425857543,0.3087599036161925,-0.1070531699320267,0.1462082326679013,-0.1017960533499717,-0.3038774132728576,-0.947257161140442,0.0502806529402732,-0.0285786595195531,-0.063993901014328,2024/09/23 03:41:10 PM
1453,1730433578.522542,-0.0220907479524612,-0.0210900604724884,-0.0051342844963073,0.4595958163365729,-0.0829455733572999,-0.0485493741065156,-0.0742532536387443,-0.4435859024524688,-0.8931506276130676,0.3580662906169891,-0.2084714621305465,0.416908860206604,2024/09/23 03:38:27 PM
535,1730433569.358134,0.0010884851217269,0.027922123670578,-0.0061976909637451,0.2575988017269602,0.0817759936294125,-0.3080010703442202,0.0789896473288536,-0.2547593116760254,-0.96377295255661,0.0811199098825454,0.0129115274176001,0.0074184918776154,2024/09/23 03:23:09 PM
547,1730433569.477604,-0.0081773847341537,0.0130167007446289,-0.0620391368865966,0.2521927886482841,0.0716292051340225,-0.3072155323659178,0.0693041011691093,-0.2495279759168625,-0.9658844470977784,0.3021716773509979,0.2976157069206238,-0.0088802138343453,2024/09/23 03:23:21 PM
1773,1730433581.719681,0.0315062701702117,-0.0496931374073028,0.0457002520561218,0.3303682320937562,-0.0937103824079473,0.1417622528209232,-0.0885131210088729,-0.3243913650512695,-0.9417726397514344,-0.2004796862602234,-0.2324364483356475,-0.5166898369789124,2024/09/23 03:43:47 PM
824,1730433572.243619,0.0407266318798065,-0.0146417319774627,0.0281974673271179,0.2825444297917344,0.1318766229944608,-0.3382904941628265,0.1262808293104171,-0.2788001000881195,-0.9520103335380554,-0.4608339369297027,-0.9675922393798828,-0.1566983759403228,2024/09/23 03:27:58 PM
1211,1730433576.1063929,0.0052484683692455,0.0287947505712509,0.0052650570869445,0.170178980806456,0.0531613432092809,-0.3161815419489674,0.0523687228560447,-0.1693587452173233,-0.9841621518135072,-0.0693797469139099,0.1887067854404449,-0.0418204814195632,2024/09/23 03:34:25 PM
236,1730433566.373323,-0.0400660932064056,0.0744409561157226,-0.0093176960945129,0.2820538720683606,0.0057632234400364,-0.6060012575834858,0.0055354638025164,-0.2783289551734924,-0.9604698419570924,0.3395118117332458,0.2791549563407898,0.8457030653953552,2024/09/23 03:18:10 PM
585,1730433569.857689,0.0067553892731666,0.0138731896877288,0.0216522216796875,0.2585344299964717,0.0717380490942741,-0.30480016133062,0.0692944154143333,-0.2556639611721039,-0.9642791152000428,0.03019680082798,-0.0709767192602157,0.0012332468759268,2024/09/23 03:23:59 PM
181,1730433565.823624,-0.0119565799832344,0.0720806121826171,0.0447729229927063,-0.5351274100082547,-0.0998996815705425,-0.8011783568390706,-0.0857912078499794,0.5099506378173828,-0.855914831161499,-0.516130268573761,-0.305143654346466,0.1375067234039306,2024/09/23 03:17:15 PM
1171,1730433575.710277,0.0170167163014411,-0.010652020573616,-0.0097865462303161,0.2163742287391629,0.0703273475406659,-0.3663427673106094,0.0686308667063713,-0.2146898210048675,-0.9742679595947266,0.0247896574437618,0.1162911802530288,0.3628558218479156,2024/09/23 03:33:45 PM
1758,1730433581.569672,0.0255931392312049,-0.0249311029911041,0.0144650340080261,0.3152084329419136,-0.1072763760236103,0.1501987511288591,-0.1017955541610717,-0.3100146353244781,-0.9452664256095886,-0.0078836940228939,-0.1022211909294128,-0.0664006024599075,2024/09/23 03:43:32 PM
558,1730433569.587541,0.0143099129199981,0.0311637818813323,0.0191532373428344,0.2582212889900631,0.0814334924134564,-0.3114032915804717,0.0786466374993324,-0.2553612291812897,-0.9636417031288148,-0.0513667538762092,0.0102158756926655,0.0337589122354984,2024/09/23 03:23:32 PM
1322,1730433577.214917,-0.0267226099967956,0.0225131660699844,0.0101484060287475,0.227488446780467,0.0959109652149457,-0.322648370090717,0.0932967141270637,-0.2255313992500305,-0.96975839138031,0.1980201750993728,0.3201282024383545,-0.4496600925922394,2024/09/23 03:36:16 PM
1422,1730433578.214839,0.0731903240084648,-0.0182925760746002,0.0168396830558776,0.2871988508719136,0.0667844808141486,-0.2660524896128166,0.0640014633536338,-0.283266931772232,-0.9569031596183776,0.2619668543338775,0.0644551441073417,0.7857165932655334,2024/09/23 03:37:56 PM
285,1730433566.862824,-0.0186975114047527,-0.0162144303321838,-0.0104504227638244,0.3004658045652032,0.0328551730660029,-0.3193280207502313,0.0313775725662708,-0.295965164899826,-0.954683244228363,-0.0421763062477111,0.0864443331956863,0.0262744184583425,2024/09/23 03:18:59 PM
1657,1730433580.559242,-0.0051913559436798,0.0099031329154968,-0.0089647769927978,0.3099790528097989,-0.1092462060972157,0.1518582608022883,-0.1038327068090438,-0.3050386905670166,-0.946662664413452,0.0153157282620668,0.0116955284029245,-0.0100197279825806,2024/09/23 03:41:51 PM
1290,1730433576.896805,-0.0090845413506031,-0.0721627920866012,0.005573034286499,0.1477652531842555,0.0264041220367729,-0.2785768512813461,0.0261133499443531,-0.1472281068563461,-0.9887577891349792,0.1543387174606323,0.1938272416591644,0.3298360407352447,2024/09/23 03:35:44 PM
880,1730433572.801855,0.004422403872013,0.0213678777217865,0.0064607262611389,0.2487167450040588,0.0736057789353836,-0.3394842595586471,0.0712764635682106,-0.2461603879928589,-0.9666047692298888,-0.4131295382976532,-0.7274033427238464,-0.0209677703678607,2024/09/23 03:28:54 PM
1539,1730433579.381557,0.0098109394311904,0.118040457367897,-0.0352543592453002,0.1536479871348613,-0.1549954167216381,0.1390883837596419,-0.1525569260120391,-0.1530441492795944,-0.9763728380203248,0.8991852402687073,-0.2627554535865783,-0.1400506943464279,2024/09/23 03:39:53 PM
596,1730433569.9684958,0.0056328549981117,0.0096741616725921,0.0031546354293823,0.2551238656394398,0.064775442197209,-0.3038441543122548,0.0626349672675132,-0.2523652613162994,-0.9656027555465698,-0.0392781756818294,-0.0439877100288867,0.0011815815232694,2024/09/23 03:24:10 PM
693,1730433570.936656,-0.0158847421407699,0.0161644965410232,-0.0296164751052856,0.2488110633594691,0.0649253363715365,-0.3067591934301641,0.0628818199038505,-0.2462518066167831,-0.967163860797882,0.035282090306282,-0.0559484958648681,-0.0388755053281784,2024/09/23 03:25:47 PM
955,1730433573.550622,0.0229026526212692,0.0094707012176513,0.0047598481178283,0.2650662529795003,0.0958355543300998,-0.3381454368554383,0.092347003519535,-0.2619732022285461,-0.9606466889381408,-0.2737984359264374,-0.5253562331199646,0.0461877286434173,2024/09/23 03:30:09 PM
1189,1730433575.887048,-0.0134498476982116,-0.0010495334863662,-0.0389430522918701,0.1930645083317929,0.0471805130765304,-0.320742162162261,0.0462867617607116,-0.1918673664331436,-0.9803287386894226,-0.2311953008174896,0.0619243420660495,0.0853411927819252,2024/09/23 03:34:03 PM
1373,1730433577.7235289,-0.0257561523467302,0.0278308093547821,-0.0033383965492248,0.131003704695926,0.0294767127962405,-0.3223987232518889,0.0292199030518531,-0.1306293159723281,-0.9910005927085876,0.0992847234010696,0.0525076724588871,-0.0280952397733926,2024/09/23 03:37:07 PM
368,1730433567.691153,-0.01642332598567,0.0428442060947418,0.0261123776435852,0.2694986082581863,0.0629557990725203,-0.2971941076045338,0.0606433004140853,-0.2662481665611267,-0.9619949460029602,-0.0158851575106382,0.0158098451793193,0.0269332844763994,2024/09/23 03:20:22 PM
102,1730433565.035441,-0.0346487760543823,-0.0199499130249023,0.0527253150939941,0.3994640645278205,-0.1361733201365791,-0.0679875669838654,-0.1250649839639663,-0.3889246582984924,-0.9127411246299744,-0.1032421663403511,-0.136298194527626,-0.9068825840950012,2024/09/23 03:15:56 PM
1933,1730433583.313588,-0.0262579470872879,-0.0055229067802429,-0.005842387676239,0.3497709849690757,-0.0910034578734892,0.1252342001382946,-0.0853753536939621,-0.3426826596260071,-0.9355638027191162,0.0789401829242706,0.3402609229087829,0.2938041985034942,2024/09/23 03:46:27 PM
1678,1730433580.7686648,0.001168705523014,0.0040507912635803,0.0099184513092041,0.3099543593958374,-0.1093873882678056,0.1517148433120168,-0.1039671748876571,-0.3050151765346527,-0.9466554522514344,-0.025739062577486,-0.0122689269483089,-0.028884869068861,2024/09/23 03:42:12 PM
329,1730433567.301798,0.0387022644281387,0.0897980630397796,0.0024264454841613,0.2827758786774951,0.0630865947498899,-0.3219748084054026,0.0605409108102321,-0.2790223658084869,-0.958374321460724,0.0115141784772276,-0.0430867597460746,0.0656299740076065,2024/09/23 03:19:43 PM
1483,1730433578.822032,-0.0445794761180877,0.0258304774761199,-0.0668104887008667,0.4388443926983849,-0.0275536228714659,-0.0244376838427838,-0.0249395761638879,-0.4248936474323272,-0.9048996567726136,-0.2116363942623138,0.7176896333694458,-0.210913747549057,2024/09/23 03:38:57 PM
1793,1730433581.918278,0.0073126628994941,-0.0066674947738647,0.0043731331825256,0.3327038285990881,-0.090696545138492,0.1091167394741005,-0.0856055170297622,-0.3265997767448425,-0.941278040409088,0.0446073375642299,0.0599328316748142,0.3364085853099823,2024/09/23 03:44:07 PM
1547,1730433579.460717,-0.0125994831323623,0.0558650940656662,0.0232850909233093,0.2182848017162179,-0.1612344877987231,0.1537125174854624,-0.1567273139953613,-0.2165554463863372,-0.9636079668998718,0.695591926574707,0.1250082403421402,-0.0302353035658597,2024/09/23 03:40:01 PM
87,1730433564.885268,-0.0397525280714035,-0.0121479332447052,-0.0236775279045104,0.4040947606328237,-0.1786824169352953,0.0254660638772842,-0.1634182631969452,-0.3931865990161896,-0.9048197865486144,-0.0538026504218578,0.0573727339506149,-0.1832682639360427,2024/09/23 03:15:41 PM
572,1730433569.7271829,0.0212718844413757,0.0178707838058471,0.014829933643341,0.2537076254826371,0.0768421986144422,-0.3064747484510127,0.0743091851472854,-0.2509946227073669,-0.9651320576667786,-0.0529469177126884,-0.085571102797985,0.0460255928337574,2024/09/23 03:23:46 PM
801,1730433572.013506,-0.0026250183582305,0.0343977212905883,0.0093892216682434,0.2907982999188028,0.1618124081301148,-0.3324284869207029,0.1543431729078292,-0.2867170870304107,-0.945500671863556,0.1414172947406768,0.3659580051898956,-0.0592107102274894,2024/09/23 03:27:35 PM
859,1730433572.59299,0.0310955345630645,-0.0084463357925415,0.0370218753814697,0.2902754569351469,0.1610945558176747,-0.325701637209574,0.1536884158849716,-0.2862161695957184,-0.9457590579986572,0.1200695410370826,0.2688634097576141,-0.0153587786480784,2024/09/23 03:28:33 PM
902,1730433573.02248,0.0121950209140777,0.0075093805789947,0.0201296806335449,0.2857824366646442,0.1455368500640863,-0.3231279661688961,0.1391416639089584,-0.281908243894577,-0.94929838180542,0.216422289609909,0.4097582399845123,0.0149180591106414,2024/09/23 03:29:16 PM
1646,1730433580.449152,0.0242001339793205,-0.0006833970546722,0.0371153354644775,0.3081722417370754,-0.1095244764027451,0.1490776390874412,-0.1041562035679817,-0.3033174872398376,-0.9471800327301024,0.0091366451233625,-0.0184458643198013,0.0070570474490523,2024/09/23 03:41:40 PM
613,1730433570.13634,-0.0712738558650016,0.0199806094169616,0.0051162242889404,0.2532389861230834,0.0503793110291088,-0.3031390207437527,0.0487518832087516,-0.250540941953659,-0.9668776988983154,-0.2049970924854278,-0.2516258358955383,0.0609995350241661,2024/09/23 03:24:27 PM
303,1730433567.041553,0.0092794857919216,0.0459161102771759,0.0160569548606872,0.2958490602802059,0.0543244701353217,-0.3170370420502914,0.0519387833774089,-0.2915521264076233,-0.9551438093185424,-0.0787712633609771,0.104380190372467,0.0358593985438346,2024/09/23 03:19:17 PM
748,1730433571.485359,-0.0151835083961486,0.0048179626464843,-0.0127235651016235,0.2555613765087602,0.0797132642093683,-0.3157156762037476,0.0770426467061042,-0.2527886033058166,-0.9644492268562316,0.0408909581601619,0.0739559754729271,-0.0426496304571628,2024/09/23 03:26:42 PM
1770,1730433581.686627,0.0047593861818313,-0.0050490796566009,0.0020079016685485,0.331397458110013,-0.0934699601863477,0.150827300851761,-0.0882554873824119,-0.3253647685050964,-0.9414609670639038,0.0462998040020465,0.0598662532866001,-0.0551333017647266,2024/09/23 03:43:44 PM
1117,1730433575.168206,0.0057993903756141,0.0122158676385879,0.0032881498336791,0.2298095420272795,0.0768928358112734,-0.340271547554859,0.074797548353672,-0.2277920842170715,-0.9708327054977416,0.0405923090875148,0.196488007903099,0.5658448338508606,2024/09/23 03:32:51 PM
1882,1730433582.804871,0.0037799030542373,-0.0306233763694763,0.0038786530494689,0.3484235123365172,-0.0825756164945418,0.1360078775568705,-0.077525645494461,-0.3414164781570434,-0.936709463596344,-0.0337021648883819,0.2022718638181686,0.1210472136735916,2024/09/23 03:45:36 PM
1591,1730433579.900961,0.0192986950278282,-0.024365484714508,0.0226982831954956,0.3154020852114348,-0.1192774307914184,0.147932713546341,-0.1131249964237213,-0.3101987540721893,-0.9439170956611632,-0.101290762424469,0.044163454324007,0.0423762649297714,2024/09/23 03:40:45 PM
674,1730433570.74592,0.0068258792161941,0.0374417304992675,0.0189369916915893,0.247306657168546,0.0763331559831774,-0.3105107161937773,0.0739388838410377,-0.2447934448719024,-0.9667518734931946,-0.0499231591820716,0.1303630620241165,0.0230964142829179,2024/09/23 03:25:28 PM
1626,1730433580.249425,0.0001460537314414,0.0315711796283721,-0.0048070549964904,0.298959380263478,-0.1156123500525398,0.1453163105989326,-0.1102382317185401,-0.2945258915424347,-0.9492639303207396,-0.0415946580469608,-0.0322210639715194,0.0457208193838596,2024/09/23 03:41:20 PM
321,1730433567.2218351,0.0412198677659034,0.0677308738231659,0.0075564384460449,0.2838852605177648,0.063967171323272,-0.3208035692205698,0.0613649822771549,-0.2800875008106231,-0.9580111503601074,0.0147598050534725,-0.000949160894379,-0.0355477258563041,2024/09/23 03:19:35 PM
1043,1730433574.429608,-0.0314835831522941,-0.017449602484703,0.0249592661857604,0.2393300033716383,0.0644774563157107,-0.3306331385924503,0.0625962615013122,-0.237051784992218,-0.9694783091545104,-0.0482632778584957,-0.0578659735620021,-0.1521176993846893,2024/09/23 03:31:37 PM
1727,1730433581.258045,0.0080601722002029,0.0045325458049774,0.0110189318656921,0.3053044917147071,-0.1096218209716173,0.1499640495766521,-0.1043431386351585,-0.3005836009979248,-0.9480305910110474,0.005151068791747,0.0024173408746719,0.0021709990687668,2024/09/23 03:43:01 PM
1510,1730433579.091469,-0.0385817065834999,0.0367235839366912,-0.0265470147132873,0.2703991260259412,-0.0964448836721526,0.0868980916210553,-0.0927964821457862,-0.2671160697937011,-0.9591860175132751,-1.571451187133789,-0.4158986806869507,0.6633544564247131,2024/09/23 03:39:24 PM
1821,1730433582.195565,0.1597488224506378,0.0155953764915466,0.0512589216232299,0.3433953302516694,-0.0866472849031579,0.1350356339720169,-0.0814865007996559,-0.3366861343383789,-0.9380844235420228,-0.1703071147203445,-0.3022093772888183,-0.2808598577976227,2024/09/23 03:44:35 PM
442,1730433568.431859,-0.0031695365905761,0.02555513381958,-0.0105102658271789,0.255293754375417,0.0789903001622849,-0.3015797914853612,0.0763507038354873,-0.2525296509265899,-0.9645721316337584,0.0236178692430257,-0.0105911353603005,0.0019822875037789,2024/09/23 03:21:36 PM
1006,1730433574.060213,-0.0382188335061073,0.0105631500482559,-0.0116508603096008,0.2522747561883015,0.072812398034274,-0.3372722846571047,0.0704453960061073,-0.2496073544025421,-0.9657813310623168,-0.0441779717803001,-0.0751283168792724,-0.0481669530272483,2024/09/23 03:31:00 PM
1816,1730433582.146047,-0.0337952077388763,0.0051465332508087,0.0070502758026123,0.3402731718956963,-0.0882390868413483,0.1113967557016439,-0.0830718725919723,-0.333744615316391,-0.9389960765838624,0.2327110469341278,0.384645938873291,0.8047419190406799,2024/09/23 03:44:30 PM
1700,1730433580.988449,0.0075776055455207,0.0018753111362457,0.0187641382217407,0.3067583944295546,-0.1091631651531245,0.1508042544248257,-0.1038605868816375,-0.3019699454307556,-0.9476429224014282,-0.0136068435385823,0.0007925464306026,0.0133907366544008,2024/09/23 03:42:34 PM
1690,1730433580.887939,-0.0220481902360916,0.0157497227191925,-0.0247029662132263,0.3022363033403449,-0.1173634136946331,0.1507636870281486,-0.1117866709828376,-0.2976558804512024,-0.9481058716773988,0.0654242634773254,0.0772132873535156,-0.0245497748255729,2024/09/23 03:42:24 PM
620,1730433570.207466,-0.1046359241008758,0.0113406479358673,-0.0756181478500366,0.2523843635943478,0.051921053894122,-0.3028664809505262,0.0502535961568355,-0.2497134953737259,-0.9670148491859436,0.3296266198158264,0.4064202308654785,-0.0274252966046333,2024/09/23 03:24:34 PM
1917,1730433583.155177,0.061055451631546,0.032648891210556,0.0029432773590087,0.3417529122885822,-0.1000979855975428,0.1243717520617734,-0.0941517725586891,-0.3351391553878784,-0.937452495098114,-0.1350844949483871,-0.2598704397678375,-0.4272615909576416,2024/09/23 03:46:11 PM
802,1730433572.0238829,-0.0065090656280517,0.0291970670223236,0.0031482577323913,0.2922347916517967,0.165654658616569,-0.332843434903476,0.1579067856073379,-0.2880929708480835,-0.9444934725761414,0.148860827088356,0.3706763386726379,0.0315618030726909,2024/09/23 03:27:36 PM
1548,1730433579.470953,-0.0067750662565231,-0.0403537601232528,-0.0042539834976196,0.2245598426841664,-0.1602229972856352,0.1544545355601047,-0.1555327028036117,-0.2226772755384445,-0.962405562400818,0.5630991458892822,0.110366441309452,-0.0281934570521116,2024/09/23 03:40:02 PM
549,1730433569.502948,-0.1190699860453605,0.1093626022338867,-0.033871054649353,0.2590079122519078,0.0782387576507281,-0.3080775490244178,0.0755519345402717,-0.2561216950416565,-0.9636874794960022,0.2461076527833938,0.2317754328250885,-0.0424838736653327,2024/09/23 03:23:23 PM
589,1730433569.897414,0.0094841867685318,0.0060294568538665,0.0032904148101806,0.2573186013886894,0.0675736804423326,-0.304251312612334,0.0652991533279419,-0.2544883489608764,-0.9648687243461608,-0.0560126192867755,-0.0957174822688102,0.0164442639797925,2024/09/23 03:24:03 PM
628,1730433570.286977,0.0218166820704936,0.0377302169799804,0.0215948224067688,0.2541885759156016,0.0609902256740014,-0.3074272961060267,0.0589938759803772,-0.2514601349830627,-0.9660680890083312,0.0125041520223021,0.0424976497888565,-0.0227074529975652,2024/09/23 03:24:42 PM
708,1730433571.085786,0.001417838037014,0.0127923488616943,-0.0202381610870361,0.2498975763370222,0.0634135464690674,-0.3103925190669917,0.0614026077091693,-0.2473047226667404,-0.9669902324676514,-0.0909589529037475,-0.05141606554389,0.0482587590813636,2024/09/23 03:26:02 PM
1392,1730433577.914436,-0.0077051296830177,0.0194743424654006,-0.01667320728302,0.1635280458527301,0.0353445694426772,-0.3335057816663038,0.034865777939558,-0.1628001928329467,-0.986042857170105,0.3800193667411804,-0.1478131711483001,-0.1155775263905525,2024/09/23 03:37:26 PM
1020,1730433574.199813,0.0629454106092453,0.005934327840805,0.0250058770179748,0.2607087206585746,0.0902311245554744,-0.334167139695017,0.0870637372136116,-0.257765382528305,-0.9622769355773926,-0.1029368489980697,-0.1492520868778228,0.2036130428314209,2024/09/23 03:31:14 PM
713,1730433571.137116,-0.0083053186535835,0.0003845691680908,-0.0140759944915771,0.2481002503694463,0.0649179459062742,-0.3090584928646803,0.062886007130146,-0.2455628216266632,-0.9673387408256532,0.0316854305565357,0.1199881806969642,0.0164521466940641,2024/09/23 03:26:07 PM
654,1730433570.546177,0.0108746476471424,0.0403022170066833,0.0021165609359741,0.2507305316978639,0.0550206063248593,-0.312752053519676,0.0532733015716075,-0.2481117099523544,-0.967265486717224,0.0258037131279706,0.027937613427639,-0.0008266016375273,2024/09/23 03:25:08 PM
661,1730433570.6182652,0.0893623456358909,-0.0481646806001663,-0.0737867951393127,0.2482147985043397,0.050559501358747,-0.3080026498295593,0.0489891022443771,-0.2456738650798797,-0.9681138396263124,-0.0195949282497167,0.1235642731189727,0.0622090362012386,2024/09/23 03:25:15 PM
1637,1730433580.35882,-0.0310930535197258,0.0086197853088378,-0.0184773802757263,0.3030632923864261,-0.113470594952122,0.1484458231785639,-0.1080671176314354,-0.2984452843666076,-0.948288917541504,0.2411028891801834,0.3085850179195404,-0.0538105629384517,2024/09/23 03:41:31 PM
1112,1730433575.118367,0.0037518516182899,0.0119167864322662,0.0025986433029174,0.2251014642553923,0.071302287258163,-0.3609071466487161,0.0694445595145225,-0.2232052683830261,-0.9722946286201476,0.0777960121631622,0.2292504906654358,0.2392177432775497,2024/09/23 03:32:46 PM
1435,1730433578.342329,0.0679890513420105,-0.0226915180683136,0.008112609386444,0.3587000698738069,0.0275154571050792,-0.1731456934361301,0.0257609561085701,-0.3510573208332062,-0.9359995126724244,0.6290419101715088,-0.2623767554759979,0.6914448738098145,2024/09/23 03:38:09 PM
2043,1730433584.4122329,-0.1002066358923912,0.0149547159671783,0.0122826695442199,0.336985719932208,-0.1022453506156489,0.095929354285446,-0.0963265821337699,-0.3306438624858856,-0.938826858997345,-0.0231279730796813,-0.0873460993170738,-0.2669269740581512,2024/09/23 03:48:17 PM
309,1730433567.102717,-0.0267686657607555,0.0577858686447143,-0.0274697542190551,0.2902530726060541,0.0575574859746606,-0.3161250919618582,0.0551194958388805,-0.2861947119235992,-0.9565847516059875,0.0653468370437622,0.1081456318497657,-0.0277383252978324,2024/09/23 03:19:23 PM
736,1730433571.364715,0.0172277241945266,0.0083026587963104,0.0164254903793334,0.2538327955461338,0.0781418266979877,-0.3188659459387442,0.0755609795451164,-0.2511157691478729,-0.9650033116340636,0.0192298237234354,0.0040658377110958,0.0114490799605846,2024/09/23 03:26:30 PM
866,1730433572.662605,0.0330647677183151,0.0184466540813446,0.0191259980201721,0.2945215624351643,0.1662469666627149,-0.324170815183335,0.1583567559719085,-0.2902820408344269,-0.943747580051422,-0.0323764719069004,-0.202436476945877,0.0161553118377923,2024/09/23 03:28:40 PM
1305,1730433577.045011,-0.0012425407767295,0.0449003428220748,0.0041998624801635,0.1695983603651585,0.0463886126443091,-0.2800657853708516,0.0457066632807254,-0.1687864810228347,-0.9845923185348512,0.3464530110359192,0.2510002553462982,0.1208987608551979,2024/09/23 03:35:59 PM
612,1730433570.12746,0.0082923099398612,0.252405971288681,-0.0338998436927795,0.2543460624593784,0.0524547997991297,-0.3040597645038389,0.0507439486682415,-0.2516125738620758,-0.9664968848228456,-0.005236055701971,-0.0794522240757942,0.082463338971138,2024/09/23 03:24:26 PM
625,1730433570.2563372,-0.0088836662471294,0.0255512595176696,0.0272834300994873,0.2544540627680549,0.059635698369403,-0.3065664048649417,0.0576812773942947,-0.2517170906066894,-0.9660804271697998,-0.0053004245273768,0.0881101414561271,-0.0409967638552188,2024/09/23 03:24:39 PM
108,1730433565.09525,-0.0747792050242424,0.0217470824718475,-0.001511812210083,0.4002700718295684,-0.124856931166407,-0.1306656497595797,-0.1146891862154007,-0.3896670937538147,-0.9137865900993348,-0.1274242848157882,-0.1731161326169967,-1.0461498498916626,2024/09/23 03:16:02 PM
1147,1730433575.4678168,0.0053818002343177,0.0420468002557754,0.0008188486099243,0.221246081963253,0.0700667042319299,-0.3322233404287133,0.0683028921484947,-0.2194454967975616,-0.9732308983802797,-0.0229896605014801,0.0410917662084102,0.1392925828695297,2024/09/23 03:33:21 PM
1680,1730433580.78855,0.0011700093746185,0.0114393532276153,-0.0007083415985107,0.309765605528169,-0.109414372958377,0.1510576074714113,-0.1039990037679672,-0.3048354089260101,-0.9467098712921144,-0.0161196440458297,-0.0125799840316176,-0.0233116187155246,2024/09/23 03:42:14 PM
1508,1730433579.071668,0.030267871916294,0.0294527411460876,0.0752626657485961,0.3056751873001849,-0.0825063690128131,0.0750830134796642,-0.0785924643278122,-0.30093714594841,-0.950399935245514,-1.8227832317352293,-0.6358854174613953,0.7797669172286987,2024/09/23 03:39:22 PM
799,1730433571.9939442,-0.0059538632631301,0.0105566084384918,0.0155572891235351,0.2882914581311816,0.1544406609754733,-0.3308901623886205,0.1474791467189788,-0.2843146026134491,-0.9473199844360352,0.1442059278488159,0.3814235329627991,-0.025045121088624,2024/09/23 03:27:33 PM
1289,1730433576.885081,0.005198935046792,0.0672468990087509,0.0267360806465148,0.1460585467337394,0.0248533828436452,-0.2826718714618602,0.0245862230658531,-0.145539790391922,-0.98904687166214,0.1752682328224182,0.2658385932445526,0.5069618225097656,2024/09/23 03:35:43 PM
761,1730433571.613888,0.0069829449057579,0.0181933939456939,0.0084783434867858,0.2688572584407908,0.1057556667589289,-0.331216599661484,0.1017664596438407,-0.2656299173831939,-0.9586888551712036,0.1797196418046951,0.2273825407028198,-0.1299923658370971,2024/09/23 03:26:55 PM
428,1730433568.290149,0.0065511539578437,0.0263854563236236,2.092123031616211e-05,0.2555053426616475,0.0806391898624191,-0.302153346812211,0.0779367685317993,-0.252734363079071,-0.9643916487693788,0.0147328907623887,0.0360589250922203,-0.0193902179598808,2024/09/23 03:21:22 PM
258,1730433566.5966902,-0.0230743363499641,0.0660791397094726,-0.0607868432998657,0.3046888955020911,0.018031158195115,-0.4450651428385055,0.0171997174620628,-0.29999640583992,-0.953785240650177,0.1592243313789367,0.1244250014424324,0.8246095180511475,2024/09/23 03:18:32 PM
1890,1730433582.886052,-0.0600086078047752,0.0555214285850524,-0.0149759650230407,0.3390815567642342,-0.1022627088478126,0.1247778540082996,-0.0962719246745109,-0.3326210975646972,-0.9381337761878968,0.0549527443945407,-0.0127405729144811,-0.0874381884932518,2024/09/23 03:45:44 PM
1556,1730433579.550616,-0.0178960114717483,0.0661519765853881,-0.0227049589157104,0.2633221128364718,-0.1540156544913352,0.1541163961790027,-0.1481196135282516,-0.260289579629898,-0.9541016221046448,0.878865122795105,0.179487720131874,-0.1775509864091873,2024/09/23 03:40:10 PM
331,1730433567.322281,0.0284424722194671,0.084225445985794,-0.0002885460853576,0.2818352035929016,0.0625979846976716,-0.3205780720278749,0.0600890219211578,-0.2781189084053039,-0.9586653113365172,-0.019340593367815,-0.0628066733479499,0.0971786379814148,2024/09/23 03:19:45 PM
1467,1730433578.666819,0.1013000383973121,-0.0241549611091613,0.2627716660499573,0.468556572900293,-0.1112694926633633,-0.0105385632023547,-0.0990722551941871,-0.4515989124774933,-0.8867035508155823,-0.3201718330383301,0.0793190449476242,0.0978076159954071,2024/09/23 03:38:41 PM
931,1730433573.312678,-0.0180185735225677,0.0158688873052597,-0.0061688423156738,0.249576711583786,0.0705068761883167,-0.3429967856496252,0.0682657733559608,-0.2469938099384308,-0.9666094779968262,0.2650678157806396,0.6390228271484375,0.2546048760414123,2024/09/23 03:29:45 PM
1650,1730433580.489284,0.0124465748667716,-0.0070586800575256,0.0170192122459411,0.3087198030435039,-0.1098452822830639,0.1494396411073961,-0.1044418364763259,-0.3038392066955566,-0.9469813704490662,-0.0057471501640975,-0.0008389060385525,0.0272803455591201,2024/09/23 03:41:44 PM
993,1730433573.930707,0.0333260148763656,0.0070333778858184,0.028829276561737,0.2770115913874034,0.1213036312953021,-0.3282990344526542,0.1163932383060455,-0.2734823822975158,-0.9548088908195496,-0.1129498034715652,-0.3233479559421539,-0.1033570244908332,2024/09/23 03:30:47 PM
1823,1730433582.215469,0.0828036442399025,0.0269666612148284,0.0322591662406921,0.3394154452485286,-0.0919398901265089,0.1240509368699389,-0.0865725800395011,-0.3329359292984009,-0.9389669299125672,-0.3243720531463623,-0.4953852295875549,-0.6447399258613586,2024/09/23 03:44:37 PM
40,1730433496.3005152,-0.0034612044692039,0.0083934664726257,-0.0051592588424682,0.8130407500744903,0.1596121614849023,-0.0829899814175135,0.1092351004481315,-0.7263804078102112,-0.6785566806793213,-0.0383736789226532,0.0067710764706134,-0.0029662756714969,2024/09/23 03:14:54 PM
987,1730433573.8703609,0.0290087014436721,-0.0068081021308898,0.0282270312309265,0.2806602914338522,0.1298173859664794,-0.3283233936007568,0.1243879273533821,-0.2769901752471924,-0.9527875185012816,0.0603803470730781,0.1421795040369033,0.0570809580385685,2024/09/23 03:30:41 PM
1358,1730433577.574185,-0.0018934793770313,-0.0093745067715644,-0.0078340172767639,0.1196645760042226,0.0326810660897287,-0.3132015098417534,0.0324415788054466,-0.1193791851401329,-0.9923185706138612,0.0201769676059484,-0.0695559158921241,-0.0637770667672157,2024/09/23 03:36:52 PM
1114,1730433575.138149,0.0012883022427558,0.0225912481546401,0.0079663395881652,0.2270674088631944,0.0744036646282723,-0.3551209931994678,0.0724269151687622,-0.225121185183525,-0.971635103225708,0.0837372541427612,0.2186170220375061,0.362862765789032,2024/09/23 03:32:48 PM
1487,1730433578.865948,-0.0299459621310234,0.0983082354068756,0.0663923025131225,0.4370230750022861,-0.0043360858385697,-0.0269245500138286,-0.0039285491220653,-0.4232442080974579,-0.9060071110725404,0.1595157831907272,0.119929052889347,0.4502841532230377,2024/09/23 03:39:01 PM
1118,1730433575.1795468,0.0053192824125289,0.0124191343784332,0.00331711769104,0.2305825295767641,0.0774171388834315,-0.3346145892773154,0.0752929076552391,-0.2285446673631668,-0.9706174731254578,0.026948133483529,0.1696790307760238,0.5391972661018372,2024/09/23 03:32:52 PM
881,1730433572.812494,-0.0703581944108009,0.0252270251512527,-0.0105425715446472,0.2447972514599073,0.0666244937565267,-0.3392872383362835,0.0645903721451759,-0.2423596233129501,-0.968034029006958,-0.3808212876319885,-0.6487657427787781,-0.0149571755900979,2024/09/23 03:28:55 PM
1615,1730433580.140029,0.0034839138388633,-0.0100843906402587,0.0265763401985168,0.3082186186108641,-0.1069704773946276,0.1468958200770669,-0.1017352640628814,-0.3033616840839386,-0.9474289417266846,0.0428096875548362,-0.0221476573497056,-0.066332958638668,2024/09/23 03:41:09 PM
546,1730433569.468154,-0.0024115741252899,0.0102251768112182,-0.0486121773719787,0.2502717481793494,0.0692276327708791,-0.3071350801700264,0.0670172944664955,-0.2476672530174255,-0.9665244817733764,0.0690320283174514,0.1226193830370903,0.0248427558690309,2024/09/23 03:23:20 PM
8,1730433496.051486,-0.0006972476840019,0.0082049965858459,0.0025403499603271,0.8166809618726814,0.1626706181188457,-0.0813363686903678,0.1108809486031532,-0.7288774847984314,-0.6756055951118469,0.0040194108150899,-0.002266626805067,0.0004757533897645,2024/09/23 03:14:22 PM
534,1730433569.3509278,-0.0060233473777771,0.0341168940067291,-0.0037360191345214,0.25693582553533,0.0817154951333728,-0.3079893336087835,0.0789451077580452,-0.2541181743144989,-0.9639458656311036,0.0599741525948047,-0.0060869315639138,0.0014872591709718,2024/09/23 03:23:08 PM
48,1730433496.381355,0.012572705745697,0.00559663772583,-0.0014777183532714,0.8116809653855692,0.1554575931349652,-0.0845788670557469,0.1065678969025611,-0.7254451513290405,-0.6799798607826233,0.035091046243906,-0.1030622124671936,0.0397230796515941,2024/09/23 03:15:02 PM
1737,1730433581.357667,0.0504665747284889,-0.012047916650772,0.0197053551673889,0.3084799638526728,-0.1095094374839655,0.1520313359524783,-0.1041317507624626,-0.3036107122898102,-0.9470887780189514,-0.0045832386240363,0.0597472079098224,-0.0625924989581108,2024/09/23 03:43:11 PM
177,1730433565.7842898,0.0068005844950675,-0.0171326994895935,0.0270763039588928,-0.5053836984888113,-0.0926224376322882,-0.8060271232818171,-0.0809277668595314,0.4841431975364685,-0.8712382316589355,-0.8292065262794495,-0.2077537328004837,0.1928694695234298,2024/09/23 03:17:11 PM
730,1730433571.3049212,-0.0144012570381164,0.0145781487226486,0.0035257339477539,0.2502445888717408,0.0724600349242638,-0.3155501251801546,0.0701416209340095,-0.2476409375667572,-0.9663095474243164,0.1048680171370506,0.1565078347921371,-0.0785706639289856,2024/09/23 03:26:24 PM
556,1730433569.567941,0.011531077325344,0.0486974120140075,0.0064975023269653,0.2590275862719527,0.0814210316057736,-0.3116542904578074,0.0786178559064865,-0.2561407089233398,-0.9634371995925904,-0.021319905295968,0.0194975230842828,-0.023968618363142,2024/09/23 03:23:30 PM
1603,1730433580.020258,0.0045702904462814,0.0144973397254943,0.025376558303833,0.3162996802685729,-0.1105004862614938,0.1486704751644018,-0.1048052906990051,-0.3110519349575043,-0.944596529006958,-0.0408174246549606,0.0556488707661628,0.0028132470324635,2024/09/23 03:40:57 PM
1065,1730433574.648508,-0.0100696682929992,0.02360799908638,0.0113773345947265,0.2284870573218176,0.0543080286391914,-0.3182979516841019,0.052870575338602,-0.2265041619539261,-0.9725741744041444,-0.0822171866893768,-0.127728670835495,0.1093574240803718,2024/09/23 03:31:59 PM
134,1730433565.355103,-0.0064880400896072,0.083761379122734,0.0295783877372741,0.207313553022013,0.010076165459214,-0.6232222296930813,0.0098602417856454,-0.2058317214250564,-0.9785377383232116,-1.5353015661239624,-0.542069673538208,-2.178251266479492,2024/09/23 03:16:28 PM
1307,1730433577.064705,-0.0118201710283756,-0.0171440243721008,0.0182036161422729,0.1757143805020658,0.0512979851978354,-0.2812138059341752,0.0504859462380409,-0.1748115569353103,-0.9833067059516908,0.2948262095451355,0.252465546131134,-0.155992105603218,2024/09/23 03:36:01 PM
126,1730433565.27766,-0.0859338343143463,0.0652250349521637,0.0007365345954895,0.2852648375177841,-0.0299665555700133,-0.4311941512121438,-0.0287512186914682,-0.2814115881919861,-0.959156334400177,-0.5527611374855042,0.1570881456136703,-2.251023054122925,2024/09/23 03:16:20 PM
351,1730433567.521598,-0.0172107852995395,0.0199165344238281,-0.0148565173149108,0.2759221091762003,0.0587254507786653,-0.3006469510693718,0.0564716532826423,-0.2724342942237854,-0.9605157375335692,-0.0160743668675422,0.0729804560542106,0.0243788864463567,2024/09/23 03:20:05 PM
650,1730433570.505923,0.0226997546851634,0.0137888193130493,0.0232971906661987,0.2503118573065143,0.0531855512572721,-0.3128375571691665,0.0515037477016449,-0.2477061152458191,-0.9674652814865112,-0.044895052909851,0.039098922163248,-0.0074066342785954,2024/09/23 03:25:04 PM
1766,1730433581.647068,0.0161233618855476,-0.013320654630661,-0.0096157789230346,0.3279609841882763,-0.0982457735252023,0.150892295013322,-0.0928598269820213,-0.3221133649349212,-0.9421358704566956,0.0810618549585342,0.1186938807368278,0.0578312762081623,2024/09/23 03:43:40 PM
119,1730433565.205387,-0.0984119549393653,-0.0879851281642913,0.1177376508712768,0.3492148911031532,-0.0778057693113498,-0.2842851527724959,-0.0730357989668846,-0.3421601951122284,-0.936798930168152,-1.3256782293319702,-0.0495238862931728,-1.5795520544052124,2024/09/23 03:16:13 PM
895,1730433572.951222,-0.021715335547924,0.0165650844573974,-0.0037536025047302,0.2645751276696905,0.1048807510240626,-0.3260209262382422,0.1010458022356033,-0.2614991962909698,-0.9598999619483948,0.3397110402584076,0.67298424243927,0.1659553050994873,2024/09/23 03:29:09 PM
1347,1730433577.46463,0.0240484401583671,-0.0099259167909622,0.0465982556343078,0.1555566696672826,0.0496609616958348,-0.3254857976149141,0.0490411631762981,-0.1549300700426101,-0.9867074489593506,-0.7101598978042603,-0.206885278224945,0.2178981304168701,2024/09/23 03:36:41 PM
389,1730433567.900543,0.0014417693018913,0.0283194780349731,0.0003160834312438,0.2632369300343417,0.070849732980813,-0.2947160941174645,0.0683519393205642,-0.260207325220108,-0.9631304144859314,-0.0625114738941192,0.1193564757704734,-0.0313942581415176,2024/09/23 03:20:43 PM
919,1730433573.19177,0.0539005175232887,0.0539610683917999,0.0159505009651184,0.2622801348589429,0.0931530530952898,-0.3473542908034351,0.0898372828960418,-0.2592833936214447,-0.961613953113556,-0.3937229812145233,-0.7988828420639038,0.0252666249871253,2024/09/23 03:29:33 PM
1928,1730433583.264559,-0.0428777858614921,-0.0291924476623535,0.0020784735679626,0.3476569689684409,-0.0977281691516763,0.1129271632337875,-0.0917352512478828,-0.3406958878040313,-0.9356874227523804,0.0543959401547908,0.1299095153808593,0.1148086488246917,2024/09/23 03:46:22 PM
1494,1730433578.931452,-0.0891545936465263,-0.0200206041336059,0.0945408344268798,0.4266433209904091,-0.0147867411419744,0.0040560389074667,-0.0134607665240764,-0.4138173460960388,-0.9102604389190674,-0.2672015726566314,0.0417852513492107,0.226946160197258,2024/09/23 03:39:08 PM
1565,1730433579.639922,-0.0126720368862152,0.0231617987155914,0.0091258883476257,0.3053826975410273,-0.14728346979849,0.1501058608243823,-0.1399616450071334,-0.3006581962108612,-0.9434062838554382,0.202049896121025,0.1045026928186416,-0.1178874969482421,2024/09/23 03:40:19 PM
406,1730433568.069979,-0.0139587447047233,0.0475557148456573,-0.0307685136795043,0.2574679616682929,0.0709034904667685,-0.296415523843,0.0685089230537414,-0.2546328008174896,-0.9646080136299132,-0.0090305097401142,-0.0568004436790943,-0.0626621693372726,2024/09/23 03:21:00 PM
186,1730433565.874069,-0.0236556455492973,0.1738232374191284,0.0401516556739807,-0.52884538478716,-0.1109264613010975,-0.7983136852806009,-0.0955765321850776,0.5045368075370789,-0.8580837845802307,0.6146716475486755,-0.1989919394254684,-0.0308845285326242,2024/09/23 03:17:20 PM
1471,1730433578.7015328,0.0309390425682067,-0.0256263017654418,0.0195056200027465,0.4659343820467695,-0.1025643777413254,-0.0073840399460693,-0.0914706736803054,-0.4492577910423279,-0.8887072801589966,0.1829999685287475,0.6280260682106018,0.0243642926216125,2024/09/23 03:38:45 PM
1125,1730433575.247695,0.0661381185054779,0.0018874853849411,0.0283533334732055,0.2305480098333736,0.0755172403218595,-0.3285478767462229,0.0734492987394332,-0.2285110652446746,-0.9707666635513306,-0.1271854490041732,-0.2909660637378692,-0.3450773954391479,2024/09/23 03:32:59 PM
2010,1730433584.082802,-0.0105078145861625,0.013960987329483,0.0069094896316528,0.3474314676910138,-0.097628828947018,0.1223369160395961,-0.0916497856378555,-0.3404838740825653,-0.9357729554176332,0.1438460499048233,0.2668708562850952,0.5083905458450317,2024/09/23 03:47:44 PM
2006,1730433584.043141,-0.0397716909646987,-0.0128675401210784,-0.0026896595954895,0.3442649167795574,-0.0997839842287932,0.1067073197283001,-0.0937732458114624,-0.3375048041343689,-0.9366413950920104,0.0662349089980125,0.1005465686321258,0.2213145941495895,2024/09/23 03:47:40 PM
1218,1730433576.176921,0.0218616314232349,-0.0345234125852584,0.011568009853363,0.1634538523805203,0.0435672698553853,-0.3143586672469957,0.0429729707539081,-0.1627269834280014,-0.9857348799705504,-0.2259882688522339,-0.2070141732692718,0.0077148480340838,2024/09/23 03:34:32 PM
1982,1730433583.804996,-0.0614389702677726,0.0007180273532867,-0.0275896787643432,0.3479363602590322,-0.1003736074502124,0.1236358514617622,-0.0942006930708885,-0.3409585654735565,-0.9353467226028442,0.1011683642864227,0.1450384110212326,0.1783396303653717,2024/09/23 03:47:16 PM
555,1730433569.557479,0.0187497064471244,0.0465437173843383,0.0070491433143615,0.2593094417888943,0.0812516345996079,-0.3114436357996872,0.0784487873315811,-0.2564131319522857,-0.9633784890174866,-0.0228200629353523,0.0147962467744946,-0.0212577879428863,2024/09/23 03:23:29 PM
976,1730433573.760781,-0.0816885530948638,0.0266093462705612,-0.0090474486351013,0.2484728149721456,0.0676415571988429,-0.3362471748667552,0.0655142441391944,-0.2459239661693573,-0.9670725464820862,0.3319441378116607,0.7187418937683105,0.0138559378683567,2024/09/23 03:30:30 PM
1229,1730433576.286007,-0.0012695528566837,0.0184739828109741,0.0031155347824096,0.1582480564800832,0.0404516707722543,-0.316942191540518,0.039935328066349,-0.157588392496109,-0.9866970777511596,-0.0073825032450258,0.003042384982109,-0.0209783688187599,2024/09/23 03:34:43 PM
370,1730433567.710305,0.0012161321938037,0.0345928370952606,-0.0217825174331665,0.2690275177759892,0.0632169056856028,-0.2967190038954613,0.0609023980796337,-0.2657940685749054,-0.9621041417121888,-0.0046355132944881,0.0156386047601699,0.0210945177823305,2024/09/23 03:20:24 PM
1710,1730433581.087562,0.0093086957931518,0.0075810849666595,0.0060203075408935,0.3044373162996352,-0.1097016001342253,0.151123786756936,-0.1044472679495811,-0.2997564077377319,-0.9482809901237488,-0.0152674354612827,-0.0098126931115984,0.0039998451247811,2024/09/23 03:42:44 PM
1162,1730433575.617567,-0.024222195148468,-0.0118185728788375,-0.008277416229248,0.2123694241144743,0.0627666955735415,-0.369871293726459,0.0613163150846958,-0.210776686668396,-0.975609302520752,0.0281243585050106,0.027186069637537,-0.2207454890012741,2024/09/23 03:33:36 PM
1847,1730433582.455848,0.1391396969556808,-0.2088257670402526,-0.016669750213623,0.3508488164842906,-0.077578256624833,0.1328683221027846,-0.0727792382240295,-0.3436950445175171,-0.9362568855285645,-0.2721387445926666,-0.3040355145931244,-0.0018925052136182,2024/09/23 03:45:01 PM
1103,1730433575.0285969,-0.0013939142227172,0.0111717730760574,-0.0091006159782409,0.2215522614665069,0.0641623713694711,-0.3573398629441524,0.0625511482357978,-0.2197442054748535,-0.9735501408576964,-0.0938088670372963,-0.1699254065752029,-0.2564805746078491,2024/09/23 03:32:37 PM
1688,1730433580.869458,-0.0026000067591667,0.0018280744552612,-0.0078560709953308,0.3016071156288688,-0.1180572864583862,0.1510431193243016,-0.1124665439128875,-0.2970551550388336,-0.9482138752937316,-0.0149979852139949,-0.0232347603887319,-0.0099128279834985,2024/09/23 03:42:22 PM
607,1730433570.0766392,0.0006490908563137,0.0286852419376373,-0.0052114725112915,0.2552643688301282,0.0602211743972573,-0.3046018218231067,0.0582345873117446,-0.2525012195110321,-0.9658425450325012,0.0289003103971481,-0.0443626828491687,-0.0072345929220318,2024/09/23 03:24:21 PM
1208,1730433576.077433,0.0043044053018093,0.0313836187124252,-0.0131028294563293,0.1723417364465408,0.0530551600745791,-0.3170288345764685,0.0522446781396865,-0.1714898645877838,-0.9837996363639832,-0.1286022216081619,-0.0178594347089529,0.0459564551711082,2024/09/23 03:34:22 PM
1759,1730433581.5780249,0.0664662793278694,-0.0393739342689514,0.0246517658233642,0.3154246638040467,-0.1077305297981809,0.1496016992797639,-0.1022176295518875,-0.3102202117443084,-0.9451534152030944,0.0394621714949607,-0.0145781533792614,-0.0498133711516857,2024/09/23 03:43:33 PM
396,1730433567.970886,-0.0104467049241065,0.0583612322807312,0.0037804841995239,0.2608643052775625,0.0732925012218645,-0.2942868892071202,0.0707494467496872,-0.2579157054424286,-0.9635735750198364,-0.009783636778593,0.0505422577261924,0.002397101605311,2024/09/23 03:20:50 PM
194,1730433565.953833,-0.0089278519153594,0.057378739118576,0.0474131107330322,-0.4756434913212625,-0.1174124211269074,-0.7908386294561287,-0.1041397824883461,0.4579105973243713,-0.8828775882720947,0.4422428011894226,-0.1273979097604751,0.0730869248509407,2024/09/23 03:17:28 PM
223,1730433566.245568,-0.0512710474431514,0.2001382410526275,0.0590390563011169,0.2226332983847392,-0.0258467125811176,-0.7201105028810068,-0.0252059940248727,-0.2207986861467361,-0.9749936461448668,0.7583857178688049,0.6492940783500671,0.8022779822349548,2024/09/23 03:17:57 PM
1602,1730433580.0098438,0.0062527358531951,0.0185730755329132,0.0203450322151184,0.3167349270116275,-0.1110698468146953,0.1486886731675945,-0.1053280755877494,-0.3114655613899231,-0.944402039051056,-0.0263234376907348,0.0588989928364753,0.0006125706713646,2024/09/23 03:40:56 PM
793,1730433571.9336991,-0.0128430277109146,0.0181335508823394,-0.0050897002220153,0.2804788592802973,0.1348373371406512,-0.3326610153293945,0.1291760355234146,-0.2768158316612243,-0.9522008895874025,0.1137914881110191,0.2699872851371765,0.0502911247313022,2024/09/23 03:27:27 PM
1854,1730433582.525498,-0.0056027993559837,-0.0064045488834381,0.0117493867874145,0.3403215514537869,-0.0900545790116519,0.1327136731095064,-0.0847750231623649,-0.3337902128696441,-0.938827633857727,-0.0027603055350482,-0.0451373942196369,0.0352261550724506,2024/09/23 03:45:08 PM
1768,1730433581.669699,-0.0065972581505775,0.0267554521560668,-0.006317138671875,0.3299671760610367,-0.0956715668968668,0.1511147051797834,-0.0903723612427711,-0.3240119814872741,-0.9417266249656676,0.1118277609348297,0.1579278409481048,-0.0116287553682923,2024/09/23 03:43:42 PM
948,1730433573.481261,0.0974020212888717,-0.0187353789806365,0.0542653799057006,0.284415346794806,0.1350562859923777,-0.3353888492109289,0.1292368024587631,-0.2805963456630707,-0.9510854482650756,-0.288221925497055,-0.620674729347229,-0.1907635778188705,2024/09/23 03:30:02 PM
1146,1730433575.4581351,0.0012300983071327,0.0243491679430007,-0.0024230480194091,0.2214051338980826,0.0698824171506258,-0.3346480502324863,0.0681210979819297,-0.2196006774902343,-0.9732086658477784,-0.0442445501685142,0.128345713019371,0.3533789217472076,2024/09/23 03:33:20 PM
906,1730433573.061566,0.0262767076492309,-0.0069542527198791,0.0211945176124572,0.2900809527097905,0.1543904017254682,-0.3260513024255019,0.1473530530929565,-0.2860297858715057,-0.9468231201171876,0.0387320257723331,0.0267394576221704,-0.0984214395284652,2024/09/23 03:29:20 PM
1226,1730433576.255806,-0.018812458962202,0.0191910564899444,-0.0238775610923767,0.15868062072218,0.04027958087669,-0.3159775659798202,0.0397627800703048,-0.1580155342817306,-0.986635684967041,0.0001916058827191,0.0072123622521758,-0.0393131673336029,2024/09/23 03:34:40 PM
367,1730433567.6804972,-0.0022045187652111,0.0310144126415252,4.8279762268066406e-05,0.2700166615443932,0.0629831696761196,-0.2972860080301615,0.0606609433889389,-0.2667475044727325,-0.9618555307388306,-0.0408996976912021,-0.0275552067905664,-0.0136759281158447,2024/09/23 03:20:21 PM
386,1730433567.870538,-0.009532906115055,0.0314390957355499,0.0047382116317749,0.2645401073852286,0.0692620155315421,-0.294780910347339,0.0667991489171981,-0.2614654004573822,-0.9628986120224,-0.0167204216122627,0.0499598272144794,0.0030756217893213,2024/09/23 03:20:40 PM
1519,1730433579.180912,0.1141519322991371,-0.0711695253849029,0.0101698040962219,0.1422461309359679,-0.1166135292141272,0.1221009161993638,-0.1151742860674858,-0.1417669206857681,-0.9831770062446594,-1.6902823448181152,-0.1181642040610313,0.5644782781600952,2024/09/23 03:39:33 PM
1850,1730433582.487088,0.041967287659645,0.0051586329936981,0.0247328281402587,0.3428771193421711,-0.0854777299780561,0.1314111779601072,-0.0804041847586631,-0.3361981213092804,-0.9383528232574464,-0.1800526529550552,-0.1681067198514938,0.0262509826570749,2024/09/23 03:45:04 PM
1008,1730433574.080344,-0.0195116028189659,0.00364950299263,-0.0101864337921142,0.2517848686419951,0.0725978878954953,-0.3378991026148835,0.070247083902359,-0.2491329461336136,-0.9659183025360109,0.0022397034335881,0.0374762564897537,-0.0195149611681699,2024/09/23 03:31:02 PM
1135,1730433575.348308,-0.0070782378315925,0.018761932849884,-0.0057993531227111,0.2211210151560306,0.065810031261224,-0.3611314320780172,0.064161367714405,-0.2193234860897064,-0.973540186882019,0.0590349808335304,0.0587679632008075,-0.0123134013265371,2024/09/23 03:33:09 PM
1058,1730433574.6410851,0.0161254331469535,0.0333669930696487,-0.0024769902229309,0.2384555165667034,0.0667753996065321,-0.3295829522437738,0.064837709069252,-0.2362021207809448,-0.9695383310317992,-0.038213949650526,-0.0266454704105854,0.1018733084201812,2024/09/23 03:31:52 PM
1260,1730433576.595931,0.010693471878767,0.0263518393039703,0.0355926156044006,0.149944724095242,0.0423300108131705,-0.3138382534738979,0.0418425425887107,-0.149383470416069,-0.9878935813903807,0.1251329034566879,-0.020406749099493,-0.0399000234901905,2024/09/23 03:35:14 PM
270,1730433566.7129412,-0.0409700870513916,-0.0135759115219116,0.0211938619613647,0.310095638868007,0.0152547575639372,-0.3621728671678314,0.0145266093313694,-0.3051497042179107,-0.952193558216095,-0.072536252439022,0.300583004951477,0.5118395090103149,2024/09/23 03:18:44 PM
508,1730433569.088336,-0.0818004608154296,0.0995535850524902,-0.018704354763031,0.2554603398783079,0.0768132484131025,-0.3066146662237765,0.0742473676800727,-0.2526908218860626,-0.964694082736969,0.0901331976056099,0.1493348777294159,-0.0488099455833435,2024/09/23 03:22:42 PM
1387,1730433577.864785,0.0014990456402301,0.0176034122705459,0.0022320747375488,0.1448643602373807,0.0325080175978091,-0.3271279782119571,0.0321618467569351,-0.144358217716217,-0.9890027046203612,0.2511716783046722,0.0158306173980236,-0.0702201053500175,2024/09/23 03:37:21 PM
631,1730433570.31735,0.016982052475214,0.0348021984100341,0.0116176009178161,0.2545055957095465,0.0616720063680026,-0.3081489592810592,0.0596475936472415,-0.251766949892044,-0.9659480452537536,0.0173150282353162,-0.0108918063342571,-0.0267334599047899,2024/09/23 03:24:45 PM
774,1730433571.743887,-0.0070506185293197,0.0183262228965759,0.0051229596138,0.2754586588866975,0.1184090750329445,-0.3334717066945821,0.1136790364980697,-0.2719883322715759,-0.9555623531341552,0.031024731695652,0.0773701444268226,0.0395042560994625,2024/09/23 03:27:08 PM
1713,1730433581.117808,0.002996951341629,0.0136721730232238,0.0035639405250549,0.3044402965607182,-0.1098361127363891,0.1510374389900183,-0.1045747250318527,-0.2997592687606811,-0.9482660889625548,0.0038787364028394,0.0016460896003991,-0.0025912653654813,2024/09/23 03:42:47 PM
1936,1730433583.3440418,0.0856998860836029,0.0716908574104309,0.0190664529800415,0.3501491921410085,-0.0881173009289439,0.1325954977470267,-0.0826634094119072,-0.3430379629135132,-0.935677170753479,-0.0743448063731193,-0.1667772829532623,-0.0370893217623233,2024/09/23 03:46:30 PM
927,1730433573.274369,-0.0190844684839248,0.0166634172201156,-0.0229000449180603,0.2476571966229357,0.0657374996091419,-0.3471852094423156,0.0636859163641929,-0.2451333105564117,-0.9673953652381896,-0.0106618385761976,-0.0005424962146207,0.0939243584871292,2024/09/23 03:29:41 PM
1225,1730433576.245918,-0.0137874968349933,0.0178756415843963,-0.0286735892295837,0.1586619819904592,0.040088994755155,-0.3155764540445628,0.0395748578011989,-0.1579971313476562,-0.9866462349891664,-0.003075027372688,0.0082278260961174,-0.041372325271368,2024/09/23 03:34:39 PM
510,1730433569.1080952,0.0411024168133735,-0.0480084717273712,0.0398470163345336,0.2555293053773014,0.0781661090609912,-0.3074008158579675,0.0755510404706001,-0.2527575492858886,-0.9645754098892212,-0.0052154539152979,0.0460204780101776,-0.0317854769527912,2024/09/23 03:22:44 PM
1946,1730433583.444264,-0.0629416480660438,-0.0445317029953002,-0.0244228839874267,0.3444733320999605,-0.1016739352410226,0.1228177491384051,-0.0955361425876617,-0.3377009928226471,-0.9363924860954284,0.0863319411873817,0.1038843095302581,0.1113020107150077,2024/09/23 03:46:40 PM
1233,1730433576.32651,0.0111372135579586,0.0255741029977798,0.0198280811309814,0.1580983794508761,0.0401709645611405,-0.3169836990543089,0.0396593026816844,-0.1574405878782272,-0.986731767654419,-0.0217787064611911,-0.0392965488135814,0.0097563210874795,2024/09/23 03:34:47 PM
435,1730433568.360201,0.0115552395582199,0.0345590710639953,0.0171402692794799,0.2552634984965185,0.0806507317038462,-0.3023075838737468,0.077952817082405,-0.2525003850460052,-0.9644516110420228,0.001350539503619,-0.0452883951365947,0.0123657397925853,2024/09/23 03:21:29 PM
913,1730433573.1318278,0.0129234045743942,0.0038937330245971,0.0205558538436889,0.2833030268128726,0.1363978525160314,-0.3369247651481871,0.1305549889802932,-0.2795285284519195,-0.9512198567390442,-0.1608582437038421,-0.5552326440811157,-0.2334800362586975,2024/09/23 03:29:27 PM
653,1730433570.536586,0.002498086541891,0.0513326674699783,0.0074767470359802,0.2504768069974004,0.0546852479400408,-0.3127479212651687,0.0529523566365242,-0.2478659152984619,-0.9673461318016052,0.0238955598324537,0.0429666303098201,0.0063596721738576,2024/09/23 03:25:07 PM
679,1730433570.795827,0.0074067264795303,0.0147495120763778,0.04426771402359,0.2457622083524372,0.0790795238335177,-0.3083943130568544,0.0766234323382377,-0.2432956993579864,-0.9669209122657776,-0.0028002029284834,0.013155473396182,0.0579323694109916,2024/09/23 03:25:33 PM
231,1730433566.323944,-0.0585341714322567,0.0933105945587158,0.0107813477516174,0.2652169212883586,0.0006023579400064,-0.6517465015666726,0.000581296859309,-0.2621186077594757,-0.9650354981422424,0.3714308738708496,0.4832873046398163,0.8906371593475342,2024/09/23 03:18:05 PM
1649,1730433580.478948,0.0173234716057777,-0.0014641284942626,0.020297884941101,0.3086340221149165,-0.1098198997142017,0.1492816942012294,-0.1044206544756889,-0.3037574887275696,-0.9470099210739136,0.0050200102850794,-0.0071623157709836,0.0074712224304676,2024/09/23 03:41:43 PM
382,1730433567.831431,0.0026520267128944,0.0371177792549133,-0.0037776231765747,0.2656493792047783,0.0669600291833577,-0.2948923759596661,0.0645629465579986,-0.2625359296798706,-0.9627598524093628,0.0038603469729423,0.050851184874773,0.0063656903803348,2024/09/23 03:20:36 PM
137,1730433565.385218,0.019966073334217,0.1279359012842178,0.0253055691719055,0.1626796403884616,0.0030076134147779,-0.6851325375262574,0.0029678989667445,-0.1619630455970764,-0.9867923855781556,-1.341728448867798,-0.5653063058853149,-1.8580985069274905,2024/09/23 03:16:31 PM
1622,1730433580.20909,0.0243602991104125,-0.0061862170696258,-0.036856472492218,0.3030420211155206,-0.1116065793193515,0.1447549877096573,-0.1063000112771987,-0.2984249889850616,-0.9484950304031372,-0.1694093197584152,-0.1732684671878814,0.0105021661147475,2024/09/23 03:41:16 PM
161,1730433565.625977,0.0045387968420982,0.134499043226242,-0.1377099752426147,-0.3379300167645154,-0.0852317117044674,-0.8354285928640612,-0.0803139358758926,0.3315348923206329,-0.9400182366371156,-2.43369197845459,-0.24471016228199,0.3414742946624756,2024/09/23 03:16:55 PM
1676,1730433580.751186,0.0006355568766593,-0.0049894154071807,0.0115862488746643,0.3103475849938939,-0.10936994515509,0.1522322266153525,-0.1039375662803649,-0.3053896427154541,-0.946537971496582,-0.0288114584982395,-0.0035574610810726,-0.0130833210423588,2024/09/23 03:42:10 PM
672,1730433570.725779,0.010127380490303,0.0476522743701934,0.0143778324127197,0.2486313482730263,0.0737165526140571,-0.3110563456845449,0.0713850855827331,-0.2460776269435882,-0.9666178226470948,-0.0891001224517822,0.1465755850076675,0.0181239731609821,2024/09/23 03:25:26 PM
804,1730433572.043994,0.0110189169645309,0.0295934975147247,0.0032756328582763,0.2952953002249739,0.1728850784809444,-0.3322279448109415,0.1645792424678802,-0.291022390127182,-0.9424540400505066,0.1448438614606857,0.3841740489006042,0.0868600010871887,2024/09/23 03:27:38 PM
924,1730433573.241271,-0.0332892015576362,0.0092135816812515,-0.0089182257652282,0.2500938116427507,0.0702442546732806,-0.3490205210458316,0.0680029466748237,-0.2474948465824127,-0.9664998054504396,-0.1337852329015731,-0.2569079399108886,0.0368470586836338,2024/09/23 03:29:38 PM
1784,1730433581.82683,0.0012042745947837,-0.0007223784923553,-0.0082781910896301,0.3278423811527856,-0.0929839143767833,0.1086019691841212,-0.0879047289490699,-0.3220010697841644,-0.9426494836807252,-0.053758930414915,-0.0240451600402593,-0.1503868550062179,2024/09/23 03:43:58 PM
1916,1730433583.144714,0.0160857439041137,0.0133718252182006,-0.0032169818878173,0.3427517033342293,-0.0982754880930805,0.1284524718069866,-0.0924102216958999,-0.3360800147056579,-0.9372889399528505,-0.1278636753559112,-0.3246249556541443,-0.2897355854511261,2024/09/23 03:46:10 PM
1983,1730433583.813431,-0.0448537915945053,-0.0094050765037536,-0.0319623947143554,0.3486924009162278,-0.0995189246653014,0.1257294815603757,-0.0933755934238433,-0.3416692018508911,-0.9351701140403748,0.0896552503108978,0.1682566404342651,0.2021837085485458,2024/09/23 03:47:17 PM
968,1730433573.680536,0.0094493143260478,0.0087789297103881,-0.0180196166038513,0.2481810693037334,0.0627336309693637,-0.3332638707027951,0.060771644115448,-0.2456411719322204,-0.9674540162086488,-0.0603282414376735,-0.1665418595075607,-0.054959662258625,2024/09/23 03:30:22 PM
1246,1730433576.456207,-0.0302014127373695,0.0008546859025955,-0.0220251083374023,0.1550395505548953,0.0339722890963472,-0.3141198239060925,0.0335583500564098,-0.1544191688299179,-0.9874353408813475,-0.0155293801799416,0.0705780163407325,-0.0074636787176132,2024/09/23 03:35:00 PM
192,1730433565.934322,-0.0370282679796218,0.1015034019947052,0.0385705828666687,-0.485369887294387,-0.1162126219743034,-0.7934368217659296,-0.1025591343641281,0.4665355682373047,-0.8785364031791687,0.5788590312004089,-0.1041509136557579,0.0450811311602592,2024/09/23 03:17:26 PM
966,1730433573.660458,-0.028968296945095,0.0280069112777709,-0.0110512375831604,0.2476163862750877,0.0623262557430449,-0.3331729607801061,0.0603861548006534,-0.245093747973442,-0.9676169753074646,0.0653829202055931,0.1362539678812027,0.0191142950206995,2024/09/23 03:30:20 PM
403,1730433568.0410051,0.0143032297492027,-0.0130164921283721,0.0085536241531372,0.2584201755917822,0.0724692462278013,-0.2948363844445438,0.0700015872716903,-0.2555535137653351,-0.9642572999000548,-0.2871334552764892,-0.9102964401245116,-0.1094600781798362,2024/09/23 03:20:57 PM
325,1730433567.261184,0.0319094806909561,0.0908283293247222,-0.0246387720108032,0.2833085363567055,0.0635927630034253,-0.3221399870770452,0.0610165484249591,-0.2795338034629822,-0.9581950902938844,0.0452156364917755,-0.043901689350605,-0.0125878136605024,2024/09/23 03:19:39 PM
1607,1730433580.059762,0.0132119059562683,-0.0067443549633026,0.017524778842926,0.3119502742722333,-0.109494362210741,0.1487865201625291,-0.1040017157793045,-0.3069153726100921,-0.9460373520851136,-0.11170145124197,0.02700737118721,0.0113891586661338,2024/09/23 03:41:01 PM
1595,1730433579.9395509,-0.000970534980297,0.0085266530513763,-0.0224570631980896,0.3134545127824929,-0.1170311738862766,0.1486597450653233,-0.111074760556221,-0.3083466589450836,-0.9447670578956604,0.0297745931893587,0.0838019475340843,-0.0037857466377317,2024/09/23 03:40:49 PM
1234,1730433576.3362188,0.0134428925812244,0.0185437351465225,0.0217877030372619,0.1577315318326125,0.0395330090405014,-0.3167989766809702,0.039032083004713,-0.1570783108472824,-0.9868144989013672,-0.026113798841834,-0.0604260712862014,0.0226449538022279,2024/09/23 03:34:48 PM
1340,1730433577.397116,0.0178356543183326,0.0181143432855606,0.0084622502326965,0.1833706408589694,0.0591481473529519,-0.3344814851769084,0.0581226050853729,-0.1823447346687317,-0.9815152287483216,-0.3528445363044739,-0.1350640952587127,0.0354503914713859,2024/09/23 03:36:34 PM
724,1730433571.245305,-0.0307628400623798,0.0242453813552856,-0.0219727754592895,0.2455784913883724,0.0638957868416335,-0.3102873640286925,0.0619365461170673,-0.2431174963712692,-0.9680174589157104,0.0080177458003163,0.0167190469801425,-0.0776650831103324,2024/09/23 03:26:18 PM
1310,1730433577.095093,0.0033273100852966,0.0157179236412048,0.0141846537590026,0.1843010505866381,0.0601507347230947,-0.287776573762468,0.0590964071452617,-0.1832594722509384,-0.9812867045402528,0.3029930889606476,0.2640902400016784,-0.2275726646184921,2024/09/23 03:36:04 PM
851,1730433572.512756,-0.0056110471487045,0.0123377442359924,-0.0151020288467407,0.2687820240034679,0.114214482295879,-0.3300729434442735,0.1098743677139282,-0.2655573785305023,-0.9578136205673218,0.3132439255714416,0.6760849356651306,0.1319765150547027,2024/09/23 03:28:25 PM
1905,1730433583.036442,-0.0018914118409156,0.0090589523315429,0.007536232471466,0.3497488901279307,-0.0852287585860248,0.1353742431598091,-0.079972006380558,-0.3426619172096252,-0.9360487461090088,0.0691731125116348,0.2911383807659149,0.1416069120168686,2024/09/23 03:45:59 PM
1230,1730433576.296101,0.0002137757837772,0.0229546129703521,0.0103430151939392,0.1581652801699634,0.0405251892074297,-0.3170730387028401,0.0400083996355533,-0.1575066596269607,-0.9867071509361268,0.0075727445073425,0.0043966025114059,-0.0068175424821674,2024/09/23 03:34:44 PM
675,1730433570.756075,0.0049806535243988,0.026863008737564,0.0295714735984802,0.2468457948369855,0.0774437107823937,-0.310237038261562,0.0750211924314498,-0.2443465888500213,-0.9667815566062928,-0.0493309088051319,0.1096487194299697,0.0233398806303739,2024/09/23 03:25:29 PM
67,1730433564.685814,0.0387597233057022,0.0651128590106964,-0.0407989621162414,0.418467299083169,-0.1872641868776479,0.0397060284970355,-0.1701073944568634,-0.4063604772090912,-0.8977386355400085,0.0198306050151586,-0.0338706262409687,-0.0239694714546203,2024/09/23 03:15:21 PM
1268,1730433576.676942,-0.0035581216216087,-0.0019184350967407,-0.0110356211662292,0.1522488059794738,0.0352073182370927,-0.3184901808978093,0.0347928702831268,-0.1516613066196441,-0.9878199696540833,0.1013538017868995,-0.1513594388961792,-0.373248815536499,2024/09/23 03:35:22 PM
275,1730433566.763177,-0.0348919220268726,-0.0159722566604614,0.0187045335769653,0.3050837030096275,0.021049131450058,-0.338680552554931,0.0200756378471851,-0.3003730177879333,-0.9536105394363404,-0.0455116033554077,0.2607386410236358,0.3681521117687225,2024/09/23 03:18:49 PM
951,1730433573.5106568,0.0011760294437408,0.0316450893878936,0.0194402933120727,0.2763287938873778,0.1185798828924199,-0.3382760645155323,0.1138142123818397,-0.2728255689144134,-0.9553075432777404,-0.2628766000270843,-0.5635776519775391,-0.0747478604316711,2024/09/23 03:30:05 PM
301,1730433567.022282,0.0060738213360309,0.0569100081920623,-0.0087242722511291,0.2981229405734064,0.0520777693482261,-0.3176019665439115,0.0497580952942371,-0.2937264740467071,-0.9545935988426208,-0.0492552854120731,0.116836592555046,0.0212612841278314,2024/09/23 03:19:15 PM
190,1730433565.91436,-0.0581963658332824,0.1604725122451782,0.0209748744964599,-0.4987076076997855,-0.1156110365437337,-0.795935931616002,-0.10130375623703,0.4782909452915191,-0.8723390102386475,0.7629726529121399,-0.0880238786339759,0.0076693082228302,2024/09/23 03:17:24 PM
587,1730433569.876816,0.0118648186326026,0.0020169019699096,0.0313592553138732,0.2584395762692584,0.0698240708479347,-0.3046364670458981,0.0674503743648529,-0.2555722594261169,-0.9644341468811036,-0.0350353084504604,-0.1121680960059166,0.0147088421508669,2024/09/23 03:24:01 PM
415,1730433568.159667,0.0340296328067779,0.0344899594783782,-0.0098036527633667,0.2578107232698345,0.0750875766677367,-0.301038645910028,0.0725377574563026,-0.2549642324447632,-0.9642258882522584,-0.0236471612006425,0.0313283503055572,-0.0221182014793157,2024/09/23 03:21:09 PM
400,1730433568.011306,0.0174451470375061,0.0085061490535736,-0.0175326466560363,0.2589016891689514,0.0736669724300094,-0.2935256609061732,0.0711473897099495,-0.2560189962387085,-0.9640499353408812,0.0220334306359291,0.0441900864243507,0.0337149687111377,2024/09/23 03:20:54 PM
669,1730433570.695888,0.0050180554389953,0.0094191431999206,0.0147812366485595,0.2512511063892677,0.0688990788223066,-0.3113877283591283,0.0666830092668533,-0.2486159801483154,-0.9663040041923524,-0.0444737710058689,0.1919571757316589,-0.0179922189563512,2024/09/23 03:25:23 PM
936,1730433573.361331,-0.0444415286183357,0.030048668384552,-0.0054646134376525,0.2766837186885011,0.1190965659230925,-0.3305580536623003,0.1142962798476219,-0.2731670141220093,-0.9551524519920348,0.5086473822593689,0.9719770550727844,0.2075253874063491,2024/09/23 03:29:50 PM
125,1730433565.265322,-0.1012512817978859,0.0408651530742645,0.0056661963462829,0.2902544133094608,-0.0380122933738133,-0.4079290957940947,-0.0364135093986988,-0.2861959934234619,-0.957478940486908,-0.6121666431427002,0.1328818798065185,-2.18666672706604,2024/09/23 03:16:19 PM
1359,1730433577.584414,-0.0065855644643306,-0.0144502222537994,-0.0129947066307067,0.1199620876227549,0.0321517294544623,-0.3138388159119176,0.0319151617586612,-0.1196745708584785,-0.9923000931739808,0.0513478107750415,-0.0511992834508419,-0.0619916394352912,2024/09/23 03:36:53 PM
1923,1730433583.214301,-0.0440692454576492,-0.0310090482234954,-0.0044286847114562,0.3438609874588615,-0.1015346021711561,0.1112617380835676,-0.0954266116023063,-0.3371245563030243,-0.9366113543510436,0.0384574867784976,-0.0069324849173426,-0.0694135427474975,2024/09/23 03:46:17 PM
1846,1730433582.445938,0.0627979338169097,0.2900518178939819,-0.0126824975013732,0.3524975742942884,-0.0762207306294734,0.1319097876523892,-0.0714649334549903,-0.3452428877353668,-0.9357885122299194,-0.0089189289137721,0.1047162786126136,0.2275536805391311,2024/09/23 03:45:00 PM
1376,1730433577.753357,0.0036619622260332,0.0041696578264236,0.0084137916564941,0.1329330517589513,0.0305940203284112,-0.3235103010791917,0.0303193721920251,-0.1325418800115585,-0.990713596343994,0.0828423872590065,0.0382536351680755,-0.0273999944329261,2024/09/23 03:37:10 PM
348,1730433567.491253,-0.0185181610286235,0.0151667594909667,-0.0420955419540405,0.2764093120001777,0.0566472655563632,-0.3014232364872086,0.0544678829610347,-0.2729030251502991,-0.9604983925819396,0.0203076526522636,0.0396784245967865,0.0108093880116939,2024/09/23 03:20:02 PM
1262,1730433576.615456,0.024710401892662,-0.0099362581968307,0.0578178763389587,0.1517941002822584,0.0413127555022921,-0.3146949357518852,0.0408261008560657,-0.1512118428945541,-0.9876579642295836,0.0650195553898811,-0.1007141023874282,-0.0310221593827009,2024/09/23 03:35:16 PM
816,1730433572.163713,0.0194790214300155,0.0096364617347717,0.0146877169609069,0.3018105739511882,0.1826787293383957,-0.336856854989563,0.1734531223773956,-0.297249436378479,-0.938912570476532,-0.0543209351599216,-0.2770851254463196,-0.059721503406763,2024/09/23 03:27:50 PM
1012,1730433574.120134,-0.0065374299883842,0.0084935128688812,-0.0111660957336425,0.2540457804340663,0.0780903941742401,-0.3376091994822061,0.0755071714520454,-0.251321941614151,-0.9649538397789,0.108236476778984,0.2364884316921234,0.0563979111611843,2024/09/23 03:31:06 PM
1701,1730433580.99798,0.0137309357523918,-0.0062712132930755,0.0162246823310852,0.3064720550133645,-0.1093184886109715,0.1508922612453615,-0.1040172055363655,-0.3016969561576843,-0.9477127194404602,-0.0266430638730525,-0.0132140824571251,0.0047043575905263,2024/09/23 03:42:35 PM
983,1730433573.830684,0.0157771036028862,-0.0117190778255462,0.0052974820137023,0.2747603174153233,0.11785821119795,-0.3303981863705969,0.113174945116043,-0.271316260099411,-0.9558132290840148,0.2257775217294693,0.498777836561203,0.0887974500656127,2024/09/23 03:30:37 PM
37,1730433496.270591,-0.0183427408337593,-0.0372345447540283,0.0700005888938903,0.8157692495785449,0.1598815953202351,-0.0831829168136929,0.1091019883751869,-0.7282530069351196,-0.6765680313110352,-0.1009331792593002,-0.0370283350348472,-0.0127284117043018,2024/09/23 03:14:51 PM
282,1730433566.83254,-0.0094443745911121,-0.0361794233322143,0.0133554935455322,0.3025363649619544,0.0306307301710245,-0.3215672876102038,0.02923502959311,-0.2979423403739929,-0.954136073589325,-0.078474722802639,0.1243568286299705,0.1136127784848213,2024/09/23 03:18:56 PM
2011,1730433584.093039,-0.0053130909800529,0.0145634710788726,0.0058957934379577,0.3483645132437675,-0.0967394524341362,0.1279621101471028,-0.0907867699861526,-0.3413610160350799,-0.9355375170707704,0.1394128948450088,0.2938025891780853,0.5161876082420349,2024/09/23 03:47:45 PM
847,1730433572.47327,-0.0501780956983566,0.0180738866329193,-0.0111525654792785,0.2531923481885157,0.0854430257954887,-0.3337600401940173,0.0826182961463928,-0.2504957914352417,-0.9645859599113464,0.4159422814846039,0.826448380947113,0.1005076840519905,2024/09/23 03:28:21 PM
1685,1730433580.837945,-0.0151969864964485,0.0283991992473602,-0.0040946006774902,0.3041548129241391,-0.1154536779401993,0.1513918028403457,-0.1099098473787307,-0.2994868755340576,-0.947748601436615,-0.1203091666102409,-0.13760606944561,0.0535006560385227,2024/09/23 03:42:19 PM
353,1730433567.5413451,0.0252642333507537,0.0064507126808166,-0.0202372670173645,0.2745506729302187,0.0595341284382038,-0.2996837517816155,0.057270560413599,-0.2711144685745239,-0.9608418345451356,-0.0389552153646945,0.0768779888749122,0.0563303716480731,2024/09/23 03:20:07 PM
1129,1730433575.287784,0.0156023353338241,0.0469986349344253,0.0262299180030822,0.2226308257946632,0.0658576730916628,-0.346522881050554,0.0641858801245689,-0.2207962870597839,-0.9732056260108948,-0.1667657345533371,-0.3290825486183166,-0.4719129502773285,2024/09/23 03:33:03 PM
1848,1730433582.4655209,0.0734494403004646,-0.1660423874855041,0.0618228316307067,0.3479556902157622,-0.0807841691303343,0.1321921503948102,-0.0758603438735008,-0.3409767150878906,-0.9370059370994568,-0.3043390214443207,-0.3575128614902496,-0.0499348640441894,2024/09/23 03:45:02 PM
375,1730433567.7646542,0.0247708745300769,0.0311892330646514,-0.0018117427825927,0.2675074140105669,0.0640991342032982,-0.2954798308669307,0.0617769807577133,-0.2643283307552337,-0.9624521732330322,-0.0160969719290733,0.0320972055196762,0.0117504959926009,2024/09/23 03:20:29 PM
1866,1730433582.645536,-0.0074699372053146,0.0280503332614898,-0.0019724369049072,0.3332409351392984,-0.1043614715279466,0.1249866929812305,-0.098441332578659,-0.3271073698997497,-0.9398458003997804,0.0672531649470329,-0.0148708345368504,0.054433561861515,2024/09/23 03:45:20 PM
990,1730433573.900593,0.0276392102241516,-0.0029795467853546,0.028626799583435,0.2806270814156293,0.1292516405320424,-0.3268354686674461,0.1238500550389289,-0.2769582569599151,-0.9528669118881226,-0.074256382882595,-0.1548628211021423,0.0205145869404077,2024/09/23 03:30:44 PM
304,1730433567.051906,0.01252206787467,0.0430734455585479,0.030982494354248,0.2941379515044758,0.0550226234974707,-0.3165507888531567,0.0526329688727855,-0.2899149358272552,-0.955604076385498,-0.0910758674144744,0.0712283626198768,0.043815329670906,2024/09/23 03:19:18 PM
899,1730433572.992412,-0.0274102687835693,0.014549970626831,0.0009665489196777,0.2779414440846535,0.1304593385062682,-0.322812559598938,0.1250970512628555,-0.2743766903877258,-0.9534506797790528,0.3097589015960693,0.6253421306610107,0.0606082081794738,2024/09/23 03:29:13 PM
644,1730433570.446834,-0.0804680734872818,0.0146756470203399,-0.0451433658599853,0.2503767177291665,0.0483009391115363,-0.3101251719267042,0.0467766821384429,-0.2477689534425735,-0.9676892757415771,0.1326265037059784,0.0973081663250923,-0.0956730097532272,2024/09/23 03:24:58 PM
1070,1730433574.69848,0.0451027378439903,0.0308631211519241,0.016365110874176,0.2279148329484432,0.0533160261321309,-0.3240013086763954,0.0519126541912555,-0.225946769118309,-0.9727554321289062,-0.0516961552202701,-0.1504720747470855,-0.1792753934860229,2024/09/23 03:32:04 PM
1279,1730433576.785579,-0.031150946393609,0.0668657124042511,-0.0265348553657531,0.1382437668403577,0.0164157153402704,-0.3265437076288231,0.0162583719938993,-0.137803852558136,-0.9903261065483092,-0.1189453154802322,-0.0898175165057182,0.4905073642730713,2024/09/23 03:35:33 PM
1073,1730433574.72874,0.0482051111757755,0.0081395804882049,0.0251413583755493,0.2234965896886873,0.0482431296350007,-0.3336368902245993,0.0470250025391578,-0.2216406017541885,-0.9739938974380492,-0.21138696372509,-0.3318261504173279,-0.4256598949432373,2024/09/23 03:32:07 PM
1567,1730433579.660297,-0.0202333331108093,0.0079810917377471,-0.0428459048271179,0.3100116831252941,-0.1433152475046906,0.1481526177847623,-0.1360166817903518,-0.3050697743892669,-0.942566692829132,0.2236996293067932,0.2119386047124862,-0.1208767369389534,2024/09/23 03:40:21 PM
1988,1730433583.862932,0.0214986875653266,0.0287477076053619,0.0213530659675598,0.3521264677390584,-0.0936254061937407,0.139403764228857,-0.0877523496747016,-0.3448945879936218,-0.93453049659729,0.0724178925156593,0.1323660165071487,0.1367496997117996,2024/09/23 03:47:22 PM
202,1730433566.034347,-0.0346493870019912,0.179652452468872,-0.0169484615325927,-0.3971585053336503,-0.1227407655919857,-0.7816995930607785,-0.1129031106829643,0.3867995738983154,-0.9152262210845948,2.70001482963562,-0.0698624476790428,-0.3360604643821716,2024/09/23 03:17:36 PM
1243,1730433576.429795,0.0017023123800754,-0.0283650755882263,-0.0308026671409606,0.1560443298268653,0.0326045807298906,-0.3142939133690988,0.0322027206420898,-0.1554118245840072,-0.9873247742652892,-0.0739145949482917,-0.0292590968310832,0.0245050657540559,2024/09/23 03:34:57 PM
1597,1730433579.959975,-0.0139425620436668,0.021416038274765,-0.0298752784729003,0.3147816132308931,-0.1151571252440692,0.1487053617542097,-0.1092569157481193,-0.3096088171005249,-0.9445661902427672,0.0742109268903732,0.0949936136603355,-0.0056153913028538,2024/09/23 03:40:51 PM
60,1730433564.619687,0.0080305188894271,0.0877059698104858,-0.0210804939270019,0.4236110944701682,-0.1886405790348027,0.0406326615641048,-0.170948639512062,-0.4110550284385681,-0.8954386115074158,0.05911810323596,-0.0181920640170574,0.0084162186831235,2024/09/23 03:15:14 PM
749,1730433571.4944758,-0.0012330114841461,0.0095276832580566,-0.004485011100769,0.2557925168620094,0.0805525791132268,-0.3164821900657057,0.0778473913669586,-0.2530122101306915,-0.9643259644508362,0.0467376597225666,0.05991205945611,-0.0959093868732452,2024/09/23 03:26:43 PM
1348,1730433577.474368,0.0239483378827571,-0.0289174318313598,0.0449880361557006,0.1482917650807518,0.0469421883617598,-0.322883284210927,0.0464099459350109,-0.1477488577365875,-0.9879354238510132,-0.76031094789505,-0.2474436312913894,0.2296586483716964,2024/09/23 03:36:42 PM
957,1730433573.574206,0.0521442964673042,0.0394939184188842,0.0142733454704284,0.2587409296734749,0.0820383742241562,-0.3368844175593336,0.0792186260223388,-0.255863606929779,-0.9634615778923036,-0.4073487818241119,-0.7786055207252502,0.0103306584060192,2024/09/23 03:30:11 PM
1732,1730433581.307493,-0.0361624062061309,0.0798581838607788,0.0226420164108276,0.3075537803063823,-0.1097779687076301,0.152475914435914,-0.1044168323278427,-0.3027281165122986,-0.94733989238739,0.165912240743637,0.150256872177124,0.0753264352679252,2024/09/23 03:43:06 PM
1406,1730433578.052846,-0.0111498311161994,0.0597593188285827,-0.0224279761314392,0.2342123044448448,0.0599561305476316,-0.3435133975646744,0.0582842417061328,-0.2320768684148788,-0.970949649810791,0.3930634260177612,0.2349323332309723,0.1226120889186859,2024/09/23 03:37:40 PM
1790,1730433581.886761,-0.0293261781334877,0.0318888425827026,0.0047328472137451,0.3303772248515672,-0.0904915163292157,0.1032216603804336,-0.0854809656739234,-0.3243998885154724,-0.9420497417449952,0.1479188203811645,0.0674994066357612,0.0029921049717813,2024/09/23 03:44:04 PM
1352,1730433577.513854,-0.0113131366670131,0.0357143580913543,-0.0165809988975524,0.124444767278459,0.0375522398478327,-0.3141884536416432,0.0372530817985534,-0.1241238117218017,-0.9915671944618224,-0.3215509057044983,-0.1259472966194152,0.129839152097702,2024/09/23 03:36:46 PM
1947,1730433583.454345,-0.0431505367159843,-0.0377557575702667,-0.0330743789672851,0.3450905593710508,-0.101094007648046,0.1242081589985691,-0.0949720293283462,-0.338281899690628,-0.9362401962280272,0.0673446208238601,0.1001311168074607,0.1324993371963501,2024/09/23 03:46:41 PM
643,1730433570.436923,-0.1667302250862121,0.1606088727712631,-0.0966252088546752,0.2486269800459725,0.0467076848613369,-0.3091358139446596,0.0452550202608108,-0.2460733950138092,-0.9681941270828248,0.2312308400869369,0.1776426881551742,-0.0735490620136261,2024/09/23 03:24:57 PM
1343,1730433577.4242458,0.0031401924788951,0.0480910092592239,0.0005200505256652,0.1732081195109023,0.0551931286137204,-0.3322217715961868,0.0543396733701229,-0.1723433434963226,-0.983536958694458,-0.2997255325317383,-0.0720670148730278,0.0786032453179359,2024/09/23 03:36:37 PM
1245,1730433576.445879,-0.0413040816783905,0.0250080674886703,-0.0279745459556579,0.1551772442843772,0.0332872877181865,-0.3140858578394253,0.0328812412917614,-0.1545552164316177,-0.987436830997467,-0.018654067069292,0.0656050965189933,-0.0010883372742682,2024/09/23 03:34:59 PM
1051,1730433574.509436,0.0059364587068557,-0.0052875280380249,0.007680594921112,0.2374465079958323,0.0657952491569952,-0.3333043515461836,0.0639030188322067,-0.2352215498685836,-0.9698387384414672,-0.0015915208496153,0.0147930504754185,0.0246668271720409,2024/09/23 03:31:45 PM
1815,1730433582.137457,-0.0248919501900672,0.0017088949680328,0.0023717880249023,0.3387311407114526,-0.0889946201361445,0.1030725038276046,-0.0838269293308258,-0.3322905898094177,-0.9394445419311525,0.2102086693048477,0.3143933713436126,0.7128311991691589,2024/09/23 03:44:29 PM
297,1730433566.982534,0.001434464007616,0.0863089561462402,-0.0233811736106872,0.299123798127675,0.0470105255227178,-0.3181387871708062,0.0449064821004867,-0.294683039188385,-0.9545392990112304,0.0195183120667934,0.1527578383684158,0.0103620300069451,2024/09/23 03:19:11 PM
98,1730433564.9955869,-0.1106152683496475,-0.0358923077583313,0.0514826774597168,0.3988214799094541,-0.1488403871556161,-0.0310063517045662,-0.1366534233093261,-0.3883325755596161,-0.9113306999206544,-0.091020330786705,0.0412832461297512,-0.7629199028015137,2024/09/23 03:15:52 PM
372,1730433567.731195,0.0101486332714557,0.0439875125885009,-0.0202859044075012,0.2685319372990131,0.0635983671339135,-0.2960539814438232,0.0612777657806873,-0.2653162777423858,-0.9622122049331664,0.0021653394214808,0.0391814783215522,0.0306062083691358,2024/09/23 03:20:26 PM
1724,1730433581.227333,0.0022638365626335,0.0070989429950714,0.0038660168647766,0.3052755685465881,-0.1096712302745655,0.1500257531447509,-0.1043909341096878,-0.3005560040473938,-0.9480341076850892,0.0106536913663148,-0.0003387643955647,-0.0071031926199793,2024/09/23 03:42:58 PM
260,1730433566.613076,-0.0348913557827472,0.0320207476615905,-0.0427178740501403,0.3069922865047557,0.0155378380725285,-0.4280716386259153,0.014810798689723,-0.3021929264068603,-0.9531317353248596,0.035399604588747,0.1339545994997024,0.808893620967865,2024/09/23 03:18:34 PM
1047,1730433574.470212,-0.0132939741015434,-0.0087469816207885,0.0129525661468505,0.2379533262495213,0.0652413819675543,-0.3335575309012561,0.0633580684661865,-0.2357141226530075,-0.9697549343109132,-0.0100058102980256,0.0306154228746891,-0.0230884980410337,2024/09/23 03:31:41 PM
158,1730433565.594719,0.0059893205761909,0.1187872290611267,-0.0643649697303772,-0.2540540723505359,-0.0779494678062811,-0.8389643256088247,-0.0753710195422172,0.2513299584388733,-0.9649624228477478,-2.995469093322754,-0.2879233956336975,0.3189209103584289,2024/09/23 03:16:52 PM
579,1730433569.803258,0.0011533200740814,0.0072928369045257,0.0025520920753479,0.2573942670126894,0.0742815692569278,-0.3050179074689294,0.0717684403061866,-0.2545615136623382,-0.9643898010253906,0.0259598679840564,-0.0284542888402938,0.0130174681544303,2024/09/23 03:23:53 PM
887,1730433572.874587,-0.0387889146804809,0.0437659919261932,-0.0163144469261169,0.2379296376256201,0.055737539459033,-0.3388765571290476,0.0541392602026462,-0.235691100358963,-0.9703188538551332,0.1070426926016807,0.2588427364826202,0.115876205265522,2024/09/23 03:29:01 PM
1811,1730433582.09662,-0.0493693128228187,-0.0446692705154418,-0.0190263986587524,0.3354094596891601,-0.0899105215591838,0.084689890269721,-0.0847859755158424,-0.329155832529068,-0.9404614567756652,0.0954901948571205,0.0926542952656745,0.1986557245254516,2024/09/23 03:44:25 PM
885,1730433572.8560882,-0.063215360045433,0.0521086156368255,-0.0012487173080444,0.2369208285774588,0.0534886201078903,-0.3400911697024231,0.0519696436822414,-0.2347105890512466,-0.9706750512123108,-0.0204627737402915,-0.0341420024633407,0.0120782246813178,2024/09/23 03:28:59 PM
1709,1730433581.077781,0.0073257610201835,0.0051975548267364,0.0059539675712585,0.304577964514766,-0.1096428366332221,0.1511129979271003,-0.1043869331479072,-0.2998905777931213,-0.9482452273368835,-0.021486448124051,-0.0107778226956725,0.0048906723968684,2024/09/23 03:42:43 PM
2037,1730433584.352428,0.0779745280742645,0.0335299968719482,0.0308291912078857,0.3463682845832024,-0.0954362468476668,0.1317136745151338,-0.0896322578191757,-0.3394840061664581,-0.9363315105438232,-0.1246202662587165,-0.2807016968727112,-0.265978991985321,2024/09/23 03:48:11 PM
1744,1730433581.42711,0.0023763701319694,0.020692229270935,0.0207897424697875,0.3080101155236081,-0.1104170475852988,0.1514480205746646,-0.1050070002675056,-0.3031629920005798,-0.9471355676651,0.086731918156147,0.0115796802565455,0.0322460234165191,2024/09/23 03:43:18 PM
1167,1730433575.667103,-0.031488187611103,0.0020914375782012,-0.0391239523887634,0.2133311784320542,0.0666940153920919,-0.3748177461047515,0.0651338249444961,-0.2117167264223098,-0.9751582741737366,0.0956921875476837,0.1425014734268188,0.0514798536896705,2024/09/23 03:33:41 PM
1104,1730433575.038649,-0.0066820010542869,-0.0353155583143234,-0.0073189735412597,0.2205733198302839,0.0632481816752568,-0.3603961358583047,0.0616746768355369,-0.2187890857458114,-0.9738211035728456,-0.0676750019192695,-0.144778236746788,-0.3243376612663269,2024/09/23 03:32:38 PM
1456,1730433578.552547,-0.0157612189650535,0.0007386207580566,0.0102308392524719,0.4675379863900712,-0.0938096552106509,-0.0347250352622202,-0.0836192891001701,-0.4506898522377014,-0.8887556195259094,0.2502900958061218,-0.1175897568464279,0.3523751497268677,2024/09/23 03:38:30 PM
821,1730433572.213174,0.067686453461647,-0.0154900848865509,0.0328937768936157,0.2937390568366617,0.1575820994782479,-0.3375559739011159,0.1502090692520141,-0.2895331382751465,-0.9453083276748656,-0.3046429753303528,-0.7803323268890381,-0.0445111244916915,2024/09/23 03:27:55 PM
82,1730433564.851514,0.0137072801589965,0.0417414307594299,-0.0339726209640502,0.4079097165734706,-0.1828915776063493,0.0325376338026609,-0.1669513136148452,-0.3966914117336273,-0.9026423692703248,0.0106047103181481,0.0038192288484424,-0.0916528031229972,2024/09/23 03:15:36 PM
1363,1730433577.6235828,0.0271046590059995,-0.0394103452563285,-0.0532543659210205,0.1204879337774385,0.0276955949723678,-0.3176922453962662,0.0274912901222705,-0.1201966181397438,-0.9923694133758544,0.0864359810948371,-0.1011135801672935,-0.0990776494145393,2024/09/23 03:36:57 PM
1736,1730433581.347549,0.0230675935745239,-0.0236392617225646,0.0029354095458984,0.3092543648712856,-0.109172096506964,0.1524913743721362,-0.1037866026163101,-0.3043484687805176,-0.9468898177146912,-0.1443236172199249,-0.1718876212835312,-0.0058723865076899,2024/09/23 03:43:10 PM
1080,1730433574.7987928,-0.0105970725417137,-0.0072799026966094,-0.0312031507492065,0.2209071297843337,0.0501354666240794,-0.3475440442214806,0.0488966405391693,-0.2191147953271865,-0.9744731187820436,0.0240608602762222,0.1176001206040382,-0.1051978543400764,2024/09/23 03:32:14 PM
1659,1730433580.57904,0.0020026341080665,0.0166373252868652,-0.0071013569831848,0.3102727932484606,-0.1089577617051907,0.1516524946777479,-0.1035498902201652,-0.3053184151649475,-0.9466034770011902,-0.0033674277365207,0.0018780508544296,-0.0077945496886968,2024/09/23 03:41:53 PM
104,1730433565.054985,-0.0147503614425659,0.0040059387683868,0.043334424495697,0.3999936342018523,-0.1320927187767143,-0.0878335695485977,-0.1213122755289077,-0.3894124925136566,-0.9130395650863647,-0.1022064462304115,-0.2327464371919632,-0.9210323095321656,2024/09/23 03:15:58 PM
1264,1730433576.635765,0.0270382389426231,-0.0176245719194412,0.0448455810546875,0.1521358584332042,0.0389116355445035,-0.3152139451931751,0.0384524874389171,-0.1515496671199798,-0.987701416015625,-0.0101879090070724,-0.140309989452362,-0.0245833303779363,2024/09/23 03:35:18 PM
2013,1730433584.113342,0.0351991429924964,0.0171959102153778,0.0072560310363769,0.3491198141907304,-0.0955590486665087,0.1349154892172747,-0.0896577760577201,-0.3420708477497101,-0.935387134552002,-0.0685645416378974,-0.0975731760263443,-0.0633529350161552,2024/09/23 03:47:47 PM
1668,1730433580.66918,0.0069691836833953,-0.001565009355545,0.0136167407035827,0.3112839457523978,-0.1089689084998676,0.1520827021653336,-0.1035268157720565,-0.3062811195850372,-0.946294903755188,0.0173631981015205,-0.0141589725390076,0.0056482353247702,2024/09/23 03:42:02 PM
525,1730433569.258404,-0.006252035498619,0.0177264213562011,0.0059905052185058,0.2552454527126999,0.0820113250885469,-0.3072889155219668,0.0792653486132621,-0.252482920885086,-0.9643492102622986,0.0375908799469471,0.0270371995866298,-0.0151571780443191,2024/09/23 03:22:59 PM
619,1730433570.196579,-0.0148783102631568,-0.0051854401826858,-0.0566365122795105,0.2493591617358738,0.0475397367714764,-0.3019344449835209,0.0460520200431346,-0.2467829883098602,-0.967975914478302,0.2477221637964248,0.4138645529747009,-0.127726599574089,2024/09/23 03:24:33 PM
1751,1730433581.497473,0.0181546509265899,-0.0363781154155731,0.0103013515472412,0.3199596919207365,-0.0990332341488914,0.1528101882348019,-0.0938535183668136,-0.3145282864570617,-0.9445970058441162,-0.1138019189238548,-0.1780349910259246,0.0239825546741485,2024/09/23 03:43:25 PM
1961,1730433583.593994,-0.0018774345517158,0.007654845714569,0.0233605504035949,0.3462263073421057,-0.0990466784846464,0.1413309524021438,-0.0930169895291328,-0.3393504619598388,-0.93604975938797,0.0715473070740699,0.0204306952655315,0.0985463261604309,2024/09/23 03:46:55 PM
541,1730433569.418284,-0.0015752911567687,0.1394368112087249,0.028598666191101,0.2544635643782165,0.074174293009047,-0.3088691873104168,0.0717199593782424,-0.2517262697219848,-0.9651373624801636,-0.1632352471351623,-0.2108283638954162,0.1169447749853134,2024/09/23 03:23:15 PM
441,1730433568.419663,0.0001317262649536,0.0267119407653808,-0.009464681148529,0.2552592348310225,0.078999835032979,-0.301585794248585,0.0763605907559394,-0.2524962425231933,-0.9645800590515136,0.0139197017997503,-0.0099964514374732,0.0053562466055154,2024/09/23 03:21:35 PM
1026,1730433574.260128,-0.0225604698061943,0.0625235438346862,0.0043277144432067,0.2454777627389522,0.0684100183077834,-0.3240806122258045,0.066307432949543,-0.2430197894573211,-0.9677523970603944,-0.1000927612185478,-0.1223469600081443,0.095815360546112,2024/09/23 03:31:20 PM
941,1730433573.411466,0.0256095230579376,-0.0118940770626068,0.014245331287384,0.2874427934719196,0.1416675417418274,-0.3292641420414213,0.1354012340307235,-0.2835008800029754,-0.949364960193634,0.0681257992982864,0.2085678428411483,-0.0105172581970691,2024/09/23 03:29:55 PM
366,1730433567.6704822,-0.0036759115755558,0.0312762558460235,-0.0036054849624633,0.2706683523385624,0.0630013717172289,-0.2971626934318948,0.0606674924492836,-0.2673755288124084,-0.9616807103157043,-0.0247810389846563,0.0163818914443254,-0.0093271452933549,2024/09/23 03:20:20 PM
1071,1730433574.708561,0.0312953740358352,0.0126978307962417,0.0203348398208618,0.2270302101291154,0.0520956464141313,-0.326006381922451,0.0507358722388744,-0.2250849306583404,-0.9730172753334044,-0.1054506748914718,-0.2148870229721069,-0.2435188740491867,2024/09/23 03:32:05 PM
553,1730433569.537794,0.0093201324343681,0.0257724821567535,0.0116826295852661,0.2600630998516299,0.0809982655015036,-0.3105503430719535,0.0781890377402305,-0.2571415305137634,-0.9632054567337036,-0.03417344763875,0.0030881911516189,-0.0751466900110244,2024/09/23 03:23:27 PM
1334,1730433577.3343349,0.0393033847212791,-0.0258583575487136,0.0389167666435241,0.2005816448967048,0.0709575012673466,-0.3360206089639485,0.0694765299558639,-0.1992393434047699,-0.9774848818778992,-0.5030817985534668,-0.5876992344856262,-0.0166441276669502,2024/09/23 03:36:28 PM
1252,1730433576.515547,0.0073284916579723,-0.0242324322462081,0.0188992023468017,0.1512860431099973,0.0392417465428691,-0.3140225160480496,0.0387835763394832,-0.1507096141576767,-0.9878169894218444,-0.1480353474617004,0.0643137320876121,0.009572722017765,2024/09/23 03:35:06 PM
823,1730433572.233326,0.0361604690551757,-0.0053144395351409,0.0252008438110351,0.2869050634295747,0.1409785614827188,-0.3376414544921277,0.1347685009241104,-0.2829851508140564,-0.9496088027954102,-0.385427325963974,-0.8975105881690979,-0.0867278203368187,2024/09/23 03:27:57 PM
133,1730433565.344796,0.0059533035382628,0.0634469985961914,0.0530113577842712,0.222708425342064,0.0101514711967955,-0.6007223241357951,0.0099005885422229,-0.2208719700574875,-0.9752525687217712,-1.495428204536438,-0.4347719550132751,-2.2604610919952397,2024/09/23 03:16:27 PM
227,1730433566.284054,-0.0467730872333049,0.1304319500923156,-0.0062090754508972,0.2470738671387146,-0.0122068995952593,-0.6875653539795348,-0.011835909448564,-0.2445677369832992,-0.9695599675178528,0.5327174067497253,0.5186492800712585,0.8206378817558289,2024/09/23 03:18:01 PM
1395,1730433577.9449492,-0.0041359513998031,-0.0101469308137893,-0.0660931468009948,0.1776761133098962,0.0376661644395114,-0.3377573175127323,0.0370644219219684,-0.176742747426033,-0.98355895280838,0.5923498272895813,0.1576977372169494,-0.1174817904829979,2024/09/23 03:37:29 PM
480,1730433568.808965,-0.003246858716011,0.0197706818580627,0.011819303035736,0.2564910201826061,0.078952859771086,-0.3039362999389138,0.0762906894087791,-0.2536879479885101,-0.9642728567123412,0.0274738147854805,0.0037396005354821,-0.0342507623136043,2024/09/23 03:22:14 PM
91,1730433564.925343,-0.0614024698734283,-0.0565844774246215,-0.0147755742073059,0.4015372349513079,-0.1702066019311513,0.0130515517146023,-0.155913233757019,-0.3908337652683258,-0.9071604013442992,-0.1163669601082801,0.1002416387200355,-0.3748038709163666,2024/09/23 03:15:45 PM
432,1730433568.329934,0.0036697685718536,0.0382094979286193,0.0189824700355529,0.2552672203148331,0.0814700994946897,-0.3025682850203806,0.0787429586052894,-0.2525039911270141,-0.9643864631652832,0.0114136040210723,-0.0010098810307681,0.0009155316511169,2024/09/23 03:21:26 PM
536,1730433569.368532,-0.0014110878109931,0.0294110178947448,-0.0043871402740478,0.2583811732384246,0.0820274834718443,-0.3080578406141346,0.0792156681418418,-0.2555157840251922,-0.9635541439056396,0.0888912752270698,0.0254161320626735,-0.0059564355760812,2024/09/23 03:23:10 PM
1089,1730433574.888385,0.0241162814199924,0.018537700176239,0.0216763615608215,0.225600986926416,0.063988809658437,-0.3394650523894784,0.0623247697949409,-0.2236921638250351,-0.9726651310920716,-0.0100483261048793,0.1367051005363464,0.2930541634559631,2024/09/23 03:32:23 PM
1273,1730433576.7273889,-0.2607486546039581,0.1716081500053405,-0.0931990146636962,0.1443995253329429,0.0234459772551385,-0.3332612473761786,0.023199837654829,-0.1438982337713241,-0.9893205165863036,0.027526730671525,-0.1296887695789337,-0.3304569721221924,2024/09/23 03:35:27 PM
363,1730433567.641084,-0.0007038190960884,0.0411567389965057,-0.000596284866333,0.2711042977298665,0.0622825760515152,-0.2973098749672229,0.059968963265419,-0.2677955627441406,-0.9616076350212096,0.0223458502441644,0.0139450998976826,0.009870677255094,2024/09/23 03:20:17 PM
11,1730433496.054786,-0.0042268261313438,0.0057750344276428,0.0032136440277099,0.8169428481426009,0.1628816504745615,-0.0815631286496528,0.1109925732016563,-0.7290567755699158,-0.6753938794136047,0.0132793625816702,0.00688346195966,-0.0036598162259906,2024/09/23 03:14:25 PM
1084,1730433574.841558,-0.0320326089859008,0.0160440057516098,-0.0118773579597473,0.2232622548308774,0.0570066523548778,-0.3493141707342549,0.0555616617202758,-0.2214120775461197,-0.973596215248108,0.1051931828260421,0.2188215404748916,0.0506053790450096,2024/09/23 03:32:18 PM
1963,1730433583.613797,-0.0084179192781448,0.0117575228214263,0.0145925879478454,0.3472625607876042,-0.0996442765799014,0.1432460129213866,-0.0935413241386413,-0.3403250575065613,-0.9356435537338256,0.0421471707522869,-0.0389221087098121,0.0753843337297439,2024/09/23 03:46:57 PM
53,1730433564.5488749,0.0644466131925582,0.0657241344451904,-0.0363261699676513,0.4274541548427605,-0.1889099756968116,0.0411179595536704,-0.1708919554948806,-0.4145553708076477,-0.8938343524932861,-0.0173545964062213,-0.0286457706242799,0.0070907631888985,2024/09/23 03:15:07 PM
267,1730433566.682763,-0.0495615862309932,0.0013072490692138,-0.034197449684143,0.3100377056176517,0.0120664938467255,-0.3790606663732772,0.0114909093827009,-0.3050945401191711,-0.9522527456283568,0.0537696331739425,0.246195912361145,0.5637667179107666,2024/09/23 03:18:41 PM
1740,1730433581.387434,0.0225803405046463,0.007724642753601,0.0123131871223449,0.3080286098810725,-0.1085343684660799,0.1512369621507051,-0.10322305560112,-0.3031806349754333,-0.9473260045051576,-0.0092013012617826,-0.0163017529994249,-0.012090815231204,2024/09/23 03:43:14 PM
1822,1730433582.205688,0.18851038813591,-0.0070089697837829,0.0485244393348693,0.3416554866607289,-0.0891120124636417,0.1305181915334326,-0.0838503763079643,-0.3350473642349243,-0.9384627938270568,-0.2351196706295013,-0.4696071743965149,-0.5152095556259155,2024/09/23 03:44:36 PM
2049,1730433584.474438,-0.0603158324956893,-0.0483530163764953,-0.0202416181564331,0.3392188541652155,-0.1000373244967825,0.0914554886211688,-0.0941794216632843,-0.3327505588531494,-0.9383001923561096,0.0598787628114223,0.0637608617544174,0.2084839642047882,2024/09/23 03:48:23 PM
1399,1730433577.983495,-0.0140706822276115,0.0418135523796081,-0.0237548947334289,0.2012192479270863,0.0451791888047085,-0.3427412990622315,0.0442525781691074,-0.1998641341924667,-0.9788237810134888,0.5914245843887329,0.1880567073822021,-0.0799979045987129,2024/09/23 03:37:33 PM
771,1730433571.714047,-0.0040784105658531,0.0137420296669006,0.0045731663703918,0.2744688887541553,0.1161765397534827,-0.3342081741815426,0.1115765795111656,-0.2710357308387756,-0.956080675125122,0.0342740826308727,0.0603988841176033,0.0108457673341035,2024/09/23 03:27:05 PM
1899,1730433582.975212,-0.0183183178305625,-0.0324908792972564,-0.0008981227874755,0.3468753743750458,-0.0944164138798615,0.124127785817461,-0.0886610671877861,-0.3399609625339508,-0.9362509250640868,0.0068062217906117,0.0906257629394531,0.1902566999197006,2024/09/23 03:45:53 PM
107,1730433565.085132,-0.0487390384078025,-0.0020897686481475,0.0033023357391357,0.4001843813126833,-0.1273168348671651,-0.1194316222765548,-0.116940900683403,-0.3895881474018097,-0.9135348200798036,-0.1185282617807388,-0.2127881795167923,-1.009044528007507,2024/09/23 03:16:01 PM
1666,1730433580.648991,0.0077498629689216,0.0065199434757232,0.0106969475746154,0.3110411546459595,-0.1088501198963844,0.1518941375226779,-0.1034224852919578,-0.3060500025749206,-0.9463810920715332,0.0290762335062026,0.0037081751506775,0.0053803748451173,2024/09/23 03:42:00 PM
65,1730433564.665726,0.0251536816358566,0.0675249397754669,-0.03797447681427,0.4209749752856778,-0.1873625844901535,0.0400610633528353,-0.1700053811073303,-0.4086504876613617,-0.89671790599823,0.0529180467128753,-0.0036882220301777,-0.0117060411721467,2024/09/23 03:15:19 PM
2018,1730433584.1622791,0.0955226868391037,0.0444289147853851,0.013351559638977,0.3401341289727035,-0.1018924632394177,0.1098308114566548,-0.0958889126777648,-0.3336135447025299,-0.9378204941749572,-0.218195840716362,-0.2550647854804992,-0.4927216172218323,2024/09/23 03:47:52 PM
1344,1730433577.4345489,-0.0095280669629573,0.0531646609306335,0.0061730742454528,0.1702425628402254,0.0542533996033585,-0.3311935265943329,0.0534428693354129,-0.1694214046001434,-0.9840936064720154,-0.3160049021244049,-0.0741176456212997,0.0890505611896514,2024/09/23 03:36:38 PM
953,1730433573.530551,0.0213161781430244,0.0086917877197265,0.0186209678649902,0.2707618891473974,0.1071279942139948,-0.338762742808036,0.1030277162790298,-0.2674656510353088,-0.9580435156822203,-0.2892565131187439,-0.5947360992431641,-0.0379837155342102,2024/09/23 03:30:07 PM
1857,1730433582.555665,-0.0124590322375297,0.0128306746482849,0.0076441168785095,0.3400884657362247,-0.0915045127746266,0.1349045088867104,-0.0861432775855064,-0.3335704803466797,-0.9387811422348022,-0.0081172082573175,-0.0025774175301194,0.0407838001847267,2024/09/23 03:45:11 PM
167,1730433565.684814,0.0265438631176948,0.1859985888004303,-0.0422523021697998,-0.4308286421886802,-0.0893179999124818,-0.8221884840476565,-0.0810482576489448,0.4176238775253296,-0.9049980640411376,-0.6869121193885803,-0.0959526374936103,0.2873017489910126,2024/09/23 03:17:01 PM
893,1730433572.9321,-0.0187692940235137,0.0312038958072662,-0.022650122642517,0.257031958019114,0.0912085573782091,-0.3287529706509021,0.0880899876356124,-0.2542111277580261,-0.9631286859512328,0.3963772356510162,0.7814303040504456,0.1766585856676101,2024/09/23 03:29:07 PM
1561,1730433579.603562,0.0190702378749847,-0.0564056634902954,0.0632961988449096,0.2962038631954196,-0.1484949110836267,0.1529545204155099,-0.1415067762136459,-0.291891485452652,-0.9459255933761596,0.3416533172130584,0.0060834484174847,-0.0696142986416816,2024/09/23 03:40:15 PM
1141,1730433575.4103951,0.0160418897867202,-0.0311346799135208,-0.0034286379814147,0.2225127932545328,0.0687440675997168,-0.3533199599195437,0.0669964551925659,-0.2206811606884002,-0.9730423092842102,-0.0687486305832862,0.0412432998418808,0.2242711335420608,2024/09/23 03:33:15 PM
729,1730433571.294903,-0.0151402726769447,0.0175426006317138,-0.0061119198799133,0.2492883849698638,0.0707127041650501,-0.3146370658318725,0.0684697553515434,-0.2467143982648849,-0.9666664004325868,0.1006058901548385,0.1461220383644104,-0.0813616588711738,2024/09/23 03:26:23 PM
1691,1730433580.9003448,-0.0117663666605949,0.0185508131980896,-0.0248315930366516,0.303044731330696,-0.1162314497942478,0.1505816169927928,-0.1106854304671287,-0.2984275817871094,-0.9479924440383912,0.085368737578392,0.1122511625289917,-0.017866251990199,2024/09/23 03:42:25 PM
264,1730433566.65312,-0.0212931483983993,0.0411045551300048,-0.0093567371368408,0.3076537016860508,0.0114232479042615,-0.397866591024679,0.0108866523951292,-0.3028233349323272,-0.9529845118522644,0.0612540543079376,0.1582194566726684,0.6422897577285767,2024/09/23 03:18:38 PM
1369,1730433577.684488,-0.0006866939365863,0.035783439874649,-0.0099749565124511,0.1268983117325658,0.0264610014947712,-0.3203343746399642,0.0262451712042093,-0.1265580058097839,-0.9916119575500488,0.1327016204595565,0.040796685963869,-0.0306213032454252,2024/09/23 03:37:03 PM
1004,1730433574.040756,-0.0588394254446029,0.0358358323574066,-0.0176206827163696,0.2537447650168946,0.0754070409337753,-0.3359922704197813,0.0729232877492904,-0.2510305643081665,-0.9652283787727356,-0.1034688204526901,-0.236994981765747,-0.0901107788085937,2024/09/23 03:30:58 PM
1491,1730433578.9022732,-0.1695751696825027,0.0556735396385192,-0.0274469256401062,0.4337732519130519,-0.0119350986709336,-0.0074569778232747,-0.0108294878154993,-0.4202975928783417,-0.9073216915130616,-0.0931331738829612,0.1451377421617508,0.4713672995567322,2024/09/23 03:39:05 PM
1842,1730433582.405781,-0.0313852280378341,0.0113225281238555,-0.003402292728424,0.3421474266978441,-0.0880693676486374,0.1204936853761023,-0.0828573405742645,-0.3355108201503753,-0.9383854269981384,0.216787651181221,0.4378228783607483,0.9040815830230712,2024/09/23 03:44:56 PM
861,1730433572.612753,0.0207239836454391,-0.0032202303409576,0.0313036441802978,0.2919878379253183,0.1653071288738293,-0.3265962903030036,0.157590240240097,-0.2878564894199371,-0.9446184039115906,0.0662727504968643,0.1383442878723144,-0.0315500535070896,2024/09/23 03:28:35 PM
1703,1730433581.018499,0.007102720439434,-0.0018141567707061,0.0059440732002258,0.3058815298529951,-0.1096620261954188,0.1509619844315178,-0.1043622568249702,-0.3011339008808136,-0.9478538632392884,-0.0300581604242324,-0.0094963097944855,0.0070903906598687,2024/09/23 03:42:37 PM
268,1730433566.693294,-0.0369777157902717,-0.0186157524585723,-0.016091763973236,0.310427481254765,0.0128741700757175,-0.373267489118975,0.0122584858909249,-0.3054657280445099,-0.9521241784095764,0.0145849455147981,0.2690085768699646,0.545204222202301,2024/09/23 03:18:42 PM
1220,1730433576.196458,-0.036922387778759,0.0056593865156173,-0.0276215076446533,0.1605999962243508,0.0415583448834795,-0.3141744687929677,0.041011743247509,-0.1599105149507522,-0.9862791895866394,-0.0424248315393924,-0.0421386770904064,0.0145522486418485,2024/09/23 03:34:34 PM
3,1730433496.044763,0.0005638822913169,0.0027028918266296,0.0080944895744323,0.8168907532951072,0.1630992326844392,-0.0816530073645565,0.1111456826329231,-0.7290211319923401,-0.6754071712493896,0.0021480391733348,0.0092398272827267,0.0095670400187373,2024/09/23 03:14:17 PM
1429,1730433578.28305,0.0457019656896591,-0.0307623445987701,-0.04049813747406,0.323804570336229,0.0536208108562741,-0.2158673010191212,0.0508098751306533,-0.3181757032871246,-0.9466692209243774,0.602749764919281,-0.011928042396903,0.690509021282196,2024/09/23 03:38:03 PM
1525,1730433579.2411342,0.024354338645935,0.014739379286766,-0.0667161345481872,0.0343384382071143,-0.1358748665271551,0.1416469259614711,-0.1353773176670074,-0.0343316905200481,-0.9901991486549376,-1.075208067893982,-0.4264322817325592,0.38968026638031,2024/09/23 03:39:39 PM
1501,1730433579.002217,0.0442958287894725,0.0234069228172302,0.2140091657638549,0.4038644935417395,-0.0246271818806583,0.0261775424996592,-0.0226436164230108,-0.392974853515625,-0.919270396232605,-0.6988664269447327,-0.2767706215381622,0.5065078735351562,2024/09/23 03:39:15 PM
306,1730433567.071537,0.016836978495121,0.0363088250160217,0.0208297967910766,0.291232285742929,0.055376746390516,-0.3157745165428253,0.0530177690088748,-0.2871328294277191,-0.9564224481582642,-0.0506061352789402,0.0142987677827477,0.0019167206482961,2024/09/23 03:19:20 PM
1885,1730433582.838275,0.1175860911607742,0.089747667312622,0.0359732508659362,0.3470542426126792,-0.0853092820048977,0.1359609142753133,-0.0801257640123367,-0.3401291668415069,-0.936958909034729,-0.248240128159523,-0.5492628812789917,-0.1600362956523895,2024/09/23 03:45:39 PM
1872,1730433582.705238,-0.0077584683895111,-0.0127897858619689,-0.0120477080345153,0.3421761374624957,-0.0980004629275513,0.1249404997298715,-0.0921713560819625,-0.335537850856781,-0.9375066757202148,0.1614793986082077,0.172992005944252,-0.0330186262726783,2024/09/23 03:45:26 PM
1331,1730433577.304661,0.0507536083459854,-0.0479898452758789,0.0425013303756713,0.2154061535067565,0.0877051203115132,-0.333971484185895,0.0855684280395507,-0.2137442082166671,-0.9731348752975464,-0.3941630125045776,-0.4691483080387115,-0.1681809872388839,2024/09/23 03:36:25 PM
560,1730433569.607531,0.0065785497426986,0.0090774893760681,0.0238314270973205,0.2569518919915542,0.0811479159643893,-0.3106420613587793,0.0783976465463638,-0.2541337013244629,-0.9639864563941956,-0.078637458384037,-0.0465861558914184,0.0356576405465602,2024/09/23 03:23:34 PM
563,1730433569.637817,-0.0093019977211952,0.0293051302433013,-0.0014662742614746,0.2560469980365633,0.0799536287573597,-0.3097521951953639,0.0772646516561508,-0.2532584071159363,-0.9643082022666932,0.0194848161190748,-0.0122375013306736,0.0219904575496912,2024/09/23 03:23:37 PM
17,1730433496.070685,0.0016429349780082,0.0044578909873962,0.0063486695289611,0.8169356274368794,0.162864985676407,-0.0813645011314377,0.1109821572899818,-0.7290518283843994,-0.6754008531570435,-0.0078187622129917,0.0032690197695046,0.0091870604082942,2024/09/23 03:14:31 PM
248,1730433566.495906,-0.080393448472023,0.1366928219795227,0.0609654784202575,0.2990272949995712,0.0260883022281715,-0.5234791067021863,0.0249277669936418,-0.2945908010005951,-0.9552983045578004,-0.018445773050189,0.3687319755554199,0.5747497081756592,2024/09/23 03:18:22 PM
1739,1730433581.377666,-0.0389431342482566,0.00480717420578,-0.0083246231079101,0.3083937129757899,-0.1085792130245236,0.1513399061051102,-0.103253535926342,-0.3035285174846649,-0.9472112655639648,-0.0237967558205127,0.0109165534377098,-0.0085400212556123,2024/09/23 03:43:13 PM
1412,1730433578.113916,-0.0064581409096717,0.1152489483356475,0.013687789440155,0.2545711487043415,0.0694340943326547,-0.3269659689125,0.0671423524618148,-0.2518303990364074,-0.9654394388198853,0.278628796339035,0.1734399497509002,0.4617347121238708,2024/09/23 03:37:46 PM
1695,1730433580.9385529,-0.0157060548663139,0.0062398612499237,-0.0015289187431335,0.3077194958728246,-0.1094556198140636,0.1500445771217834,-0.1041059717535972,-0.302886039018631,-0.9473236203193665,0.0346073545515537,0.0445594675838947,0.036726739257574,2024/09/23 03:42:29 PM
1924,1730433583.2246308,-0.0495578795671463,-0.041595309972763,-0.0157530307769775,0.3442373093313175,-0.1011947307812672,0.1107592773000366,-0.0950954556465148,-0.3374788165092468,-0.9365174174308776,0.0281459912657737,0.0470713600516319,-0.0411528795957565,2024/09/23 03:46:18 PM
281,1730433566.8224149,-0.0141963250935077,-0.0460335314273834,0.0284770727157592,0.3032909515386457,0.0297009910545163,-0.3228955131031907,0.0283412337303161,-0.2986625730991363,-0.9539378881454468,-0.0780976191163063,0.143961951136589,0.138207346200943,2024/09/23 03:18:55 PM
1452,1730433578.515322,-0.0244049876928329,-0.0201667547225952,-0.0087102055549621,0.4561852486787719,-0.0784803514112106,-0.0536437535342511,-0.070382609963417,-0.4405266642570495,-0.8949763178825378,0.4003430604934692,-0.2338500469923019,0.4399005472660064,2024/09/23 03:38:26 PM
1059,1730433574.643052,0.0094118118286132,0.0294083505868911,-0.0044525861740112,0.2378834119221134,0.0661364294948502,-0.3283254185632431,0.0642271116375923,-0.2356461733579635,-0.9697142839431764,-0.0787318274378776,-0.0509793050587177,0.1389965564012527,2024/09/23 03:31:53 PM
1610,1730433580.089966,-0.0006709694862365,-0.0123230218887329,-0.0037179589271545,0.3090400483402988,-0.1084760736149121,0.1484325977098695,-0.1031345799565315,-0.3041442930698395,-0.9470266699790956,-0.0703916102647781,0.0293581448495388,-0.0070121656171977,2024/09/23 03:41:04 PM
1800,1730433581.9864302,0.1225578859448432,-0.0074217617511749,0.040091335773468,0.3292924577990859,-0.0959784538965802,0.1141453549217259,-0.0906822904944419,-0.3233735859394073,-0.941916286945343,-0.2648039162158966,-0.3804671764373779,-0.6891871690750122,2024/09/23 03:44:14 PM
299,1730433567.002626,0.0060345269739627,0.0719035565853118,-0.0230264067649841,0.2990587938844241,0.0496557798219987,-0.3178897375103771,0.0474322699010372,-0.2946209013462066,-0.9544363617897034,-0.0095139825716614,0.1346281021833419,0.006994676310569,2024/09/23 03:19:13 PM
1506,1730433579.051722,0.0632338970899581,-0.0341112315654754,0.1046113967895507,0.3430619747423061,-0.0639982930479473,0.0610558476263108,-0.0602279230952262,-0.3363722264766693,-0.9398012161254884,-1.7397339344024658,-0.741641104221344,0.8183749318122864,2024/09/23 03:39:20 PM
1367,1730433577.6638942,0.0079674366861581,0.0299489572644233,0.0077032446861267,0.1242472962931199,0.0259882531933775,-0.320049298609586,0.0257850121706724,-0.1239278689026832,-0.9919561743736268,0.1217090561985969,-0.0103306779637932,-0.0046090362593531,2024/09/23 03:37:01 PM
1919,1730433583.174967,0.0728208720684051,0.0601341128349304,-0.0001900196075439,0.3412715094115005,-0.1010419722905369,0.1169056265814884,-0.0950529351830482,-0.3346855342388153,-0.937523603439331,0.0034331581555306,-0.1254325062036514,-0.2411255836486816,2024/09/23 03:46:13 PM
757,1730433571.574842,-0.0355106070637702,0.0169844925403594,-0.0026149749755859,0.2614065643861889,0.0923799982447601,-0.3232287751376321,0.0891147330403328,-0.2584396004676819,-0.9619082808494568,0.1970527023077011,0.3260108530521393,-0.1331611573696136,2024/09/23 03:26:51 PM
302,1730433567.031759,0.0068082772195339,0.0518721640110015,0.0005992650985717,0.2971946683159608,0.0532273829908001,-0.3173515668203682,0.0508699603378772,-0.2928390204906463,-0.9548075795173644,-0.0602011419832706,0.1127084270119667,0.0255140848457813,2024/09/23 03:19:16 PM
