Date,TimeStamp,GravityX,GravityY,GravityZ,UserAccelerationX,UserAccelerationY,UserAccelerationZ,RotationRateX,RotationRateY,RotationRateZ,AttitudeRoll,AttitudePitch,AttitudeYaw
2024-11-02 22:08:59.230,37696.413,0.01,-0.445,-0.895,0.018,-0.022,0.009,-0.001,0.004,-0.007,0.011,0.462,1.408
2024-11-02 22:08:59.251,37696.423,0.01,-0.445,-0.895,-0.003,-0.012,0.008,-0.026,0.014,-0.005,0.011,0.462,1.408
2024-11-02 22:08:59.255,37696.433,0.01,-0.445,-0.895,-0.006,-0.009,0.012,-0.061,0.011,0.0,0.011,0.461,1.408
2024-11-02 22:08:59.257,37696.443,0.01,-0.444,-0.896,-0.003,-0.018,0.014,-0.099,0.012,0.006,0.012,0.46,1.408
2024-11-02 22:08:59.258,37696.453,0.01,-0.443,-0.896,0.002,-0.021,0.016,-0.126,0.009,0.012,0.012,0.459,1.408
2024-11-02 22:08:59.259,37696.463,0.01,-0.442,-0.897,0.005,-0.021,0.017,-0.134,0.002,0.01,0.011,0.458,1.408
2024-11-02 22:08:59.260,37696.473,0.01,-0.441,-0.898,0.006,-0.02,0.016,-0.126,0.002,-0.001,0.011,0.457,1.408
2024-11-02 22:08:59.262,37696.483,0.01,-0.44,-0.898,0.01,-0.012,0.014,-0.099,-0.003,-0.005,0.011,0.455,1.408
2024-11-02 22:08:59.265,37696.493,0.01,-0.439,-0.898,0.01,-0.004,0.014,-0.062,0.0,-0.017,0.012,0.455,1.408
2024-11-02 22:08:59.276,37696.503,0.011,-0.439,-0.898,0.007,0.006,0.011,-0.021,0.009,-0.026,0.012,0.454,1.408
2024-11-02 22:08:59.287,37696.513,0.011,-0.439,-0.898,0.006,0.014,0.011,0.006,0.018,-0.032,0.012,0.454,1.408
2024-11-02 22:08:59.295,37696.523,0.011,-0.439,-0.898,0.003,0.013,0.01,0.02,0.026,-0.031,0.012,0.455,1.407
2024-11-02 22:08:59.305,37696.533,0.011,-0.439,-0.898,0.0,0.008,0.013,0.015,0.026,-0.03,0.013,0.455,1.407
2024-11-02 22:08:59.315,37696.543,0.012,-0.439,-0.898,0.001,0.001,0.017,-0.001,0.021,-0.026,0.013,0.455,1.407
2024-11-02 22:08:59.326,37696.553,0.012,-0.439,-0.898,0.005,-0.007,0.017,-0.022,0.012,-0.023,0.013,0.455,1.406
2024-11-02 22:08:59.340,37696.563,0.012,-0.439,-0.898,0.007,-0.012,0.018,-0.042,0.003,-0.02,0.014,0.455,1.406
2024-11-02 22:08:59.346,37696.573,0.012,-0.439,-0.899,0.009,-0.012,0.018,-0.052,-0.003,-0.015,0.014,0.454,1.406
2024-11-02 22:08:59.357,37696.583,0.012,-0.438,-0.899,0.009,-0.008,0.019,-0.051,0.0,-0.013,0.014,0.454,1.406
2024-11-02 22:08:59.365,37696.593,0.012,-0.438,-0.899,0.004,-0.004,0.016,-0.042,0.005,-0.012,0.014,0.453,1.405
2024-11-02 22:08:59.375,37696.603,0.013,-0.437,-0.899,0.001,0.002,0.012,-0.039,0.009,-0.012,0.014,0.453,1.405
2024-11-02 22:08:59.387,37696.613,0.013,-0.437,-0.899,-0.002,0.004,0.01,-0.027,0.014,-0.01,0.014,0.452,1.405
2024-11-02 22:08:59.395,37696.623,0.013,-0.437,-0.899,-0.003,0.004,0.008,-0.019,0.009,-0.016,0.014,0.452,1.405
2024-11-02 22:08:59.405,37696.633,0.013,-0.437,-0.899,-0.005,0.007,0.004,-0.017,0.014,-0.014,0.015,0.452,1.405
2024-11-02 22:08:59.415,37696.643,0.013,-0.437,-0.9,-0.006,0.007,0.003,-0.018,0.021,-0.015,0.015,0.452,1.405
2024-11-02 22:08:59.425,37696.653,0.014,-0.436,-0.9,-0.007,0.006,0.005,-0.028,0.024,-0.01,0.015,0.452,1.405
2024-11-02 22:08:59.437,37696.663,0.014,-0.436,-0.9,-0.008,0.004,0.007,-0.038,0.023,-0.005,0.015,0.451,1.405
2024-11-02 22:08:59.445,37696.673,0.014,-0.436,-0.9,-0.007,-0.001,0.012,-0.045,0.016,-0.005,0.016,0.451,1.405
2024-11-02 22:08:59.455,37696.683,0.014,-0.435,-0.9,-0.006,-0.005,0.015,-0.056,0.012,0.001,0.016,0.451,1.404
2024-11-02 22:08:59.465,37696.693,0.014,-0.435,-0.9,-0.005,-0.005,0.019,-0.053,0.001,0.005,0.016,0.45,1.405
2024-11-02 22:08:59.475,37696.703,0.014,-0.435,-0.901,-0.005,-0.004,0.02,-0.043,0.001,0.003,0.016,0.449,1.405
2024-11-02 22:08:59.489,37696.713,0.014,-0.434,-0.901,-0.003,0.001,0.017,-0.027,0.004,0.006,0.016,0.449,1.405
2024-11-02 22:08:59.495,37696.723,0.014,-0.434,-0.901,-0.005,0.007,0.011,-0.011,0.014,0.011,0.016,0.449,1.405
2024-11-02 22:08:59.506,37696.733,0.014,-0.434,-0.901,-0.009,0.006,0.01,-0.004,0.013,0.013,0.016,0.449,1.405
2024-11-02 22:08:59.515,37696.743,0.014,-0.434,-0.901,-0.008,0.004,0.01,-0.011,0.011,0.011,0.016,0.449,1.405
2024-11-02 22:08:59.525,37696.753,0.014,-0.434,-0.901,-0.005,-0.003,0.012,-0.031,0.006,0.006,0.016,0.449,1.405
2024-11-02 22:08:59.536,37696.763,0.014,-0.433,-0.901,-0.005,-0.013,0.017,-0.063,0.002,0.005,0.016,0.448,1.405
2024-11-02 22:08:59.545,37696.773,0.014,-0.433,-0.901,-0.006,-0.019,0.022,-0.088,-0.005,0.001,0.016,0.447,1.405
2024-11-02 22:08:59.556,37696.783,0.014,-0.432,-0.902,-0.007,-0.024,0.025,-0.109,-0.012,-0.006,0.016,0.447,1.405
2024-11-02 22:08:59.565,37696.793,0.014,-0.431,-0.902,-0.011,-0.028,0.026,-0.094,-0.018,-0.019,0.016,0.446,1.405
2024-11-02 22:08:59.576,37696.803,0.014,-0.43,-0.903,-0.014,-0.028,0.029,-0.066,-0.016,-0.039,0.016,0.445,1.405
2024-11-02 22:08:59.586,37696.813,0.014,-0.43,-0.903,-0.013,-0.019,0.032,-0.038,-0.006,-0.056,0.016,0.444,1.404
2024-11-02 22:08:59.596,37696.823,0.014,-0.429,-0.903,-0.014,-0.012,0.04,-0.026,-0.008,-0.075,0.016,0.444,1.404
2024-11-02 22:08:59.606,37696.833,0.015,-0.429,-0.903,-0.019,-0.012,0.045,-0.027,-0.016,-0.098,0.016,0.444,1.403
2024-11-02 22:08:59.615,37696.843,0.015,-0.429,-0.903,-0.022,-0.015,0.054,-0.061,-0.027,-0.12,0.016,0.443,1.402
2024-11-02 22:08:59.625,37696.853,0.015,-0.428,-0.904,-0.03,-0.028,0.06,-0.124,-0.035,-0.144,0.017,0.442,1.4
2024-11-02 22:08:59.635,37696.863,0.015,-0.427,-0.904,-0.046,-0.048,0.067,-0.207,-0.043,-0.164,0.017,0.441,1.398
2024-11-02 22:08:59.646,37696.873,0.016,-0.424,-0.905,-0.067,-0.068,0.084,-0.305,-0.046,-0.189,0.017,0.438,1.397
2024-11-02 22:08:59.655,37696.883,0.016,-0.421,-0.907,-0.084,-0.081,0.103,-0.403,-0.049,-0.219,0.018,0.435,1.394
2024-11-02 22:08:59.665,37696.893,0.017,-0.417,-0.909,-0.093,-0.089,0.127,-0.486,-0.069,-0.247,0.018,0.43,1.392
2024-11-02 22:08:59.675,37696.903,0.017,-0.413,-0.911,-0.102,-0.094,0.153,-0.459,-0.148,-0.312,0.018,0.425,1.389
2024-11-02 22:08:59.685,37696.913,0.017,-0.409,-0.912,-0.106,-0.09,0.165,-0.342,-0.198,-0.379,0.018,0.421,1.385
2024-11-02 22:08:59.695,37696.922,0.016,-0.406,-0.914,-0.091,-0.058,0.159,-0.207,-0.198,-0.423,0.018,0.418,1.381
2024-11-02 22:08:59.705,37696.932,0.016,-0.405,-0.914,-0.084,-0.016,0.139,-0.076,-0.209,-0.458,0.018,0.417,1.376
2024-11-02 22:08:59.715,37696.942,0.016,-0.405,-0.914,-0.088,-0.007,0.109,0.036,-0.225,-0.477,0.018,0.417,1.371
2024-11-02 22:08:59.725,37696.952,0.016,-0.405,-0.914,-0.083,-0.015,0.086,0.115,-0.253,-0.501,0.018,0.417,1.366
2024-11-02 22:08:59.734,37696.962,0.016,-0.407,-0.913,-0.064,-0.003,0.075,0.159,-0.264,-0.482,0.017,0.419,1.36
2024-11-02 22:08:59.745,37696.972,0.015,-0.408,-0.913,-0.055,0.001,0.067,0.169,-0.267,-0.437,0.017,0.42,1.355
2024-11-02 22:08:59.755,37696.982,0.014,-0.409,-0.912,-0.042,-0.008,0.078,0.13,-0.292,-0.382,0.016,0.422,1.351
2024-11-02 22:08:59.765,37696.992,0.013,-0.41,-0.912,0.004,-0.018,0.099,0.046,-0.37,-0.346,0.014,0.423,1.347
2024-11-02 22:08:59.776,37697.002,0.01,-0.41,-0.912,0.065,-0.023,0.111,-0.048,-0.471,-0.334,0.011,0.423,1.343
2024-11-02 22:08:59.785,37697.012,0.007,-0.409,-0.912,0.126,-0.021,0.115,-0.112,-0.573,-0.316,0.008,0.422,1.339
2024-11-02 22:08:59.795,37697.022,0.003,-0.408,-0.913,0.168,0.008,0.106,-0.123,-0.636,-0.312,0.003,0.42,1.336
2024-11-02 22:08:59.806,37697.032,-0.002,-0.407,-0.913,0.191,0.048,0.074,-0.098,-0.688,-0.318,-0.002,0.419,1.333
2024-11-02 22:08:59.815,37697.042,-0.007,-0.407,-0.914,0.19,0.067,0.036,-0.047,-0.724,-0.338,-0.008,0.419,1.329
2024-11-02 22:08:59.826,37697.052,-0.012,-0.406,-0.914,0.18,0.08,-0.006,0.022,-0.727,-0.342,-0.014,0.419,1.325
2024-11-02 22:08:59.835,37697.062,-0.018,-0.407,-0.913,0.159,0.104,-0.046,0.094,-0.697,-0.315,-0.019,0.419,1.322
2024-11-02 22:08:59.846,37697.072,-0.022,-0.408,-0.913,0.122,0.126,-0.085,0.139,-0.625,-0.285,-0.025,0.42,1.319
2024-11-02 22:08:59.856,37697.082,-0.027,-0.409,-0.912,0.086,0.143,-0.114,0.122,-0.559,-0.24,-0.029,0.422,1.316
2024-11-02 22:08:59.865,37697.092,-0.031,-0.41,-0.911,0.063,0.141,-0.133,0.051,-0.508,-0.196,-0.034,0.423,1.313
2024-11-02 22:08:59.876,37697.102,-0.034,-0.41,-0.911,0.052,0.111,-0.134,-0.062,-0.478,-0.149,-0.038,0.423,1.312
2024-11-02 22:08:59.885,37697.112,-0.038,-0.409,-0.912,0.051,0.079,-0.126,-0.197,-0.443,-0.108,-0.042,0.422,1.31
2024-11-02 22:08:59.895,37697.122,-0.042,-0.407,-0.913,0.045,0.046,-0.116,-0.321,-0.41,-0.073,-0.046,0.419,1.309
2024-11-02 22:08:59.907,37697.132,-0.045,-0.404,-0.914,0.028,0.021,-0.107,-0.417,-0.362,-0.038,-0.049,0.415,1.308
2024-11-02 22:08:59.915,37697.142,-0.048,-0.399,-0.916,0.008,0.009,-0.106,-0.486,-0.294,-0.002,-0.052,0.411,1.308
2024-11-02 22:08:59.925,37697.152,-0.05,-0.395,-0.917,-0.014,0.011,-0.111,-0.522,-0.219,0.035,-0.055,0.406,1.308
2024-11-02 22:08:59.935,37697.162,-0.052,-0.39,-0.919,-0.037,0.019,-0.119,-0.506,-0.136,0.056,-0.057,0.401,1.308
2024-11-02 22:08:59.945,37697.172,-0.053,-0.386,-0.921,-0.053,0.03,-0.13,-0.461,-0.053,0.066,-0.058,0.396,1.308
2024-11-02 22:08:59.958,37697.182,-0.053,-0.382,-0.923,-0.061,0.041,-0.134,-0.39,0.031,0.071,-0.058,0.391,1.309
2024-11-02 22:08:59.965,37697.192,-0.053,-0.378,-0.924,-0.064,0.041,-0.133,-0.321,0.099,0.067,-0.057,0.388,1.309
2024-11-02 22:08:59.975,37697.202,-0.052,-0.376,-0.925,-0.06,0.031,-0.123,-0.244,0.129,0.052,-0.056,0.385,1.31
2024-11-02 22:08:59.984,37697.212,-0.051,-0.374,-0.926,-0.044,0.019,-0.106,-0.181,0.154,0.026,-0.055,0.383,1.31
2024-11-02 22:08:59.994,37697.222,-0.05,-0.372,-0.927,-0.029,0.004,-0.09,-0.139,0.185,0.015,-0.054,0.381,1.31
2024-11-02 22:09:00.005,37697.232,-0.048,-0.371,-0.927,-0.02,-0.003,-0.074,-0.122,0.209,0.011,-0.052,0.38,1.31
2024-11-02 22:09:00.015,37697.242,-0.046,-0.37,-0.928,-0.015,-0.015,-0.059,-0.122,0.212,0.001,-0.049,0.379,1.31
2024-11-02 22:09:00.025,37697.252,-0.044,-0.369,-0.929,-0.009,-0.029,-0.045,-0.123,0.203,-0.008,-0.047,0.378,1.31
2024-11-02 22:09:00.035,37697.262,-0.042,-0.368,-0.929,0.001,-0.035,-0.037,-0.117,0.203,-0.007,-0.045,0.376,1.31
2024-11-02 22:09:00.045,37697.272,-0.04,-0.367,-0.93,0.003,-0.037,-0.031,-0.111,0.212,0.001,-0.043,0.375,1.31
2024-11-02 22:09:00.055,37697.282,-0.038,-0.366,-0.93,-0.002,-0.037,-0.025,-0.099,0.218,0.01,-0.041,0.374,1.31
2024-11-02 22:09:00.065,37697.292,-0.036,-0.365,-0.93,-0.003,-0.037,-0.015,-0.093,0.216,0.017,-0.039,0.373,1.31
2024-11-02 22:09:00.075,37697.302,-0.034,-0.364,-0.931,0.002,-0.038,-0.003,-0.093,0.209,0.022,-0.037,0.372,1.31
2024-11-02 22:09:00.085,37697.312,-0.033,-0.363,-0.931,0.007,-0.04,0.007,-0.09,0.204,0.024,-0.035,0.371,1.31
2024-11-02 22:09:00.095,37697.322,-0.031,-0.362,-0.932,0.01,-0.043,0.016,-0.087,0.193,0.032,-0.033,0.37,1.311
2024-11-02 22:09:00.105,37697.332,-0.029,-0.361,-0.932,0.01,-0.042,0.019,-0.083,0.184,0.036,-0.031,0.37,1.311
2024-11-02 22:09:00.115,37697.342,-0.028,-0.361,-0.932,0.01,-0.035,0.022,-0.065,0.174,0.032,-0.03,0.369,1.311
2024-11-02 22:09:00.125,37697.352,-0.026,-0.36,-0.933,0.012,-0.027,0.021,-0.041,0.164,0.029,-0.028,0.368,1.312
2024-11-02 22:09:00.135,37697.362,-0.025,-0.36,-0.933,0.015,-0.018,0.022,-0.01,0.159,0.026,-0.026,0.368,1.312
2024-11-02 22:09:00.145,37697.372,-0.023,-0.36,-0.933,0.019,-0.01,0.022,0.018,0.141,0.025,-0.025,0.368,1.312
2024-11-02 22:09:00.155,37697.382,-0.022,-0.36,-0.933,0.02,-0.002,0.023,0.042,0.128,0.014,-0.024,0.368,1.312
2024-11-02 22:09:00.165,37697.392,-0.021,-0.361,-0.932,0.02,-0.0,0.023,0.048,0.122,0.021,-0.023,0.369,1.313
2024-11-02 22:09:00.175,37697.402,-0.02,-0.361,-0.932,0.017,0.003,0.02,0.042,0.119,0.025,-0.022,0.37,1.313
2024-11-02 22:09:00.185,37697.412,-0.019,-0.362,-0.932,0.009,0.003,0.019,0.016,0.116,0.036,-0.021,0.37,1.313
2024-11-02 22:09:00.195,37697.422,-0.018,-0.362,-0.932,0.003,-0.003,0.018,-0.006,0.107,0.035,-0.02,0.37,1.313
2024-11-02 22:09:00.205,37697.432,-0.017,-0.362,-0.932,0.004,-0.005,0.016,-0.038,0.106,0.04,-0.019,0.37,1.314
2024-11-02 22:09:00.215,37697.442,-0.017,-0.361,-0.932,0.004,-0.003,0.013,-0.04,0.103,0.037,-0.018,0.37,1.314
2024-11-02 22:09:00.225,37697.452,-0.016,-0.361,-0.932,0.001,0.003,0.012,-0.03,0.104,0.037,-0.017,0.369,1.315
2024-11-02 22:09:00.235,37697.462,-0.015,-0.361,-0.933,0.001,0.012,0.011,-0.007,0.116,0.032,-0.016,0.369,1.315
2024-11-02 22:09:00.245,37697.472,-0.014,-0.361,-0.933,0.001,0.022,0.009,0.012,0.119,0.033,-0.015,0.369,1.315
2024-11-02 22:09:00.255,37697.482,-0.013,-0.362,-0.932,-0.001,0.026,0.006,0.245,0.15,0.051,-0.014,0.37,1.316
2024-11-02 22:09:00.265,37697.492,-0.011,-0.363,-0.932,-0.005,0.022,0.005,0.103,0.166,0.029,-0.012,0.372,1.316
2024-11-02 22:09:00.279,37697.502,-0.01,-0.364,-0.931,-0.019,0.015,0.013,0.105,0.123,0.018,-0.011,0.373,1.317
2024-11-02 22:09:00.285,37697.511,-0.009,-0.365,-0.931,-0.017,0.026,0.031,-0.046,0.044,-0.014,-0.01,0.373,1.317
2024-11-02 22:09:00.295,37697.521,-0.009,-0.364,-0.931,0.004,-0.008,0.028,-0.135,0.028,0.003,-0.01,0.372,1.316
2024-11-02 22:09:00.304,37697.531,-0.008,-0.363,-0.932,0.002,-0.012,0.027,-0.128,0.108,0.061,-0.009,0.371,1.317
2024-11-02 22:09:00.314,37697.541,-0.007,-0.362,-0.932,-0.029,-0.006,0.006,-0.061,0.174,0.079,-0.008,0.37,1.318
2024-11-02 22:09:00.324,37697.551,-0.006,-0.361,-0.932,-0.066,0.007,-0.011,-0.042,0.165,0.063,-0.006,0.37,1.318
2024-11-02 22:09:00.334,37697.561,-0.005,-0.361,-0.933,-0.056,0.006,-0.002,-0.063,0.116,0.032,-0.005,0.369,1.319
2024-11-02 22:09:00.348,37697.571,-0.004,-0.36,-0.933,-0.014,-0.014,0.015,-0.069,0.083,0.019,-0.004,0.368,1.319
2024-11-02 22:09:00.375,37697.581,-0.003,-0.359,-0.933,0.002,-0.025,0.026,-0.056,0.091,0.013,-0.004,0.368,1.319
2024-11-02 22:09:00.377,37697.591,-0.003,-0.359,-0.933,-0.008,-0.017,0.027,-0.027,0.096,0.009,-0.003,0.367,1.319
2024-11-02 22:09:00.379,37697.601,-0.002,-0.359,-0.933,-0.02,-0.009,0.023,-0.001,0.096,-0.002,-0.002,0.367,1.319
2024-11-02 22:09:00.384,37697.611,-0.001,-0.359,-0.933,-0.019,-0.007,0.018,0.013,0.088,-0.008,-0.001,0.367,1.319
2024-11-02 22:09:00.394,37697.621,0.0,-0.359,-0.933,-0.017,-0.013,0.013,0.018,0.084,-0.009,0.0,0.367,1.319
2024-11-02 22:09:00.405,37697.631,0.001,-0.359,-0.933,-0.018,-0.022,0.01,0.021,0.071,-0.01,0.001,0.368,1.319
2024-11-02 22:09:00.414,37697.641,0.001,-0.36,-0.933,-0.016,-0.026,0.009,0.022,0.054,-0.014,0.001,0.368,1.319
2024-11-02 22:09:00.424,37697.651,0.002,-0.36,-0.933,-0.008,-0.027,0.01,0.028,0.043,-0.021,0.002,0.368,1.319
2024-11-02 22:09:00.434,37697.661,0.002,-0.36,-0.933,-0.002,-0.026,0.012,0.034,0.035,-0.021,0.002,0.368,1.319
2024-11-02 22:09:00.445,37697.671,0.002,-0.361,-0.933,-0.0,-0.021,0.015,0.039,0.021,-0.025,0.003,0.369,1.319
2024-11-02 22:09:00.454,37697.681,0.003,-0.361,-0.933,-0.0,-0.018,0.018,0.053,0.009,-0.027,0.003,0.369,1.318
2024-11-02 22:09:00.464,37697.691,0.003,-0.362,-0.932,0.0,-0.013,0.018,0.071,0.002,-0.024,0.003,0.37,1.318
2024-11-02 22:09:00.474,37697.701,0.003,-0.362,-0.932,0.0,-0.008,0.016,0.088,0.002,-0.024,0.003,0.371,1.318
2024-11-02 22:09:00.484,37697.711,0.003,-0.363,-0.932,-0.004,-0.006,0.014,0.099,-0.001,-0.023,0.003,0.372,1.318
2024-11-02 22:09:00.495,37697.721,0.003,-0.364,-0.931,-0.003,-0.003,0.01,0.101,-0.005,-0.023,0.003,0.373,1.317
2024-11-02 22:09:00.505,37697.731,0.003,-0.365,-0.931,-0.0,-0.002,0.009,0.086,-0.009,-0.027,0.003,0.374,1.317
2024-11-02 22:09:00.514,37697.741,0.003,-0.366,-0.931,0.0,-0.007,0.01,0.07,-0.013,-0.026,0.003,0.375,1.317
2024-11-02 22:09:00.524,37697.751,0.003,-0.367,-0.93,0.0,-0.011,0.013,0.059,-0.024,-0.031,0.003,0.375,1.317
2024-11-02 22:09:00.533,37697.761,0.002,-0.367,-0.93,-0.001,-0.013,0.02,0.065,-0.028,-0.037,0.003,0.376,1.316
2024-11-02 22:09:00.545,37697.771,0.002,-0.368,-0.93,-0.001,-0.008,0.02,0.081,-0.021,-0.035,0.003,0.377,1.316
2024-11-02 22:09:00.555,37697.781,0.002,-0.369,-0.93,-0.001,-0.0,0.021,0.087,-0.009,-0.034,0.003,0.378,1.315
2024-11-02 22:09:00.564,37697.791,0.002,-0.369,-0.929,-0.005,0.004,0.019,0.085,-0.007,-0.03,0.003,0.378,1.315
2024-11-02 22:09:00.574,37697.801,0.002,-0.37,-0.929,-0.002,0.008,0.016,0.08,-0.003,-0.027,0.003,0.379,1.315
2024-11-02 22:09:00.584,37697.811,0.003,-0.371,-0.929,0.004,0.008,0.018,0.053,-0.008,-0.029,0.003,0.38,1.314
2024-11-02 22:09:00.595,37697.821,0.003,-0.371,-0.929,0.009,0.002,0.021,0.015,-0.017,-0.025,0.003,0.38,1.314
2024-11-02 22:09:00.604,37697.831,0.002,-0.371,-0.929,0.011,0.0,0.026,-0.028,-0.034,-0.03,0.003,0.38,1.314
2024-11-02 22:09:00.614,37697.841,0.002,-0.371,-0.929,0.01,-0.006,0.03,-0.066,-0.039,-0.04,0.002,0.38,1.314
2024-11-02 22:09:00.624,37697.851,0.002,-0.37,-0.929,0.005,-0.011,0.03,-0.1,-0.031,-0.042,0.002,0.379,1.313
2024-11-02 22:09:00.634,37697.861,0.002,-0.369,-0.929,-0.01,-0.008,0.035,-0.102,-0.037,-0.044,0.002,0.378,1.313
2024-11-02 22:09:00.645,37697.871,0.002,-0.368,-0.93,-0.024,-0.005,0.038,-0.083,-0.036,-0.064,0.002,0.377,1.312
2024-11-02 22:09:00.654,37697.881,0.002,-0.367,-0.93,-0.027,-0.0,0.04,-0.063,-0.026,-0.076,0.002,0.376,1.311
2024-11-02 22:09:00.664,37697.891,0.002,-0.367,-0.93,-0.029,0.009,0.047,-0.053,-0.022,-0.085,0.002,0.376,1.31
2024-11-02 22:09:00.674,37697.901,0.002,-0.366,-0.93,-0.041,0.006,0.052,-0.069,-0.024,-0.103,0.002,0.375,1.309
2024-11-02 22:09:00.684,37697.911,0.002,-0.366,-0.931,-0.048,-0.002,0.055,-0.113,-0.036,-0.118,0.002,0.374,1.308
2024-11-02 22:09:00.695,37697.921,0.002,-0.364,-0.931,-0.055,-0.012,0.059,-0.173,-0.054,-0.139,0.002,0.373,1.307
2024-11-02 22:09:00.705,37697.931,0.002,-0.362,-0.932,-0.065,-0.023,0.068,-0.252,-0.058,-0.165,0.002,0.371,1.305
2024-11-02 22:09:00.714,37697.941,0.002,-0.36,-0.933,-0.079,-0.035,0.077,-0.351,-0.046,-0.19,0.002,0.368,1.303
2024-11-02 22:09:00.724,37697.951,0.003,-0.356,-0.935,-0.104,-0.062,0.084,-0.448,-0.03,-0.214,0.003,0.364,1.301
2024-11-02 22:09:00.733,37697.961,0.003,-0.351,-0.936,-0.131,-0.081,0.093,-0.516,-0.02,-0.228,0.003,0.359,1.299
2024-11-02 22:09:00.745,37697.971,0.004,-0.346,-0.938,-0.143,-0.087,0.105,-0.569,-0.015,-0.27,0.004,0.354,1.296
2024-11-02 22:09:00.755,37697.981,0.005,-0.341,-0.94,-0.138,-0.08,0.118,-0.641,0.022,-0.297,0.005,0.348,1.293
2024-11-02 22:09:00.763,37697.991,0.006,-0.334,-0.943,-0.137,-0.075,0.137,-0.806,0.094,-0.302,0.007,0.34,1.29
2024-11-02 22:09:00.773,37698.001,0.008,-0.325,-0.946,-0.143,-0.086,0.168,-1.001,0.088,-0.325,0.009,0.331,1.287
2024-11-02 22:09:00.783,37698.011,0.01,-0.315,-0.949,-0.148,-0.086,0.208,-1.24,0.123,-0.314,0.011,0.32,1.284
2024-11-02 22:09:00.793,37698.021,0.012,-0.302,-0.953,-0.141,-0.071,0.249,-1.545,0.066,-0.286,0.013,0.306,1.281
2024-11-02 22:09:00.803,37698.031,0.013,-0.285,-0.958,-0.126,-0.076,0.28,-1.84,-0.013,-0.27,0.014,0.289,1.278
2024-11-02 22:09:00.813,37698.041,0.014,-0.266,-0.964,-0.104,-0.102,0.274,-2.07,-0.094,-0.282,0.014,0.27,1.275
2024-11-02 22:09:00.823,37698.051,0.014,-0.245,-0.969,-0.075,-0.118,0.227,-2.271,-0.034,-0.319,0.014,0.248,1.273
2024-11-02 22:09:00.833,37698.061,0.015,-0.222,-0.975,-0.071,-0.127,0.181,-2.497,0.087,-0.327,0.015,0.224,1.27
2024-11-02 22:09:00.843,37698.071,0.017,-0.196,-0.98,-0.104,-0.099,0.154,-2.9,0.254,-0.302,0.017,0.197,1.267
2024-11-02 22:09:00.853,37698.081,0.02,-0.165,-0.986,-0.128,-0.048,0.147,-3.492,0.301,-0.294,0.021,0.165,1.264
2024-11-02 22:09:00.863,37698.091,0.023,-0.128,-0.992,-0.132,-0.032,0.179,-3.979,0.248,-0.307,0.024,0.128,1.262
2024-11-02 22:09:00.873,37698.1,0.026,-0.086,-0.996,-0.119,-0.03,0.185,-4.325,0.111,-0.371,0.026,0.086,1.26
2024-11-02 22:09:00.883,37698.11,0.027,-0.042,-0.999,-0.077,-0.044,0.167,-4.519,0.049,-0.42,0.027,0.042,1.257
2024-11-02 22:09:00.894,37698.12,0.028,0.004,-1.0,-0.057,-0.062,0.144,-4.696,0.158,-0.43,0.028,-0.004,1.254
2024-11-02 22:09:00.903,37698.13,0.029,0.052,-0.998,-0.075,-0.066,0.097,-4.804,0.203,-0.374,0.029,-0.052,1.251
2024-11-02 22:09:00.914,37698.14,0.031,0.099,-0.995,-0.118,-0.013,0.075,-4.8,0.236,-0.34,0.031,-0.1,1.249
2024-11-02 22:09:00.924,37698.15,0.033,0.146,-0.989,-0.104,0.069,0.06,-4.645,0.266,-0.399,0.034,-0.147,1.247
2024-11-02 22:09:00.934,37698.16,0.036,0.192,-0.981,-0.058,0.148,0.019,-4.501,0.424,-0.446,0.037,-0.193,1.245
2024-11-02 22:09:00.943,37698.17,0.04,0.235,-0.971,-0.068,0.182,-0.041,-4.331,0.566,-0.477,0.041,-0.237,1.242
2024-11-02 22:09:00.953,37698.18,0.045,0.276,-0.96,-0.102,0.196,-0.102,-4.066,0.67,-0.514,0.046,-0.279,1.238
2024-11-02 22:09:00.962,37698.19,0.05,0.313,-0.949,-0.104,0.16,-0.155,-3.701,0.743,-0.541,0.052,-0.318,1.235
2024-11-02 22:09:00.973,37698.2,0.056,0.346,-0.936,-0.064,0.085,-0.189,-3.355,0.923,-0.55,0.059,-0.354,1.231
2024-11-02 22:09:00.983,37698.21,0.063,0.377,-0.924,-0.038,0.017,-0.18,-3.12,1.165,-0.504,0.069,-0.386,1.228
2024-11-02 22:09:00.993,37698.22,0.073,0.405,-0.912,-0.036,-0.003,-0.124,-2.971,1.315,-0.467,0.08,-0.417,1.225
2024-11-02 22:09:01.003,37698.23,0.083,0.432,-0.898,-0.034,-0.007,-0.045,-2.926,1.376,-0.448,0.092,-0.446,1.223
2024-11-02 22:09:01.013,37698.24,0.094,0.458,-0.884,0.015,-0.002,0.025,-3.004,1.425,-0.425,0.106,-0.476,1.221
2024-11-02 22:09:01.022,37698.25,0.105,0.485,-0.868,0.053,-0.001,0.09,-3.06,1.49,-0.316,0.12,-0.507,1.221
2024-11-02 22:09:01.033,37698.26,0.116,0.512,-0.851,0.047,0.01,0.142,-3.031,1.438,-0.219,0.136,-0.537,1.222
2024-11-02 22:09:01.043,37698.27,0.127,0.537,-0.834,0.058,0.045,0.144,-2.892,1.338,-0.114,0.151,-0.567,1.225
2024-11-02 22:09:01.053,37698.28,0.137,0.56,-0.817,0.098,0.112,0.087,-2.723,1.248,-0.026,0.166,-0.595,1.23
2024-11-02 22:09:01.064,37698.29,0.147,0.581,-0.8,0.111,0.16,0.027,-2.494,1.161,0.031,0.182,-0.62,1.235
2024-11-02 22:09:01.074,37698.3,0.156,0.6,-0.785,0.102,0.186,-0.033,-2.309,1.118,0.051,0.197,-0.644,1.241
2024-11-02 22:09:01.084,37698.31,0.165,0.618,-0.769,0.116,0.21,-0.074,-2.233,1.184,0.062,0.212,-0.666,1.248
2024-11-02 22:09:01.093,37698.32,0.174,0.634,-0.754,0.123,0.212,-0.068,-2.046,1.064,0.076,0.227,-0.686,1.255
2024-11-02 22:09:01.103,37698.33,0.182,0.648,-0.739,0.122,0.173,-0.062,-1.924,0.902,0.12,0.242,-0.706,1.262
2024-11-02 22:09:01.113,37698.34,0.189,0.662,-0.725,0.167,0.158,-0.056,-1.842,0.768,0.174,0.255,-0.723,1.27
2024-11-02 22:09:01.123,37698.35,0.196,0.674,-0.712,0.203,0.128,-0.032,-1.73,0.585,0.226,0.268,-0.74,1.279
2024-11-02 22:09:01.135,37698.36,0.201,0.686,-0.7,0.194,0.061,0.002,-1.581,0.406,0.264,0.279,-0.755,1.288
2024-11-02 22:09:01.143,37698.37,0.205,0.696,-0.688,0.212,0.051,0.038,-1.527,0.331,0.342,0.29,-0.769,1.298
2024-11-02 22:09:01.153,37698.38,0.21,0.705,-0.678,0.208,0.066,0.08,-1.284,0.226,0.426,0.3,-0.782,1.309
2024-11-02 22:09:01.163,37698.39,0.214,0.711,-0.669,0.172,0.057,0.097,-1.039,0.248,0.434,0.31,-0.792,1.32
2024-11-02 22:09:01.173,37698.4,0.219,0.717,-0.662,0.132,0.113,0.007,-0.825,0.302,0.395,0.32,-0.799,1.329
2024-11-02 22:09:01.182,37698.41,0.224,0.72,-0.656,0.084,0.189,-0.045,-0.526,0.19,0.385,0.329,-0.804,1.338
2024-11-02 22:09:01.193,37698.42,0.227,0.722,-0.654,0.062,0.115,-0.072,-0.124,0.149,0.324,0.335,-0.806,1.344
2024-11-02 22:09:01.202,37698.43,0.231,0.721,-0.653,0.12,0.091,-0.109,0.081,0.258,0.193,0.339,-0.806,1.348
2024-11-02 22:09:01.212,37698.44,0.234,0.72,-0.654,0.126,0.091,-0.126,0.184,0.202,0.198,0.343,-0.803,1.35
2024-11-02 22:09:01.222,37698.45,0.236,0.718,-0.654,0.069,-0.044,-0.136,0.068,0.114,0.17,0.346,-0.802,1.352
2024-11-02 22:09:01.232,37698.46,0.238,0.718,-0.654,0.124,-0.104,-0.1,-0.144,0.087,0.165,0.349,-0.801,1.354
2024-11-02 22:09:01.243,37698.47,0.239,0.72,-0.652,0.133,-0.115,-0.067,-0.376,0.079,0.154,0.352,-0.803,1.357
2024-11-02 22:09:01.253,37698.48,0.241,0.722,-0.648,0.087,-0.152,-0.06,-0.572,0.05,0.12,0.356,-0.807,1.362
2024-11-02 22:09:01.263,37698.49,0.242,0.726,-0.644,0.057,-0.138,-0.04,-0.677,-0.005,0.106,0.359,-0.813,1.366
2024-11-02 22:09:01.273,37698.5,0.242,0.73,-0.639,0.041,-0.127,-0.02,-0.704,-0.073,0.1,0.362,-0.819,1.371
2024-11-02 22:09:01.283,37698.51,0.242,0.735,-0.634,0.033,-0.114,-0.002,-0.699,-0.114,0.107,0.365,-0.825,1.376
2024-11-02 22:09:01.293,37698.52,0.242,0.739,-0.629,0.035,-0.072,0.02,-0.7,-0.158,0.12,0.368,-0.831,1.382
2024-11-02 22:09:01.303,37698.53,0.242,0.743,-0.624,0.032,-0.041,0.032,-0.718,-0.237,0.142,0.37,-0.837,1.387
2024-11-02 22:09:01.313,37698.54,0.241,0.747,-0.62,0.039,-0.028,0.041,-0.653,-0.332,0.176,0.372,-0.843,1.393
2024-11-02 22:09:01.323,37698.55,0.241,0.75,-0.616,0.052,-0.015,0.034,-0.504,-0.408,0.204,0.372,-0.848,1.399
2024-11-02 22:09:01.333,37698.56,0.24,0.752,-0.614,0.054,0.015,0.012,-0.363,-0.442,0.222,0.372,-0.851,1.404
2024-11-02 22:09:01.343,37698.57,0.239,0.753,-0.613,0.049,0.046,-0.004,-0.225,-0.458,0.223,0.371,-0.853,1.409
2024-11-02 22:09:01.353,37698.58,0.237,0.754,-0.613,0.041,0.03,-0.013,-0.071,-0.453,0.233,0.37,-0.854,1.413
2024-11-02 22:09:01.363,37698.59,0.237,0.753,-0.614,0.042,0.018,-0.036,0.042,-0.412,0.246,0.368,-0.853,1.417
2024-11-02 22:09:01.373,37698.6,0.236,0.752,-0.615,0.027,0.017,-0.07,0.043,-0.323,0.268,0.367,-0.851,1.42
2024-11-02 22:09:01.383,37698.61,0.236,0.751,-0.616,0.011,0.016,-0.096,0.034,-0.245,0.265,0.367,-0.85,1.424
2024-11-02 22:09:01.393,37698.62,0.237,0.751,-0.617,0.001,-0.006,-0.096,0.007,-0.136,0.25,0.367,-0.849,1.427
2024-11-02 22:09:01.403,37698.63,0.239,0.75,-0.617,-0.001,-0.012,-0.103,-0.117,0.012,0.255,0.369,-0.848,1.431
2024-11-02 22:09:01.413,37698.64,0.241,0.751,-0.615,-0.021,-0.027,-0.113,-0.313,0.109,0.307,0.374,-0.85,1.436
2024-11-02 22:09:01.423,37698.65,0.244,0.753,-0.612,-0.036,-0.101,-0.113,-0.42,0.139,0.317,0.38,-0.852,1.443
2024-11-02 22:09:01.433,37698.66,0.248,0.755,-0.608,-0.016,-0.099,-0.143,-0.498,0.243,0.314,0.387,-0.855,1.45
2024-11-02 22:09:01.443,37698.67,0.252,0.757,-0.603,-0.037,-0.012,-0.199,-0.717,0.152,0.343,0.396,-0.859,1.458
2024-11-02 22:09:01.453,37698.68,0.255,0.761,-0.596,-0.044,-0.137,-0.182,-0.871,0.035,0.353,0.404,-0.865,1.468
2024-11-02 22:09:01.463,37698.689,0.258,0.766,-0.589,0.045,-0.169,-0.131,-0.973,0.026,0.336,0.412,-0.872,1.478
2024-11-02 22:09:01.473,37698.699,0.26,0.771,-0.581,0.056,-0.077,-0.09,-1.042,0.054,0.318,0.421,-0.88,1.489
2024-11-02 22:09:01.482,37698.709,0.262,0.775,-0.575,0.006,-0.028,-0.041,-0.762,-0.098,0.327,0.429,-0.887,1.5
2024-11-02 22:09:01.493,37698.719,0.265,0.779,-0.569,-0.009,-0.033,-0.01,-0.707,-0.05,0.382,0.436,-0.893,1.51
2024-11-02 22:09:01.503,37698.729,0.268,0.781,-0.564,0.037,0.003,0.009,-0.556,0.063,0.377,0.443,-0.897,1.52
2024-11-02 22:09:01.513,37698.739,0.271,0.783,-0.56,-0.007,0.05,-0.001,-0.505,0.099,0.4,0.452,-0.9,1.529
2024-11-02 22:09:01.522,37698.749,0.275,0.785,-0.556,-0.093,-0.017,-0.025,-0.44,0.012,0.469,0.46,-0.902,1.539
2024-11-02 22:09:01.532,37698.759,0.279,0.785,-0.553,-0.046,0.06,-0.048,-0.346,-0.116,0.487,0.467,-0.903,1.548
2024-11-02 22:09:01.542,37698.769,0.282,0.786,-0.551,0.019,0.045,-0.068,-0.226,-0.205,0.488,0.472,-0.904,1.557
2024-11-02 22:09:01.553,37698.779,0.284,0.785,-0.55,0.019,0.01,-0.104,-0.167,-0.234,0.518,0.477,-0.903,1.566
2024-11-02 22:09:01.562,37698.789,0.287,0.784,-0.55,-0.007,0.063,-0.133,-0.072,-0.358,0.544,0.481,-0.902,1.574
2024-11-02 22:09:01.573,37698.799,0.289,0.783,-0.551,-0.017,0.085,-0.136,-0.025,-0.476,0.565,0.483,-0.9,1.583
2024-11-02 22:09:01.582,37698.809,0.29,0.781,-0.552,-0.005,0.048,-0.158,0.057,-0.571,0.557,0.484,-0.897,1.591
2024-11-02 22:09:01.593,37698.819,0.291,0.779,-0.555,0.01,0.05,-0.179,0.117,-0.565,0.535,0.484,-0.894,1.598
2024-11-02 22:09:01.603,37698.829,0.292,0.777,-0.558,0.015,0.056,-0.165,0.278,-0.559,0.472,0.483,-0.89,1.604
2024-11-02 22:09:01.612,37698.839,0.293,0.774,-0.562,0.01,0.049,-0.158,0.435,-0.431,0.406,0.48,-0.884,1.607
2024-11-02 22:09:01.623,37698.849,0.294,0.769,-0.567,0.011,0.039,-0.175,0.63,-0.243,0.363,0.478,-0.878,1.609
2024-11-02 22:09:01.632,37698.859,0.296,0.764,-0.573,-0.013,0.039,-0.177,0.83,-0.086,0.3,0.476,-0.87,1.608
2024-11-02 22:09:01.643,37698.869,0.297,0.758,-0.58,-0.04,0.005,-0.178,0.934,0.083,0.213,0.474,-0.861,1.605
2024-11-02 22:09:01.652,37698.879,0.3,0.752,-0.586,-0.034,-0.026,-0.193,0.883,0.289,0.159,0.473,-0.852,1.601
2024-11-02 22:09:01.662,37698.889,0.303,0.747,-0.592,-0.034,-0.047,-0.206,0.818,0.422,0.105,0.473,-0.844,1.597
2024-11-02 22:09:01.673,37698.899,0.306,0.742,-0.597,-0.056,-0.077,-0.235,0.915,0.571,0.032,0.474,-0.836,1.592
2024-11-02 22:09:01.682,37698.909,0.31,0.736,-0.602,-0.037,-0.08,-0.273,1.047,0.799,-0.087,0.476,-0.827,1.585
2024-11-02 22:09:01.692,37698.919,0.315,0.73,-0.607,-0.018,-0.086,-0.311,1.227,0.97,-0.205,0.478,-0.818,1.576
2024-11-02 22:09:01.702,37698.929,0.319,0.722,-0.614,-0.043,-0.114,-0.311,1.577,1.048,-0.377,0.479,-0.807,1.563
2024-11-02 22:09:01.712,37698.939,0.321,0.713,-0.623,-0.044,-0.127,-0.283,1.98,1.027,-0.636,0.476,-0.793,1.545
2024-11-02 22:09:01.722,37698.949,0.323,0.702,-0.635,0.008,-0.116,-0.268,2.373,1.058,-0.93,0.47,-0.778,1.521
2024-11-02 22:09:01.732,37698.959,0.322,0.688,-0.65,0.047,-0.141,-0.236,2.779,1.145,-1.23,0.46,-0.759,1.492
2024-11-02 22:09:01.742,37698.969,0.32,0.673,-0.666,0.039,-0.216,-0.205,3.207,1.206,-1.516,0.448,-0.739,1.457
2024-11-02 22:09:01.752,37698.979,0.318,0.656,-0.685,0.005,-0.274,-0.165,3.572,1.138,-1.786,0.434,-0.715,1.417
2024-11-02 22:09:01.762,37698.989,0.313,0.636,-0.706,-0.002,-0.291,-0.122,3.897,1.116,-2.034,0.418,-0.689,1.374
2024-11-02 22:09:01.773,37698.999,0.307,0.614,-0.727,0.022,-0.286,-0.055,4.134,1.049,-2.258,0.4,-0.661,1.329
2024-11-02 22:09:01.782,37699.009,0.301,0.59,-0.75,0.033,-0.288,0.012,4.317,0.948,-2.448,0.381,-0.63,1.281
2024-11-02 22:09:01.792,37699.019,0.293,0.564,-0.772,0.015,-0.269,0.051,4.445,0.853,-2.612,0.363,-0.599,1.233
2024-11-02 22:09:01.802,37699.029,0.284,0.536,-0.795,0.038,-0.222,0.093,4.588,0.679,-2.77,0.343,-0.566,1.184
2024-11-02 22:09:01.812,37699.039,0.274,0.507,-0.817,0.068,-0.21,0.135,4.674,0.435,-2.944,0.323,-0.531,1.135
2024-11-02 22:09:01.823,37699.049,0.262,0.476,-0.84,0.09,-0.208,0.156,4.685,0.199,-3.071,0.302,-0.496,1.086
2024-11-02 22:09:01.832,37699.059,0.248,0.444,-0.861,0.11,-0.142,0.206,4.648,-0.039,-3.153,0.281,-0.461,1.037
2024-11-02 22:09:01.842,37699.069,0.233,0.412,-0.881,0.099,-0.11,0.245,4.558,-0.306,-3.201,0.259,-0.425,0.99
2024-11-02 22:09:01.852,37699.079,0.217,0.38,-0.899,0.068,-0.095,0.247,4.287,-0.482,-3.166,0.237,-0.39,0.944
2024-11-02 22:09:01.862,37699.089,0.201,0.35,-0.915,0.03,-0.043,0.262,3.757,-0.545,-2.983,0.216,-0.357,0.902
2024-11-02 22:09:01.873,37699.099,0.186,0.324,-0.928,-0.009,-0.027,0.308,3.09,-0.714,-2.801,0.197,-0.33,0.865
2024-11-02 22:09:01.882,37699.109,0.169,0.303,-0.938,-0.038,-0.093,0.284,2.459,-0.9,-2.701,0.179,-0.308,0.831
2024-11-02 22:09:01.892,37699.119,0.152,0.286,-0.946,-0.042,-0.128,0.207,2.015,-1.046,-2.588,0.16,-0.29,0.8
2024-11-02 22:09:01.902,37699.129,0.135,0.272,-0.953,-0.037,-0.105,0.198,1.764,-1.175,-2.523,0.141,-0.275,0.771
2024-11-02 22:09:01.912,37699.139,0.117,0.259,-0.959,-0.05,-0.115,0.21,1.62,-1.192,-2.479,0.121,-0.262,0.743
2024-11-02 22:09:01.922,37699.149,0.1,0.247,-0.964,-0.061,-0.09,0.188,1.451,-1.054,-2.382,0.103,-0.249,0.716
2024-11-02 22:09:01.932,37699.159,0.085,0.237,-0.968,-0.095,-0.006,0.183,1.045,-0.953,-2.168,0.087,-0.239,0.691
2024-11-02 22:09:01.942,37699.169,0.07,0.23,-0.971,-0.135,0.063,0.182,0.694,-1.109,-1.992,0.072,-0.232,0.669
2024-11-02 22:09:01.952,37699.179,0.054,0.226,-0.973,-0.122,0.123,0.123,0.432,-1.349,-1.925,0.055,-0.228,0.649
2024-11-02 22:09:01.962,37699.189,0.036,0.224,-0.974,-0.061,0.236,0.003,0.208,-1.324,-1.768,0.037,-0.225,0.63
2024-11-02 22:09:01.972,37699.199,0.02,0.223,-0.975,-0.075,0.454,-0.095,0.064,-1.177,-1.522,0.021,-0.225,0.613
2024-11-02 22:09:01.982,37699.209,0.007,0.222,-0.975,-0.218,0.548,-0.134,0.039,-1.023,-1.281,0.007,-0.224,0.599
2024-11-02 22:09:01.992,37699.219,-0.005,0.222,-0.975,-0.324,0.521,-0.126,0.137,-0.902,-1.057,-0.005,-0.224,0.587
2024-11-02 22:09:02.002,37699.229,-0.016,0.219,-0.976,-0.302,0.526,-0.08,0.361,-0.845,-0.867,-0.016,-0.221,0.577
2024-11-02 22:09:02.012,37699.239,-0.025,0.215,-0.976,-0.218,0.534,0.004,0.55,-0.752,-0.67,-0.026,-0.216,0.569
2024-11-02 22:09:02.022,37699.249,-0.033,0.209,-0.977,-0.119,0.51,0.099,0.484,-0.601,-0.45,-0.034,-0.211,0.564
2024-11-02 22:09:02.032,37699.259,-0.04,0.206,-0.978,-0.05,0.465,0.167,0.216,-0.584,-0.209,-0.04,-0.207,0.56
2024-11-02 22:09:02.041,37699.269,-0.046,0.205,-0.978,-0.032,0.427,0.177,-0.116,-0.576,-0.052,-0.047,-0.206,0.559
2024-11-02 22:09:02.052,37699.278,-0.051,0.208,-0.977,-0.023,0.412,0.16,-0.514,-0.496,0.073,-0.052,-0.21,0.559
2024-11-02 22:09:02.061,37699.288,-0.055,0.215,-0.975,-0.02,0.364,0.156,-0.938,-0.467,0.162,-0.056,-0.217,0.56
2024-11-02 22:09:02.071,37699.298,-0.06,0.226,-0.972,-0.049,0.278,0.16,-1.161,-0.563,0.2,-0.061,-0.228,0.561
2024-11-02 22:09:02.081,37699.308,-0.065,0.238,-0.969,-0.042,0.192,0.164,-1.477,-0.601,0.275,-0.067,-0.241,0.563
2024-11-02 22:09:02.091,37699.318,-0.07,0.255,-0.965,0.014,0.13,0.161,-1.784,-0.636,0.325,-0.072,-0.257,0.565
2024-11-02 22:09:02.101,37699.328,-0.076,0.272,-0.959,0.04,0.15,0.142,-1.664,-0.831,0.134,-0.079,-0.275,0.566
2024-11-02 22:09:02.112,37699.338,-0.085,0.285,-0.955,0.013,0.101,0.052,-1.086,-0.88,-0.069,-0.088,-0.289,0.565
2024-11-02 22:09:02.122,37699.348,-0.092,0.292,-0.952,0.023,0.115,-0.013,-0.394,-0.627,-0.179,-0.097,-0.296,0.563
2024-11-02 22:09:02.131,37699.358,-0.097,0.293,-0.951,0.006,0.245,-0.037,0.127,-0.338,-0.174,-0.102,-0.297,0.561
2024-11-02 22:09:02.142,37699.368,-0.1,0.29,-0.952,-0.084,0.231,-0.032,0.319,-0.224,-0.161,-0.105,-0.294,0.559
2024-11-02 22:09:02.151,37699.378,-0.103,0.287,-0.952,-0.12,0.068,0.008,0.26,-0.212,-0.152,-0.108,-0.291,0.558
2024-11-02 22:09:02.161,37699.388,-0.105,0.286,-0.953,-0.065,-0.059,0.04,0.07,-0.186,-0.09,-0.11,-0.29,0.557
2024-11-02 22:09:02.171,37699.398,-0.107,0.286,-0.952,-0.024,-0.114,0.036,-0.134,-0.168,0.006,-0.112,-0.29,0.556
2024-11-02 22:09:02.182,37699.408,-0.108,0.288,-0.952,-0.043,-0.117,0.012,-0.269,-0.132,0.056,-0.113,-0.292,0.556
2024-11-02 22:09:02.192,37699.418,-0.109,0.291,-0.951,-0.052,-0.041,-0.024,-0.332,-0.071,0.076,-0.114,-0.295,0.557
2024-11-02 22:09:02.202,37699.428,-0.109,0.294,-0.949,-0.056,0.048,-0.047,-0.366,-0.024,0.058,-0.115,-0.299,0.557
2024-11-02 22:09:02.212,37699.438,-0.11,0.298,-0.948,-0.067,0.076,-0.054,-0.348,-0.072,0.01,-0.115,-0.302,0.557
2024-11-02 22:09:02.221,37699.448,-0.11,0.301,-0.947,-0.074,0.043,-0.053,-0.315,-0.093,-0.015,-0.116,-0.305,0.557
2024-11-02 22:09:02.231,37699.458,-0.111,0.304,-0.946,-0.063,0.015,-0.049,-0.275,-0.057,-0.041,-0.117,-0.308,0.556
2024-11-02 22:09:02.241,37699.468,-0.112,0.306,-0.945,-0.063,0.005,-0.045,-0.269,-0.025,-0.07,-0.118,-0.311,0.555
2024-11-02 22:09:02.251,37699.478,-0.112,0.309,-0.945,-0.091,-0.007,-0.044,-0.293,-0.006,-0.068,-0.118,-0.314,0.554
2024-11-02 22:09:02.261,37699.488,-0.112,0.311,-0.944,-0.103,-0.008,-0.022,-0.329,-0.02,-0.05,-0.119,-0.317,0.553
2024-11-02 22:09:02.271,37699.498,-0.113,0.315,-0.942,-0.079,-0.011,0.011,-0.367,-0.078,-0.046,-0.119,-0.32,0.552
2024-11-02 22:09:02.281,37699.508,-0.114,0.318,-0.941,-0.038,-0.02,0.027,-0.353,-0.138,-0.057,-0.121,-0.324,0.551
2024-11-02 22:09:02.291,37699.518,-0.116,0.321,-0.94,-0.015,-0.024,0.031,-0.196,-0.159,-0.058,-0.122,-0.326,0.55
2024-11-02 22:09:02.301,37699.528,-0.118,0.321,-0.94,-0.018,-0.017,0.018,0.038,-0.166,-0.105,-0.124,-0.327,0.549
2024-11-02 22:09:02.312,37699.538,-0.119,0.32,-0.94,-0.038,-0.012,-0.031,0.206,-0.094,-0.104,-0.126,-0.326,0.548
2024-11-02 22:09:02.321,37699.548,-0.12,0.318,-0.941,-0.058,0.007,-0.056,0.248,-0.045,-0.093,-0.127,-0.323,0.547
2024-11-02 22:09:02.331,37699.558,-0.121,0.315,-0.941,-0.068,-0.006,-0.077,0.189,-0.004,-0.106,-0.128,-0.321,0.547
2024-11-02 22:09:02.341,37699.568,-0.121,0.314,-0.942,-0.077,-0.027,-0.107,0.084,0.051,-0.084,-0.128,-0.319,0.546
2024-11-02 22:09:02.351,37699.578,-0.12,0.314,-0.942,-0.085,-0.025,-0.123,-0.007,0.071,-0.051,-0.127,-0.319,0.545
2024-11-02 22:09:02.361,37699.588,-0.12,0.314,-0.942,-0.095,-0.034,-0.135,-0.058,0.107,-0.017,-0.126,-0.319,0.545
2024-11-02 22:09:02.371,37699.598,-0.119,0.315,-0.942,-0.089,-0.036,-0.131,-0.118,0.133,0.028,-0.125,-0.32,0.545
2024-11-02 22:09:02.381,37699.608,-0.117,0.316,-0.941,-0.066,-0.009,-0.101,-0.206,0.104,0.061,-0.124,-0.322,0.545
2024-11-02 22:09:02.391,37699.618,-0.116,0.319,-0.941,-0.02,0.011,-0.068,-0.291,0.065,0.059,-0.123,-0.324,0.545
2024-11-02 22:09:02.401,37699.628,-0.116,0.322,-0.94,0.021,-0.003,-0.054,-0.281,0.023,0.045,-0.122,-0.327,0.546
2024-11-02 22:09:02.411,37699.638,-0.115,0.324,-0.939,0.025,-0.023,-0.053,-0.145,0.017,0.031,-0.122,-0.33,0.546
2024-11-02 22:09:02.421,37699.648,-0.115,0.324,-0.939,0.005,0.001,-0.051,0.025,0.052,0.025,-0.122,-0.33,0.546
2024-11-02 22:09:02.431,37699.658,-0.115,0.323,-0.939,-0.008,0.05,-0.03,0.122,0.029,0.002,-0.121,-0.329,0.546
2024-11-02 22:09:02.441,37699.668,-0.115,0.322,-0.94,-0.009,0.046,0.002,0.144,-0.019,-0.027,-0.121,-0.328,0.546
2024-11-02 22:09:02.451,37699.678,-0.115,0.321,-0.94,0.01,0.012,0.035,0.153,-0.072,-0.057,-0.122,-0.326,0.546
2024-11-02 22:09:02.461,37699.688,-0.116,0.319,-0.941,0.027,-0.015,0.054,0.158,-0.087,-0.076,-0.123,-0.325,0.545
2024-11-02 22:09:02.471,37699.698,-0.117,0.318,-0.941,0.032,-0.028,0.059,0.157,-0.088,-0.089,-0.124,-0.323,0.545
2024-11-02 22:09:02.481,37699.708,-0.118,0.316,-0.941,0.027,-0.017,0.064,0.131,-0.104,-0.095,-0.125,-0.322,0.544
2024-11-02 22:09:02.491,37699.718,-0.12,0.315,-0.942,0.019,-0.012,0.072,0.11,-0.128,-0.113,-0.127,-0.32,0.543
2024-11-02 22:09:02.501,37699.728,-0.122,0.314,-0.942,0.019,-0.014,0.077,0.117,-0.151,-0.128,-0.128,-0.319,0.542
2024-11-02 22:09:02.511,37699.738,-0.123,0.312,-0.942,0.014,-0.02,0.078,0.117,-0.145,-0.126,-0.13,-0.318,0.541
2024-11-02 22:09:02.521,37699.748,-0.125,0.311,-0.942,0.006,-0.013,0.075,0.135,-0.139,-0.11,-0.132,-0.316,0.54
2024-11-02 22:09:02.531,37699.758,-0.127,0.31,-0.942,-0.004,0.007,0.056,0.153,-0.129,-0.097,-0.134,-0.315,0.539
2024-11-02 22:09:02.541,37699.768,-0.128,0.308,-0.943,-0.006,0.019,0.027,0.176,-0.117,-0.089,-0.135,-0.313,0.538
2024-11-02 22:09:02.551,37699.778,-0.129,0.306,-0.943,-0.003,0.025,-0.0,0.187,-0.111,-0.086,-0.136,-0.311,0.537
2024-11-02 22:09:02.561,37699.788,-0.131,0.304,-0.943,0.003,0.019,-0.018,0.11,-0.323,-0.144,-0.138,-0.309,0.536
2024-11-02 22:09:02.571,37699.798,-0.134,0.303,-0.943,0.012,0.012,-0.03,0.055,-0.124,-0.158,-0.141,-0.308,0.535
2024-11-02 22:09:02.581,37699.808,-0.135,0.303,-0.943,-0.027,-0.008,-0.073,0.001,-0.047,-0.053,-0.142,-0.308,0.534
2024-11-02 22:09:02.591,37699.818,-0.135,0.303,-0.943,-0.032,0.029,-0.115,-0.032,0.019,-0.056,-0.142,-0.308,0.533
2024-11-02 22:09:02.601,37699.828,-0.135,0.303,-0.943,0.022,0.06,-0.063,-0.046,0.087,-0.056,-0.142,-0.308,0.533
2024-11-02 22:09:02.611,37699.838,-0.134,0.304,-0.943,-0.009,0.016,-0.027,-0.052,0.1,-0.039,-0.141,-0.309,0.532
2024-11-02 22:09:02.621,37699.848,-0.133,0.304,-0.943,-0.02,0.007,0.01,-0.062,0.065,-0.047,-0.14,-0.309,0.532
2024-11-02 22:09:02.630,37699.858,-0.133,0.305,-0.943,-0.005,-0.011,0.026,-0.082,0.01,-0.053,-0.14,-0.31,0.531
2024-11-02 22:09:02.641,37699.867,-0.133,0.306,-0.943,0.007,-0.025,0.021,-0.098,-0.044,-0.049,-0.14,-0.311,0.53
2024-11-02 22:09:02.651,37699.877,-0.134,0.306,-0.942,0.019,-0.023,0.012,-0.093,-0.074,-0.069,-0.141,-0.311,0.53
2024-11-02 22:09:02.662,37699.887,-0.135,0.307,-0.942,0.021,-0.026,0.013,-0.066,-0.071,-0.067,-0.142,-0.312,0.529
2024-11-02 22:09:02.671,37699.897,-0.136,0.307,-0.942,0.004,-0.006,0.016,-0.034,-0.045,-0.072,-0.143,-0.313,0.528
2024-11-02 22:09:02.681,37699.907,-0.136,0.308,-0.942,-0.004,0.02,0.013,0.016,-0.03,-0.064,-0.144,-0.313,0.527
2024-11-02 22:09:02.691,37699.917,-0.137,0.307,-0.942,-0.007,0.036,0.002,0.078,0.006,-0.045,-0.144,-0.312,0.527
2024-11-02 22:09:02.701,37699.927,-0.136,0.306,-0.942,-0.004,0.043,0.0,0.129,0.088,-0.035,-0.144,-0.311,0.526
2024-11-02 22:09:02.710,37699.937,-0.135,0.305,-0.943,-0.015,0.061,0.002,0.159,0.112,-0.019,-0.143,-0.31,0.526
2024-11-02 22:09:02.721,37699.947,-0.134,0.303,-0.943,-0.023,0.062,-0.003,0.158,0.085,-0.018,-0.141,-0.308,0.526
2024-11-02 22:09:02.731,37699.957,-0.134,0.302,-0.944,-0.005,0.019,0.007,0.151,0.062,-0.03,-0.141,-0.306,0.526
2024-11-02 22:09:02.741,37699.967,-0.133,0.3,-0.945,0.01,-0.005,0.019,0.136,0.048,-0.018,-0.14,-0.305,0.526
2024-11-02 22:09:02.750,37699.977,-0.133,0.299,-0.945,0.006,-0.0,0.016,0.102,0.042,-0.024,-0.14,-0.304,0.526
2024-11-02 22:09:02.760,37699.987,-0.133,0.298,-0.945,0.001,-0.01,0.008,0.061,0.019,-0.027,-0.14,-0.303,0.526
2024-11-02 22:09:02.770,37699.997,-0.133,0.298,-0.945,0.005,-0.017,0.002,0.017,-0.008,-0.029,-0.14,-0.303,0.526
2024-11-02 22:09:02.780,37700.007,-0.133,0.298,-0.945,0.014,-0.027,0.004,-0.029,-0.032,-0.026,-0.14,-0.303,0.526
2024-11-02 22:09:02.791,37700.017,-0.133,0.299,-0.945,0.018,-0.028,0.004,-0.079,-0.036,-0.012,-0.14,-0.303,0.525
2024-11-02 22:09:02.800,37700.027,-0.134,0.299,-0.945,0.02,-0.017,-0.003,-0.103,-0.032,0.001,-0.141,-0.304,0.525
2024-11-02 22:09:02.810,37700.037,-0.134,0.301,-0.944,0.013,-0.01,-0.009,-0.106,-0.007,0.008,-0.141,-0.305,0.525
2024-11-02 22:09:02.821,37700.047,-0.134,0.301,-0.944,0.002,0.003,0.0,-0.065,-0.007,0.0,-0.141,-0.306,0.525
2024-11-02 22:09:02.831,37700.057,-0.134,0.302,-0.944,-0.007,0.013,0.015,-0.017,-0.005,-0.011,-0.141,-0.306,0.525
2024-11-02 22:09:02.841,37700.067,-0.134,0.302,-0.944,-0.01,0.016,0.021,0.015,0.009,-0.015,-0.141,-0.306,0.525
2024-11-02 22:09:02.850,37700.077,-0.134,0.301,-0.944,-0.01,0.017,0.019,0.038,0.045,-0.002,-0.141,-0.306,0.525
2024-11-02 22:09:02.860,37700.087,-0.133,0.301,-0.944,-0.015,0.013,0.017,0.042,0.059,0.006,-0.14,-0.306,0.525
2024-11-02 22:09:02.870,37700.097,-0.133,0.301,-0.944,-0.018,0.012,0.018,0.029,0.043,0.0,-0.14,-0.305,0.525
2024-11-02 22:09:02.880,37700.107,-0.133,0.3,-0.945,-0.008,-0.001,0.02,0.003,0.019,-0.009,-0.139,-0.305,0.525
2024-11-02 22:09:02.892,37700.117,-0.133,0.3,-0.945,0.006,-0.016,0.016,-0.038,-0.002,-0.014,-0.139,-0.305,0.525
2024-11-02 22:09:02.900,37700.127,-0.133,0.301,-0.944,0.011,-0.023,0.005,-0.075,-0.006,-0.012,-0.14,-0.306,0.524
2024-11-02 22:09:02.910,37700.137,-0.133,0.302,-0.944,0.01,-0.02,-0.007,-0.085,0.008,-0.003,-0.14,-0.307,0.524
2024-11-02 22:09:02.921,37700.147,-0.133,0.303,-0.944,0.002,-0.008,-0.01,-0.087,0.025,0.002,-0.139,-0.308,0.524
2024-11-02 22:09:02.931,37700.157,-0.132,0.304,-0.944,-0.006,0.004,-0.005,-0.068,0.056,0.006,-0.139,-0.308,0.524
2024-11-02 22:09:02.940,37700.167,-0.132,0.304,-0.943,-0.008,0.012,0.003,-0.057,0.063,0.017,-0.139,-0.309,0.524
2024-11-02 22:09:02.950,37700.177,-0.131,0.305,-0.943,-0.011,0.016,0.007,-0.036,0.044,0.007,-0.138,-0.31,0.524
2024-11-02 22:09:02.960,37700.187,-0.131,0.305,-0.943,-0.001,0.008,0.014,-0.009,0.035,0.004,-0.138,-0.31,0.524
2024-11-02 22:09:02.970,37700.197,-0.13,0.305,-0.943,0.003,-0.005,0.027,-0.035,0.056,0.006,-0.137,-0.31,0.524
2024-11-02 22:09:02.981,37700.207,-0.13,0.306,-0.943,0.003,-0.004,0.015,-0.088,0.064,0.043,-0.136,-0.311,0.524
2024-11-02 22:09:02.990,37700.217,-0.129,0.307,-0.943,-0.004,-0.001,-0.011,-0.165,0.044,0.092,-0.136,-0.312,0.525
2024-11-02 22:09:03.000,37700.227,-0.128,0.309,-0.942,-0.006,-0.017,-0.012,-0.259,-0.006,0.083,-0.135,-0.314,0.525
2024-11-02 22:09:03.010,37700.237,-0.128,0.312,-0.942,0.009,-0.072,-0.011,-0.299,-0.001,0.105,-0.135,-0.317,0.526
2024-11-02 22:09:03.020,37700.247,-0.127,0.315,-0.941,0.009,-0.055,-0.023,-0.296,0.062,0.152,-0.135,-0.32,0.527
2024-11-02 22:09:03.030,37700.257,-0.126,0.317,-0.94,-0.01,0.013,-0.031,-0.222,0.22,0.155,-0.133,-0.323,0.528
2024-11-02 22:09:03.040,37700.267,-0.123,0.318,-0.94,-0.034,0.052,-0.048,0.239,0.24,0.053,-0.13,-0.324,0.529
2024-11-02 22:09:03.050,37700.277,-0.122,0.315,-0.941,-0.067,0.108,-0.049,0.396,0.05,0.062,-0.129,-0.32,0.53
2024-11-02 22:09:03.060,37700.287,-0.119,0.31,-0.943,-0.111,0.185,-0.067,0.642,0.362,0.092,-0.126,-0.315,0.532
2024-11-02 22:09:03.070,37700.297,-0.116,0.303,-0.946,-0.174,0.187,-0.103,0.78,0.398,0.079,-0.122,-0.308,0.533
2024-11-02 22:09:03.080,37700.307,-0.11,0.296,-0.949,-0.116,0.175,-0.138,0.825,0.694,0.255,-0.116,-0.3,0.536
2024-11-02 22:09:03.090,37700.317,-0.102,0.289,-0.952,-0.131,0.248,-0.128,0.721,0.901,0.463,-0.106,-0.293,0.541
2024-11-02 22:09:03.100,37700.327,-0.091,0.283,-0.955,-0.23,0.243,-0.176,0.54,0.952,0.673,-0.095,-0.287,0.547
2024-11-02 22:09:03.110,37700.337,-0.08,0.28,-0.957,-0.226,0.264,-0.169,0.376,0.986,0.866,-0.083,-0.283,0.556
2024-11-02 22:09:03.120,37700.347,-0.067,0.278,-0.958,-0.191,0.283,-0.167,0.203,1.063,1.042,-0.07,-0.281,0.566
2024-11-02 22:09:03.130,37700.357,-0.053,0.277,-0.959,-0.202,0.304,-0.203,0.082,1.174,1.229,-0.056,-0.281,0.578
2024-11-02 22:09:03.140,37700.367,-0.038,0.277,-0.96,-0.262,0.351,-0.219,0.039,1.276,1.39,-0.04,-0.281,0.591
2024-11-02 22:09:03.150,37700.377,-0.021,0.277,-0.96,-0.315,0.369,-0.196,-0.059,1.398,1.538,-0.022,-0.281,0.607
2024-11-02 22:09:03.160,37700.387,-0.003,0.279,-0.96,-0.321,0.359,-0.143,-0.175,1.461,1.685,-0.003,-0.283,0.623
2024-11-02 22:09:03.170,37700.397,0.016,0.281,-0.96,-0.314,0.344,-0.076,-0.348,1.499,1.835,0.017,-0.285,0.642
2024-11-02 22:09:03.180,37700.407,0.036,0.285,-0.958,-0.298,0.317,-0.015,-0.561,1.478,1.991,0.037,-0.289,0.662
2024-11-02 22:09:03.190,37700.417,0.056,0.29,-0.955,-0.265,0.313,0.027,-0.792,1.473,2.154,0.058,-0.295,0.684
2024-11-02 22:09:03.200,37700.427,0.076,0.298,-0.952,-0.249,0.313,0.045,-1.033,1.43,2.351,0.08,-0.302,0.708
2024-11-02 22:09:03.209,37700.437,0.097,0.306,-0.947,-0.252,0.295,0.073,-1.2,1.29,2.486,0.102,-0.311,0.734
2024-11-02 22:09:03.220,37700.447,0.116,0.316,-0.942,-0.231,0.255,0.106,-1.364,1.162,2.569,0.123,-0.321,0.762
2024-11-02 22:09:03.230,37700.456,0.135,0.326,-0.936,-0.175,0.208,0.135,-1.618,1.031,2.657,0.143,-0.332,0.791
2024-11-02 22:09:03.240,37700.466,0.152,0.339,-0.928,-0.161,0.172,0.163,-1.899,0.849,2.766,0.163,-0.346,0.823
2024-11-02 22:09:03.250,37700.476,0.169,0.353,-0.92,-0.181,0.132,0.194,-2.23,0.621,2.831,0.182,-0.361,0.856
2024-11-02 22:09:03.260,37700.486,0.184,0.371,-0.91,-0.174,0.08,0.22,-2.725,0.444,2.886,0.199,-0.38,0.891
2024-11-02 22:09:03.270,37700.496,0.198,0.392,-0.898,-0.158,0.035,0.227,-3.248,0.262,2.943,0.217,-0.403,0.928
2024-11-02 22:09:03.280,37700.506,0.212,0.417,-0.884,-0.171,-0.018,0.24,-3.718,0.058,3.005,0.235,-0.43,0.968
2024-11-02 22:09:03.290,37700.516,0.225,0.445,-0.867,-0.174,-0.062,0.24,-4.19,-0.075,3.056,0.254,-0.461,1.012
2024-11-02 22:09:03.300,37700.526,0.237,0.476,-0.847,-0.131,-0.08,0.238,-4.56,-0.265,3.074,0.273,-0.496,1.058
2024-11-02 22:09:03.310,37700.536,0.249,0.507,-0.825,-0.099,-0.119,0.241,-4.847,-0.467,3.026,0.294,-0.532,1.106
2024-11-02 22:09:03.319,37700.546,0.26,0.54,-0.8,-0.07,-0.18,0.245,-5.101,-0.654,2.942,0.315,-0.571,1.157
2024-11-02 22:09:03.330,37700.556,0.271,0.573,-0.774,-0.02,-0.191,0.216,-5.188,-0.842,2.816,0.336,-0.61,1.21
2024-11-02 22:09:03.339,37700.566,0.28,0.605,-0.746,-0.001,-0.192,0.143,-5.142,-0.978,2.657,0.359,-0.65,1.264
2024-11-02 22:09:03.349,37700.576,0.288,0.634,-0.717,-0.008,-0.224,0.021,-4.934,-1.048,2.474,0.382,-0.687,1.317
2024-11-02 22:09:03.359,37700.586,0.296,0.661,-0.689,-0.029,-0.258,-0.058,-4.682,-1.034,2.307,0.406,-0.722,1.37
2024-11-02 22:09:03.369,37700.596,0.304,0.685,-0.662,-0.04,-0.271,-0.078,-4.352,-0.981,2.154,0.431,-0.755,1.423
2024-11-02 22:09:03.379,37700.606,0.313,0.706,-0.636,-0.046,-0.267,-0.071,-4.089,-0.87,2.019,0.457,-0.784,1.474
2024-11-02 22:09:03.390,37700.616,0.322,0.724,-0.61,-0.05,-0.298,-0.047,-3.86,-0.743,1.893,0.486,-0.81,1.525
2024-11-02 22:09:03.399,37700.626,0.331,0.741,-0.584,-0.055,-0.307,-0.016,-3.694,-0.637,1.776,0.516,-0.834,1.575
2024-11-02 22:09:03.409,37700.636,0.34,0.756,-0.56,-0.038,-0.297,0.011,-3.494,-0.66,1.627,0.546,-0.857,1.624
2024-11-02 22:09:03.419,37700.646,0.348,0.769,-0.536,0.002,-0.279,0.014,-3.227,-0.794,1.453,0.575,-0.877,1.672
2024-11-02 22:09:03.430,37700.656,0.354,0.78,-0.516,0.054,-0.231,-0.058,-2.877,-0.868,1.292,0.602,-0.895,1.717
2024-11-02 22:09:03.439,37700.666,0.36,0.789,-0.498,0.084,-0.167,-0.181,-2.51,-0.773,1.17,0.626,-0.91,1.758
2024-11-02 22:09:03.450,37700.676,0.365,0.797,-0.482,0.052,-0.137,-0.268,-2.129,-0.594,1.072,0.648,-0.922,1.795
2024-11-02 22:09:03.459,37700.686,0.371,0.802,-0.468,-0.012,-0.127,-0.309,-1.825,-0.364,0.991,0.671,-0.931,1.829
2024-11-02 22:09:03.469,37700.696,0.378,0.807,-0.455,-0.062,-0.132,-0.307,-1.665,-0.162,0.926,0.693,-0.938,1.86
2024-11-02 22:09:03.479,37700.706,0.384,0.811,-0.442,-0.064,-0.148,-0.268,-1.64,-0.019,0.84,0.716,-0.945,1.889
2024-11-02 22:09:03.490,37700.716,0.391,0.815,-0.428,-0.038,-0.168,-0.212,-1.729,0.093,0.761,0.74,-0.952,1.919
2024-11-02 22:09:03.499,37700.726,0.397,0.819,-0.413,-0.018,-0.216,-0.151,-1.822,0.155,0.674,0.766,-0.96,1.949
2024-11-02 22:09:03.509,37700.736,0.403,0.824,-0.397,-0.003,-0.243,-0.107,-1.831,0.135,0.586,0.792,-0.969,1.979
2024-11-02 22:09:03.519,37700.746,0.408,0.829,-0.382,0.025,-0.252,-0.126,-1.78,0.068,0.534,0.818,-0.977,2.009
2024-11-02 22:09:03.529,37700.756,0.412,0.833,-0.368,0.057,-0.238,-0.183,-1.659,0.021,0.476,0.843,-0.985,2.038
2024-11-02 22:09:03.539,37700.766,0.416,0.837,-0.354,0.059,-0.157,-0.246,-1.49,0.062,0.436,0.866,-0.992,2.065
2024-11-02 22:09:03.549,37700.776,0.42,0.84,-0.342,0.025,-0.073,-0.272,-1.271,0.141,0.405,0.887,-0.998,2.09
2024-11-02 22:09:03.559,37700.786,0.424,0.843,-0.332,-0.019,-0.027,-0.249,-1.033,0.287,0.338,0.907,-1.002,2.111
2024-11-02 22:09:03.569,37700.796,0.428,0.844,-0.322,-0.037,-0.001,-0.185,-0.834,0.571,0.253,0.926,-1.005,2.128
2024-11-02 22:09:03.579,37700.806,0.433,0.846,-0.312,-0.04,-0.013,-0.097,-0.681,0.953,0.261,0.945,-1.008,2.142
2024-11-02 22:09:03.589,37700.816,0.438,0.846,-0.303,-0.076,-0.059,-0.067,-0.583,1.165,0.275,0.966,-1.009,2.154
2024-11-02 22:09:03.599,37700.826,0.444,0.847,-0.292,-0.128,-0.093,-0.113,-0.659,1.228,0.327,0.989,-1.01,2.167
2024-11-02 22:09:03.609,37700.836,0.451,0.848,-0.28,-0.104,-0.059,-0.115,-0.883,1.16,0.429,1.015,-1.011,2.183
2024-11-02 22:09:03.619,37700.846,0.457,0.848,-0.267,-0.02,-0.037,-0.05,-0.978,0.931,0.381,1.042,-1.013,2.202
2024-11-02 22:09:03.629,37700.856,0.462,0.849,-0.256,0.053,-0.086,0.016,-0.92,0.651,0.189,1.065,-1.015,2.221
2024-11-02 22:09:03.639,37700.866,0.464,0.851,-0.246,0.084,-0.113,0.043,-0.722,0.563,0.08,1.084,-1.018,2.236
2024-11-02 22:09:03.649,37700.876,0.466,0.852,-0.239,0.052,-0.055,0.025,-0.337,0.575,0.038,1.098,-1.02,2.245
2024-11-02 22:09:03.659,37700.886,0.468,0.852,-0.235,-0.01,0.021,-0.024,0.148,0.613,0.033,1.105,-1.02,2.247
2024-11-02 22:09:03.669,37700.896,0.47,0.851,-0.235,-0.062,0.098,-0.092,0.575,0.678,0.087,1.107,-1.018,2.241
2024-11-02 22:09:03.679,37700.906,0.472,0.849,-0.238,-0.089,0.171,-0.162,0.871,0.703,0.131,1.104,-1.013,2.23
2024-11-02 22:09:03.690,37700.916,0.475,0.846,-0.242,-0.096,0.154,-0.191,0.851,0.707,0.176,1.099,-1.008,2.216
2024-11-02 22:09:03.699,37700.926,0.479,0.843,-0.245,-0.077,0.049,-0.16,0.642,0.659,0.241,1.097,-1.003,2.206
2024-11-02 22:09:03.709,37700.936,0.482,0.841,-0.247,-0.037,-0.038,-0.075,0.331,0.58,0.253,1.098,-0.998,2.2
2024-11-02 22:09:03.719,37700.946,0.486,0.839,-0.245,0.006,-0.065,-0.003,0.067,0.535,0.223,1.103,-0.995,2.199
2024-11-02 22:09:03.729,37700.956,0.489,0.838,-0.243,0.025,-0.038,0.033,-0.076,0.492,0.202,1.11,-0.993,2.2
2024-11-02 22:09:03.739,37700.966,0.492,0.837,-0.24,0.014,0.012,0.021,-0.114,0.463,0.178,1.117,-0.992,2.204
2024-11-02 22:09:03.749,37700.976,0.494,0.837,-0.237,0.012,0.055,-0.003,-0.079,0.396,0.158,1.124,-0.991,2.207
2024-11-02 22:09:03.759,37700.986,0.496,0.836,-0.234,0.017,0.056,-0.034,-0.021,0.338,0.151,1.129,-0.99,2.209
2024-11-02 22:09:03.769,37700.996,0.498,0.835,-0.233,0.025,0.035,-0.077,-0.016,0.288,0.166,1.134,-0.989,2.21
2024-11-02 22:09:03.779,37701.006,0.5,0.834,-0.231,0.034,0.036,-0.102,-0.043,0.246,0.164,1.138,-0.987,2.212
2024-11-02 22:09:03.789,37701.016,0.502,0.834,-0.229,0.038,0.054,-0.121,-0.092,0.24,0.182,1.142,-0.986,2.214
2024-11-02 22:09:03.799,37701.026,0.504,0.833,-0.227,0.034,0.054,-0.123,-0.107,0.222,0.197,1.147,-0.985,2.217
2024-11-02 22:09:03.809,37701.036,0.507,0.832,-0.225,0.03,0.049,-0.107,-0.126,0.233,0.227,1.152,-0.983,2.221
2024-11-02 22:09:03.819,37701.046,0.509,0.831,-0.223,0.038,0.044,-0.07,-0.135,0.2,0.226,1.158,-0.982,2.225
2024-11-02 22:09:03.828,37701.055,0.511,0.83,-0.222,0.049,0.029,-0.043,-0.021,0.162,0.205,1.162,-0.98,2.228
2024-11-02 22:09:03.838,37701.065,0.513,0.829,-0.221,0.054,0.028,-0.03,0.166,0.139,0.185,1.164,-0.978,2.228
2024-11-02 22:09:03.849,37701.075,0.515,0.828,-0.222,0.057,0.042,-0.013,0.208,0.108,0.145,1.163,-0.976,2.226
2024-11-02 22:09:03.859,37701.085,0.516,0.827,-0.224,0.062,0.033,0.004,0.328,0.071,0.182,1.161,-0.973,2.223
2024-11-02 22:09:03.869,37701.095,0.518,0.825,-0.227,0.064,-0.025,0.008,0.412,-0.054,0.132,1.157,-0.97,2.218
2024-11-02 22:09:03.879,37701.105,0.519,0.823,-0.231,0.073,-0.013,-0.047,0.61,0.031,0.108,1.151,-0.967,2.21
2024-11-02 22:09:03.889,37701.115,0.52,0.821,-0.236,0.04,0.122,-0.088,0.617,0.07,0.123,1.144,-0.963,2.201
2024-11-02 22:09:03.899,37701.125,0.521,0.819,-0.24,-0.009,0.063,-0.12,0.474,0.029,0.115,1.138,-0.96,2.193
2024-11-02 22:09:03.909,37701.135,0.522,0.818,-0.244,-0.0,-0.02,-0.105,0.299,-0.024,0.119,1.134,-0.957,2.188
2024-11-02 22:09:03.919,37701.145,0.523,0.817,-0.245,0.027,-0.028,-0.079,0.079,-0.059,0.105,1.132,-0.955,2.186
2024-11-02 22:09:03.929,37701.155,0.523,0.816,-0.245,0.036,-0.026,-0.043,-0.192,-0.077,0.068,1.132,-0.955,2.187
2024-11-02 22:09:03.938,37701.165,0.523,0.817,-0.243,0.019,-0.032,-0.002,-0.447,-0.098,0.083,1.136,-0.956,2.193
2024-11-02 22:09:03.948,37701.175,0.524,0.817,-0.24,0.007,-0.076,0.05,-0.633,-0.267,0.088,1.142,-0.957,2.202
2024-11-02 22:09:03.958,37701.185,0.523,0.819,-0.236,0.035,-0.13,0.052,-0.5,-0.326,0.018,1.147,-0.959,2.212
2024-11-02 22:09:03.968,37701.195,0.523,0.819,-0.235,0.049,-0.005,0.048,-0.19,-0.289,0.009,1.148,-0.96,2.218
2024-11-02 22:09:03.979,37701.205,0.522,0.819,-0.236,-0.008,0.078,0.018,0.138,-0.243,0.006,1.146,-0.96,2.218
2024-11-02 22:09:03.988,37701.215,0.522,0.819,-0.24,-0.042,0.077,0.003,0.438,-0.225,0.011,1.14,-0.959,2.213
2024-11-02 22:09:03.998,37701.225,0.521,0.817,-0.245,-0.042,0.077,0.005,0.571,-0.2,-0.002,1.131,-0.957,2.205
2024-11-02 22:09:04.008,37701.235,0.521,0.816,-0.251,-0.025,0.073,0.002,0.58,-0.139,-0.026,1.122,-0.954,2.196
2024-11-02 22:09:04.019,37701.245,0.52,0.815,-0.256,-0.017,0.047,-0.017,0.478,-0.071,-0.046,1.114,-0.952,2.188
2024-11-02 22:09:04.028,37701.255,0.52,0.814,-0.259,-0.031,-0.002,-0.052,0.302,-0.003,-0.041,1.108,-0.951,2.181
2024-11-02 22:09:04.038,37701.265,0.52,0.814,-0.261,-0.034,-0.047,-0.046,0.084,0.057,-0.026,1.106,-0.95,2.178
2024-11-02 22:09:04.048,37701.275,0.52,0.814,-0.26,-0.016,-0.088,-0.022,-0.108,0.106,-0.042,1.107,-0.951,2.178
2024-11-02 22:09:04.058,37701.285,0.52,0.815,-0.258,0.005,-0.088,-0.012,-0.247,0.194,-0.047,1.11,-0.952,2.18
2024-11-02 22:09:04.069,37701.295,0.52,0.816,-0.254,0.006,-0.059,-0.019,-0.335,0.271,-0.05,1.116,-0.954,2.184
2024-11-02 22:09:04.078,37701.305,0.52,0.817,-0.25,-0.004,-0.029,-0.026,-0.4,0.313,-0.064,1.123,-0.956,2.19
2024-11-02 22:09:04.088,37701.315,0.52,0.818,-0.245,-0.013,-0.022,-0.028,-0.428,0.332,-0.062,1.131,-0.958,2.196
2024-11-02 22:09:04.098,37701.325,0.521,0.82,-0.239,-0.011,-0.029,-0.028,-0.434,0.349,-0.046,1.14,-0.961,2.202
2024-11-02 22:09:04.108,37701.335,0.521,0.821,-0.234,-0.011,-0.034,-0.037,-0.441,0.375,-0.012,1.149,-0.963,2.209
2024-11-02 22:09:04.118,37701.345,0.522,0.822,-0.228,-0.024,-0.035,-0.041,-0.418,0.4,0.019,1.159,-0.964,2.216
2024-11-02 22:09:04.128,37701.355,0.523,0.822,-0.223,-0.031,-0.032,-0.041,-0.402,0.399,0.046,1.168,-0.966,2.223
2024-11-02 22:09:04.138,37701.365,0.525,0.823,-0.218,-0.024,-0.031,-0.035,-0.389,0.37,0.059,1.178,-0.967,2.229
2024-11-02 22:09:04.148,37701.375,0.526,0.823,-0.213,-0.009,-0.019,-0.018,-0.336,0.346,0.062,1.186,-0.967,2.236
2024-11-02 22:09:04.158,37701.385,0.527,0.824,-0.208,-0.003,-0.01,0.002,-0.286,0.33,0.074,1.194,-0.968,2.241
2024-11-02 22:09:04.168,37701.395,0.529,0.824,-0.205,-0.007,-0.015,0.017,-0.232,0.305,0.084,1.201,-0.968,2.246
2024-11-02 22:09:04.178,37701.405,0.53,0.824,-0.201,-0.013,-0.015,0.032,-0.189,0.274,0.084,1.208,-0.968,2.25
2024-11-02 22:09:04.188,37701.415,0.531,0.824,-0.199,-0.011,-0.013,0.041,-0.145,0.217,0.051,1.213,-0.968,2.253
2024-11-02 22:09:04.199,37701.425,0.532,0.824,-0.197,0.002,-0.0,0.039,-0.118,0.159,0.026,1.217,-0.968,2.256
2024-11-02 22:09:04.208,37701.435,0.532,0.824,-0.195,0.012,-0.003,0.024,-0.119,0.097,0.005,1.22,-0.969,2.258
2024-11-02 22:09:04.218,37701.445,0.532,0.824,-0.194,0.018,-0.016,0.012,-0.094,0.04,-0.013,1.222,-0.969,2.259
2024-11-02 22:09:04.228,37701.455,0.532,0.825,-0.193,0.019,-0.023,0.003,-0.067,-0.004,-0.021,1.223,-0.969,2.261
2024-11-02 22:09:04.238,37701.465,0.532,0.825,-0.192,0.019,-0.019,-0.013,-0.067,-0.033,-0.02,1.223,-0.97,2.262
2024-11-02 22:09:04.248,37701.475,0.531,0.825,-0.192,0.017,-0.005,-0.015,-0.083,-0.072,-0.015,1.224,-0.97,2.263
2024-11-02 22:09:04.258,37701.485,0.531,0.825,-0.192,0.013,-0.003,-0.01,-0.112,-0.114,-0.015,1.224,-0.971,2.264
2024-11-02 22:09:04.268,37701.495,0.531,0.826,-0.192,0.018,-0.009,-0.005,-0.128,-0.145,-0.024,1.224,-0.971,2.266
2024-11-02 22:09:04.278,37701.505,0.53,0.826,-0.191,0.02,-0.009,0.002,-0.107,-0.155,-0.034,1.224,-0.972,2.268
2024-11-02 22:09:04.288,37701.515,0.53,0.826,-0.191,0.013,-0.001,0.003,-0.073,-0.161,-0.044,1.224,-0.973,2.269
2024-11-02 22:09:04.298,37701.525,0.529,0.827,-0.192,0.011,0.011,0.005,-0.042,-0.165,-0.057,1.223,-0.973,2.27
2024-11-02 22:09:04.308,37701.535,0.528,0.827,-0.192,0.013,0.017,0.012,-0.018,-0.161,-0.074,1.221,-0.974,2.27
2024-11-02 22:09:04.318,37701.545,0.527,0.827,-0.193,0.009,0.013,0.012,0.001,-0.146,-0.075,1.22,-0.974,2.27
2024-11-02 22:09:04.328,37701.555,0.527,0.828,-0.194,0.002,0.014,0.009,0.013,-0.122,-0.075,1.218,-0.975,2.269
2024-11-02 22:09:04.338,37701.565,0.526,0.828,-0.195,-0.004,0.01,0.005,0.017,-0.097,-0.071,1.216,-0.976,2.268
2024-11-02 22:09:04.348,37701.575,0.525,0.828,-0.195,-0.008,0.007,-0.005,0.006,-0.072,-0.061,1.215,-0.976,2.268
2024-11-02 22:09:04.358,37701.585,0.525,0.829,-0.196,-0.01,0.004,-0.009,-0.012,-0.068,-0.049,1.214,-0.977,2.268
2024-11-02 22:09:04.368,37701.595,0.524,0.829,-0.196,-0.007,-0.003,-0.005,-0.031,-0.069,-0.053,1.213,-0.977,2.268
2024-11-02 22:09:04.378,37701.605,0.524,0.829,-0.196,0.003,-0.008,0.003,-0.032,-0.062,-0.041,1.213,-0.978,2.268
2024-11-02 22:09:04.388,37701.615,0.523,0.829,-0.196,0.001,-0.016,0.005,-0.032,-0.064,-0.021,1.213,-0.978,2.269
2024-11-02 22:09:04.398,37701.625,0.523,0.83,-0.196,-0.002,-0.025,0.005,-0.038,-0.079,-0.013,1.213,-0.978,2.269
2024-11-02 22:09:04.407,37701.635,0.523,0.83,-0.196,-0.0,-0.019,0.006,-0.04,-0.079,-0.012,1.212,-0.979,2.27
2024-11-02 22:09:04.417,37701.644,0.522,0.83,-0.196,-0.0,-0.006,0.002,-0.039,-0.073,-0.019,1.212,-0.979,2.27
2024-11-02 22:09:04.428,37701.654,0.522,0.83,-0.196,-0.002,0.004,-0.005,-0.032,-0.061,-0.025,1.212,-0.979,2.271
2024-11-02 22:09:04.437,37701.664,0.522,0.83,-0.196,-0.007,0.01,-0.013,-0.038,-0.043,-0.027,1.211,-0.98,2.271
2024-11-02 22:09:04.447,37701.674,0.521,0.83,-0.196,-0.009,0.011,-0.018,-0.052,-0.028,-0.027,1.212,-0.98,2.272
2024-11-02 22:09:04.458,37701.684,0.521,0.831,-0.196,-0.004,0.009,-0.02,-0.061,-0.029,-0.023,1.212,-0.98,2.272
2024-11-02 22:09:04.467,37701.694,0.521,0.831,-0.195,0.003,0.001,-0.019,-0.072,-0.029,-0.02,1.212,-0.981,2.273
2024-11-02 22:09:04.477,37701.704,0.521,0.831,-0.195,0.005,0.002,-0.011,-0.064,-0.015,-0.011,1.213,-0.981,2.275
2024-11-02 22:09:04.487,37701.714,0.521,0.831,-0.194,-0.0,0.009,0.004,-0.048,-0.012,-0.007,1.214,-0.981,2.275
2024-11-02 22:09:04.498,37701.724,0.521,0.831,-0.194,-0.009,0.007,0.013,-0.031,-0.005,0.0,1.214,-0.982,2.276
2024-11-02 22:09:04.507,37701.734,0.521,0.831,-0.194,-0.013,0.006,0.017,-0.015,-0.004,0.007,1.215,-0.982,2.277
2024-11-02 22:09:04.517,37701.744,0.521,0.831,-0.194,-0.015,0.007,0.021,-0.004,-0.015,0.009,1.215,-0.982,2.277
2024-11-02 22:09:04.527,37701.754,0.521,0.831,-0.194,-0.015,0.008,0.018,0.005,-0.025,0.016,1.214,-0.981,2.277
2024-11-02 22:09:04.538,37701.764,0.521,0.831,-0.194,-0.009,0.008,0.005,0.013,-0.041,0.02,1.214,-0.981,2.277
2024-11-02 22:09:04.547,37701.774,0.521,0.831,-0.195,-0.003,0.004,-0.005,0.015,-0.055,0.024,1.213,-0.981,2.276
2024-11-02 22:09:04.557,37701.784,0.521,0.831,-0.195,0.005,0.0,-0.01,0.005,-0.06,0.024,1.213,-0.981,2.276
2024-11-02 22:09:04.567,37701.794,0.521,0.831,-0.195,0.01,0.001,-0.01,-0.001,-0.06,0.024,1.212,-0.98,2.276
2024-11-02 22:09:04.577,37701.804,0.521,0.831,-0.196,0.009,0.002,-0.008,0.008,-0.048,0.029,1.212,-0.98,2.277
2024-11-02 22:09:04.588,37701.814,0.521,0.83,-0.196,0.002,-0.001,-0.006,0.002,-0.044,0.036,1.211,-0.98,2.277
2024-11-02 22:09:04.597,37701.824,0.522,0.83,-0.196,0.001,-0.003,-0.004,-0.003,-0.045,0.038,1.211,-0.98,2.277
2024-11-02 22:09:04.607,37701.834,0.522,0.83,-0.196,-0.001,-0.002,-0.002,0.0,-0.044,0.036,1.211,-0.979,2.277
2024-11-02 22:09:04.617,37701.844,0.522,0.83,-0.196,-0.004,-0.002,-0.001,-0.007,-0.03,0.037,1.211,-0.979,2.278
2024-11-02 22:09:04.627,37701.854,0.522,0.83,-0.196,-0.007,0.002,-0.002,-0.005,-0.021,0.031,1.211,-0.979,2.278
2024-11-02 22:09:04.637,37701.864,0.522,0.83,-0.197,-0.01,0.007,-0.001,-0.01,-0.022,0.031,1.211,-0.979,2.278
2024-11-02 22:09:04.647,37701.874,0.523,0.83,-0.197,-0.006,0.006,0.002,-0.023,-0.029,0.029,1.211,-0.978,2.279
2024-11-02 22:09:04.657,37701.884,0.523,0.829,-0.197,-0.002,0.002,0.005,-0.03,-0.04,0.029,1.211,-0.978,2.279
2024-11-02 22:09:04.667,37701.894,0.523,0.829,-0.197,0.001,-0.004,0.009,-0.04,-0.052,0.029,1.211,-0.978,2.28
2024-11-02 22:09:04.677,37701.904,0.523,0.829,-0.197,0.002,-0.007,0.007,-0.037,-0.056,0.029,1.211,-0.978,2.281
2024-11-02 22:09:04.687,37701.914,0.523,0.829,-0.197,0.002,-0.005,0.01,-0.02,-0.056,0.026,1.211,-0.978,2.281
2024-11-02 22:09:04.697,37701.924,0.523,0.829,-0.197,-0.003,-0.004,0.012,-0.007,-0.042,0.026,1.211,-0.977,2.282
2024-11-02 22:09:04.707,37701.934,0.524,0.829,-0.197,-0.009,-0.005,0.013,-0.007,-0.038,0.032,1.211,-0.977,2.282
2024-11-02 22:09:04.717,37701.944,0.524,0.829,-0.197,-0.012,-0.005,0.012,-0.009,-0.043,0.036,1.211,-0.977,2.282
2024-11-02 22:09:04.727,37701.954,0.524,0.829,-0.197,-0.013,-0.013,0.012,-0.021,-0.046,0.037,1.211,-0.977,2.283
2024-11-02 22:09:04.737,37701.964,0.524,0.829,-0.197,-0.011,-0.022,0.012,-0.028,-0.056,0.028,1.211,-0.976,2.284
2024-11-02 22:09:04.747,37701.974,0.524,0.828,-0.197,-0.008,-0.008,0.013,-0.035,-0.054,0.022,1.211,-0.976,2.284
2024-11-02 22:09:04.757,37701.984,0.524,0.828,-0.197,-0.008,0.009,0.014,-0.042,-0.05,0.021,1.211,-0.976,2.285
2024-11-02 22:09:04.767,37701.994,0.524,0.828,-0.197,-0.016,0.008,0.012,-0.06,-0.054,0.024,1.211,-0.976,2.286
2024-11-02 22:09:04.777,37702.004,0.524,0.828,-0.197,-0.018,0.0,0.012,-0.083,-0.054,0.021,1.212,-0.976,2.287
2024-11-02 22:09:04.787,37702.014,0.524,0.829,-0.196,-0.013,-0.001,0.01,-0.087,-0.049,0.021,1.213,-0.976,2.289
2024-11-02 22:09:04.797,37702.024,0.525,0.829,-0.196,-0.012,-0.0,0.013,-0.079,-0.035,0.027,1.214,-0.977,2.291
2024-11-02 22:09:04.807,37702.034,0.525,0.829,-0.195,-0.012,0.001,0.013,-0.091,-0.051,0.027,1.215,-0.977,2.292
2024-11-02 22:09:04.817,37702.044,0.525,0.829,-0.195,-0.008,0.002,0.01,-0.058,-0.058,0.037,1.215,-0.977,2.294
2024-11-02 22:09:04.827,37702.054,0.525,0.829,-0.195,-0.006,-0.001,0.012,-0.036,-0.063,0.029,1.216,-0.976,2.295
2024-11-02 22:09:04.837,37702.064,0.525,0.828,-0.195,-0.005,0.003,0.012,-0.024,-0.049,0.026,1.216,-0.976,2.295
2024-11-02 22:09:04.847,37702.074,0.525,0.828,-0.195,-0.016,0.018,0.018,-0.03,-0.045,0.024,1.216,-0.976,2.296
2024-11-02 22:09:04.857,37702.084,0.525,0.828,-0.195,-0.024,0.007,0.024,-0.02,-0.053,0.022,1.216,-0.976,2.297
2024-11-02 22:09:04.867,37702.094,0.525,0.828,-0.195,-0.025,-0.006,0.025,-0.011,-0.061,0.02,1.215,-0.976,2.297
2024-11-02 22:09:04.877,37702.104,0.525,0.828,-0.195,-0.021,-0.007,0.018,-0.007,-0.043,0.018,1.215,-0.976,2.297
2024-11-02 22:09:04.887,37702.114,0.525,0.828,-0.195,-0.022,-0.0,0.014,-0.009,-0.024,0.015,1.215,-0.976,2.298
2024-11-02 22:09:04.897,37702.124,0.525,0.828,-0.195,-0.023,0.003,0.012,-0.025,-0.024,0.007,1.215,-0.976,2.298
2024-11-02 22:09:04.907,37702.134,0.525,0.828,-0.195,-0.012,0.002,0.008,-0.033,-0.035,0.002,1.215,-0.976,2.298
2024-11-02 22:09:04.917,37702.144,0.525,0.828,-0.195,-0.002,-0.004,0.009,-0.033,-0.039,0.005,1.215,-0.976,2.299
2024-11-02 22:09:04.927,37702.154,0.525,0.828,-0.195,0.001,-0.01,0.01,-0.012,-0.033,0.016,1.215,-0.976,2.3
2024-11-02 22:09:04.937,37702.164,0.525,0.828,-0.195,-0.005,-0.011,0.013,-0.005,-0.026,0.022,1.215,-0.976,2.3
2024-11-02 22:09:04.947,37702.174,0.525,0.828,-0.195,-0.01,-0.004,0.013,0.002,-0.012,0.028,1.215,-0.976,2.3
2024-11-02 22:09:04.957,37702.184,0.526,0.828,-0.195,-0.011,0.005,0.016,-0.014,-0.016,0.027,1.216,-0.976,2.3
2024-11-02 22:09:04.967,37702.194,0.526,0.828,-0.195,-0.01,0.002,0.017,-0.017,-0.013,0.023,1.216,-0.976,2.301
2024-11-02 22:09:04.977,37702.204,0.526,0.828,-0.195,-0.01,0.004,0.011,-0.038,-0.011,0.028,1.216,-0.976,2.301
2024-11-02 22:09:04.986,37702.214,0.526,0.828,-0.194,-0.007,0.01,0.006,-0.048,-0.001,0.031,1.217,-0.975,2.302
2024-11-02 22:09:04.997,37702.224,0.526,0.828,-0.194,-0.009,0.011,0.005,-0.057,0.003,0.039,1.218,-0.975,2.303
2024-11-02 22:09:05.006,37702.233,0.527,0.828,-0.193,-0.011,0.008,0.004,-0.06,0.008,0.043,1.219,-0.975,2.305
2024-11-02 22:09:05.016,37702.243,0.527,0.828,-0.193,-0.01,0.011,0.009,-0.07,0.013,0.054,1.22,-0.975,2.306
2024-11-02 22:09:05.026,37702.253,0.528,0.827,-0.192,-0.012,0.013,0.015,-0.089,0.024,0.062,1.222,-0.975,2.308
2024-11-02 22:09:05.036,37702.263,0.528,0.827,-0.191,-0.013,0.01,0.021,-0.094,0.013,0.073,1.224,-0.974,2.31
2024-11-02 22:09:05.046,37702.273,0.529,0.827,-0.19,-0.011,0.009,0.02,-0.074,0.003,0.084,1.225,-0.974,2.312
2024-11-02 22:09:05.056,37702.283,0.53,0.827,-0.19,-0.001,0.014,0.015,-0.057,-0.0,0.099,1.227,-0.973,2.313
2024-11-02 22:09:05.066,37702.293,0.53,0.826,-0.189,0.001,0.015,0.003,-0.041,0.006,0.116,1.228,-0.973,2.315
2024-11-02 22:09:05.076,37702.303,0.531,0.826,-0.189,-0.001,0.009,-0.01,-0.042,0.013,0.122,1.229,-0.972,2.316
2024-11-02 22:09:05.087,37702.313,0.532,0.825,-0.188,0.002,0.012,-0.014,-0.051,0.016,0.12,1.231,-0.971,2.318
2024-11-02 22:09:05.097,37702.323,0.533,0.825,-0.188,0.007,0.011,-0.013,-0.066,0.029,0.12,1.232,-0.97,2.319
2024-11-02 22:09:05.106,37702.333,0.534,0.824,-0.187,0.007,0.003,-0.01,-0.094,0.041,0.125,1.234,-0.969,2.321
2024-11-02 22:09:05.116,37702.343,0.535,0.824,-0.186,0.001,-0.006,-0.003,-0.118,0.047,0.12,1.237,-0.968,2.324
2024-11-02 22:09:05.127,37702.353,0.536,0.824,-0.184,0.002,-0.006,0.003,-0.133,0.042,0.11,1.24,-0.968,2.327
2024-11-02 22:09:05.136,37702.363,0.537,0.823,-0.183,0.004,-0.005,0.007,-0.115,0.04,0.098,1.242,-0.967,2.329
2024-11-02 22:09:05.146,37702.373,0.538,0.823,-0.182,0.002,-0.002,0.007,-0.083,0.043,0.1,1.244,-0.966,2.332
2024-11-02 22:09:05.157,37702.383,0.539,0.823,-0.181,-0.005,-0.002,0.005,-0.067,0.045,0.097,1.246,-0.966,2.333
2024-11-02 22:09:05.166,37702.393,0.54,0.822,-0.181,-0.009,0.004,0.007,-0.036,0.035,0.097,1.248,-0.965,2.335
2024-11-02 22:09:05.176,37702.403,0.541,0.822,-0.18,-0.01,0.001,0.001,-0.018,0.019,0.096,1.249,-0.964,2.336
2024-11-02 22:09:05.186,37702.413,0.542,0.821,-0.18,-0.006,-0.002,-0.008,-0.007,0.019,0.103,1.249,-0.963,2.336
2024-11-02 22:09:05.196,37702.423,0.542,0.821,-0.18,-0.005,0.002,-0.014,-0.02,0.018,0.107,1.25,-0.962,2.337
2024-11-02 22:09:05.206,37702.433,0.543,0.82,-0.18,-0.011,-0.006,-0.015,-0.025,0.004,0.105,1.251,-0.961,2.338
2024-11-02 22:09:05.216,37702.443,0.544,0.82,-0.18,-0.004,-0.009,-0.009,-0.019,0.008,0.091,1.252,-0.961,2.339
2024-11-02 22:09:05.227,37702.453,0.545,0.819,-0.179,0.001,-0.001,0.001,-0.016,0.018,0.082,1.253,-0.96,2.34
2024-11-02 22:09:05.236,37702.463,0.546,0.819,-0.179,-0.004,0.003,0.011,-0.019,0.021,0.069,1.253,-0.959,2.34
2024-11-02 22:09:05.246,37702.473,0.546,0.818,-0.179,-0.009,0.005,0.015,-0.021,0.026,0.061,1.254,-0.959,2.341
2024-11-02 22:09:05.256,37702.483,0.547,0.818,-0.179,-0.009,-0.001,0.015,-0.024,0.02,0.054,1.255,-0.958,2.342
2024-11-02 22:09:05.266,37702.493,0.547,0.818,-0.178,-0.006,-0.006,0.014,-0.018,0.014,0.047,1.255,-0.958,2.342
2024-11-02 22:09:05.276,37702.503,0.547,0.818,-0.178,-0.004,-0.004,0.009,-0.015,0.005,0.043,1.256,-0.957,2.343
2024-11-02 22:09:05.286,37702.513,0.548,0.818,-0.178,-0.005,-0.005,0.004,0.005,-0.004,0.036,1.256,-0.957,2.343
2024-11-02 22:09:05.296,37702.523,0.548,0.817,-0.178,-0.004,-0.008,-0.003,0.007,-0.006,0.032,1.256,-0.957,2.343
2024-11-02 22:09:05.306,37702.533,0.548,0.817,-0.178,-0.001,-0.005,-0.011,0.006,0.002,0.027,1.256,-0.956,2.343
2024-11-02 22:09:05.316,37702.543,0.548,0.817,-0.178,-0.001,0.002,-0.012,-0.05,0.014,0.008,1.256,-0.956,2.343
2024-11-02 22:09:05.326,37702.553,0.548,0.817,-0.177,0.001,-0.01,0.001,-0.107,0.055,-0.038,1.258,-0.957,2.345
2024-11-02 22:09:05.336,37702.563,0.548,0.818,-0.176,0.005,-0.021,0.03,-0.117,0.089,-0.088,1.26,-0.958,2.346
2024-11-02 22:09:05.346,37702.573,0.547,0.819,-0.175,0.004,-0.054,0.069,0.004,0.069,-0.103,1.261,-0.959,2.347
2024-11-02 22:09:05.356,37702.583,0.546,0.819,-0.176,0.021,-0.086,0.116,0.258,0.012,-0.125,1.259,-0.96,2.344
2024-11-02 22:09:05.366,37702.593,0.545,0.819,-0.179,0.06,-0.095,0.182,0.48,-0.039,-0.164,1.254,-0.96,2.337
2024-11-02 22:09:05.376,37702.603,0.543,0.819,-0.184,0.094,-0.089,0.295,0.774,-0.102,-0.232,1.244,-0.96,2.326
2024-11-02 22:09:05.386,37702.613,0.541,0.819,-0.193,0.098,-0.058,0.417,1.056,-0.152,-0.349,1.229,-0.96,2.309
2024-11-02 22:09:05.396,37702.623,0.538,0.818,-0.203,0.082,-0.057,0.458,1.263,-0.219,-0.311,1.209,-0.959,2.288
2024-11-02 22:09:05.406,37702.633,0.535,0.817,-0.215,0.041,-0.077,0.365,1.266,-0.36,-0.254,1.188,-0.957,2.266
2024-11-02 22:09:05.416,37702.643,0.532,0.816,-0.228,0.01,-0.121,0.152,1.273,-0.591,-0.207,1.166,-0.954,2.244
2024-11-02 22:09:05.426,37702.653,0.529,0.814,-0.241,-0.023,-0.139,-0.083,1.084,-0.627,-0.132,1.143,-0.951,2.224
2024-11-02 22:09:05.436,37702.663,0.527,0.812,-0.252,-0.039,-0.075,-0.26,0.749,-0.585,-0.062,1.125,-0.948,2.209
2024-11-02 22:09:05.446,37702.673,0.525,0.811,-0.259,-0.051,-0.057,-0.309,0.329,-0.504,-0.045,1.112,-0.946,2.2
2024-11-02 22:09:05.456,37702.683,0.523,0.811,-0.263,-0.054,-0.05,-0.294,-0.05,-0.444,-0.066,1.106,-0.946,2.198
2024-11-02 22:09:05.466,37702.693,0.521,0.812,-0.263,-0.024,-0.014,-0.238,-0.268,-0.355,-0.092,1.103,-0.947,2.2
2024-11-02 22:09:05.477,37702.703,0.52,0.813,-0.262,0.005,-0.014,-0.207,-0.399,-0.266,-0.153,1.104,-0.95,2.204
2024-11-02 22:09:05.485,37702.713,0.518,0.815,-0.259,0.015,-0.012,-0.225,-0.523,-0.091,-0.162,1.107,-0.953,2.21
2024-11-02 22:09:05.495,37702.723,0.516,0.818,-0.255,-0.003,0.013,-0.229,-0.59,0.036,-0.197,1.112,-0.957,2.217
2024-11-02 22:09:05.506,37702.733,0.515,0.82,-0.249,-0.03,-0.004,-0.227,-0.683,0.129,-0.186,1.12,-0.962,2.225
2024-11-02 22:09:05.516,37702.743,0.514,0.823,-0.243,-0.035,-0.034,-0.219,-0.743,0.196,-0.143,1.13,-0.966,2.235
2024-11-02 22:09:05.526,37702.753,0.514,0.825,-0.235,-0.028,-0.035,-0.173,-0.751,0.248,-0.092,1.141,-0.971,2.247
2024-11-02 22:09:05.536,37702.763,0.514,0.827,-0.228,-0.039,-0.014,-0.135,-0.654,0.296,-0.021,1.153,-0.974,2.258
2024-11-02 22:09:05.546,37702.773,0.515,0.828,-0.221,-0.05,0.017,-0.089,-0.536,0.306,0.061,1.164,-0.976,2.268
2024-11-02 22:09:05.556,37702.783,0.516,0.829,-0.216,-0.044,0.045,-0.051,-0.413,0.29,0.12,1.174,-0.977,2.276
2024-11-02 22:09:05.566,37702.793,0.518,0.829,-0.212,-0.023,0.084,-0.011,-0.302,0.268,0.14,1.183,-0.977,2.283
2024-11-02 22:09:05.576,37702.803,0.519,0.829,-0.208,-0.006,0.102,0.024,-0.19,0.239,0.133,1.189,-0.977,2.288
2024-11-02 22:09:05.586,37702.813,0.521,0.828,-0.206,0.004,0.094,0.039,-0.088,0.222,0.132,1.194,-0.976,2.291
2024-11-02 22:09:05.596,37702.822,0.522,0.828,-0.204,0.01,0.086,0.038,-0.033,0.181,0.139,1.198,-0.975,2.293
2024-11-02 22:09:05.606,37702.832,0.524,0.827,-0.204,0.017,0.063,0.025,0.017,0.14,0.152,1.2,-0.974,2.294
2024-11-02 22:09:05.616,37702.842,0.525,0.826,-0.203,0.029,0.043,0.011,0.038,0.103,0.171,1.202,-0.972,2.294
2024-11-02 22:09:05.625,37702.852,0.527,0.825,-0.203,0.034,0.045,0.002,0.067,0.083,0.188,1.203,-0.97,2.295
2024-11-02 22:09:05.636,37702.862,0.529,0.824,-0.203,0.035,0.063,-0.0,0.099,0.083,0.189,1.204,-0.968,2.294
2024-11-02 22:09:05.645,37702.872,0.531,0.823,-0.204,0.029,0.057,0.001,0.126,0.085,0.18,1.204,-0.966,2.294
2024-11-02 22:09:05.655,37702.882,0.532,0.822,-0.204,0.026,0.042,0.003,0.131,0.099,0.173,1.204,-0.964,2.293
2024-11-02 22:09:05.665,37702.892,0.534,0.82,-0.205,0.021,0.032,0.002,0.125,0.094,0.189,1.204,-0.962,2.292
2024-11-02 22:09:05.675,37702.902,0.535,0.819,-0.205,0.021,0.018,-0.001,0.071,0.042,0.14,1.205,-0.96,2.291
2024-11-02 22:09:05.685,37702.912,0.536,0.818,-0.206,0.036,-0.001,-0.002,0.058,0.029,0.112,1.205,-0.959,2.291
2024-11-02 22:09:05.696,37702.922,0.537,0.818,-0.206,0.034,-0.003,0.007,0.073,0.067,0.105,1.205,-0.958,2.291
2024-11-02 22:09:05.705,37702.932,0.538,0.817,-0.206,0.005,-0.0,0.004,0.036,0.083,0.09,1.205,-0.956,2.29
2024-11-02 22:09:05.715,37702.942,0.539,0.817,-0.206,-0.012,-0.016,0.008,0.004,0.06,0.075,1.206,-0.956,2.29
2024-11-02 22:09:05.725,37702.952,0.54,0.816,-0.205,0.0,-0.036,0.024,-0.018,0.045,0.071,1.207,-0.955,2.291
2024-11-02 22:09:05.736,37702.962,0.541,0.816,-0.205,0.014,-0.045,0.034,-0.016,0.058,0.061,1.208,-0.954,2.292
2024-11-02 22:09:05.745,37702.972,0.541,0.816,-0.205,0.007,-0.038,0.043,0.005,0.075,0.062,1.209,-0.954,2.292
2024-11-02 22:09:05.755,37702.982,0.542,0.815,-0.204,-0.007,-0.02,0.043,0.008,0.077,0.065,1.21,-0.953,2.293
2024-11-02 22:09:05.765,37702.992,0.543,0.815,-0.204,-0.005,-0.006,0.042,-0.0,0.059,0.065,1.211,-0.953,2.293
2024-11-02 22:09:05.775,37703.002,0.543,0.815,-0.204,0.008,-0.006,0.039,-0.004,0.039,0.067,1.212,-0.952,2.293
2024-11-02 22:09:05.785,37703.012,0.544,0.814,-0.203,0.015,-0.011,0.032,0.02,0.03,0.07,1.213,-0.951,2.294
2024-11-02 22:09:05.796,37703.022,0.545,0.814,-0.203,0.017,-0.016,0.03,0.012,0.019,0.089,1.213,-0.951,2.294
2024-11-02 22:09:05.805,37703.032,0.545,0.813,-0.203,0.019,-0.017,0.033,-0.003,0.017,0.098,1.214,-0.95,2.294
2024-11-02 22:09:05.815,37703.042,0.546,0.813,-0.203,0.023,-0.014,0.032,-0.023,0.017,0.101,1.215,-0.949,2.295
2024-11-02 22:09:05.825,37703.052,0.547,0.812,-0.203,0.025,-0.016,0.022,-0.027,0.007,0.087,1.216,-0.948,2.297
2024-11-02 22:09:05.835,37703.062,0.548,0.812,-0.202,0.031,-0.0,0.019,-0.006,0.017,0.075,1.217,-0.947,2.297
2024-11-02 22:09:05.846,37703.072,0.548,0.811,-0.202,0.03,0.004,0.016,-0.01,0.026,0.074,1.218,-0.947,2.298
2024-11-02 22:09:05.855,37703.082,0.549,0.811,-0.202,0.021,-0.003,0.012,-0.015,0.023,0.08,1.219,-0.946,2.299
2024-11-02 22:09:05.865,37703.092,0.55,0.811,-0.202,0.018,-0.005,0.019,-0.012,-0.0,0.081,1.22,-0.945,2.3
2024-11-02 22:09:05.875,37703.102,0.551,0.81,-0.201,0.02,0.001,0.022,-0.027,-0.013,0.081,1.22,-0.944,2.301
2024-11-02 22:09:05.885,37703.112,0.551,0.81,-0.201,0.017,0.004,0.024,-0.038,-0.012,0.071,1.221,-0.944,2.302
2024-11-02 22:09:05.896,37703.122,0.552,0.809,-0.201,0.003,-0.008,0.028,-0.039,-0.025,0.067,1.222,-0.943,2.303
2024-11-02 22:09:05.905,37703.132,0.552,0.809,-0.201,-0.001,-0.021,0.026,-0.055,-0.055,0.062,1.223,-0.943,2.304
2024-11-02 22:09:05.915,37703.142,0.553,0.809,-0.2,0.011,-0.034,0.025,-0.068,-0.087,0.06,1.223,-0.942,2.306
2024-11-02 22:09:05.925,37703.152,0.553,0.809,-0.2,0.02,-0.042,0.021,-0.067,-0.116,0.055,1.223,-0.942,2.307
2024-11-02 22:09:05.935,37703.162,0.553,0.809,-0.201,0.026,-0.038,0.012,-0.044,-0.137,0.046,1.223,-0.942,2.308
2024-11-02 22:09:05.945,37703.172,0.553,0.808,-0.201,0.028,-0.025,-0.002,0.002,-0.141,0.052,1.222,-0.941,2.309
2024-11-02 22:09:05.955,37703.182,0.554,0.808,-0.202,0.026,-0.019,-0.017,0.05,-0.142,0.061,1.221,-0.941,2.309
2024-11-02 22:09:05.965,37703.192,0.554,0.807,-0.203,0.025,-0.006,-0.031,0.056,-0.156,0.076,1.219,-0.94,2.309
2024-11-02 22:09:05.975,37703.202,0.554,0.807,-0.204,0.025,0.01,-0.037,0.045,-0.171,0.071,1.217,-0.939,2.308
2024-11-02 22:09:05.985,37703.212,0.554,0.806,-0.206,0.024,0.014,-0.032,0.042,-0.168,0.073,1.215,-0.938,2.308
2024-11-02 22:09:05.996,37703.222,0.555,0.806,-0.207,0.016,0.013,-0.022,0.029,-0.152,0.074,1.214,-0.937,2.308
2024-11-02 22:09:06.005,37703.232,0.555,0.805,-0.208,0.008,0.014,-0.019,0.018,-0.131,0.077,1.213,-0.936,2.308
2024-11-02 22:09:06.015,37703.242,0.555,0.805,-0.209,0.001,0.005,-0.016,0.013,-0.123,0.08,1.212,-0.936,2.308
2024-11-02 22:09:06.025,37703.252,0.556,0.804,-0.209,-0.001,-0.006,-0.015,0.014,-0.117,0.083,1.211,-0.935,2.309
2024-11-02 22:09:06.035,37703.262,0.556,0.804,-0.21,-0.001,-0.005,-0.013,0.026,-0.096,0.097,1.21,-0.934,2.309
2024-11-02 22:09:06.045,37703.272,0.557,0.803,-0.211,-0.011,-0.006,-0.018,0.054,-0.081,0.106,1.209,-0.933,2.309
2024-11-02 22:09:06.055,37703.282,0.558,0.802,-0.212,-0.023,-0.019,-0.022,0.092,-0.06,0.109,1.208,-0.931,2.308
2024-11-02 22:09:06.065,37703.292,0.559,0.802,-0.213,-0.025,-0.02,-0.031,0.111,-0.025,0.112,1.206,-0.93,2.307
2024-11-02 22:09:06.075,37703.302,0.56,0.801,-0.214,-0.027,-0.016,-0.032,0.116,0.015,0.111,1.205,-0.928,2.306
2024-11-02 22:09:06.085,37703.312,0.56,0.8,-0.215,-0.034,-0.025,-0.025,0.104,0.046,0.105,1.205,-0.927,2.305
2024-11-02 22:09:06.095,37703.322,0.561,0.799,-0.215,-0.039,-0.031,-0.019,0.085,0.07,0.102,1.205,-0.926,2.304
2024-11-02 22:09:06.105,37703.332,0.562,0.798,-0.215,-0.039,-0.037,-0.009,0.058,0.082,0.104,1.205,-0.925,2.304
2024-11-02 22:09:06.115,37703.342,0.563,0.798,-0.215,-0.035,-0.043,-0.001,0.03,0.089,0.095,1.206,-0.923,2.304
2024-11-02 22:09:06.125,37703.352,0.564,0.797,-0.215,-0.032,-0.046,0.003,0.021,0.085,0.09,1.207,-0.922,2.304
2024-11-02 22:09:06.134,37703.362,0.565,0.797,-0.215,-0.031,-0.045,0.003,0.034,0.102,0.092,1.208,-0.922,2.304
2024-11-02 22:09:06.144,37703.372,0.566,0.796,-0.215,-0.031,-0.043,0.001,0.052,0.108,0.099,1.208,-0.921,2.304
2024-11-02 22:09:06.154,37703.382,0.567,0.795,-0.214,-0.029,-0.042,0.001,0.051,0.111,0.09,1.209,-0.919,2.303
2024-11-02 22:09:06.164,37703.392,0.568,0.795,-0.214,-0.019,-0.035,-0.002,0.041,0.117,0.087,1.21,-0.918,2.303
2024-11-02 22:09:06.174,37703.402,0.569,0.794,-0.214,-0.013,-0.033,-0.006,0.041,0.118,0.079,1.211,-0.918,2.303
2024-11-02 22:09:06.185,37703.412,0.57,0.794,-0.214,-0.004,-0.037,-0.002,0.055,0.124,0.056,1.212,-0.917,2.303
2024-11-02 22:09:06.195,37703.421,0.57,0.793,-0.213,0.007,-0.026,0.002,0.078,0.137,0.041,1.213,-0.916,2.302
2024-11-02 22:09:06.205,37703.431,0.571,0.793,-0.213,0.013,-0.01,0.01,0.075,0.146,0.027,1.213,-0.915,2.301
2024-11-02 22:09:06.214,37703.441,0.571,0.793,-0.213,0.011,-0.007,0.015,0.062,0.161,0.016,1.214,-0.915,2.3
2024-11-02 22:09:06.224,37703.451,0.572,0.792,-0.212,0.002,-0.004,0.018,0.063,0.179,0.007,1.215,-0.915,2.299
2024-11-02 22:09:06.234,37703.461,0.572,0.792,-0.212,-0.006,-0.001,0.023,0.059,0.186,-0.003,1.216,-0.915,2.298
2024-11-02 22:09:06.245,37703.471,0.573,0.792,-0.211,-0.012,-0.0,0.026,0.072,0.2,-0.014,1.217,-0.914,2.297
2024-11-02 22:09:06.255,37703.481,0.573,0.792,-0.211,-0.016,0.007,0.025,0.082,0.204,-0.025,1.218,-0.914,2.296
2024-11-02 22:09:06.265,37703.491,0.573,0.792,-0.21,-0.018,0.012,0.017,0.059,0.192,-0.038,1.219,-0.914,2.294
2024-11-02 22:09:06.274,37703.501,0.573,0.792,-0.209,-0.015,0.014,0.009,0.035,0.157,-0.055,1.22,-0.915,2.294
2024-11-02 22:09:06.284,37703.511,0.573,0.793,-0.209,-0.004,0.008,0.004,0.032,0.146,-0.062,1.221,-0.915,2.293
2024-11-02 22:09:06.295,37703.521,0.573,0.793,-0.208,0.002,0.004,-0.004,0.047,0.149,-0.071,1.222,-0.916,2.292
2024-11-02 22:09:06.305,37703.531,0.572,0.793,-0.208,0.0,0.011,-0.014,0.054,0.148,-0.076,1.222,-0.916,2.291
2024-11-02 22:09:06.315,37703.541,0.572,0.794,-0.207,0.004,0.014,-0.018,0.049,0.144,-0.076,1.223,-0.917,2.289
2024-11-02 22:09:06.325,37703.551,0.572,0.794,-0.207,0.019,0.01,-0.016,0.032,0.128,-0.076,1.224,-0.917,2.288
2024-11-02 22:09:06.334,37703.561,0.571,0.794,-0.206,0.031,0.007,-0.016,0.017,0.11,-0.08,1.224,-0.918,2.288
2024-11-02 22:09:06.344,37703.571,0.571,0.795,-0.206,0.041,0.004,-0.021,0.004,0.105,-0.076,1.225,-0.919,2.287
2024-11-02 22:09:06.354,37703.581,0.571,0.795,-0.205,0.044,-0.002,-0.021,0.002,0.093,-0.076,1.226,-0.919,2.287
2024-11-02 22:09:06.364,37703.591,0.57,0.796,-0.205,0.047,-0.002,-0.009,0.016,0.083,-0.08,1.226,-0.92,2.286
2024-11-02 22:09:06.374,37703.601,0.57,0.796,-0.205,0.051,0.004,-0.006,0.021,0.062,-0.078,1.226,-0.921,2.285
2024-11-02 22:09:06.384,37703.611,0.569,0.796,-0.204,0.056,0.008,0.0,0.041,0.049,-0.07,1.226,-0.921,2.284
2024-11-02 22:09:06.394,37703.621,0.569,0.797,-0.205,0.054,0.009,0.01,0.06,0.048,-0.062,1.225,-0.922,2.283
2024-11-02 22:09:06.404,37703.631,0.568,0.797,-0.205,0.046,0.01,0.008,0.065,0.039,-0.051,1.225,-0.922,2.282
2024-11-02 22:09:06.414,37703.641,0.568,0.797,-0.205,0.04,0.014,0.008,0.079,0.022,-0.041,1.224,-0.922,2.28
2024-11-02 22:09:06.424,37703.651,0.568,0.797,-0.206,0.04,0.008,0.01,0.076,0.002,-0.021,1.223,-0.922,2.279
2024-11-02 22:09:06.434,37703.661,0.568,0.797,-0.207,0.041,-0.001,0.013,0.074,-0.005,-0.007,1.222,-0.922,2.278
2024-11-02 22:09:06.444,37703.671,0.568,0.797,-0.207,0.034,-0.006,0.014,0.078,-0.007,0.004,1.221,-0.922,2.277
2024-11-02 22:09:06.455,37703.681,0.568,0.796,-0.208,0.025,-0.015,0.013,0.076,-0.016,0.012,1.22,-0.921,2.276
2024-11-02 22:09:06.464,37703.691,0.568,0.796,-0.209,0.027,-0.021,0.011,0.08,-0.02,0.007,1.219,-0.921,2.274
2024-11-02 22:09:06.474,37703.701,0.568,0.796,-0.209,0.028,-0.027,0.009,0.076,-0.018,0.007,1.218,-0.921,2.273
2024-11-02 22:09:06.484,37703.711,0.568,0.796,-0.21,0.026,-0.028,0.007,0.073,-0.022,0.006,1.217,-0.92,2.272
2024-11-02 22:09:06.494,37703.721,0.568,0.796,-0.211,0.021,-0.025,0.007,0.072,-0.023,0.006,1.216,-0.92,2.271
2024-11-02 22:09:06.504,37703.731,0.568,0.795,-0.211,0.016,-0.023,0.005,0.072,-0.023,0.004,1.215,-0.92,2.27
2024-11-02 22:09:06.514,37703.741,0.568,0.795,-0.212,0.007,-0.017,0.01,0.065,-0.029,0.004,1.214,-0.919,2.269
2024-11-02 22:09:06.524,37703.751,0.568,0.795,-0.213,-0.006,-0.017,0.022,0.076,-0.026,0.003,1.213,-0.919,2.268
2024-11-02 22:09:06.534,37703.761,0.568,0.795,-0.213,-0.015,-0.021,0.032,0.079,-0.035,0.014,1.212,-0.919,2.267
2024-11-02 22:09:06.544,37703.771,0.568,0.794,-0.214,-0.024,-0.023,0.037,0.078,-0.04,0.018,1.211,-0.918,2.266
2024-11-02 22:09:06.554,37703.781,0.568,0.794,-0.215,-0.023,-0.021,0.038,0.074,-0.04,0.019,1.209,-0.918,2.265
2024-11-02 22:09:06.564,37703.791,0.569,0.794,-0.216,-0.023,-0.023,0.037,0.063,-0.039,0.013,1.208,-0.917,2.264
2024-11-02 22:09:06.574,37703.801,0.569,0.794,-0.216,-0.025,-0.027,0.033,0.059,-0.03,0.005,1.207,-0.917,2.263
2024-11-02 22:09:06.584,37703.811,0.569,0.794,-0.217,-0.023,-0.029,0.029,0.045,-0.029,-0.009,1.206,-0.917,2.263
2024-11-02 22:09:06.594,37703.821,0.568,0.794,-0.217,-0.021,-0.031,0.02,0.023,-0.013,-0.01,1.206,-0.917,2.262
2024-11-02 22:09:06.604,37703.831,0.568,0.794,-0.217,-0.02,-0.029,0.014,0.025,-0.004,-0.025,1.205,-0.917,2.262
2024-11-02 22:09:06.614,37703.841,0.568,0.794,-0.218,-0.018,-0.03,0.009,0.015,0.023,-0.031,1.205,-0.917,2.261
2024-11-02 22:09:06.624,37703.851,0.568,0.794,-0.217,-0.017,-0.014,0.004,-0.004,0.028,-0.033,1.205,-0.917,2.261
2024-11-02 22:09:06.634,37703.861,0.568,0.794,-0.217,-0.014,-0.004,0.007,-0.011,0.022,-0.039,1.205,-0.917,2.261
2024-11-02 22:09:06.644,37703.871,0.567,0.794,-0.217,-0.011,-0.011,0.008,-0.017,0.018,-0.039,1.206,-0.918,2.261
2024-11-02 22:09:06.654,37703.881,0.567,0.795,-0.217,-0.012,-0.011,0.009,-0.02,0.011,-0.032,1.206,-0.918,2.261
2024-11-02 22:09:06.664,37703.891,0.567,0.795,-0.217,-0.017,-0.005,0.008,-0.013,0.001,-0.035,1.206,-0.919,2.261
2024-11-02 22:09:06.674,37703.901,0.567,0.795,-0.217,-0.023,-0.005,0.01,-0.003,-0.009,-0.026,1.206,-0.919,2.261
2024-11-02 22:09:06.684,37703.911,0.566,0.795,-0.217,-0.026,-0.009,0.011,-0.003,-0.008,-0.019,1.206,-0.919,2.261
2024-11-02 22:09:06.694,37703.921,0.566,0.795,-0.217,-0.032,-0.015,0.012,-0.015,-0.015,-0.024,1.206,-0.919,2.261
2024-11-02 22:09:06.704,37703.931,0.566,0.795,-0.217,-0.032,-0.027,0.012,-0.003,-0.029,-0.036,1.205,-0.92,2.261
2024-11-02 22:09:06.714,37703.941,0.566,0.796,-0.217,-0.02,-0.033,0.007,0.009,-0.029,-0.043,1.205,-0.92,2.261
2024-11-02 22:09:06.724,37703.951,0.565,0.796,-0.217,-0.006,-0.027,-0.001,0.018,-0.021,-0.056,1.204,-0.921,2.26
2024-11-02 22:09:06.734,37703.961,0.565,0.796,-0.217,0.002,-0.024,-0.015,0.013,-0.021,-0.064,1.203,-0.921,2.26
2024-11-02 22:09:06.743,37703.971,0.564,0.797,-0.218,0.011,-0.019,-0.024,0.018,-0.03,-0.068,1.203,-0.922,2.259
2024-11-02 22:09:06.754,37703.981,0.563,0.797,-0.218,0.016,-0.015,-0.024,0.018,-0.018,-0.072,1.202,-0.922,2.258
2024-11-02 22:09:06.764,37703.991,0.563,0.797,-0.218,0.012,-0.012,-0.029,0.007,-0.007,-0.074,1.201,-0.923,2.258
2024-11-02 22:09:06.773,37704.001,0.562,0.798,-0.218,0.002,-0.013,-0.03,-0.014,-0.008,-0.081,1.201,-0.924,2.257
2024-11-02 22:09:06.783,37704.01,0.561,0.798,-0.218,-0.0,-0.024,-0.025,-0.025,-0.01,-0.087,1.201,-0.924,2.257
2024-11-02 22:09:06.794,37704.02,0.561,0.799,-0.218,0.001,-0.035,-0.02,-0.036,-0.005,-0.095,1.201,-0.925,2.257
2024-11-02 22:09:06.803,37704.03,0.56,0.8,-0.217,0.003,-0.036,-0.014,-0.049,-0.005,-0.104,1.201,-0.926,2.257
2024-11-02 22:09:06.813,37704.04,0.559,0.8,-0.217,0.007,-0.037,-0.011,-0.069,-0.005,-0.109,1.201,-0.928,2.257
2024-11-02 22:09:06.823,37704.05,0.558,0.801,-0.216,0.018,-0.039,-0.014,-0.073,0.0,-0.116,1.201,-0.929,2.258
2024-11-02 22:09:06.834,37704.06,0.557,0.802,-0.216,0.029,-0.033,-0.019,-0.073,-0.002,-0.112,1.201,-0.93,2.258
2024-11-02 22:09:06.844,37704.07,0.556,0.803,-0.215,0.039,-0.024,-0.026,-0.077,-0.006,-0.111,1.202,-0.931,2.258
2024-11-02 22:09:06.853,37704.08,0.556,0.803,-0.215,0.048,-0.015,-0.031,-0.08,-0.009,-0.105,1.202,-0.933,2.259
2024-11-02 22:09:06.863,37704.09,0.555,0.804,-0.214,0.046,-0.019,-0.034,-0.089,-0.016,-0.097,1.202,-0.934,2.26
2024-11-02 22:09:06.873,37704.1,0.554,0.805,-0.214,0.048,-0.019,-0.032,-0.099,-0.028,-0.091,1.203,-0.935,2.26
2024-11-02 22:09:06.883,37704.11,0.553,0.805,-0.213,0.051,-0.015,-0.023,-0.104,-0.044,-0.087,1.203,-0.936,2.261
2024-11-02 22:09:06.894,37704.12,0.553,0.806,-0.213,0.055,-0.017,-0.017,-0.108,-0.064,-0.088,1.203,-0.937,2.263
2024-11-02 22:09:06.903,37704.13,0.552,0.806,-0.212,0.055,-0.02,-0.011,-0.103,-0.077,-0.078,1.204,-0.938,2.264
2024-11-02 22:09:06.913,37704.14,0.551,0.807,-0.212,0.051,-0.019,-0.008,-0.096,-0.084,-0.066,1.204,-0.939,2.265
2024-11-02 22:09:06.923,37704.15,0.551,0.807,-0.212,0.046,-0.02,-0.009,-0.093,-0.082,-0.053,1.204,-0.94,2.266
2024-11-02 22:09:06.933,37704.16,0.55,0.808,-0.211,0.041,-0.016,-0.01,-0.09,-0.08,-0.034,1.204,-0.94,2.267
2024-11-02 22:09:06.943,37704.17,0.55,0.808,-0.211,0.036,-0.017,-0.007,-0.088,-0.081,-0.018,1.204,-0.941,2.268
2024-11-02 22:09:06.953,37704.18,0.55,0.808,-0.211,0.029,-0.021,-0.007,-0.089,-0.077,-0.003,1.204,-0.941,2.27
2024-11-02 22:09:06.964,37704.19,0.55,0.808,-0.211,0.02,-0.025,-0.012,-0.082,-0.076,0.004,1.204,-0.941,2.271
2024-11-02 22:09:06.973,37704.2,0.55,0.808,-0.211,0.01,-0.029,-0.022,-0.07,-0.053,0.024,1.205,-0.941,2.272
2024-11-02 22:09:06.983,37704.21,0.55,0.808,-0.21,-0.001,-0.032,-0.025,-0.067,-0.045,0.016,1.205,-0.941,2.273
2024-11-02 22:09:06.993,37704.22,0.55,0.808,-0.21,-0.003,-0.038,-0.021,-0.058,-0.028,0.001,1.206,-0.941,2.274
2024-11-02 22:09:07.003,37704.23,0.55,0.808,-0.21,0.004,-0.029,-0.022,-0.043,-0.032,-0.01,1.206,-0.941,2.275
2024-11-02 22:09:07.014,37704.24,0.55,0.808,-0.21,0.015,-0.02,-0.024,-0.031,-0.03,-0.02,1.206,-0.941,2.276
2024-11-02 22:09:07.023,37704.25,0.55,0.809,-0.21,0.017,-0.015,-0.03,-0.015,-0.031,-0.016,1.206,-0.942,2.276
2024-11-02 22:09:07.033,37704.26,0.55,0.809,-0.21,0.014,-0.004,-0.036,-0.001,-0.021,-0.017,1.206,-0.942,2.276
2024-11-02 22:09:07.043,37704.27,0.55,0.809,-0.21,0.008,0.007,-0.045,0.014,-0.029,-0.017,1.206,-0.942,2.276
2024-11-02 22:09:07.053,37704.28,0.549,0.809,-0.21,0.001,0.002,-0.05,0.003,-0.022,-0.014,1.205,-0.942,2.275
2024-11-02 22:09:07.063,37704.29,0.549,0.809,-0.21,-0.004,-0.005,-0.047,-0.026,-0.007,-0.015,1.205,-0.942,2.275
2024-11-02 22:09:07.073,37704.3,0.549,0.809,-0.21,-0.007,-0.006,-0.041,-0.071,0.014,-0.025,1.205,-0.942,2.276
2024-11-02 22:09:07.083,37704.31,0.549,0.809,-0.209,-0.01,-0.011,-0.029,-0.095,0.017,-0.045,1.206,-0.943,2.277
2024-11-02 22:09:07.094,37704.32,0.549,0.81,-0.209,-0.004,-0.02,-0.019,-0.099,0.017,-0.067,1.208,-0.944,2.278
2024-11-02 22:09:07.103,37704.33,0.548,0.81,-0.208,0.007,-0.016,-0.012,-0.09,0.01,-0.086,1.208,-0.944,2.279
2024-11-02 22:09:07.114,37704.34,0.547,0.811,-0.207,0.012,-0.005,-0.01,-0.071,0.002,-0.098,1.209,-0.946,2.28
2024-11-02 22:09:07.123,37704.35,0.547,0.811,-0.207,0.007,-0.002,-0.01,-0.054,0.002,-0.105,1.209,-0.947,2.28
2024-11-02 22:09:07.133,37704.36,0.546,0.812,-0.207,-0.001,0.004,-0.012,-0.052,-0.002,-0.114,1.209,-0.948,2.28
2024-11-02 22:09:07.143,37704.37,0.545,0.813,-0.206,-0.007,0.011,-0.01,-0.058,-0.01,-0.122,1.209,-0.949,2.28
2024-11-02 22:09:07.153,37704.38,0.544,0.814,-0.206,-0.01,0.01,-0.007,-0.063,-0.02,-0.127,1.209,-0.95,2.28
2024-11-02 22:09:07.163,37704.39,0.543,0.814,-0.206,-0.015,-0.002,-0.013,-0.061,-0.021,-0.119,1.209,-0.952,2.28
2024-11-02 22:09:07.173,37704.4,0.542,0.815,-0.205,-0.014,-0.014,-0.02,-0.079,-0.019,-0.115,1.209,-0.953,2.281
2024-11-02 22:09:07.183,37704.41,0.541,0.816,-0.205,-0.008,-0.026,-0.023,-0.086,-0.031,-0.122,1.209,-0.954,2.281
2024-11-02 22:09:07.193,37704.42,0.54,0.817,-0.204,-0.001,-0.032,-0.018,-0.077,-0.037,-0.114,1.209,-0.956,2.282
2024-11-02 22:09:07.203,37704.43,0.539,0.817,-0.204,0.0,-0.034,-0.016,-0.069,-0.033,-0.107,1.209,-0.957,2.282
2024-11-02 22:09:07.213,37704.44,0.538,0.818,-0.204,-0.005,-0.035,-0.01,-0.055,-0.034,-0.109,1.209,-0.958,2.283
2024-11-02 22:09:07.223,37704.45,0.537,0.819,-0.203,-0.008,-0.033,-0.002,-0.034,-0.029,-0.108,1.209,-0.959,2.283
2024-11-02 22:09:07.233,37704.46,0.536,0.819,-0.203,-0.009,-0.028,0.003,-0.01,-0.019,-0.106,1.208,-0.96,2.282
2024-11-02 22:09:07.243,37704.47,0.535,0.82,-0.203,-0.014,-0.031,0.009,-0.025,-0.005,-0.109,1.207,-0.961,2.282
2024-11-02 22:09:07.253,37704.48,0.534,0.821,-0.203,-0.014,-0.045,0.019,-0.029,-0.018,-0.129,1.207,-0.963,2.282
2024-11-02 22:09:07.263,37704.49,0.533,0.821,-0.203,-0.011,-0.047,0.035,0.032,-0.052,-0.149,1.206,-0.964,2.281
2024-11-02 22:09:07.273,37704.5,0.531,0.822,-0.204,-0.006,-0.05,0.035,0.117,-0.129,-0.155,1.203,-0.965,2.278
2024-11-02 22:09:07.283,37704.51,0.53,0.823,-0.207,0.003,-0.048,0.017,0.294,-0.205,-0.213,1.198,-0.966,2.274
2024-11-02 22:09:07.293,37704.52,0.527,0.823,-0.212,0.013,-0.019,0.001,0.548,-0.197,-0.283,1.189,-0.967,2.266
2024-11-02 22:09:07.303,37704.53,0.525,0.823,-0.217,-0.016,0.009,-0.015,0.622,-0.09,-0.15,1.178,-0.967,2.254
2024-11-02 22:09:07.313,37704.54,0.524,0.822,-0.223,-0.077,0.013,-0.009,0.518,-0.22,-0.091,1.169,-0.965,2.244
2024-11-02 22:09:07.322,37704.55,0.522,0.822,-0.228,-0.044,-0.043,0.045,0.428,-0.37,-0.091,1.159,-0.964,2.236
2024-11-02 22:09:07.333,37704.56,0.521,0.821,-0.234,0.052,-0.076,0.109,0.469,-0.342,-0.072,1.149,-0.963,2.228
2024-11-02 22:09:07.342,37704.57,0.52,0.82,-0.239,0.072,-0.001,0.111,0.548,-0.211,-0.07,1.139,-0.962,2.22
2024-11-02 22:09:07.353,37704.58,0.518,0.819,-0.245,0.026,0.042,0.075,0.57,-0.191,-0.093,1.13,-0.96,2.21
2024-11-02 22:09:07.362,37704.59,0.517,0.819,-0.25,0.005,0.032,0.011,0.471,-0.208,-0.14,1.12,-0.959,2.201
2024-11-02 22:09:07.372,37704.599,0.515,0.818,-0.255,0.028,0.047,-0.048,0.327,-0.199,-0.196,1.112,-0.959,2.194
2024-11-02 22:09:07.382,37704.609,0.513,0.819,-0.257,0.03,0.051,-0.096,0.157,-0.163,-0.221,1.106,-0.96,2.188
2024-11-02 22:09:07.393,37704.619,0.511,0.82,-0.259,-0.002,0.016,-0.142,-0.041,-0.152,-0.217,1.102,-0.961,2.186
2024-11-02 22:09:07.403,37704.629,0.509,0.821,-0.258,-0.008,-0.022,-0.167,-0.22,-0.18,-0.21,1.101,-0.964,2.186
2024-11-02 22:09:07.412,37704.639,0.506,0.823,-0.257,0.02,-0.042,-0.153,-0.338,-0.201,-0.226,1.101,-0.967,2.189
2024-11-02 22:09:07.423,37704.649,0.504,0.825,-0.255,0.045,-0.049,-0.112,-0.371,-0.201,-0.259,1.102,-0.971,2.192
2024-11-02 22:09:07.433,37704.659,0.501,0.828,-0.253,0.055,-0.048,-0.073,-0.36,-0.198,-0.289,1.103,-0.975,2.196
2024-11-02 22:09:07.442,37704.669,0.498,0.83,-0.251,0.057,-0.046,-0.056,-0.331,-0.197,-0.317,1.104,-0.979,2.199
2024-11-02 22:09:07.452,37704.679,0.495,0.832,-0.25,0.057,-0.038,-0.046,-0.285,-0.209,-0.347,1.103,-0.983,2.201
2024-11-02 22:09:07.462,37704.689,0.491,0.835,-0.249,0.058,-0.041,-0.045,-0.235,-0.226,-0.369,1.102,-0.988,2.203
2024-11-02 22:09:07.472,37704.699,0.488,0.837,-0.248,0.062,-0.045,-0.043,-0.183,-0.247,-0.359,1.1,-0.992,2.203
2024-11-02 22:09:07.482,37704.709,0.484,0.839,-0.248,0.074,-0.047,-0.028,-0.136,-0.277,-0.344,1.097,-0.996,2.203
2024-11-02 22:09:07.493,37704.719,0.48,0.841,-0.248,0.085,-0.038,-0.011,-0.056,-0.301,-0.328,1.094,-0.999,2.202
2024-11-02 22:09:07.503,37704.729,0.477,0.843,-0.25,0.095,0.006,0.009,0.006,-0.316,-0.349,1.088,-1.002,2.199
2024-11-02 22:09:07.513,37704.739,0.473,0.844,-0.251,0.099,0.056,0.023,0.03,-0.317,-0.376,1.082,-1.005,2.196
2024-11-02 22:09:07.523,37704.749,0.469,0.846,-0.253,0.093,0.1,0.042,0.061,-0.307,-0.417,1.076,-1.009,2.191
2024-11-02 22:09:07.533,37704.759,0.464,0.848,-0.255,0.079,0.12,0.058,0.094,-0.311,-0.461,1.068,-1.012,2.186
2024-11-02 22:09:07.542,37704.769,0.46,0.85,-0.258,0.065,0.107,0.06,0.058,-0.346,-0.447,1.06,-1.016,2.181
2024-11-02 22:09:07.552,37704.779,0.455,0.852,-0.26,0.058,0.096,0.064,0.006,-0.386,-0.405,1.053,-1.019,2.176
2024-11-02 22:09:07.562,37704.789,0.451,0.854,-0.261,0.044,0.062,0.061,-0.027,-0.435,-0.405,1.045,-1.023,2.172
2024-11-02 22:09:07.572,37704.799,0.446,0.856,-0.263,0.009,-0.005,0.033,-0.056,-0.456,-0.435,1.038,-1.027,2.169
2024-11-02 22:09:07.582,37704.809,0.441,0.858,-0.265,-0.002,0.026,0.038,-0.005,-0.421,-0.462,1.03,-1.031,2.165
2024-11-02 22:09:07.592,37704.819,0.436,0.86,-0.266,0.009,0.1,0.069,0.011,-0.422,-0.491,1.022,-1.035,2.16
2024-11-02 22:09:07.602,37704.829,0.43,0.862,-0.268,0.012,0.11,0.073,0.019,-0.427,-0.547,1.013,-1.039,2.155
2024-11-02 22:09:07.612,37704.839,0.424,0.864,-0.27,0.027,0.112,0.095,0.046,-0.396,-0.598,1.003,-1.044,2.148
2024-11-02 22:09:07.622,37704.849,0.418,0.867,-0.273,0.034,0.106,0.112,0.058,-0.355,-0.653,0.993,-1.049,2.141
2024-11-02 22:09:07.632,37704.859,0.411,0.869,-0.274,0.029,0.085,0.106,0.002,-0.313,-0.674,0.982,-1.054,2.133
2024-11-02 22:09:07.642,37704.869,0.404,0.872,-0.275,0.018,0.063,0.088,-0.099,-0.276,-0.649,0.974,-1.06,2.126
2024-11-02 22:09:07.652,37704.879,0.398,0.875,-0.275,0.0,0.034,0.061,-0.212,-0.275,-0.62,0.967,-1.066,2.121
2024-11-02 22:09:07.662,37704.889,0.392,0.878,-0.273,-0.022,-0.015,0.018,-0.331,-0.289,-0.586,0.962,-1.072,2.119
2024-11-02 22:09:07.672,37704.899,0.386,0.882,-0.271,-0.039,-0.016,0.002,-0.384,-0.281,-0.561,0.959,-1.079,2.118
2024-11-02 22:09:07.682,37704.909,0.381,0.885,-0.269,-0.046,0.028,-0.008,-0.368,-0.257,-0.551,0.956,-1.086,2.118
2024-11-02 22:09:07.692,37704.919,0.375,0.888,-0.267,-0.06,0.056,-0.02,-0.319,-0.233,-0.539,0.953,-1.092,2.117
2024-11-02 22:09:07.702,37704.929,0.37,0.89,-0.265,-0.074,0.07,-0.026,-0.218,-0.178,-0.541,0.949,-1.098,2.115
2024-11-02 22:09:07.712,37704.939,0.365,0.893,-0.264,-0.074,0.075,-0.026,-0.154,-0.124,-0.525,0.944,-1.104,2.112
2024-11-02 22:09:07.722,37704.949,0.36,0.895,-0.263,-0.074,0.059,-0.021,-0.09,-0.077,-0.519,0.939,-1.109,2.107
2024-11-02 22:09:07.732,37704.959,0.355,0.897,-0.263,-0.061,0.033,-0.002,-0.101,-0.041,-0.526,0.933,-1.113,2.102
2024-11-02 22:09:07.742,37704.969,0.35,0.899,-0.262,-0.036,0.009,0.009,-0.131,-0.02,-0.541,0.928,-1.118,2.096
2024-11-02 22:09:07.752,37704.979,0.345,0.902,-0.26,-0.021,-0.002,0.016,-0.203,-0.002,-0.545,0.924,-1.124,2.092
2024-11-02 22:09:07.762,37704.989,0.34,0.904,-0.258,-0.022,-0.013,0.015,-0.266,0.028,-0.528,0.922,-1.129,2.089
2024-11-02 22:09:07.772,37704.999,0.336,0.907,-0.255,-0.032,0.001,0.014,-0.319,0.059,-0.511,0.92,-1.135,2.087
2024-11-02 22:09:07.783,37705.009,0.331,0.909,-0.252,-0.052,0.004,0.005,-0.327,0.073,-0.483,0.92,-1.141,2.086
2024-11-02 22:09:07.792,37705.019,0.327,0.911,-0.249,-0.064,-0.004,-0.001,-0.304,0.074,-0.457,0.92,-1.147,2.085
2024-11-02 22:09:07.802,37705.029,0.323,0.914,-0.247,-0.056,-0.011,0.007,-0.234,0.064,-0.436,0.919,-1.152,2.084
2024-11-02 22:09:07.812,37705.039,0.32,0.915,-0.244,-0.043,-0.017,0.02,-0.155,0.068,-0.417,0.918,-1.157,2.081
2024-11-02 22:09:07.822,37705.049,0.316,0.917,-0.243,-0.034,-0.029,0.039,-0.051,0.055,-0.409,0.915,-1.16,2.077
2024-11-02 22:09:07.832,37705.059,0.312,0.918,-0.243,-0.028,-0.046,0.053,0.035,0.046,-0.392,0.91,-1.164,2.071
2024-11-02 22:09:07.842,37705.069,0.309,0.919,-0.244,-0.028,-0.06,0.056,0.109,0.057,-0.366,0.903,-1.166,2.064
2024-11-02 22:09:07.852,37705.079,0.306,0.92,-0.245,-0.036,-0.062,0.057,0.144,0.073,-0.333,0.897,-1.168,2.055
2024-11-02 22:09:07.862,37705.089,0.303,0.921,-0.246,-0.046,-0.074,0.064,0.158,0.074,-0.31,0.89,-1.17,2.047
2024-11-02 22:09:07.872,37705.099,0.301,0.921,-0.247,-0.041,-0.093,0.072,0.114,0.073,-0.28,0.884,-1.171,2.04
2024-11-02 22:09:07.882,37705.109,0.298,0.922,-0.247,-0.032,-0.113,0.08,0.048,0.091,-0.268,0.879,-1.173,2.034
2024-11-02 22:09:07.892,37705.119,0.296,0.923,-0.247,-0.032,-0.139,0.085,-0.037,0.114,-0.237,0.876,-1.175,2.029
2024-11-02 22:09:07.902,37705.129,0.295,0.923,-0.246,-0.041,-0.178,0.086,-0.094,0.09,-0.2,0.875,-1.177,2.027
2024-11-02 22:09:07.912,37705.139,0.293,0.924,-0.245,-0.042,-0.212,0.086,-0.124,0.047,-0.17,0.875,-1.179,2.026
2024-11-02 22:09:07.922,37705.149,0.292,0.925,-0.244,-0.026,-0.21,0.08,-0.094,0.029,-0.132,0.875,-1.181,2.026
2024-11-02 22:09:07.932,37705.159,0.291,0.925,-0.243,-0.018,-0.164,0.069,0.013,0.015,-0.102,0.874,-1.182,2.025
2024-11-02 22:09:07.942,37705.169,0.29,0.925,-0.244,-0.035,-0.123,0.04,0.129,0.024,-0.087,0.872,-1.182,2.022
2024-11-02 22:09:07.952,37705.179,0.289,0.925,-0.246,-0.035,-0.061,0.015,0.287,0.058,-0.091,0.867,-1.182,2.016
2024-11-02 22:09:07.961,37705.188,0.289,0.925,-0.249,-0.027,0.011,0.008,0.379,0.086,-0.073,0.86,-1.18,2.008
2024-11-02 22:09:07.972,37705.198,0.288,0.924,-0.252,-0.022,0.049,-0.003,0.407,0.102,-0.063,0.853,-1.178,1.999
2024-11-02 22:09:07.982,37705.208,0.288,0.923,-0.255,-0.01,0.068,0.006,0.368,0.112,-0.046,0.846,-1.176,1.991
2024-11-02 22:09:07.992,37705.218,0.288,0.922,-0.258,-0.01,0.065,0.022,0.318,0.141,-0.006,0.84,-1.174,1.983
2024-11-02 22:09:08.001,37705.228,0.289,0.921,-0.26,-0.018,0.059,0.042,0.234,0.17,0.021,0.837,-1.172,1.978
2024-11-02 22:09:08.012,37705.238,0.29,0.921,-0.261,-0.029,0.051,0.061,0.124,0.168,0.081,0.836,-1.17,1.976
2024-11-02 22:09:08.022,37705.248,0.291,0.92,-0.262,-0.045,0.035,0.076,0.029,0.124,0.144,0.838,-1.169,1.976
2024-11-02 22:09:08.032,37705.258,0.293,0.92,-0.261,-0.05,0.024,0.092,0.003,0.077,0.204,0.842,-1.167,1.979
2024-11-02 22:09:08.042,37705.268,0.295,0.919,-0.261,-0.057,0.025,0.094,0.042,0.051,0.255,0.846,-1.166,1.982
2024-11-02 22:09:08.051,37705.278,0.298,0.918,-0.262,-0.068,0.029,0.091,0.117,0.036,0.301,0.849,-1.163,1.986
2024-11-02 22:09:08.062,37705.288,0.301,0.917,-0.263,-0.078,0.014,0.089,0.195,0.027,0.321,0.851,-1.16,1.988
2024-11-02 22:09:08.071,37705.298,0.304,0.915,-0.265,-0.082,-0.012,0.087,0.254,0.01,0.328,0.853,-1.156,1.989
2024-11-02 22:09:08.082,37705.308,0.307,0.913,-0.268,-0.082,-0.031,0.081,0.275,0.029,0.341,0.853,-1.151,1.989
2024-11-02 22:09:08.091,37705.318,0.31,0.912,-0.27,-0.085,-0.031,0.077,0.251,0.046,0.342,0.854,-1.147,1.99
2024-11-02 22:09:08.101,37705.328,0.313,0.91,-0.272,-0.089,-0.022,0.08,0.186,0.061,0.336,0.856,-1.143,1.991
2024-11-02 22:09:08.111,37705.338,0.316,0.908,-0.273,-0.09,-0.03,0.078,0.106,0.062,0.339,0.859,-1.14,1.994
2024-11-02 22:09:08.121,37705.348,0.32,0.907,-0.273,-0.082,-0.046,0.072,0.008,0.049,0.341,0.863,-1.137,1.998
2024-11-02 22:09:08.132,37705.358,0.323,0.906,-0.273,-0.07,-0.039,0.064,-0.076,0.046,0.351,0.869,-1.134,2.004
2024-11-02 22:09:08.141,37705.368,0.326,0.905,-0.272,-0.072,-0.026,0.053,-0.119,0.055,0.371,0.876,-1.132,2.011
2024-11-02 22:09:08.151,37705.378,0.33,0.904,-0.271,-0.09,-0.026,0.037,-0.128,0.056,0.409,0.884,-1.13,2.02
2024-11-02 22:09:08.161,37705.388,0.334,0.903,-0.269,-0.105,-0.015,0.015,-0.109,0.046,0.456,0.892,-1.127,2.028
2024-11-02 22:09:08.172,37705.398,0.339,0.902,-0.268,-0.114,0.004,-0.013,-0.095,0.054,0.493,0.901,-1.124,2.037
2024-11-02 22:09:08.181,37705.408,0.343,0.9,-0.267,-0.121,0.022,-0.029,-0.101,0.077,0.525,0.909,-1.121,2.046
2024-11-02 22:09:08.191,37705.418,0.348,0.899,-0.266,-0.131,0.051,-0.031,-0.14,0.128,0.532,0.919,-1.117,2.055
2024-11-02 22:09:08.201,37705.428,0.354,0.898,-0.263,-0.145,0.08,-0.024,-0.25,0.232,0.554,0.93,-1.114,2.066
2024-11-02 22:09:08.211,37705.438,0.359,0.896,-0.259,-0.163,0.087,-0.004,-0.424,0.316,0.565,0.945,-1.112,2.08
2024-11-02 22:09:08.221,37705.448,0.365,0.896,-0.254,-0.175,0.074,0.027,-0.586,0.346,0.546,0.964,-1.11,2.096
2024-11-02 22:09:08.231,37705.458,0.371,0.895,-0.247,-0.158,0.05,0.052,-0.63,0.312,0.517,0.983,-1.109,2.114
2024-11-02 22:09:08.241,37705.468,0.376,0.895,-0.241,-0.125,0.032,0.067,-0.497,0.232,0.465,1.001,-1.108,2.131
2024-11-02 22:09:08.251,37705.478,0.38,0.894,-0.236,-0.093,0.041,0.06,-0.303,0.229,0.421,1.015,-1.107,2.144
2024-11-02 22:09:08.261,37705.488,0.384,0.893,-0.234,-0.073,0.073,0.054,-0.081,0.229,0.396,1.025,-1.104,2.152
2024-11-02 22:09:08.271,37705.498,0.389,0.892,-0.233,-0.08,0.096,0.047,0.034,0.264,0.406,1.031,-1.101,2.157
2024-11-02 22:09:08.281,37705.508,0.393,0.89,-0.232,-0.092,0.101,0.024,0.047,0.286,0.437,1.037,-1.097,2.161
2024-11-02 22:09:08.292,37705.518,0.398,0.888,-0.231,-0.09,0.09,0.022,-0.017,0.248,0.446,1.044,-1.093,2.166
2024-11-02 22:09:08.301,37705.528,0.402,0.886,-0.229,-0.076,0.066,0.022,-0.14,0.226,0.457,1.052,-1.089,2.172
2024-11-02 22:09:08.311,37705.538,0.407,0.885,-0.227,-0.048,0.046,0.026,-0.277,0.196,0.461,1.062,-1.087,2.181
2024-11-02 22:09:08.321,37705.548,0.411,0.884,-0.223,-0.029,0.021,0.026,-0.41,0.168,0.45,1.074,-1.084,2.192
2024-11-02 22:09:08.331,37705.558,0.415,0.883,-0.218,-0.011,0.002,0.018,-0.499,0.186,0.441,1.087,-1.082,2.205
2024-11-02 22:09:08.341,37705.568,0.42,0.882,-0.213,0.014,-0.012,0.0,-0.573,0.16,0.418,1.102,-1.081,2.219
2024-11-02 22:09:08.351,37705.578,0.423,0.882,-0.207,0.048,-0.02,-0.014,-0.506,0.066,0.363,1.115,-1.08,2.233
2024-11-02 22:09:08.361,37705.588,0.426,0.881,-0.203,0.084,-0.002,-0.023,-0.41,0.037,0.325,1.126,-1.079,2.245
2024-11-02 22:09:08.371,37705.598,0.429,0.881,-0.2,0.109,0.055,-0.012,-0.211,0.06,0.283,1.134,-1.077,2.254
2024-11-02 22:09:08.381,37705.608,0.432,0.88,-0.199,0.093,0.12,0.001,-0.023,0.118,0.235,1.139,-1.076,2.259
2024-11-02 22:09:08.391,37705.618,0.434,0.879,-0.199,0.05,0.132,-0.008,0.142,0.112,0.178,1.141,-1.073,2.259
2024-11-02 22:09:08.401,37705.628,0.435,0.878,-0.2,0.037,0.105,-0.005,0.248,0.07,0.129,1.14,-1.071,2.257
2024-11-02 22:09:08.411,37705.638,0.436,0.877,-0.203,0.06,0.07,-0.003,0.324,0.017,0.068,1.136,-1.069,2.252
2024-11-02 22:09:08.422,37705.648,0.436,0.876,-0.206,0.087,0.04,-0.002,0.349,-0.002,-0.007,1.131,-1.067,2.246
2024-11-02 22:09:08.431,37705.658,0.436,0.875,-0.208,0.098,0.028,-0.006,0.28,0.045,-0.065,1.125,-1.066,2.24
2024-11-02 22:09:08.441,37705.668,0.435,0.875,-0.21,0.093,0.034,0.001,0.099,0.091,-0.112,1.122,-1.066,2.235
2024-11-02 22:09:08.451,37705.678,0.434,0.876,-0.209,0.08,0.047,0.018,-0.067,0.108,-0.157,1.122,-1.068,2.234
2024-11-02 22:09:08.461,37705.688,0.433,0.877,-0.208,0.066,0.069,0.024,-0.162,0.093,-0.168,1.124,-1.07,2.235
2024-11-02 22:09:08.471,37705.698,0.432,0.878,-0.206,0.063,0.054,0.011,-0.161,0.063,-0.142,1.126,-1.072,2.236
2024-11-02 22:09:08.481,37705.708,0.431,0.879,-0.205,0.073,0.023,-0.003,-0.093,0.038,-0.101,1.128,-1.073,2.238
2024-11-02 22:09:08.491,37705.718,0.43,0.879,-0.204,0.083,0.005,-0.012,0.031,0.017,-0.058,1.128,-1.074,2.238
2024-11-02 22:09:08.501,37705.728,0.43,0.879,-0.205,0.09,-0.002,-0.023,0.119,0.018,-0.018,1.126,-1.074,2.236
2024-11-02 22:09:08.511,37705.738,0.43,0.879,-0.206,0.093,0.005,-0.026,0.168,0.031,0.016,1.124,-1.074,2.233
2024-11-02 22:09:08.521,37705.748,0.431,0.878,-0.207,0.09,0.02,-0.023,0.18,0.034,0.043,1.122,-1.073,2.23
2024-11-02 22:09:08.530,37705.758,0.431,0.878,-0.209,0.081,0.013,-0.024,0.131,0.035,0.064,1.12,-1.071,2.227
2024-11-02 22:09:08.541,37705.768,0.432,0.877,-0.209,0.082,-0.004,-0.024,0.047,0.043,0.073,1.119,-1.07,2.226
2024-11-02 22:09:08.551,37705.778,0.432,0.877,-0.209,0.08,-0.016,-0.01,0.02,0.045,0.074,1.12,-1.07,2.227
2024-11-02 22:09:08.560,37705.787,0.433,0.877,-0.209,0.071,-0.046,-0.014,0.032,0.047,0.096,1.121,-1.069,2.227
2024-11-02 22:09:08.571,37705.797,0.434,0.876,-0.21,0.067,-0.078,-0.03,0.051,0.049,0.122,1.121,-1.068,2.227
2024-11-02 22:09:08.581,37705.807,0.436,0.875,-0.21,0.06,-0.084,-0.038,0.092,0.059,0.148,1.122,-1.066,2.227
2024-11-02 22:09:08.591,37705.817,0.437,0.874,-0.211,0.042,-0.08,-0.044,0.136,0.065,0.184,1.122,-1.064,2.226
2024-11-02 22:09:08.601,37705.827,0.439,0.873,-0.212,0.027,-0.085,-0.049,0.147,0.058,0.2,1.122,-1.062,2.225
2024-11-02 22:09:08.610,37705.837,0.441,0.872,-0.213,0.026,-0.087,-0.041,0.145,0.046,0.201,1.122,-1.059,2.225
2024-11-02 22:09:08.620,37705.847,0.443,0.871,-0.214,0.023,-0.085,-0.024,0.124,0.04,0.188,1.121,-1.057,2.224
2024-11-02 22:09:08.631,37705.857,0.445,0.87,-0.214,0.016,-0.079,-0.013,0.088,0.031,0.166,1.121,-1.055,2.223
2024-11-02 22:09:08.641,37705.867,0.446,0.869,-0.215,0.01,-0.064,-0.003,0.047,0.034,0.14,1.122,-1.053,2.224
2024-11-02 22:09:08.651,37705.877,0.447,0.868,-0.215,0.002,-0.043,0.006,0.028,0.034,0.122,1.123,-1.052,2.224
2024-11-02 22:09:08.661,37705.887,0.448,0.868,-0.215,-0.009,-0.025,0.008,0.019,0.04,0.113,1.123,-1.05,2.225
2024-11-02 22:09:08.670,37705.897,0.449,0.867,-0.215,-0.018,-0.015,0.004,0.027,0.054,0.111,1.124,-1.049,2.225
2024-11-02 22:09:08.681,37705.907,0.451,0.866,-0.215,-0.024,-0.014,-0.004,0.038,0.072,0.115,1.125,-1.048,2.226
2024-11-02 22:09:08.690,37705.917,0.452,0.866,-0.215,-0.026,-0.012,-0.015,0.048,0.083,0.127,1.126,-1.047,2.226
2024-11-02 22:09:08.701,37705.927,0.453,0.865,-0.215,-0.023,-0.008,-0.018,0.025,0.085,0.139,1.127,-1.045,2.226
2024-11-02 22:09:08.711,37705.937,0.455,0.864,-0.215,-0.013,-0.005,-0.016,-0.019,0.073,0.148,1.129,-1.044,2.227
2024-11-02 22:09:08.720,37705.947,0.456,0.864,-0.214,-0.003,-0.003,-0.014,-0.045,0.049,0.142,1.131,-1.043,2.229
2024-11-02 22:09:08.730,37705.957,0.457,0.863,-0.214,-0.004,-0.009,-0.016,-0.033,0.021,0.122,1.133,-1.042,2.231
2024-11-02 22:09:08.741,37705.967,0.458,0.863,-0.214,-0.002,-0.011,-0.016,-0.011,0.015,0.113,1.135,-1.041,2.232
2024-11-02 22:09:08.750,37705.977,0.459,0.862,-0.214,-0.003,-0.01,-0.015,0.009,0.002,0.093,1.135,-1.04,2.233
2024-11-02 22:09:08.760,37705.987,0.46,0.862,-0.214,-0.012,-0.017,-0.009,0.036,-0.018,0.076,1.136,-1.039,2.233
2024-11-02 22:09:08.770,37705.997,0.46,0.861,-0.214,-0.019,-0.026,-0.01,0.054,-0.022,0.07,1.135,-1.038,2.233
2024-11-02 22:09:08.780,37706.007,0.461,0.861,-0.215,-0.016,-0.033,-0.016,0.067,-0.018,0.051,1.134,-1.037,2.232
2024-11-02 22:09:08.790,37706.017,0.461,0.861,-0.216,-0.016,-0.047,-0.019,0.056,-0.017,0.049,1.134,-1.037,2.232
2024-11-02 22:09:08.800,37706.027,0.462,0.86,-0.216,-0.017,-0.06,-0.021,0.03,-0.032,0.044,1.133,-1.036,2.231
2024-11-02 22:09:08.811,37706.037,0.462,0.86,-0.216,-0.004,-0.056,-0.023,-0.005,-0.057,0.04,1.133,-1.036,2.231
2024-11-02 22:09:08.820,37706.047,0.462,0.86,-0.217,0.005,-0.055,-0.03,-0.03,-0.068,0.041,1.132,-1.035,2.232
2024-11-02 22:09:08.830,37706.057,0.462,0.86,-0.217,0.006,-0.058,-0.035,-0.043,-0.067,0.04,1.133,-1.035,2.233
2024-11-02 22:09:08.840,37706.067,0.462,0.86,-0.216,0.002,-0.055,-0.036,-0.043,-0.059,0.04,1.133,-1.035,2.234
2024-11-02 22:09:08.850,37706.077,0.463,0.86,-0.216,-0.001,-0.057,-0.032,-0.064,-0.047,0.04,1.133,-1.035,2.235
2024-11-02 22:09:08.860,37706.087,0.463,0.86,-0.216,-0.005,-0.07,-0.024,-0.08,-0.027,0.043,1.134,-1.035,2.237
2024-11-02 22:09:08.870,37706.097,0.463,0.86,-0.215,-0.009,-0.077,-0.014,-0.089,-0.008,0.028,1.136,-1.035,2.239
2024-11-02 22:09:08.880,37706.107,0.463,0.86,-0.215,-0.002,-0.074,0.002,-0.063,-0.008,0.007,1.137,-1.035,2.24
2024-11-02 22:09:08.890,37706.117,0.463,0.86,-0.214,0.017,-0.059,0.018,-0.033,0.002,-0.007,1.138,-1.035,2.241
2024-11-02 22:09:08.900,37706.127,0.463,0.86,-0.214,0.032,-0.039,0.024,-0.003,0.009,-0.024,1.138,-1.035,2.241
2024-11-02 22:09:08.910,37706.137,0.463,0.86,-0.214,0.034,-0.021,0.018,0.011,0.022,-0.03,1.138,-1.036,2.241
2024-11-02 22:09:08.920,37706.147,0.463,0.86,-0.214,0.026,-0.013,-0.001,0.013,0.023,-0.024,1.138,-1.036,2.24
2024-11-02 22:09:08.930,37706.157,0.463,0.86,-0.214,0.02,0.005,-0.013,0.028,0.033,-0.008,1.137,-1.036,2.24
2024-11-02 22:09:08.941,37706.167,0.463,0.86,-0.214,0.012,0.024,-0.021,0.034,0.058,0.015,1.137,-1.036,2.239
2024-11-02 22:09:08.950,37706.177,0.463,0.86,-0.214,-0.002,0.03,-0.035,-0.0,0.074,0.044,1.138,-1.035,2.239
2024-11-02 22:09:08.960,37706.187,0.464,0.86,-0.214,-0.011,0.037,-0.04,-0.01,0.092,0.074,1.139,-1.035,2.24
2024-11-02 22:09:08.970,37706.197,0.465,0.859,-0.213,-0.01,0.044,-0.031,-0.026,0.087,0.085,1.141,-1.034,2.241
2024-11-02 22:09:08.980,37706.207,0.466,0.859,-0.212,-0.005,0.043,-0.018,-0.024,0.097,0.091,1.143,-1.033,2.242
2024-11-02 22:09:08.990,37706.217,0.467,0.859,-0.212,-0.008,0.03,-0.001,-0.023,0.102,0.078,1.145,-1.033,2.243
2024-11-02 22:09:09.000,37706.227,0.468,0.858,-0.211,-0.01,0.018,0.011,-0.012,0.099,0.065,1.147,-1.032,2.244
2024-11-02 22:09:09.010,37706.237,0.468,0.858,-0.211,-0.007,0.016,0.019,0.014,0.092,0.049,1.148,-1.031,2.245
2024-11-02 22:09:09.020,37706.247,0.469,0.858,-0.21,-0.003,0.004,0.021,0.032,0.078,0.038,1.149,-1.031,2.245
2024-11-02 22:09:09.030,37706.257,0.469,0.858,-0.211,0.001,-0.011,0.015,0.063,0.057,0.03,1.149,-1.03,2.244
2024-11-02 22:09:09.040,37706.267,0.47,0.857,-0.211,0.007,-0.013,0.001,0.075,0.038,0.033,1.149,-1.03,2.243
2024-11-02 22:09:09.050,37706.277,0.47,0.857,-0.212,0.014,-0.006,-0.017,0.09,0.022,0.045,1.148,-1.029,2.242
2024-11-02 22:09:09.060,37706.287,0.47,0.857,-0.212,0.018,-0.001,-0.029,0.094,-0.001,0.062,1.147,-1.028,2.24
2024-11-02 22:09:09.070,37706.297,0.471,0.856,-0.213,0.024,-0.001,-0.034,0.089,-0.015,0.081,1.146,-1.028,2.239
2024-11-02 22:09:09.080,37706.307,0.472,0.855,-0.214,0.027,0.004,-0.03,0.099,-0.004,0.095,1.145,-1.026,2.238
2024-11-02 22:09:09.090,37706.317,0.472,0.855,-0.215,0.02,0.007,-0.02,0.096,-0.005,0.1,1.144,-1.025,2.237
2024-11-02 22:09:09.100,37706.327,0.473,0.854,-0.216,0.015,0.003,-0.011,0.107,0.01,0.096,1.143,-1.024,2.236
2024-11-02 22:09:09.110,37706.337,0.474,0.853,-0.217,0.014,-0.011,0.001,0.107,0.02,0.086,1.142,-1.023,2.235
2024-11-02 22:09:09.120,37706.347,0.475,0.853,-0.217,0.019,-0.018,0.013,0.117,0.009,0.071,1.141,-1.021,2.234
2024-11-02 22:09:09.130,37706.357,0.475,0.852,-0.218,0.026,-0.016,0.027,0.12,-0.008,0.059,1.14,-1.02,2.232
2024-11-02 22:09:09.140,37706.367,0.476,0.852,-0.22,0.027,-0.015,0.027,0.129,-0.012,0.055,1.139,-1.019,2.231
2024-11-02 22:09:09.150,37706.376,0.476,0.851,-0.221,0.018,-0.008,0.017,0.146,-0.014,0.061,1.137,-1.018,2.229
2024-11-02 22:09:09.160,37706.386,0.477,0.85,-0.222,0.005,-0.002,0.001,0.153,-0.007,0.068,1.135,-1.017,2.227
2024-11-02 22:09:09.170,37706.396,0.478,0.85,-0.224,-0.004,0.004,-0.013,0.153,0.002,0.087,1.133,-1.015,2.225
2024-11-02 22:09:09.179,37706.406,0.478,0.849,-0.225,-0.009,0.008,-0.021,0.131,0.016,0.095,1.132,-1.014,2.223
2024-11-02 22:09:09.190,37706.416,0.479,0.848,-0.226,-0.013,0.006,-0.021,0.116,0.041,0.103,1.131,-1.013,2.222
2024-11-02 22:09:09.200,37706.426,0.48,0.847,-0.226,-0.018,0.009,-0.018,0.099,0.066,0.105,1.131,-1.011,2.221
2024-11-02 22:09:09.209,37706.436,0.481,0.847,-0.227,-0.022,0.007,-0.013,0.077,0.094,0.089,1.131,-1.01,2.22
2024-11-02 22:09:09.219,37706.446,0.482,0.846,-0.226,-0.027,0.001,-0.003,0.058,0.124,0.072,1.132,-1.009,2.22
2024-11-02 22:09:09.229,37706.456,0.483,0.846,-0.226,-0.031,-0.011,0.012,0.033,0.129,0.049,1.133,-1.008,2.22
2024-11-02 22:09:09.239,37706.466,0.484,0.846,-0.226,-0.025,-0.01,0.026,0.021,0.131,0.023,1.134,-1.008,2.219
2024-11-02 22:09:09.249,37706.476,0.484,0.845,-0.225,-0.019,-0.008,0.031,0.016,0.123,0.005,1.135,-1.007,2.219
2024-11-02 22:09:09.259,37706.486,0.484,0.845,-0.225,-0.021,-0.016,0.032,0.026,0.122,-0.006,1.136,-1.007,2.219
2024-11-02 22:09:09.270,37706.496,0.485,0.845,-0.225,-0.025,-0.016,0.036,0.044,0.116,-0.012,1.137,-1.007,2.218
2024-11-02 22:09:09.279,37706.506,0.485,0.845,-0.225,-0.029,-0.009,0.037,0.042,0.112,-0.019,1.137,-1.007,2.217
2024-11-02 22:09:09.289,37706.516,0.485,0.845,-0.225,-0.023,-0.006,0.038,0.051,0.091,-0.038,1.137,-1.007,2.216
2024-11-02 22:09:09.300,37706.526,0.484,0.846,-0.225,-0.01,-0.006,0.038,0.068,0.074,-0.055,1.136,-1.008,2.214
2024-11-02 22:09:09.309,37706.536,0.484,0.846,-0.225,0.003,-0.009,0.032,0.076,0.058,-0.067,1.136,-1.008,2.213
2024-11-02 22:09:09.319,37706.546,0.483,0.846,-0.225,0.005,-0.009,0.022,0.084,0.042,-0.072,1.135,-1.008,2.211
2024-11-02 22:09:09.329,37706.556,0.483,0.846,-0.226,0.0,-0.005,0.013,0.076,0.036,-0.083,1.133,-1.009,2.209
2024-11-02 22:09:09.339,37706.566,0.482,0.846,-0.226,-0.004,0.0,0.006,0.07,0.027,-0.095,1.132,-1.009,2.207
2024-11-02 22:09:09.349,37706.576,0.481,0.847,-0.227,-0.01,0.007,-0.001,0.07,0.024,-0.094,1.131,-1.01,2.205
2024-11-02 22:09:09.359,37706.586,0.481,0.847,-0.227,-0.017,0.007,-0.007,0.051,0.027,-0.08,1.13,-1.01,2.203
2024-11-02 22:09:09.369,37706.596,0.48,0.847,-0.227,-0.023,0.003,-0.015,0.031,0.016,-0.064,1.129,-1.011,2.202
2024-11-02 22:09:09.379,37706.606,0.48,0.847,-0.227,-0.021,0.005,-0.017,0.029,0.01,-0.049,1.128,-1.011,2.201
2024-11-02 22:09:09.389,37706.616,0.479,0.848,-0.227,-0.015,0.011,-0.016,0.029,0.019,-0.048,1.128,-1.012,2.201
2024-11-02 22:09:09.399,37706.626,0.479,0.848,-0.228,-0.015,0.009,-0.01,0.044,0.032,-0.045,1.127,-1.012,2.2
2024-11-02 22:09:09.409,37706.636,0.479,0.848,-0.228,-0.015,-0.001,-0.003,0.056,0.047,-0.036,1.127,-1.012,2.199
2024-11-02 22:09:09.419,37706.646,0.479,0.848,-0.228,-0.014,-0.01,-0.006,0.059,0.061,-0.019,1.126,-1.012,2.197
2024-11-02 22:09:09.429,37706.656,0.479,0.848,-0.228,-0.018,-0.02,-0.012,0.036,0.056,-0.009,1.126,-1.012,2.196
2024-11-02 22:09:09.439,37706.666,0.479,0.848,-0.228,-0.022,-0.027,-0.02,-0.006,0.049,-0.008,1.126,-1.012,2.196
2024-11-02 22:09:09.450,37706.676,0.479,0.848,-0.228,-0.024,-0.018,-0.018,-0.025,0.063,-0.012,1.127,-1.012,2.196
2024-11-02 22:09:09.459,37706.686,0.479,0.848,-0.227,-0.023,-0.013,-0.003,0.006,0.089,-0.023,1.128,-1.012,2.196
2024-11-02 22:09:09.469,37706.696,0.479,0.848,-0.227,-0.027,-0.025,0.003,0.013,0.115,-0.021,1.128,-1.013,2.196
2024-11-02 22:09:09.479,37706.706,0.479,0.848,-0.226,-0.026,-0.022,0.01,0.027,0.117,-0.024,1.129,-1.013,2.195
2024-11-02 22:09:09.489,37706.716,0.479,0.848,-0.226,-0.01,-0.016,0.028,0.053,0.106,-0.039,1.129,-1.013,2.194
2024-11-02 22:09:09.499,37706.726,0.478,0.848,-0.226,0.005,-0.023,0.036,0.113,0.101,-0.04,1.129,-1.013,2.192
2024-11-02 22:09:09.509,37706.736,0.478,0.848,-0.228,0.016,-0.011,0.043,0.248,0.08,-0.052,1.127,-1.013,2.189
2024-11-02 22:09:09.519,37706.746,0.478,0.848,-0.23,0.022,0.003,0.046,0.304,0.029,-0.121,1.122,-1.012,2.183
2024-11-02 22:09:09.529,37706.756,0.476,0.848,-0.232,0.027,0.026,0.036,0.326,0.129,-0.204,1.117,-1.012,2.177
2024-11-02 22:09:09.539,37706.766,0.475,0.848,-0.234,0.007,0.074,0.038,0.263,0.215,-0.233,1.113,-1.013,2.17
2024-11-02 22:09:09.549,37706.776,0.473,0.849,-0.235,-0.037,0.006,0.008,0.124,0.121,-0.251,1.111,-1.014,2.164
2024-11-02 22:09:09.559,37706.786,0.471,0.85,-0.235,-0.01,-0.121,-0.014,0.031,-0.01,-0.222,1.108,-1.016,2.161
2024-11-02 22:09:09.569,37706.796,0.47,0.851,-0.235,0.053,-0.153,-0.022,0.037,-0.047,-0.149,1.106,-1.018,2.159
2024-11-02 22:09:09.579,37706.806,0.469,0.851,-0.236,0.061,-0.125,-0.024,0.097,-0.016,-0.115,1.104,-1.018,2.157
2024-11-02 22:09:09.590,37706.816,0.468,0.852,-0.237,0.034,-0.088,-0.024,0.12,0.019,-0.138,1.101,-1.019,2.154
2024-11-02 22:09:09.599,37706.826,0.467,0.852,-0.238,0.019,-0.052,-0.018,0.076,0.004,-0.111,1.099,-1.02,2.151
2024-11-02 22:09:09.609,37706.836,0.465,0.852,-0.239,0.032,-0.051,-0.007,0.043,-0.11,-0.13,1.097,-1.02,2.149
2024-11-02 22:09:09.619,37706.846,0.464,0.853,-0.24,0.08,-0.086,0.005,0.08,-0.142,-0.136,1.094,-1.021,2.147
2024-11-02 22:09:09.629,37706.856,0.463,0.853,-0.241,0.113,-0.08,0.016,0.15,-0.031,-0.121,1.09,-1.022,2.144
2024-11-02 22:09:09.639,37706.866,0.462,0.853,-0.242,0.085,-0.024,0.003,0.186,0.109,-0.104,1.088,-1.022,2.14
2024-11-02 22:09:09.649,37706.876,0.461,0.853,-0.243,0.033,0.021,-0.032,0.115,0.143,-0.099,1.086,-1.022,2.137
2024-11-02 22:09:09.659,37706.886,0.461,0.854,-0.243,0.021,0.036,-0.063,-0.029,0.106,-0.068,1.086,-1.023,2.135
2024-11-02 22:09:09.669,37706.896,0.461,0.854,-0.242,0.04,0.047,-0.061,-0.14,0.068,-0.032,1.088,-1.024,2.136
2024-11-02 22:09:09.679,37706.906,0.461,0.854,-0.24,0.044,0.053,-0.055,-0.181,0.055,-0.006,1.09,-1.025,2.139
2024-11-02 22:09:09.689,37706.916,0.461,0.855,-0.238,0.028,0.059,-0.051,-0.147,0.067,0.032,1.094,-1.025,2.142
2024-11-02 22:09:09.699,37706.926,0.462,0.855,-0.237,0.0,0.085,-0.04,-0.087,0.056,0.074,1.096,-1.025,2.144
2024-11-02 22:09:09.709,37706.936,0.462,0.855,-0.236,-0.013,0.101,-0.022,-0.042,0.025,0.105,1.098,-1.025,2.146
2024-11-02 22:09:09.718,37706.946,0.463,0.854,-0.236,-0.007,0.09,-0.004,-0.021,0.002,0.129,1.1,-1.024,2.148
2024-11-02 22:09:09.728,37706.956,0.465,0.854,-0.236,0.0,0.078,0.008,-0.012,-0.012,0.139,1.101,-1.023,2.149
2024-11-02 22:09:09.738,37706.965,0.466,0.853,-0.236,-0.003,0.058,0.015,-0.016,-0.031,0.137,1.102,-1.022,2.15
2024-11-02 22:09:09.748,37706.975,0.467,0.852,-0.236,-0.009,0.029,0.015,-0.031,-0.058,0.129,1.103,-1.02,2.152
2024-11-02 22:09:09.759,37706.985,0.468,0.852,-0.236,-0.013,0.003,0.005,-0.046,-0.059,0.127,1.104,-1.019,2.154
2024-11-02 22:09:09.769,37706.995,0.469,0.851,-0.236,-0.022,-0.02,-0.002,-0.052,-0.056,0.125,1.105,-1.019,2.156
2024-11-02 22:09:09.779,37707.005,0.47,0.851,-0.236,-0.036,-0.039,-0.002,-0.035,-0.053,0.121,1.106,-1.018,2.157
2024-11-02 22:09:09.789,37707.015,0.47,0.85,-0.236,-0.041,-0.042,0.003,-0.003,-0.046,0.121,1.106,-1.017,2.159
2024-11-02 22:09:09.799,37707.025,0.471,0.85,-0.236,-0.038,-0.029,0.017,0.007,-0.027,0.111,1.107,-1.016,2.16
2024-11-02 22:09:09.809,37707.035,0.472,0.849,-0.236,-0.033,-0.015,0.027,0.028,-0.004,0.101,1.107,-1.015,2.16
2024-11-02 22:09:09.818,37707.045,0.473,0.849,-0.236,-0.031,-0.008,0.035,0.055,0.015,0.11,1.107,-1.014,2.161
2024-11-02 22:09:09.830,37707.055,0.474,0.848,-0.237,-0.027,-0.009,0.038,0.072,0.029,0.115,1.108,-1.012,2.16
2024-11-02 22:09:09.839,37707.065,0.475,0.847,-0.237,-0.017,0.005,0.037,0.087,0.052,0.107,1.108,-1.011,2.16
2024-11-02 22:09:09.848,37707.075,0.476,0.847,-0.238,-0.013,0.022,0.033,0.067,0.101,0.108,1.108,-1.01,2.16
2024-11-02 22:09:09.858,37707.085,0.477,0.846,-0.238,-0.023,0.031,0.017,0.057,0.118,0.108,1.109,-1.008,2.159
2024-11-02 22:09:09.868,37707.095,0.478,0.845,-0.237,-0.027,0.019,0.0,0.003,0.09,0.081,1.11,-1.007,2.16
2024-11-02 22:09:09.878,37707.105,0.479,0.845,-0.237,-0.009,-0.009,0.002,0.005,0.129,0.064,1.112,-1.007,2.16
2024-11-02 22:09:09.888,37707.115,0.48,0.845,-0.236,-0.01,-0.02,-0.003,-0.003,0.186,0.051,1.114,-1.006,2.161
2024-11-02 22:09:09.898,37707.125,0.481,0.845,-0.235,-0.026,-0.021,-0.021,-0.033,0.197,0.034,1.116,-1.006,2.161
2024-11-02 22:09:09.908,37707.135,0.481,0.845,-0.234,-0.019,-0.028,-0.022,-0.087,0.189,0.017,1.119,-1.006,2.163
2024-11-02 22:09:09.918,37707.145,0.482,0.845,-0.232,0.006,-0.05,-0.02,-0.129,0.193,-0.008,1.123,-1.007,2.164
2024-11-02 22:09:09.928,37707.155,0.482,0.845,-0.23,0.021,-0.051,-0.018,-0.126,0.228,-0.018,1.126,-1.007,2.166
2024-11-02 22:09:09.938,37707.165,0.483,0.846,-0.227,0.018,-0.032,-0.018,-0.129,0.242,-0.028,1.131,-1.008,2.168
2024-11-02 22:09:09.948,37707.175,0.483,0.846,-0.225,0.015,-0.017,-0.021,-0.108,0.235,-0.034,1.134,-1.009,2.17
2024-11-02 22:09:09.958,37707.185,0.483,0.847,-0.223,0.021,-0.019,-0.012,-0.115,0.213,-0.039,1.138,-1.01,2.172
2024-11-02 22:09:09.968,37707.195,0.483,0.847,-0.221,0.03,-0.015,-0.006,-0.086,0.214,-0.038,1.141,-1.01,2.173
2024-11-02 22:09:09.979,37707.205,0.483,0.847,-0.22,0.029,0.006,0.005,-0.07,0.216,-0.028,1.144,-1.011,2.174
2024-11-02 22:09:09.988,37707.215,0.484,0.848,-0.218,0.02,0.013,0.009,-0.074,0.205,-0.015,1.147,-1.012,2.175
2024-11-02 22:09:09.998,37707.225,0.484,0.848,-0.217,0.014,0.017,0.014,-0.085,0.179,0.009,1.15,-1.012,2.176
2024-11-02 22:09:10.008,37707.235,0.485,0.848,-0.215,0.019,0.017,0.013,-0.097,0.155,0.032,1.153,-1.012,2.178
2024-11-02 22:09:10.019,37707.245,0.485,0.848,-0.214,0.021,0.024,0.012,-0.103,0.157,0.041,1.156,-1.012,2.18
2024-11-02 22:09:10.028,37707.255,0.486,0.848,-0.212,0.016,0.031,0.013,-0.12,0.169,0.045,1.159,-1.012,2.182
2024-11-02 22:09:10.038,37707.265,0.487,0.848,-0.21,0.003,0.025,0.014,-0.101,0.165,0.057,1.163,-1.012,2.184
2024-11-02 22:09:10.048,37707.275,0.488,0.848,-0.209,0.0,0.013,0.022,-0.066,0.153,0.063,1.166,-1.012,2.186
