Date,TimeStamp,GravityX,GravityY,GravityZ,UserAccelerationX,UserAccelerationY,UserAccelerationZ,RotationRateX,RotationRateY,RotationRateZ,AttitudeRoll,AttitudePitch,AttitudeYaw
2024-09-23 11:24:13.568,161786.405,0.036,0.815,-0.579,0.0,-0.028,-0.012,-0.12,0.005,0.018,0.062,-0.952,1.481
2024-09-23 11:24:13.578,161786.415,0.036,0.815,-0.578,0.0,-0.01,-0.001,-0.065,-0.016,-0.004,0.062,-0.954,1.481
2024-09-23 11:24:13.588,161786.425,0.036,0.816,-0.577,0.003,0.022,0.012,-0.028,-0.055,-0.02,0.061,-0.954,1.481
2024-09-23 11:24:13.598,161786.435,0.035,0.816,-0.577,0.012,0.035,0.013,0.01,-0.087,-0.027,0.06,-0.954,1.481
2024-09-23 11:24:13.608,161786.445,0.034,0.816,-0.578,0.019,0.017,0.008,0.056,-0.09,-0.037,0.059,-0.954,1.48
2024-09-23 11:24:13.618,161786.455,0.033,0.815,-0.578,0.015,0.006,0.008,0.088,-0.071,-0.047,0.057,-0.953,1.479
2024-09-23 11:24:13.628,161786.465,0.032,0.814,-0.579,0.007,0.022,0.012,0.113,-0.045,-0.042,0.056,-0.952,1.478
2024-09-23 11:24:13.638,161786.475,0.032,0.814,-0.581,-0.001,0.03,0.011,0.133,0.008,-0.036,0.055,-0.95,1.477
2024-09-23 11:24:13.648,161786.485,0.032,0.813,-0.582,-0.007,0.001,0.013,0.111,0.07,-0.029,0.055,-0.949,1.477
2024-09-23 11:24:13.657,161786.495,0.032,0.812,-0.582,-0.014,-0.012,0.009,0.083,0.09,-0.024,0.055,-0.948,1.476
2024-09-23 11:24:13.667,161786.505,0.033,0.812,-0.583,-0.02,0.002,0.005,0.069,0.07,-0.023,0.056,-0.947,1.476
2024-09-23 11:24:13.678,161786.515,0.033,0.812,-0.583,-0.016,-0.011,-0.001,0.09,0.047,-0.027,0.056,-0.947,1.475
2024-09-23 11:24:13.688,161786.525,0.033,0.811,-0.584,0.001,-0.022,-0.002,0.148,0.027,-0.027,0.056,-0.946,1.475
2024-09-23 11:24:13.697,161786.535,0.033,0.81,-0.586,0.007,0.006,0.004,0.23,0.001,-0.034,0.056,-0.944,1.474
2024-09-23 11:24:13.708,161786.545,0.032,0.808,-0.588,0.007,0.032,0.017,0.307,-0.023,-0.041,0.055,-0.941,1.473
2024-09-23 11:24:13.718,161786.555,0.032,0.806,-0.59,0.009,0.033,0.024,0.4,-0.045,-0.047,0.054,-0.938,1.472
2024-09-23 11:24:13.727,161786.565,0.031,0.804,-0.594,0.011,0.035,0.023,0.479,-0.054,-0.057,0.052,-0.934,1.471
2024-09-23 11:24:13.738,161786.575,0.03,0.801,-0.598,0.008,0.039,0.023,0.524,-0.057,-0.066,0.05,-0.929,1.469
2024-09-23 11:24:13.748,161786.585,0.029,0.798,-0.602,0.01,0.045,0.024,0.539,0.009,-0.052,0.049,-0.924,1.468
2024-09-23 11:24:13.758,161786.595,0.029,0.795,-0.606,0.006,0.033,0.022,0.47,0.045,0.001,0.048,-0.919,1.467
2024-09-23 11:24:13.768,161786.605,0.03,0.793,-0.609,-0.001,0.005,0.022,0.294,0.047,0.004,0.049,-0.915,1.467
2024-09-23 11:24:13.778,161786.615,0.03,0.791,-0.611,-0.028,0.007,-0.006,0.225,0.027,-0.009,0.049,-0.912,1.466
2024-09-23 11:24:13.787,161786.625,0.03,0.79,-0.612,-0.002,-0.007,-0.005,0.092,0.009,0.01,0.049,-0.911,1.466
2024-09-23 11:24:13.798,161786.635,0.03,0.79,-0.613,0.01,-0.108,-0.007,0.034,-0.007,0.023,0.049,-0.91,1.466
2024-09-23 11:24:13.808,161786.645,0.03,0.79,-0.613,-0.003,-0.032,-0.027,-0.051,-0.061,0.032,0.049,-0.91,1.467
2024-09-23 11:24:13.818,161786.655,0.03,0.79,-0.612,-0.002,0.002,-0.026,-0.114,-0.086,0.05,0.049,-0.911,1.468
2024-09-23 11:24:13.828,161786.665,0.03,0.791,-0.611,0.003,-0.019,-0.032,-0.113,-0.086,0.095,0.049,-0.912,1.469
2024-09-23 11:24:13.837,161786.675,0.03,0.791,-0.61,0.015,-0.015,-0.02,-0.073,-0.082,0.128,0.05,-0.913,1.471
2024-09-23 11:24:13.847,161786.685,0.031,0.792,-0.61,0.015,-0.013,-0.008,-0.064,-0.118,0.117,0.05,-0.914,1.473
2024-09-23 11:24:13.857,161786.694,0.031,0.792,-0.609,0.019,-0.012,-0.004,-0.117,-0.178,0.132,0.051,-0.915,1.475
2024-09-23 11:24:13.868,161786.704,0.031,0.793,-0.608,0.005,-0.046,-0.005,-0.167,-0.177,0.113,0.05,-0.916,1.477
2024-09-23 11:24:13.878,161786.714,0.03,0.794,-0.607,0.001,-0.058,-0.005,-0.158,-0.134,0.079,0.05,-0.917,1.479
2024-09-23 11:24:13.887,161786.724,0.03,0.795,-0.606,-0.004,-0.053,0.008,-0.119,-0.062,0.071,0.05,-0.919,1.48
2024-09-23 11:24:13.898,161786.734,0.031,0.795,-0.605,-0.026,0.009,0.013,-0.07,-0.022,0.068,0.051,-0.92,1.481
2024-09-23 11:24:13.907,161786.744,0.031,0.796,-0.605,-0.029,0.055,0.008,-0.097,0.002,0.039,0.052,-0.92,1.482
2024-09-23 11:24:13.917,161786.754,0.031,0.797,-0.604,-0.015,0.026,0.005,-0.136,-0.026,0.002,0.052,-0.922,1.483
2024-09-23 11:24:13.927,161786.764,0.031,0.797,-0.603,-0.004,-0.027,0.007,-0.082,-0.001,-0.029,0.051,-0.923,1.483
2024-09-23 11:24:13.937,161786.774,0.031,0.797,-0.603,0.001,-0.063,0.026,0.023,0.074,-0.016,0.052,-0.923,1.482
2024-09-23 11:24:13.947,161786.784,0.032,0.797,-0.603,0.001,-0.043,0.029,0.058,0.15,-0.002,0.053,-0.922,1.482
2024-09-23 11:24:13.957,161786.794,0.033,0.797,-0.603,-0.018,0.039,0.028,-0.012,0.155,0.018,0.054,-0.922,1.482
2024-09-23 11:24:13.967,161786.804,0.034,0.797,-0.603,-0.025,0.059,0.017,-0.126,0.137,0.025,0.056,-0.923,1.483
2024-09-23 11:24:13.977,161786.814,0.035,0.798,-0.601,-0.018,-0.021,-0.014,-0.179,0.16,0.043,0.058,-0.924,1.483
2024-09-23 11:24:13.987,161786.824,0.036,0.799,-0.6,-0.005,-0.062,-0.025,-0.199,0.2,0.06,0.061,-0.926,1.484
2024-09-23 11:24:13.997,161786.834,0.038,0.801,-0.598,-0.012,-0.04,-0.014,-0.2,0.238,0.056,0.064,-0.928,1.486
2024-09-23 11:24:14.007,161786.844,0.04,0.802,-0.597,-0.018,0.003,-0.005,-0.153,0.247,0.047,0.067,-0.93,1.487
2024-09-23 11:24:14.017,161786.854,0.042,0.802,-0.595,-0.014,0.007,-0.004,-0.107,0.226,0.031,0.07,-0.931,1.487
2024-09-23 11:24:14.027,161786.864,0.043,0.803,-0.595,-0.006,-0.001,0.004,-0.068,0.169,0.023,0.072,-0.932,1.488
2024-09-23 11:24:14.037,161786.874,0.044,0.803,-0.594,0.003,0.018,0.007,-0.014,0.105,0.0,0.074,-0.932,1.488
2024-09-23 11:24:14.047,161786.884,0.044,0.803,-0.594,0.013,0.018,0.004,0.081,0.061,-0.031,0.075,-0.932,1.488
2024-09-23 11:24:14.057,161786.894,0.044,0.802,-0.595,0.023,0.022,0.007,0.169,0.029,-0.062,0.074,-0.931,1.487
2024-09-23 11:24:14.067,161786.904,0.044,0.801,-0.597,0.025,0.046,0.018,0.26,-0.006,-0.097,0.073,-0.929,1.485
2024-09-23 11:24:14.077,161786.914,0.043,0.799,-0.6,0.022,0.059,0.025,0.319,-0.044,-0.134,0.071,-0.926,1.483
2024-09-23 11:24:14.087,161786.924,0.041,0.797,-0.602,0.022,0.037,0.023,0.343,-0.098,-0.152,0.068,-0.923,1.48
2024-09-23 11:24:14.097,161786.934,0.039,0.795,-0.605,0.022,0.027,0.02,0.358,-0.154,-0.166,0.064,-0.919,1.477
2024-09-23 11:24:14.107,161786.944,0.037,0.793,-0.608,0.02,0.017,0.012,0.393,-0.163,-0.173,0.06,-0.916,1.474
2024-09-23 11:24:14.118,161786.954,0.034,0.791,-0.611,0.022,0.002,0.005,0.415,-0.157,-0.168,0.056,-0.912,1.471
2024-09-23 11:24:14.127,161786.964,0.032,0.788,-0.615,0.016,0.01,0.016,0.399,-0.176,-0.145,0.052,-0.908,1.468
2024-09-23 11:24:14.137,161786.974,0.03,0.786,-0.618,0.002,0.019,0.017,0.392,-0.04,-0.088,0.049,-0.904,1.466
2024-09-23 11:24:14.147,161786.984,0.03,0.784,-0.62,0.002,0.004,0.008,0.189,-0.049,0.042,0.048,-0.901,1.465
2024-09-23 11:24:14.157,161786.994,0.029,0.783,-0.622,-0.005,-0.021,0.012,0.192,-0.059,-0.044,0.047,-0.899,1.465
2024-09-23 11:24:14.167,161787.004,0.029,0.782,-0.623,-0.035,0.015,-0.02,0.161,-0.052,-0.023,0.046,-0.897,1.464
2024-09-23 11:24:14.177,161787.014,0.028,0.781,-0.624,0.007,-0.039,-0.004,0.132,-0.026,-0.008,0.046,-0.896,1.464
2024-09-23 11:24:14.187,161787.024,0.028,0.78,-0.625,-0.015,-0.082,-0.006,0.153,-0.003,-0.003,0.045,-0.894,1.463
2024-09-23 11:24:14.197,161787.034,0.028,0.779,-0.626,-0.007,0.05,0.001,0.097,0.031,0.013,0.045,-0.893,1.463
2024-09-23 11:24:14.207,161787.044,0.029,0.779,-0.627,-0.002,0.01,-0.0,0.058,0.028,0.036,0.046,-0.893,1.464
2024-09-23 11:24:14.217,161787.054,0.03,0.778,-0.627,0.001,-0.002,-0.005,0.051,0.078,0.044,0.047,-0.892,1.464
2024-09-23 11:24:14.227,161787.064,0.031,0.778,-0.627,0.003,-0.018,-0.003,0.021,0.156,0.06,0.049,-0.892,1.465
2024-09-23 11:24:14.237,161787.074,0.032,0.778,-0.628,0.004,-0.014,-0.007,0.009,0.128,0.085,0.051,-0.891,1.466
2024-09-23 11:24:14.247,161787.084,0.034,0.778,-0.627,-0.007,0.02,0.001,-0.007,0.165,0.077,0.054,-0.892,1.468
2024-09-23 11:24:14.257,161787.094,0.035,0.778,-0.627,-0.001,-0.027,-0.007,-0.009,0.135,0.078,0.056,-0.892,1.469
2024-09-23 11:24:14.267,161787.104,0.037,0.778,-0.628,0.004,0.012,0.01,0.036,0.139,0.043,0.058,-0.891,1.47
2024-09-23 11:24:14.277,161787.114,0.037,0.778,-0.628,-0.008,-0.011,0.019,0.061,0.039,0.023,0.059,-0.891,1.47
2024-09-23 11:24:14.287,161787.124,0.038,0.777,-0.628,0.0,-0.018,0.007,0.108,0.018,0.019,0.06,-0.89,1.47
2024-09-23 11:24:14.297,161787.134,0.038,0.776,-0.629,-0.003,-0.021,-0.008,0.153,0.002,0.028,0.06,-0.888,1.47
2024-09-23 11:24:14.306,161787.144,0.038,0.775,-0.631,0.008,0.005,-0.003,0.132,-0.034,-0.012,0.06,-0.887,1.471
2024-09-23 11:24:14.317,161787.154,0.037,0.775,-0.631,0.006,0.008,0.012,0.08,-0.021,-0.043,0.059,-0.886,1.47
2024-09-23 11:24:14.327,161787.164,0.037,0.774,-0.632,-0.004,-0.027,0.043,-0.028,0.05,0.004,0.059,-0.886,1.47
2024-09-23 11:24:14.337,161787.174,0.038,0.775,-0.631,-0.013,-0.071,0.031,-0.196,0.131,0.059,0.06,-0.887,1.47
2024-09-23 11:24:14.347,161787.184,0.04,0.777,-0.628,-0.035,-0.028,-0.005,-0.425,0.177,0.073,0.063,-0.89,1.472
2024-09-23 11:24:14.357,161787.194,0.041,0.78,-0.624,-0.046,-0.063,-0.021,-0.604,0.193,0.097,0.066,-0.895,1.473
2024-09-23 11:24:14.366,161787.204,0.043,0.784,-0.619,-0.039,-0.118,-0.042,-0.734,0.216,0.108,0.07,-0.902,1.476
2024-09-23 11:24:14.377,161787.214,0.046,0.789,-0.613,-0.023,-0.122,-0.036,-0.803,0.367,0.147,0.075,-0.909,1.479
2024-09-23 11:24:14.387,161787.224,0.05,0.795,-0.605,-0.019,-0.085,-0.028,-1.066,0.432,0.158,0.082,-0.918,1.482
2024-09-23 11:24:14.396,161787.234,0.053,0.802,-0.595,-0.035,-0.023,-0.035,-1.352,0.337,0.085,0.089,-0.93,1.486
2024-09-23 11:24:14.406,161787.244,0.055,0.81,-0.584,-0.076,0.009,-0.074,-1.527,0.193,0.039,0.094,-0.945,1.489
2024-09-23 11:24:14.416,161787.254,0.056,0.819,-0.571,-0.048,-0.112,-0.085,-1.507,0.072,-0.001,0.098,-0.96,1.492
2024-09-23 11:24:14.426,161787.264,0.056,0.827,-0.559,-0.004,-0.15,-0.077,-1.26,0.039,-0.039,0.1,-0.974,1.494
2024-09-23 11:24:14.437,161787.274,0.056,0.833,-0.55,0.002,-0.007,-0.055,-0.954,0.01,-0.063,0.101,-0.985,1.495
2024-09-23 11:24:14.447,161787.283,0.055,0.837,-0.544,-0.008,0.108,-0.019,-0.65,-0.04,-0.043,0.102,-0.993,1.496
2024-09-23 11:24:14.456,161787.293,0.055,0.84,-0.539,-0.012,0.149,0.01,-0.398,-0.084,0.034,0.101,-0.998,1.496
2024-09-23 11:24:14.466,161787.303,0.055,0.842,-0.536,-0.001,0.119,0.015,-0.302,-0.148,0.023,0.101,-1.001,1.498
2024-09-23 11:24:14.476,161787.313,0.054,0.843,-0.535,0.013,0.102,0.012,-0.1,-0.162,0.039,0.101,-1.003,1.499
2024-09-23 11:24:14.486,161787.323,0.053,0.843,-0.535,0.038,0.119,0.006,0.066,-0.18,0.015,0.099,-1.003,1.499
2024-09-23 11:24:14.496,161787.333,0.052,0.843,-0.536,0.006,0.123,-0.015,0.167,-0.138,-0.037,0.097,-1.002,1.499
2024-09-23 11:24:14.507,161787.343,0.051,0.842,-0.537,-0.01,0.102,-0.051,-0.088,-0.226,-0.067,0.095,-1.001,1.498
2024-09-23 11:24:14.516,161787.353,0.049,0.843,-0.535,-0.03,0.02,-0.036,-0.198,-0.174,-0.1,0.092,-1.003,1.496
2024-09-23 11:24:14.526,161787.363,0.047,0.844,-0.533,-0.039,-0.048,0.03,-0.268,-0.184,-0.106,0.089,-1.006,1.495
2024-09-23 11:24:14.536,161787.373,0.046,0.846,-0.531,-0.037,-0.063,0.062,-0.204,-0.155,-0.042,0.086,-1.008,1.494
2024-09-23 11:24:14.546,161787.383,0.045,0.847,-0.53,-0.017,-0.033,0.037,-0.123,-0.15,-0.028,0.084,-1.01,1.494
2024-09-23 11:24:14.556,161787.393,0.044,0.847,-0.53,-0.026,0.016,0.071,-0.021,-0.147,-0.006,0.082,-1.011,1.493
2024-09-23 11:24:14.566,161787.403,0.043,0.847,-0.53,-0.02,-0.014,0.073,0.073,-0.172,-0.001,0.081,-1.01,1.493
2024-09-23 11:24:14.576,161787.413,0.042,0.846,-0.531,-0.006,-0.028,0.09,0.183,-0.193,0.001,0.079,-1.009,1.493
2024-09-23 11:24:14.586,161787.423,0.041,0.845,-0.533,-0.003,-0.021,0.099,0.272,-0.224,-0.013,0.076,-1.007,1.493
2024-09-23 11:24:14.596,161787.433,0.039,0.843,-0.536,0.009,-0.023,0.081,0.364,-0.242,-0.022,0.073,-1.004,1.492
2024-09-23 11:24:14.606,161787.443,0.038,0.841,-0.539,0.02,-0.052,0.056,0.443,-0.197,-0.007,0.07,-1.0,1.491
2024-09-23 11:24:14.616,161787.453,0.037,0.839,-0.543,0.024,-0.041,0.055,0.524,-0.131,0.01,0.068,-0.995,1.49
2024-09-23 11:24:14.626,161787.463,0.037,0.836,-0.548,0.042,0.019,0.057,0.54,-0.096,0.042,0.067,-0.989,1.49
2024-09-23 11:24:14.636,161787.473,0.037,0.833,-0.552,0.054,-0.005,0.025,0.491,-0.067,0.022,0.066,-0.984,1.49
2024-09-23 11:24:14.646,161787.483,0.036,0.83,-0.556,0.071,-0.051,-0.01,0.37,-0.022,-0.005,0.065,-0.98,1.49
2024-09-23 11:24:14.656,161787.493,0.036,0.829,-0.559,0.077,-0.036,-0.022,0.268,-0.024,-0.023,0.065,-0.977,1.489
2024-09-23 11:24:14.666,161787.503,0.036,0.827,-0.56,0.058,-0.018,-0.01,0.195,-0.022,-0.032,0.064,-0.975,1.488
2024-09-23 11:24:14.676,161787.513,0.035,0.826,-0.562,0.05,-0.037,0.0,0.175,-0.024,-0.033,0.063,-0.973,1.488
2024-09-23 11:24:14.686,161787.523,0.035,0.825,-0.563,0.044,-0.023,-0.003,0.188,-0.032,-0.031,0.062,-0.971,1.487
2024-09-23 11:24:14.696,161787.533,0.035,0.824,-0.565,0.023,0.012,-0.01,0.209,-0.052,-0.028,0.061,-0.969,1.486
2024-09-23 11:24:14.706,161787.543,0.034,0.823,-0.567,0.007,0.022,-0.002,0.254,-0.022,-0.006,0.06,-0.967,1.486
2024-09-23 11:24:14.716,161787.553,0.034,0.822,-0.569,0.004,0.021,0.02,0.258,0.01,0.015,0.06,-0.964,1.485
2024-09-23 11:24:14.726,161787.563,0.034,0.82,-0.571,0.005,0.03,0.029,0.268,0.039,0.011,0.06,-0.961,1.485
2024-09-23 11:24:14.736,161787.573,0.035,0.818,-0.573,-0.006,0.028,0.02,0.272,0.073,0.013,0.061,-0.959,1.485
2024-09-23 11:24:14.746,161787.583,0.035,0.817,-0.576,-0.012,0.003,0.003,0.257,0.092,0.008,0.061,-0.956,1.485
2024-09-23 11:24:14.756,161787.593,0.036,0.816,-0.578,-0.017,-0.012,-0.014,0.262,0.084,0.005,0.062,-0.954,1.485
2024-09-23 11:24:14.766,161787.603,0.037,0.814,-0.58,-0.017,-0.021,-0.025,0.173,0.092,0.001,0.063,-0.951,1.485
2024-09-23 11:24:14.776,161787.613,0.037,0.813,-0.581,-0.013,-0.028,-0.05,0.079,0.059,0.024,0.064,-0.95,1.485
2024-09-23 11:24:14.786,161787.623,0.038,0.813,-0.581,0.002,0.002,-0.088,0.05,0.026,0.005,0.065,-0.949,1.485
2024-09-23 11:24:14.796,161787.633,0.038,0.813,-0.581,0.009,0.036,-0.04,0.047,0.025,-0.034,0.065,-0.949,1.485
2024-09-23 11:24:14.806,161787.643,0.038,0.813,-0.582,0.013,-0.022,-0.004,0.078,0.057,-0.035,0.065,-0.949,1.484
2024-09-23 11:24:14.816,161787.653,0.038,0.812,-0.582,0.014,-0.018,0.012,0.121,0.086,-0.034,0.065,-0.948,1.484
2024-09-23 11:24:14.826,161787.663,0.038,0.811,-0.583,0.006,0.002,0.021,0.117,0.1,-0.039,0.065,-0.946,1.483
2024-09-23 11:24:14.836,161787.673,0.038,0.811,-0.584,-0.001,0.0,0.021,0.105,0.107,-0.039,0.065,-0.945,1.482
2024-09-23 11:24:14.845,161787.683,0.039,0.81,-0.585,-0.003,0.008,0.014,0.075,0.082,-0.042,0.066,-0.944,1.481
2024-09-23 11:24:14.856,161787.693,0.038,0.81,-0.585,-0.002,-0.018,0.003,-0.016,0.024,-0.044,0.066,-0.944,1.48
2024-09-23 11:24:14.866,161787.703,0.038,0.81,-0.585,0.004,-0.031,-0.013,-0.099,-0.04,-0.041,0.065,-0.944,1.48
2024-09-23 11:24:14.876,161787.713,0.037,0.811,-0.584,0.012,-0.022,-0.029,-0.109,-0.05,-0.045,0.064,-0.946,1.479
2024-09-23 11:24:14.887,161787.723,0.037,0.811,-0.583,0.014,-0.029,-0.025,-0.079,-0.047,-0.051,0.063,-0.946,1.478
2024-09-23 11:24:14.896,161787.733,0.036,0.812,-0.583,0.009,-0.013,-0.005,-0.045,-0.044,-0.061,0.062,-0.947,1.478
2024-09-23 11:24:14.906,161787.743,0.035,0.812,-0.583,0.002,0.029,0.009,-0.012,-0.048,-0.061,0.061,-0.947,1.477
2024-09-23 11:24:14.916,161787.753,0.035,0.812,-0.583,0.003,0.025,0.01,0.044,-0.033,-0.062,0.059,-0.947,1.476
2024-09-23 11:24:14.926,161787.763,0.034,0.812,-0.583,0.009,0.005,0.01,0.091,-0.013,-0.053,0.058,-0.947,1.474
2024-09-23 11:24:14.936,161787.773,0.034,0.811,-0.584,0.003,0.01,0.016,0.139,-0.012,-0.048,0.057,-0.946,1.474
2024-09-23 11:24:14.946,161787.783,0.033,0.81,-0.586,-0.003,0.027,0.016,0.166,-0.024,-0.04,0.057,-0.944,1.473
2024-09-23 11:24:14.956,161787.793,0.033,0.809,-0.587,-0.003,0.023,0.015,0.188,-0.041,-0.047,0.056,-0.942,1.472
2024-09-23 11:24:14.965,161787.803,0.032,0.808,-0.589,0.003,0.008,0.008,0.22,-0.054,-0.052,0.054,-0.94,1.471
2024-09-23 11:24:14.975,161787.813,0.031,0.806,-0.591,0.006,0.011,0.007,0.246,-0.056,-0.053,0.053,-0.938,1.47
2024-09-23 11:24:14.985,161787.823,0.031,0.805,-0.593,0.008,0.015,0.012,0.269,-0.057,-0.062,0.052,-0.935,1.469
2024-09-23 11:24:14.995,161787.833,0.03,0.803,-0.595,0.006,0.013,0.014,0.288,-0.072,-0.07,0.05,-0.933,1.468
2024-09-23 11:24:15.005,161787.843,0.029,0.802,-0.597,0.005,0.012,0.011,0.321,-0.098,-0.069,0.048,-0.93,1.466
2024-09-23 11:24:15.016,161787.853,0.028,0.8,-0.6,0.006,0.013,0.011,0.355,-0.105,-0.076,0.046,-0.927,1.465
2024-09-23 11:24:15.025,161787.863,0.027,0.798,-0.603,0.01,0.012,0.015,0.374,-0.009,-0.043,0.044,-0.923,1.464
2024-09-23 11:24:15.035,161787.872,0.027,0.796,-0.605,0.008,0.012,0.017,0.236,0.029,0.068,0.044,-0.92,1.463
2024-09-23 11:24:15.045,161787.882,0.027,0.795,-0.606,-0.004,0.021,0.017,0.199,0.009,-0.005,0.045,-0.918,1.464
2024-09-23 11:24:15.055,161787.892,0.027,0.794,-0.608,-0.02,0.019,-0.012,0.109,0.011,0.007,0.045,-0.917,1.464
2024-09-23 11:24:15.065,161787.902,0.028,0.794,-0.608,0.016,-0.035,-0.006,0.007,-0.002,0.042,0.045,-0.917,1.464
2024-09-23 11:24:15.075,161787.912,0.028,0.793,-0.608,-0.01,-0.075,-0.016,0.028,-0.063,0.037,0.046,-0.917,1.465
2024-09-23 11:24:15.085,161787.922,0.028,0.793,-0.608,-0.002,-0.001,-0.029,-0.001,-0.044,0.057,0.046,-0.916,1.466
2024-09-23 11:24:15.095,161787.932,0.028,0.793,-0.608,0.011,-0.009,-0.014,0.024,-0.059,0.093,0.046,-0.916,1.467
2024-09-23 11:24:15.105,161787.942,0.028,0.793,-0.609,0.015,-0.032,-0.018,0.145,-0.12,0.104,0.046,-0.915,1.468
2024-09-23 11:24:15.115,161787.952,0.029,0.792,-0.61,-0.001,-0.014,-0.026,0.133,-0.053,0.121,0.047,-0.914,1.47
2024-09-23 11:24:15.125,161787.962,0.029,0.791,-0.611,0.0,0.019,-0.017,0.054,-0.094,0.111,0.048,-0.913,1.472
2024-09-23 11:24:15.135,161787.972,0.029,0.791,-0.611,-0.0,-0.006,-0.017,-0.017,-0.052,0.098,0.048,-0.913,1.474
2024-09-23 11:24:15.146,161787.982,0.03,0.792,-0.61,-0.026,-0.015,0.009,-0.173,-0.074,0.062,0.049,-0.914,1.475
2024-09-23 11:24:15.155,161787.992,0.03,0.793,-0.609,-0.011,-0.031,0.022,-0.24,-0.041,0.036,0.049,-0.916,1.476
2024-09-23 11:24:15.165,161788.002,0.03,0.795,-0.606,-0.018,-0.073,0.008,-0.308,0.037,0.023,0.049,-0.918,1.477
2024-09-23 11:24:15.175,161788.012,0.03,0.797,-0.604,-0.008,-0.029,-0.007,-0.342,0.069,0.029,0.05,-0.922,1.477
2024-09-23 11:24:15.185,161788.022,0.031,0.799,-0.601,-0.018,-0.015,-0.018,-0.334,0.084,0.012,0.052,-0.925,1.478
2024-09-23 11:24:15.195,161788.032,0.032,0.8,-0.599,-0.007,-0.07,0.017,-0.174,0.135,0.005,0.053,-0.927,1.478
2024-09-23 11:24:15.205,161788.042,0.033,0.801,-0.598,0.003,-0.051,0.06,-0.134,0.19,-0.019,0.055,-0.929,1.478
2024-09-23 11:24:15.215,161788.052,0.034,0.802,-0.597,-0.009,-0.006,0.069,-0.181,0.198,0.006,0.057,-0.93,1.478
2024-09-23 11:24:15.225,161788.062,0.035,0.803,-0.595,-0.021,0.031,0.006,-0.238,0.162,0.004,0.059,-0.932,1.479
2024-09-23 11:24:15.236,161788.072,0.036,0.804,-0.593,-0.015,0.071,-0.023,-0.263,0.115,0.003,0.06,-0.935,1.479
2024-09-23 11:24:15.245,161788.082,0.037,0.806,-0.591,-0.0,-0.015,-0.04,-0.255,0.115,0.014,0.062,-0.937,1.479
2024-09-23 11:24:15.255,161788.092,0.037,0.807,-0.589,0.007,-0.058,-0.031,-0.215,0.145,0.022,0.063,-0.94,1.48
2024-09-23 11:24:15.265,161788.102,0.039,0.808,-0.587,-0.0,-0.007,-0.003,-0.191,0.159,0.033,0.065,-0.941,1.481
2024-09-23 11:24:15.275,161788.112,0.04,0.809,-0.586,-0.012,0.021,0.006,-0.165,0.163,0.038,0.068,-0.943,1.481
2024-09-23 11:24:15.285,161788.122,0.041,0.81,-0.585,-0.012,0.012,0.003,-0.12,0.18,0.032,0.07,-0.945,1.482
2024-09-23 11:24:15.295,161788.132,0.042,0.811,-0.584,-0.006,-0.005,0.002,-0.09,0.189,0.026,0.072,-0.946,1.483
2024-09-23 11:24:15.305,161788.142,0.044,0.811,-0.583,-0.005,0.001,0.005,-0.059,0.196,0.017,0.075,-0.946,1.483
2024-09-23 11:24:15.315,161788.152,0.045,0.812,-0.583,-0.005,0.011,0.009,-0.039,0.172,0.004,0.077,-0.947,1.483
2024-09-23 11:24:15.325,161788.162,0.046,0.812,-0.582,-0.001,0.003,0.006,-0.028,0.117,-0.009,0.078,-0.947,1.483
2024-09-23 11:24:15.335,161788.172,0.046,0.812,-0.582,0.006,0.006,0.002,0.006,0.059,-0.028,0.079,-0.947,1.483
2024-09-23 11:24:15.345,161788.182,0.046,0.812,-0.582,0.018,0.017,-0.002,0.049,0.014,-0.049,0.078,-0.947,1.482
2024-09-23 11:24:15.355,161788.192,0.045,0.811,-0.583,0.023,0.011,0.003,0.094,-0.032,-0.072,0.077,-0.946,1.481
2024-09-23 11:24:15.365,161788.202,0.044,0.811,-0.584,0.025,0.022,0.009,0.148,-0.064,-0.09,0.076,-0.945,1.48
2024-09-23 11:24:15.375,161788.212,0.043,0.81,-0.585,0.024,0.029,0.014,0.213,-0.085,-0.104,0.073,-0.943,1.478
2024-09-23 11:24:15.385,161788.222,0.042,0.808,-0.587,0.023,0.02,0.017,0.261,-0.109,-0.111,0.071,-0.941,1.476
2024-09-23 11:24:15.394,161788.232,0.04,0.807,-0.59,0.015,0.021,0.022,0.317,-0.107,-0.112,0.068,-0.939,1.473
2024-09-23 11:24:15.405,161788.242,0.038,0.805,-0.592,0.01,0.021,0.018,0.337,-0.107,-0.108,0.065,-0.935,1.471
2024-09-23 11:24:15.415,161788.252,0.037,0.803,-0.595,0.007,0.018,0.015,0.339,-0.11,-0.101,0.062,-0.932,1.469
2024-09-23 11:24:15.425,161788.262,0.036,0.801,-0.598,-0.0,0.02,0.018,0.353,-0.149,-0.093,0.06,-0.929,1.467
2024-09-23 11:24:15.435,161788.272,0.034,0.799,-0.601,0.003,0.007,0.013,0.39,-0.183,-0.097,0.057,-0.925,1.466
2024-09-23 11:24:15.445,161788.282,0.032,0.796,-0.604,0.009,0.002,0.007,0.461,-0.203,-0.103,0.053,-0.921,1.464
2024-09-23 11:24:15.455,161788.292,0.03,0.794,-0.608,0.012,0.018,0.009,0.506,-0.152,-0.08,0.05,-0.917,1.462
2024-09-23 11:24:15.464,161788.302,0.03,0.79,-0.612,0.01,0.037,0.02,0.478,-0.075,0.012,0.048,-0.911,1.461
2024-09-23 11:24:15.474,161788.312,0.029,0.788,-0.615,0.006,0.035,0.032,0.393,-0.052,-0.015,0.048,-0.907,1.461
2024-09-23 11:24:15.485,161788.322,0.029,0.786,-0.618,-0.023,0.033,0.009,0.356,-0.045,-0.008,0.047,-0.904,1.46
2024-09-23 11:24:15.494,161788.332,0.029,0.784,-0.621,0.002,-0.005,-0.003,0.279,-0.001,0.017,0.046,-0.9,1.46
2024-09-23 11:24:15.504,161788.342,0.029,0.782,-0.623,-0.002,-0.096,0.0,0.214,0.045,0.046,0.047,-0.898,1.46
2024-09-23 11:24:15.514,161788.352,0.03,0.781,-0.624,-0.014,0.015,-0.015,0.173,0.072,0.058,0.048,-0.896,1.461
2024-09-23 11:24:15.525,161788.362,0.031,0.78,-0.625,-0.022,0.025,-0.009,0.116,0.1,0.048,0.049,-0.894,1.462
2024-09-23 11:24:15.535,161788.372,0.032,0.779,-0.626,-0.013,-0.018,-0.007,0.067,0.1,0.056,0.051,-0.893,1.462
2024-09-23 11:24:15.543,161788.382,0.033,0.779,-0.626,-0.012,-0.014,-0.008,-0.016,0.121,0.068,0.053,-0.893,1.463
2024-09-23 11:24:15.554,161788.392,0.034,0.779,-0.626,-0.009,-0.026,-0.016,0.006,0.115,0.067,0.055,-0.893,1.464
2024-09-23 11:24:15.564,161788.402,0.035,0.779,-0.626,0.002,-0.036,-0.005,0.015,0.108,0.023,0.056,-0.893,1.465
2024-09-23 11:24:15.574,161788.412,0.036,0.779,-0.626,0.017,-0.044,0.011,-0.03,0.012,0.009,0.057,-0.893,1.465
2024-09-23 11:24:15.584,161788.422,0.036,0.779,-0.626,0.003,-0.008,-0.0,-0.009,0.022,0.005,0.057,-0.893,1.466
2024-09-23 11:24:15.594,161788.432,0.036,0.779,-0.626,0.006,-0.041,0.018,0.003,0.063,-0.002,0.058,-0.893,1.466
2024-09-23 11:24:15.604,161788.442,0.037,0.779,-0.626,0.047,-0.021,0.027,-0.049,0.091,-0.024,0.058,-0.893,1.465
2024-09-23 11:24:15.614,161788.452,0.037,0.78,-0.625,0.006,0.027,0.02,-0.164,0.115,-0.024,0.059,-0.894,1.465
2024-09-23 11:24:15.624,161788.462,0.038,0.781,-0.623,-0.037,-0.078,0.03,-0.302,0.134,0.039,0.061,-0.897,1.465
2024-09-23 11:24:15.634,161788.471,0.039,0.784,-0.62,-0.047,-0.127,0.007,-0.487,0.126,0.113,0.063,-0.901,1.467
2024-09-23 11:24:15.644,161788.481,0.041,0.787,-0.616,-0.057,-0.093,-0.043,-0.588,0.222,0.173,0.067,-0.906,1.47
2024-09-23 11:24:15.655,161788.491,0.045,0.791,-0.611,-0.048,-0.066,-0.066,-0.674,0.324,0.201,0.073,-0.912,1.474
2024-09-23 11:24:15.665,161788.501,0.048,0.795,-0.604,-0.043,-0.025,-0.049,-0.912,0.26,0.093,0.079,-0.92,1.477
2024-09-23 11:24:15.674,161788.511,0.049,0.801,-0.596,-0.077,0.041,-0.027,-1.068,0.155,0.04,0.083,-0.929,1.479
2024-09-23 11:24:15.684,161788.521,0.05,0.807,-0.588,-0.121,0.034,-0.031,-0.998,0.073,0.049,0.086,-0.94,1.482
2024-09-23 11:24:15.694,161788.531,0.051,0.813,-0.58,-0.096,-0.068,-0.065,-0.771,0.071,0.073,0.088,-0.949,1.484
2024-09-23 11:24:15.704,161788.541,0.052,0.816,-0.576,-0.053,-0.047,-0.06,-0.441,0.038,-0.007,0.09,-0.955,1.486
2024-09-23 11:24:15.714,161788.551,0.052,0.818,-0.572,-0.05,0.058,-0.045,-0.27,0.032,0.029,0.091,-0.958,1.486
2024-09-23 11:24:15.724,161788.561,0.051,0.82,-0.57,-0.054,0.084,-0.035,-0.369,-0.191,-0.19,0.09,-0.961,1.486
2024-09-23 11:24:15.735,161788.571,0.05,0.821,-0.568,-0.07,0.058,-0.004,-0.074,-0.077,0.009,0.087,-0.964,1.484
2024-09-23 11:24:15.744,161788.581,0.049,0.822,-0.567,-0.047,0.077,0.024,-0.157,-0.17,-0.12,0.085,-0.965,1.483
2024-09-23 11:24:15.754,161788.591,0.047,0.823,-0.567,-0.086,0.11,0.037,-0.096,-0.151,-0.075,0.083,-0.966,1.482
2024-09-23 11:24:15.764,161788.601,0.045,0.823,-0.566,-0.033,0.055,0.038,-0.156,-0.177,-0.087,0.08,-0.967,1.48
2024-09-23 11:24:15.774,161788.611,0.043,0.824,-0.564,-0.052,0.075,0.09,-0.171,-0.194,-0.085,0.077,-0.969,1.479
2024-09-23 11:24:15.785,161788.621,0.042,0.825,-0.563,-0.028,0.011,0.09,-0.128,-0.196,-0.083,0.074,-0.971,1.478
2024-09-23 11:24:15.794,161788.631,0.04,0.826,-0.562,-0.01,-0.018,0.08,-0.047,-0.186,-0.062,0.071,-0.972,1.477
2024-09-23 11:24:15.804,161788.641,0.038,0.826,-0.563,-0.001,-0.015,0.064,0.06,-0.185,-0.057,0.068,-0.972,1.476
2024-09-23 11:24:15.814,161788.651,0.037,0.825,-0.564,0.014,-0.006,0.052,0.15,-0.172,-0.054,0.066,-0.971,1.474
2024-09-23 11:24:15.824,161788.661,0.036,0.824,-0.565,0.034,-0.009,0.034,0.228,-0.17,-0.052,0.063,-0.969,1.473
2024-09-23 11:24:15.835,161788.671,0.034,0.823,-0.567,0.048,-0.015,0.032,0.264,-0.155,-0.048,0.06,-0.966,1.472
2024-09-23 11:24:15.844,161788.681,0.033,0.821,-0.569,0.058,-0.023,0.032,0.271,-0.142,-0.04,0.058,-0.964,1.471
2024-09-23 11:24:15.854,161788.691,0.032,0.82,-0.572,0.07,-0.043,0.023,0.267,-0.116,-0.028,0.056,-0.961,1.47
2024-09-23 11:24:15.864,161788.701,0.031,0.818,-0.574,0.08,-0.056,0.019,0.236,-0.07,-0.03,0.054,-0.959,1.469
2024-09-23 11:24:15.874,161788.711,0.031,0.817,-0.576,0.083,-0.055,0.021,0.2,-0.013,-0.015,0.053,-0.956,1.469
2024-09-23 11:24:15.884,161788.721,0.031,0.816,-0.577,0.081,-0.042,0.017,0.193,0.047,0.021,0.054,-0.955,1.469
2024-09-23 11:24:15.894,161788.731,0.032,0.815,-0.579,0.085,-0.032,0.007,0.181,0.122,-0.007,0.054,-0.953,1.469
2024-09-23 11:24:15.904,161788.741,0.032,0.814,-0.58,0.111,-0.038,-0.011,0.167,0.151,-0.024,0.056,-0.951,1.468
2024-09-23 11:24:15.915,161788.751,0.033,0.813,-0.581,0.096,-0.023,-0.031,0.108,0.127,-0.052,0.056,-0.95,1.467
2024-09-23 11:24:15.924,161788.761,0.033,0.813,-0.582,0.073,-0.011,-0.048,0.052,0.105,-0.065,0.057,-0.949,1.466
2024-09-23 11:24:15.934,161788.771,0.033,0.813,-0.582,0.073,-0.027,-0.056,0.023,0.091,-0.065,0.057,-0.949,1.465
2024-09-23 11:24:15.944,161788.781,0.033,0.812,-0.582,0.068,-0.024,-0.048,0.015,0.083,-0.047,0.057,-0.948,1.465
2024-09-23 11:24:15.954,161788.791,0.033,0.812,-0.582,0.049,-0.003,-0.027,0.014,0.08,-0.027,0.057,-0.948,1.464
2024-09-23 11:24:15.964,161788.801,0.034,0.812,-0.582,0.034,0.011,-0.006,0.006,0.064,-0.016,0.058,-0.948,1.464
2024-09-23 11:24:15.974,161788.811,0.034,0.812,-0.582,0.02,-0.006,0.007,0.032,0.058,-0.011,0.059,-0.948,1.464
2024-09-23 11:24:15.984,161788.821,0.035,0.812,-0.583,0.006,-0.007,0.008,0.068,0.045,-0.011,0.059,-0.947,1.464
2024-09-23 11:24:15.994,161788.831,0.035,0.811,-0.583,-0.009,0.009,-0.003,0.084,0.026,-0.016,0.06,-0.947,1.464
2024-09-23 11:24:16.004,161788.841,0.035,0.811,-0.584,-0.02,0.02,-0.006,0.109,0.001,-0.019,0.059,-0.946,1.463
2024-09-23 11:24:16.014,161788.851,0.035,0.81,-0.585,-0.025,0.019,-0.013,0.125,-0.01,-0.017,0.059,-0.944,1.463
2024-09-23 11:24:16.024,161788.861,0.035,0.809,-0.586,-0.028,0.018,-0.019,0.108,-0.016,0.008,0.059,-0.943,1.463
2024-09-23 11:24:16.034,161788.871,0.035,0.809,-0.587,-0.031,0.012,-0.012,0.056,-0.013,0.016,0.059,-0.942,1.463
2024-09-23 11:24:16.044,161788.881,0.035,0.809,-0.587,-0.029,-0.0,-0.003,-0.001,-0.018,0.029,0.059,-0.942,1.463
2024-09-23 11:24:16.053,161788.891,0.035,0.809,-0.587,-0.024,-0.018,-0.005,-0.015,-0.009,0.024,0.059,-0.942,1.464
2024-09-23 11:24:16.063,161788.901,0.035,0.809,-0.587,-0.02,-0.031,-0.005,-0.006,0.019,0.023,0.06,-0.942,1.464
2024-09-23 11:24:16.073,161788.911,0.035,0.809,-0.587,-0.014,-0.023,0.003,0.022,0.023,0.03,0.06,-0.942,1.465
2024-09-23 11:24:16.084,161788.921,0.036,0.809,-0.587,-0.011,0.004,0.002,0.044,0.002,0.013,0.061,-0.942,1.465
2024-09-23 11:24:16.093,161788.931,0.036,0.808,-0.588,-0.001,0.009,0.002,0.094,-0.013,0.009,0.061,-0.941,1.465
2024-09-23 11:24:16.104,161788.941,0.036,0.808,-0.589,0.011,0.01,0.001,0.14,-0.025,-0.002,0.06,-0.94,1.465
2024-09-23 11:24:16.113,161788.951,0.035,0.807,-0.59,0.014,0.018,-0.003,0.192,-0.027,-0.007,0.06,-0.938,1.464
2024-09-23 11:24:16.123,161788.961,0.035,0.805,-0.592,0.014,0.029,0.004,0.246,-0.036,-0.027,0.059,-0.936,1.464
2024-09-23 11:24:16.134,161788.971,0.034,0.804,-0.594,0.017,0.028,0.007,0.305,-0.047,-0.044,0.057,-0.933,1.463
2024-09-23 11:24:16.143,161788.981,0.033,0.802,-0.597,0.014,0.017,0.013,0.333,-0.052,-0.059,0.056,-0.93,1.461
2024-09-23 11:24:16.153,161788.991,0.032,0.8,-0.6,0.012,0.023,0.017,0.359,-0.075,-0.069,0.054,-0.927,1.46
2024-09-23 11:24:16.164,161789.001,0.031,0.797,-0.603,0.009,0.019,0.015,0.393,-0.081,-0.075,0.052,-0.923,1.458
2024-09-23 11:24:16.174,161789.011,0.03,0.795,-0.606,0.01,0.003,0.013,0.438,-0.085,-0.07,0.05,-0.919,1.457
2024-09-23 11:24:16.183,161789.021,0.029,0.792,-0.609,0.012,0.019,0.015,0.479,-0.068,-0.048,0.048,-0.915,1.455
2024-09-23 11:24:16.193,161789.031,0.029,0.79,-0.613,0.011,0.031,0.016,0.501,-0.065,-0.059,0.047,-0.91,1.454
2024-09-23 11:24:16.203,161789.041,0.028,0.787,-0.617,0.015,0.025,0.017,0.446,0.054,0.006,0.046,-0.906,1.453
2024-09-23 11:24:16.213,161789.051,0.029,0.785,-0.619,0.007,0.019,0.016,0.266,0.001,0.033,0.047,-0.902,1.454
2024-09-23 11:24:16.223,161789.06,0.029,0.783,-0.621,-0.009,0.001,0.019,0.204,0.011,-0.023,0.046,-0.9,1.454
2024-09-23 11:24:16.233,161789.07,0.029,0.782,-0.622,-0.013,-0.023,-0.017,0.104,-0.03,0.022,0.046,-0.898,1.454
2024-09-23 11:24:16.243,161789.08,0.029,0.782,-0.623,0.006,-0.075,-0.033,0.072,-0.02,0.013,0.046,-0.898,1.454
2024-09-23 11:24:16.253,161789.09,0.029,0.781,-0.623,-0.006,-0.07,-0.043,0.016,-0.014,0.044,0.046,-0.897,1.454
2024-09-23 11:24:16.263,161789.1,0.029,0.781,-0.623,0.015,0.013,-0.044,0.006,-0.064,0.028,0.046,-0.897,1.455
2024-09-23 11:24:16.273,161789.11,0.029,0.781,-0.623,-0.005,0.009,-0.047,0.008,-0.066,0.023,0.046,-0.897,1.455
2024-09-23 11:24:16.283,161789.12,0.028,0.781,-0.623,0.008,-0.004,-0.05,-0.024,-0.114,0.028,0.045,-0.897,1.455
2024-09-23 11:24:16.295,161789.13,0.028,0.782,-0.623,0.01,-0.011,-0.046,-0.058,-0.086,0.046,0.045,-0.897,1.456
2024-09-23 11:24:16.303,161789.14,0.028,0.782,-0.622,0.002,-0.009,-0.013,-0.099,-0.123,0.047,0.044,-0.898,1.457
2024-09-23 11:24:16.313,161789.15,0.027,0.783,-0.622,0.01,-0.034,0.01,-0.162,-0.151,0.058,0.044,-0.899,1.458
2024-09-23 11:24:16.323,161789.16,0.027,0.784,-0.62,-0.004,-0.065,0.023,-0.196,-0.149,0.067,0.043,-0.901,1.459
2024-09-23 11:24:16.334,161789.17,0.026,0.785,-0.619,-0.007,-0.06,0.037,-0.16,-0.17,0.047,0.042,-0.903,1.46
2024-09-23 11:24:16.343,161789.18,0.026,0.786,-0.618,-0.013,-0.037,0.024,-0.108,-0.115,0.06,0.042,-0.904,1.461
2024-09-23 11:24:16.354,161789.19,0.026,0.786,-0.617,-0.013,0.01,0.017,-0.124,-0.04,0.065,0.042,-0.905,1.462
2024-09-23 11:24:16.364,161789.2,0.026,0.787,-0.616,-0.014,0.055,0.003,-0.204,-0.044,0.033,0.042,-0.906,1.463
2024-09-23 11:24:16.373,161789.21,0.026,0.789,-0.614,-0.023,0.026,-0.009,-0.25,-0.032,0.034,0.042,-0.909,1.464
2024-09-23 11:24:16.383,161789.22,0.026,0.79,-0.613,-0.014,-0.023,0.005,-0.16,0.025,0.028,0.043,-0.911,1.464
2024-09-23 11:24:16.393,161789.23,0.027,0.791,-0.612,-0.006,-0.045,0.022,-0.166,0.051,0.031,0.043,-0.912,1.465
2024-09-23 11:24:16.403,161789.24,0.027,0.792,-0.61,-0.021,-0.044,0.016,-0.214,0.089,0.036,0.045,-0.914,1.465
2024-09-23 11:24:16.413,161789.25,0.028,0.793,-0.608,-0.024,-0.068,0.043,-0.235,0.142,0.038,0.046,-0.916,1.466
2024-09-23 11:24:16.423,161789.26,0.029,0.795,-0.606,-0.022,-0.055,0.069,-0.258,0.129,0.043,0.048,-0.918,1.467
2024-09-23 11:24:16.433,161789.27,0.031,0.796,-0.604,-0.029,-0.018,0.049,-0.234,0.115,0.052,0.05,-0.921,1.468
2024-09-23 11:24:16.443,161789.28,0.032,0.797,-0.603,-0.023,-0.009,0.001,-0.177,0.093,0.054,0.052,-0.923,1.469
2024-09-23 11:24:16.453,161789.29,0.032,0.798,-0.601,-0.008,0.011,-0.026,-0.116,0.092,0.049,0.054,-0.924,1.47
2024-09-23 11:24:16.463,161789.3,0.033,0.799,-0.601,-0.003,0.035,-0.016,-0.061,0.088,0.03,0.055,-0.925,1.471
2024-09-23 11:24:16.473,161789.31,0.034,0.799,-0.6,0.004,0.047,0.001,0.001,0.102,0.014,0.057,-0.926,1.471
2024-09-23 11:24:16.483,161789.32,0.035,0.799,-0.601,0.007,0.035,0.011,0.04,0.11,0.002,0.058,-0.925,1.471
2024-09-23 11:24:16.493,161789.33,0.035,0.798,-0.601,0.008,0.027,0.016,0.051,0.116,-0.015,0.059,-0.925,1.471
2024-09-23 11:24:16.503,161789.34,0.036,0.798,-0.601,0.008,0.016,0.013,0.057,0.127,-0.051,0.059,-0.924,1.47
2024-09-23 11:24:16.513,161789.35,0.036,0.798,-0.602,0.01,-0.004,0.007,0.044,0.129,-0.053,0.06,-0.924,1.469
2024-09-23 11:24:16.523,161789.36,0.036,0.798,-0.602,0.005,-0.013,0.004,0.021,0.123,-0.053,0.06,-0.924,1.468
2024-09-23 11:24:16.533,161789.37,0.037,0.798,-0.602,-0.008,0.005,-0.004,0.029,0.077,-0.051,0.061,-0.923,1.468
2024-09-23 11:24:16.543,161789.38,0.036,0.797,-0.602,0.008,0.006,-0.021,0.076,0.033,-0.063,0.06,-0.923,1.467
2024-09-23 11:24:16.553,161789.39,0.036,0.797,-0.603,0.018,-0.005,-0.034,0.179,0.024,-0.089,0.06,-0.922,1.465
2024-09-23 11:24:16.563,161789.4,0.035,0.795,-0.605,0.025,0.021,-0.002,0.27,0.004,-0.099,0.058,-0.92,1.463
2024-09-23 11:24:16.573,161789.41,0.035,0.794,-0.607,0.018,0.049,0.03,0.35,-0.04,-0.101,0.057,-0.917,1.462
2024-09-23 11:24:16.583,161789.42,0.033,0.791,-0.61,0.018,0.047,0.041,0.442,-0.076,-0.105,0.055,-0.913,1.459
2024-09-23 11:24:16.593,161789.43,0.032,0.788,-0.614,0.029,0.037,0.042,0.533,-0.115,-0.103,0.052,-0.908,1.457
2024-09-23 11:24:16.602,161789.44,0.03,0.785,-0.619,0.026,0.043,0.03,0.601,-0.148,-0.105,0.049,-0.903,1.455
2024-09-23 11:24:16.613,161789.45,0.029,0.781,-0.624,0.021,0.04,0.018,0.623,-0.163,-0.092,0.046,-0.897,1.453
2024-09-23 11:24:16.622,161789.46,0.028,0.778,-0.628,0.019,0.026,0.014,0.528,-0.002,0.039,0.044,-0.891,1.452
2024-09-23 11:24:16.633,161789.47,0.028,0.775,-0.631,0.007,0.018,0.01,0.332,-0.062,0.002,0.044,-0.887,1.453
2024-09-23 11:24:16.643,161789.48,0.027,0.773,-0.634,-0.017,-0.001,0.0,0.263,-0.059,-0.031,0.043,-0.884,1.452
2024-09-23 11:24:16.652,161789.49,0.027,0.772,-0.635,-0.021,-0.037,-0.052,0.2,-0.027,-0.004,0.042,-0.881,1.451
2024-09-23 11:24:16.662,161789.5,0.027,0.77,-0.637,-0.013,-0.11,-0.027,0.201,0.051,0.005,0.042,-0.879,1.451
2024-09-23 11:24:16.672,161789.51,0.028,0.769,-0.638,-0.01,-0.035,-0.003,0.16,0.055,0.042,0.043,-0.878,1.452
2024-09-23 11:24:16.683,161789.52,0.028,0.768,-0.64,-0.008,0.041,0.003,0.125,0.096,0.006,0.044,-0.876,1.452
2024-09-23 11:24:16.692,161789.53,0.029,0.768,-0.64,-0.01,0.008,-0.012,0.007,0.067,0.023,0.045,-0.875,1.452
2024-09-23 11:24:16.702,161789.54,0.03,0.768,-0.64,0.002,-0.003,-0.022,-0.03,0.097,0.031,0.046,-0.875,1.452
2024-09-23 11:24:16.712,161789.55,0.031,0.768,-0.64,-0.01,-0.011,-0.016,-0.042,0.152,0.025,0.048,-0.875,1.453
2024-09-23 11:24:16.722,161789.56,0.031,0.768,-0.639,0.012,-0.002,-0.015,-0.081,0.067,0.017,0.049,-0.876,1.453
2024-09-23 11:24:16.733,161789.57,0.032,0.769,-0.639,-0.004,-0.025,-0.015,-0.04,0.105,0.004,0.05,-0.877,1.453
2024-09-23 11:24:16.743,161789.58,0.033,0.769,-0.639,-0.004,-0.064,0.017,-0.016,0.041,-0.005,0.051,-0.877,1.453
2024-09-23 11:24:16.752,161789.59,0.033,0.769,-0.639,-0.001,-0.043,0.003,0.038,-0.012,0.001,0.051,-0.877,1.453
2024-09-23 11:24:16.762,161789.6,0.033,0.768,-0.639,-0.022,0.0,-0.001,0.124,-0.011,-0.002,0.051,-0.876,1.453
2024-09-23 11:24:16.772,161789.61,0.032,0.768,-0.64,0.003,-0.002,0.008,0.114,-0.035,-0.004,0.051,-0.875,1.453
2024-09-23 11:24:16.782,161789.62,0.032,0.767,-0.641,0.003,0.042,0.009,0.1,-0.015,-0.026,0.05,-0.874,1.453
2024-09-23 11:24:16.792,161789.63,0.032,0.766,-0.642,-0.018,-0.002,0.038,0.031,0.022,-0.021,0.05,-0.873,1.452
2024-09-23 11:24:16.802,161789.64,0.032,0.767,-0.641,-0.017,-0.042,0.057,-0.082,0.026,0.025,0.05,-0.873,1.452
2024-09-23 11:24:16.813,161789.649,0.033,0.768,-0.64,-0.032,-0.023,0.039,-0.259,0.031,0.04,0.051,-0.875,1.453
2024-09-23 11:24:16.822,161789.659,0.033,0.77,-0.637,-0.039,-0.071,0.024,-0.427,0.062,0.078,0.052,-0.878,1.454
2024-09-23 11:24:16.833,161789.669,0.034,0.773,-0.634,-0.034,-0.102,0.018,-0.538,0.102,0.053,0.054,-0.883,1.456
2024-09-23 11:24:16.842,161789.679,0.036,0.777,-0.629,-0.048,-0.12,0.001,-0.76,0.148,0.119,0.057,-0.89,1.458
2024-09-23 11:24:16.852,161789.689,0.038,0.782,-0.622,-0.059,-0.132,-0.027,-0.875,0.373,0.162,0.062,-0.898,1.461
2024-09-23 11:24:16.862,161789.699,0.042,0.788,-0.614,-0.069,-0.042,-0.054,-1.057,0.45,0.142,0.069,-0.907,1.464
2024-09-23 11:24:16.872,161789.709,0.046,0.795,-0.605,-0.065,0.078,-0.062,-1.185,0.393,0.101,0.076,-0.918,1.468
2024-09-23 11:24:16.882,161789.719,0.049,0.802,-0.596,-0.072,-0.011,-0.072,-1.11,0.374,0.134,0.082,-0.93,1.471
2024-09-23 11:24:16.892,161789.729,0.052,0.807,-0.588,-0.04,-0.127,-0.069,-0.844,0.328,0.093,0.089,-0.94,1.475
2024-09-23 11:24:16.902,161789.739,0.054,0.811,-0.582,-0.01,-0.019,-0.053,-0.622,0.22,0.042,0.093,-0.947,1.477
2024-09-23 11:24:16.912,161789.749,0.056,0.814,-0.578,-0.028,0.092,-0.037,-0.398,0.115,0.077,0.096,-0.952,1.479
2024-09-23 11:24:16.922,161789.759,0.056,0.816,-0.575,-0.027,0.098,-0.03,-0.236,-0.039,-0.217,0.097,-0.955,1.479
2024-09-23 11:24:16.933,161789.769,0.055,0.817,-0.574,-0.022,0.075,0.035,-0.046,0.004,0.099,0.096,-0.957,1.477
2024-09-23 11:24:16.942,161789.779,0.055,0.817,-0.574,-0.054,0.085,0.072,-0.012,-0.135,-0.095,0.095,-0.957,1.478
2024-09-23 11:24:16.952,161789.789,0.054,0.817,-0.574,-0.066,0.084,0.048,0.15,-0.102,-0.03,0.093,-0.956,1.477
2024-09-23 11:24:16.962,161789.799,0.052,0.816,-0.575,0.044,0.058,0.04,0.135,-0.137,-0.082,0.091,-0.955,1.475
2024-09-23 11:24:16.972,161789.809,0.051,0.815,-0.577,-0.034,0.126,0.052,0.127,-0.162,-0.104,0.088,-0.954,1.473
2024-09-23 11:24:16.982,161789.819,0.049,0.815,-0.578,-0.006,0.058,0.037,0.117,-0.178,-0.115,0.084,-0.952,1.471
2024-09-23 11:24:16.992,161789.829,0.047,0.814,-0.579,0.01,-0.017,0.016,0.123,-0.159,-0.083,0.081,-0.951,1.469
2024-09-23 11:24:17.002,161789.839,0.045,0.814,-0.58,0.015,-0.023,0.019,0.066,-0.165,-0.072,0.078,-0.95,1.468
2024-09-23 11:24:17.012,161789.849,0.044,0.813,-0.58,0.021,-0.044,0.012,0.023,-0.16,-0.064,0.076,-0.95,1.467
2024-09-23 11:24:17.021,161789.859,0.043,0.813,-0.58,0.033,-0.063,-0.002,-0.009,-0.145,-0.047,0.074,-0.95,1.466
2024-09-23 11:24:17.031,161789.869,0.041,0.814,-0.58,0.039,-0.06,-0.004,-0.04,-0.156,-0.088,0.071,-0.95,1.465
2024-09-23 11:24:17.041,161789.879,0.04,0.814,-0.58,0.041,-0.057,-0.02,0.029,-0.132,-0.09,0.069,-0.95,1.464
2024-09-23 11:24:17.053,161789.889,0.039,0.813,-0.58,0.047,-0.038,-0.015,0.074,-0.093,-0.046,0.066,-0.95,1.462
2024-09-23 11:24:17.062,161789.899,0.037,0.813,-0.581,0.055,-0.014,0.015,0.09,-0.116,-0.136,0.064,-0.949,1.461
2024-09-23 11:24:17.071,161789.909,0.037,0.812,-0.582,0.06,0.003,0.032,0.141,-0.045,0.085,0.063,-0.948,1.46
2024-09-23 11:24:17.082,161789.919,0.037,0.811,-0.583,0.061,0.01,0.029,0.206,-0.071,0.0,0.063,-0.946,1.461
2024-09-23 11:24:17.092,161789.929,0.037,0.81,-0.586,0.074,-0.001,0.02,0.275,-0.014,0.022,0.062,-0.944,1.461
2024-09-23 11:24:17.102,161789.939,0.036,0.808,-0.588,0.108,-0.005,-0.001,0.219,-0.048,-0.015,0.062,-0.941,1.46
2024-09-23 11:24:17.112,161789.949,0.036,0.807,-0.589,0.046,0.039,-0.005,0.139,-0.069,-0.034,0.061,-0.94,1.46
2024-09-23 11:24:17.122,161789.959,0.035,0.807,-0.59,0.037,-0.025,-0.023,0.094,-0.046,-0.025,0.06,-0.938,1.459
2024-09-23 11:24:17.132,161789.969,0.035,0.806,-0.591,0.042,-0.059,-0.037,0.041,-0.018,-0.014,0.059,-0.938,1.459
2024-09-23 11:24:17.142,161789.979,0.035,0.806,-0.591,0.024,-0.008,-0.042,-0.027,-0.018,-0.029,0.059,-0.938,1.459
2024-09-23 11:24:17.152,161789.989,0.035,0.807,-0.59,0.008,0.005,-0.035,-0.058,-0.011,-0.032,0.059,-0.938,1.458
2024-09-23 11:24:17.162,161789.999,0.035,0.807,-0.59,0.009,-0.032,-0.017,-0.033,-0.004,-0.036,0.059,-0.939,1.458
2024-09-23 11:24:17.172,161790.009,0.034,0.807,-0.59,0.006,-0.027,-0.003,0.011,-0.001,-0.024,0.058,-0.939,1.458
2024-09-23 11:24:17.182,161790.019,0.035,0.807,-0.59,-0.008,-0.004,0.01,0.047,-0.012,-0.024,0.058,-0.939,1.458
2024-09-23 11:24:17.192,161790.029,0.034,0.806,-0.59,-0.013,0.004,0.017,0.091,-0.02,-0.014,0.058,-0.938,1.457
2024-09-23 11:24:17.201,161790.039,0.034,0.806,-0.591,-0.018,0.013,0.02,0.108,-0.022,-0.013,0.058,-0.937,1.457
2024-09-23 11:24:17.212,161790.049,0.034,0.805,-0.592,-0.021,0.014,0.023,0.105,-0.021,-0.008,0.057,-0.936,1.457
2024-09-23 11:24:17.222,161790.059,0.034,0.805,-0.593,-0.019,0.018,0.024,0.082,-0.027,-0.009,0.057,-0.935,1.457
2024-09-23 11:24:17.232,161790.069,0.034,0.804,-0.594,-0.02,0.011,0.023,0.082,-0.013,-0.01,0.057,-0.934,1.457
2024-09-23 11:24:17.242,161790.079,0.034,0.804,-0.594,-0.013,-0.006,0.009,0.09,-0.01,-0.004,0.056,-0.933,1.456
2024-09-23 11:24:17.252,161790.089,0.033,0.803,-0.595,-0.002,-0.002,-0.002,0.085,-0.011,-0.005,0.056,-0.932,1.456
2024-09-23 11:24:17.261,161790.099,0.033,0.803,-0.596,-0.002,-0.001,-0.002,0.086,-0.014,-0.009,0.056,-0.932,1.456
2024-09-23 11:24:17.272,161790.109,0.033,0.802,-0.596,0.001,-0.012,-0.004,0.109,-0.011,-0.005,0.056,-0.931,1.456
2024-09-23 11:24:17.281,161790.119,0.033,0.801,-0.597,0.007,-0.013,-0.005,0.121,-0.019,-0.005,0.055,-0.93,1.456
2024-09-23 11:24:17.291,161790.129,0.033,0.801,-0.598,0.008,0.004,0.001,0.139,-0.028,-0.009,0.055,-0.929,1.455
2024-09-23 11:24:17.302,161790.139,0.032,0.8,-0.599,0.007,-0.0,0.008,0.157,-0.032,-0.009,0.054,-0.927,1.455
2024-09-23 11:24:17.311,161790.149,0.032,0.799,-0.6,0.009,-0.001,0.005,0.176,-0.053,-0.008,0.053,-0.926,1.454
2024-09-23 11:24:17.322,161790.159,0.031,0.798,-0.602,0.008,0.008,-0.004,0.183,-0.075,-0.01,0.052,-0.924,1.454
2024-09-23 11:24:17.332,161790.169,0.031,0.797,-0.603,0.008,0.009,-0.01,0.191,-0.084,-0.011,0.051,-0.922,1.454
2024-09-23 11:24:17.341,161790.179,0.03,0.796,-0.605,0.009,-0.001,-0.013,0.229,-0.088,-0.018,0.05,-0.92,1.453
2024-09-23 11:24:17.352,161790.189,0.03,0.794,-0.607,0.005,0.003,0.004,0.279,-0.088,-0.026,0.049,-0.918,1.453
2024-09-23 11:24:17.361,161790.199,0.029,0.793,-0.609,0.004,0.02,0.017,0.316,-0.087,-0.03,0.047,-0.915,1.452
2024-09-23 11:24:17.372,161790.209,0.028,0.791,-0.612,0.005,0.016,0.019,0.362,-0.086,-0.037,0.046,-0.912,1.451
2024-09-23 11:24:17.382,161790.219,0.027,0.788,-0.615,0.005,0.007,0.024,0.416,-0.086,-0.038,0.044,-0.908,1.451
2024-09-23 11:24:17.391,161790.229,0.027,0.786,-0.618,0.003,0.016,0.028,0.464,-0.104,-0.043,0.043,-0.904,1.45
2024-09-23 11:24:17.401,161790.239,0.026,0.783,-0.622,0.004,0.022,0.02,0.51,-0.115,-0.049,0.041,-0.899,1.449
2024-09-23 11:24:17.411,161790.248,0.025,0.78,-0.626,0.003,0.021,0.01,0.494,0.012,0.005,0.04,-0.894,1.448
2024-09-23 11:24:17.421,161790.258,0.025,0.777,-0.629,0.002,0.026,0.013,0.381,-0.049,-0.03,0.04,-0.89,1.448
2024-09-23 11:24:17.432,161790.268,0.024,0.775,-0.632,-0.015,0.029,0.016,0.341,-0.04,-0.009,0.039,-0.886,1.447
2024-09-23 11:24:17.441,161790.278,0.024,0.773,-0.634,-0.022,0.018,-0.022,0.252,-0.057,-0.002,0.038,-0.883,1.447
2024-09-23 11:24:17.452,161790.288,0.024,0.771,-0.636,0.004,-0.048,-0.019,0.211,-0.046,0.006,0.037,-0.881,1.447
2024-09-23 11:24:17.461,161790.298,0.024,0.77,-0.638,-0.0,-0.051,-0.009,0.188,-0.027,0.017,0.037,-0.879,1.447
2024-09-23 11:24:17.472,161790.308,0.024,0.769,-0.639,0.003,0.005,-0.01,0.094,-0.052,0.012,0.037,-0.877,1.447
2024-09-23 11:24:17.482,161790.318,0.023,0.768,-0.64,0.008,-0.016,-0.023,0.091,-0.088,0.015,0.036,-0.876,1.447
2024-09-23 11:24:17.491,161790.328,0.023,0.768,-0.64,-0.002,-0.012,-0.031,0.076,-0.039,0.028,0.036,-0.875,1.447
2024-09-23 11:24:17.501,161790.338,0.023,0.767,-0.641,-0.004,0.0,-0.019,0.001,-0.082,0.03,0.036,-0.875,1.448
2024-09-23 11:24:17.511,161790.348,0.023,0.768,-0.641,0.014,-0.04,-0.021,-0.037,-0.071,0.068,0.036,-0.875,1.448
2024-09-23 11:24:17.521,161790.358,0.023,0.768,-0.64,0.001,-0.018,-0.028,-0.105,-0.091,0.074,0.036,-0.876,1.45
2024-09-23 11:24:17.531,161790.368,0.023,0.769,-0.639,-0.003,-0.009,-0.023,-0.098,-0.087,0.059,0.035,-0.877,1.451
2024-09-23 11:24:17.541,161790.378,0.023,0.769,-0.639,-0.001,-0.071,-0.021,-0.087,-0.075,0.046,0.035,-0.878,1.451
2024-09-23 11:24:17.551,161790.388,0.022,0.77,-0.638,0.002,-0.01,-0.005,-0.139,-0.072,0.041,0.035,-0.879,1.452
2024-09-23 11:24:17.561,161790.398,0.023,0.771,-0.636,-0.017,0.002,0.015,-0.182,-0.014,0.049,0.036,-0.88,1.453
2024-09-23 11:24:17.571,161790.408,0.023,0.772,-0.635,-0.005,-0.02,0.009,-0.256,-0.061,0.045,0.036,-0.883,1.454
2024-09-23 11:24:17.581,161790.418,0.023,0.774,-0.633,-0.009,-0.017,0.0,-0.226,-0.005,0.033,0.036,-0.885,1.455
2024-09-23 11:24:17.591,161790.428,0.023,0.775,-0.631,-0.003,-0.036,0.009,-0.275,-0.041,0.027,0.036,-0.887,1.455
2024-09-23 11:24:17.601,161790.438,0.023,0.777,-0.63,0.005,-0.028,0.005,-0.191,-0.059,0.035,0.036,-0.889,1.456
2024-09-23 11:24:17.611,161790.448,0.023,0.777,-0.629,-0.013,-0.032,0.012,-0.083,-0.023,0.017,0.036,-0.89,1.456
2024-09-23 11:24:17.621,161790.458,0.023,0.778,-0.628,-0.004,-0.037,0.039,-0.059,-0.002,0.025,0.036,-0.891,1.457
2024-09-23 11:24:17.631,161790.468,0.023,0.778,-0.628,-0.012,0.003,0.046,-0.054,0.043,0.021,0.037,-0.891,1.457
2024-09-23 11:24:17.641,161790.478,0.024,0.778,-0.627,-0.017,0.001,0.06,-0.075,0.064,0.033,0.038,-0.892,1.458
2024-09-23 11:24:17.651,161790.488,0.024,0.779,-0.627,-0.016,-0.004,0.039,-0.149,0.083,0.035,0.039,-0.893,1.458
2024-09-23 11:24:17.661,161790.498,0.025,0.78,-0.625,-0.021,0.0,0.002,-0.258,0.102,0.035,0.041,-0.895,1.459
2024-09-23 11:24:17.671,161790.508,0.026,0.782,-0.623,-0.017,-0.024,-0.017,-0.334,0.155,0.038,0.042,-0.898,1.46
2024-09-23 11:24:17.681,161790.518,0.028,0.784,-0.62,-0.018,-0.05,-0.014,-0.39,0.19,0.047,0.045,-0.901,1.461
2024-09-23 11:24:17.691,161790.528,0.029,0.787,-0.617,-0.023,-0.034,-0.012,-0.393,0.175,0.045,0.047,-0.905,1.462
2024-09-23 11:24:17.702,161790.538,0.031,0.789,-0.614,-0.025,-0.016,-0.019,-0.319,0.174,0.044,0.05,-0.909,1.463
2024-09-23 11:24:17.711,161790.548,0.032,0.79,-0.612,-0.012,-0.016,-0.011,-0.213,0.151,0.035,0.052,-0.912,1.464
2024-09-23 11:24:17.721,161790.558,0.033,0.791,-0.61,0.0,0.01,0.003,-0.087,0.107,0.023,0.054,-0.913,1.464
2024-09-23 11:24:17.731,161790.568,0.034,0.792,-0.61,0.002,0.034,0.017,0.028,0.081,0.009,0.055,-0.913,1.464
2024-09-23 11:24:17.741,161790.578,0.034,0.791,-0.611,0.012,0.042,0.029,0.121,0.065,-0.004,0.056,-0.913,1.464
2024-09-23 11:24:17.751,161790.588,0.034,0.79,-0.612,0.021,0.051,0.023,0.203,0.058,-0.023,0.056,-0.911,1.464
2024-09-23 11:24:17.761,161790.598,0.034,0.789,-0.614,0.017,0.057,0.02,0.249,0.056,-0.046,0.056,-0.909,1.463
2024-09-23 11:24:17.771,161790.608,0.034,0.787,-0.616,0.018,0.054,0.014,0.254,0.043,-0.077,0.055,-0.906,1.462
2024-09-23 11:24:17.781,161790.618,0.034,0.785,-0.618,0.02,0.031,0.007,0.269,0.026,-0.101,0.054,-0.903,1.46
2024-09-23 11:24:17.791,161790.628,0.033,0.784,-0.62,0.018,0.009,0.008,0.329,0.005,-0.124,0.053,-0.9,1.458
2024-09-23 11:24:17.800,161790.638,0.032,0.781,-0.623,0.02,0.016,0.002,0.375,-0.018,-0.132,0.051,-0.897,1.456
2024-09-23 11:24:17.811,161790.648,0.03,0.779,-0.626,0.02,0.028,-0.0,0.423,-0.065,-0.131,0.049,-0.893,1.453
2024-09-23 11:24:17.820,161790.658,0.029,0.776,-0.63,0.023,0.028,-0.002,0.484,-0.12,-0.125,0.046,-0.889,1.451
2024-09-23 11:24:17.832,161790.668,0.027,0.773,-0.634,0.026,0.008,0.001,0.568,-0.142,-0.123,0.043,-0.884,1.448
2024-09-23 11:24:17.841,161790.678,0.025,0.769,-0.638,0.024,0.008,0.009,0.592,-0.076,-0.099,0.04,-0.878,1.446
2024-09-23 11:24:17.851,161790.688,0.025,0.766,-0.643,0.012,0.038,0.013,0.425,-0.052,-0.02,0.039,-0.872,1.445
2024-09-23 11:24:17.861,161790.698,0.024,0.764,-0.645,-0.004,0.032,0.019,0.329,-0.078,-0.107,0.037,-0.869,1.444
2024-09-23 11:24:17.871,161790.708,0.023,0.762,-0.647,-0.036,-0.003,0.005,0.206,-0.065,-0.045,0.035,-0.866,1.443
2024-09-23 11:24:17.881,161790.718,0.022,0.761,-0.649,-0.023,-0.056,-0.039,0.163,-0.024,-0.055,0.034,-0.864,1.442
2024-09-23 11:24:17.891,161790.728,0.022,0.76,-0.65,-0.008,-0.091,-0.017,0.182,0.022,-0.049,0.034,-0.863,1.441
2024-09-23 11:24:17.900,161790.738,0.022,0.758,-0.652,-0.011,-0.003,0.009,0.228,0.089,-0.025,0.033,-0.86,1.44
2024-09-23 11:24:17.910,161790.748,0.022,0.757,-0.653,-0.014,0.025,0.021,0.214,0.058,-0.017,0.034,-0.858,1.44
2024-09-23 11:24:17.921,161790.758,0.022,0.756,-0.655,-0.006,0.014,0.001,0.168,0.072,0.001,0.034,-0.857,1.44
2024-09-23 11:24:17.931,161790.768,0.023,0.755,-0.656,-0.009,0.009,-0.014,0.149,0.037,0.004,0.035,-0.855,1.44
2024-09-23 11:24:17.940,161790.778,0.023,0.753,-0.657,0.004,0.001,0.0,0.205,0.084,0.021,0.036,-0.853,1.44
2024-09-23 11:24:17.950,161790.788,0.024,0.752,-0.659,0.013,0.008,0.007,0.143,0.026,0.029,0.036,-0.851,1.44
2024-09-23 11:24:17.961,161790.798,0.024,0.751,-0.659,0.012,0.022,-0.023,0.108,-0.005,0.002,0.036,-0.85,1.44
2024-09-23 11:24:17.971,161790.808,0.024,0.75,-0.661,0.004,-0.03,0.008,0.203,-0.017,0.014,0.036,-0.849,1.44
2024-09-23 11:24:17.981,161790.818,0.024,0.749,-0.662,0.023,-0.045,0.02,0.268,-0.048,0.019,0.036,-0.846,1.44
2024-09-23 11:24:17.991,161790.828,0.024,0.747,-0.664,0.009,0.021,-0.01,0.292,-0.058,-0.003,0.036,-0.844,1.44
2024-09-23 11:24:18.000,161790.837,0.023,0.745,-0.667,0.003,0.043,-0.004,0.327,-0.012,-0.019,0.035,-0.84,1.44
2024-09-23 11:24:18.011,161790.847,0.023,0.743,-0.669,0.011,0.021,0.011,0.278,-0.032,-0.034,0.034,-0.837,1.44
2024-09-23 11:24:18.020,161790.857,0.022,0.741,-0.671,0.004,-0.004,0.015,0.217,-0.004,-0.038,0.034,-0.835,1.439
2024-09-23 11:24:18.031,161790.867,0.022,0.74,-0.672,-0.012,-0.037,0.027,0.163,0.012,-0.054,0.033,-0.833,1.438
2024-09-23 11:24:18.040,161790.877,0.022,0.739,-0.673,-0.011,-0.062,0.065,0.119,0.018,-0.04,0.033,-0.832,1.437
2024-09-23 11:24:18.051,161790.887,0.022,0.738,-0.674,-0.015,-0.058,0.04,0.052,0.012,-0.03,0.032,-0.831,1.437
2024-09-23 11:24:18.060,161790.897,0.022,0.738,-0.674,-0.026,-0.01,0.011,0.004,0.004,-0.036,0.032,-0.83,1.436
2024-09-23 11:24:18.070,161790.907,0.021,0.738,-0.674,-0.021,-0.001,-0.007,-0.059,0.022,-0.027,0.032,-0.831,1.436
2024-09-23 11:24:18.080,161790.917,0.021,0.739,-0.673,-0.015,0.001,-0.019,-0.162,0.035,-0.035,0.032,-0.832,1.436
2024-09-23 11:24:18.091,161790.927,0.021,0.741,-0.671,-0.013,-0.015,-0.011,-0.291,0.063,-0.034,0.032,-0.834,1.435
2024-09-23 11:24:18.100,161790.937,0.022,0.743,-0.669,-0.011,-0.048,0.003,-0.462,0.102,-0.011,0.033,-0.838,1.435
2024-09-23 11:24:18.110,161790.947,0.023,0.747,-0.664,-0.009,-0.074,-0.01,-0.642,0.137,-0.008,0.034,-0.844,1.435
2024-09-23 11:24:18.120,161790.957,0.024,0.752,-0.659,-0.013,-0.081,-0.003,-0.816,0.186,-0.006,0.036,-0.851,1.435
2024-09-23 11:24:18.130,161790.967,0.025,0.758,-0.652,-0.022,-0.112,0.016,-1.02,0.207,0.008,0.038,-0.86,1.436
2024-09-23 11:24:18.140,161790.977,0.027,0.765,-0.644,-0.026,-0.144,0.008,-1.152,0.289,0.021,0.041,-0.871,1.437
2024-09-23 11:24:18.150,161790.987,0.029,0.773,-0.634,-0.03,-0.123,0.009,-1.342,0.446,0.095,0.046,-0.883,1.439
2024-09-23 11:24:18.160,161790.997,0.033,0.782,-0.622,-0.033,-0.093,0.002,-1.606,0.537,0.082,0.053,-0.898,1.441
2024-09-23 11:24:18.170,161791.007,0.037,0.793,-0.609,-0.049,-0.049,-0.044,-1.876,0.54,0.052,0.061,-0.915,1.444
2024-09-23 11:24:18.180,161791.017,0.041,0.804,-0.593,-0.067,-0.047,-0.107,-2.008,0.54,0.035,0.068,-0.935,1.447
2024-09-23 11:24:18.190,161791.027,0.044,0.816,-0.576,-0.045,-0.107,-0.145,-2.042,0.567,0.047,0.077,-0.955,1.45
2024-09-23 11:24:18.200,161791.037,0.048,0.828,-0.559,-0.006,-0.075,-0.128,-2.053,0.565,0.03,0.085,-0.975,1.454
2024-09-23 11:24:18.210,161791.047,0.051,0.839,-0.542,0.004,-0.008,-0.087,-2.045,0.512,-0.009,0.094,-0.995,1.457
2024-09-23 11:24:18.221,161791.057,0.053,0.85,-0.524,0.016,-0.001,-0.047,-1.996,0.48,-0.015,0.101,-1.016,1.46
2024-09-23 11:24:18.230,161791.067,0.055,0.86,-0.508,0.025,-0.012,-0.032,-1.908,0.431,-0.038,0.109,-1.035,1.464
2024-09-23 11:24:18.240,161791.077,0.057,0.869,-0.492,0.038,0.013,-0.035,-1.735,0.367,-0.074,0.115,-1.053,1.467
2024-09-23 11:24:18.250,161791.087,0.058,0.877,-0.477,0.042,0.042,-0.029,-1.546,0.327,-0.101,0.121,-1.07,1.469
2024-09-23 11:24:18.260,161791.097,0.058,0.884,-0.464,0.049,0.046,-0.025,-1.398,0.271,-0.106,0.125,-1.084,1.471
2024-09-23 11:24:18.270,161791.107,0.058,0.89,-0.452,0.055,0.064,-0.021,-1.334,0.202,-0.124,0.129,-1.098,1.472
2024-09-23 11:24:18.280,161791.117,0.058,0.896,-0.44,0.049,0.077,-0.022,-1.245,0.185,-0.131,0.131,-1.111,1.473
2024-09-23 11:24:18.290,161791.127,0.058,0.902,-0.429,0.049,0.077,-0.043,-1.282,0.13,-0.157,0.134,-1.123,1.473
2024-09-23 11:24:18.300,161791.137,0.057,0.907,-0.417,0.052,0.068,-0.064,-1.354,0.081,-0.169,0.135,-1.137,1.474
2024-09-23 11:24:18.310,161791.147,0.055,0.913,-0.404,0.049,0.055,-0.084,-1.459,0.049,-0.161,0.136,-1.151,1.474
2024-09-23 11:24:18.320,161791.157,0.054,0.919,-0.39,0.059,0.071,-0.103,-1.528,0.001,-0.158,0.137,-1.166,1.475
2024-09-23 11:24:18.330,161791.167,0.052,0.925,-0.376,0.074,0.109,-0.117,-1.589,-0.064,-0.17,0.138,-1.181,1.477
2024-09-23 11:24:18.340,161791.177,0.051,0.931,-0.361,0.088,0.107,-0.119,-1.648,-0.09,-0.149,0.139,-1.198,1.479
2024-09-23 11:24:18.350,161791.187,0.049,0.937,-0.346,0.101,0.082,-0.117,-1.591,-0.07,-0.117,0.141,-1.214,1.481
2024-09-23 11:24:18.360,161791.197,0.048,0.942,-0.332,0.103,0.077,-0.104,-1.348,-0.031,-0.1,0.143,-1.229,1.484
2024-09-23 11:24:18.370,161791.207,0.047,0.946,-0.321,0.085,0.069,-0.087,-1.08,0.003,-0.048,0.146,-1.241,1.487
2024-09-23 11:24:18.380,161791.217,0.047,0.949,-0.312,0.059,0.028,-0.059,-0.85,0.045,-0.029,0.149,-1.25,1.49
2024-09-23 11:24:18.390,161791.227,0.047,0.951,-0.305,0.054,-0.003,-0.017,-0.617,0.111,-0.002,0.153,-1.258,1.493
2024-09-23 11:24:18.400,161791.237,0.047,0.953,-0.3,0.053,-0.026,0.04,-0.327,0.145,0.053,0.157,-1.262,1.497
2024-09-23 11:24:18.410,161791.247,0.049,0.953,-0.299,0.038,-0.064,0.088,0.042,0.178,0.121,0.162,-1.263,1.5
2024-09-23 11:24:18.419,161791.257,0.051,0.953,-0.3,0.042,-0.089,0.119,0.219,0.182,0.151,0.168,-1.262,1.504
2024-09-23 11:24:18.430,161791.267,0.052,0.952,-0.303,0.08,-0.077,0.128,0.459,0.16,0.113,0.171,-1.258,1.506
2024-09-23 11:24:18.440,161791.277,0.054,0.95,-0.308,0.109,-0.05,0.131,0.679,0.119,0.123,0.173,-1.253,1.507
2024-09-23 11:24:18.450,161791.287,0.055,0.947,-0.316,0.099,-0.052,0.121,0.856,0.052,0.123,0.174,-1.245,1.506
2024-09-23 11:24:18.460,161791.297,0.057,0.944,-0.324,0.089,-0.029,0.119,0.968,-0.036,0.151,0.173,-1.235,1.506
2024-09-23 11:24:18.471,161791.307,0.058,0.941,-0.334,0.078,0.013,0.119,1.039,-0.127,0.209,0.173,-1.225,1.506
2024-09-23 11:24:18.480,161791.317,0.06,0.937,-0.344,0.06,0.024,0.112,1.103,-0.203,0.282,0.172,-1.214,1.507
2024-09-23 11:24:18.489,161791.327,0.062,0.933,-0.355,0.042,0.032,0.111,1.204,-0.217,0.361,0.173,-1.202,1.511
2024-09-23 11:24:18.500,161791.337,0.065,0.928,-0.366,0.016,0.079,0.111,1.281,-0.2,0.431,0.176,-1.189,1.516
2024-09-23 11:24:18.510,161791.347,0.069,0.923,-0.378,-0.002,0.118,0.108,1.274,-0.175,0.475,0.179,-1.176,1.521
2024-09-23 11:24:18.520,161791.357,0.072,0.918,-0.39,-0.009,0.123,0.106,1.192,-0.167,0.5,0.184,-1.163,1.528
2024-09-23 11:24:18.530,161791.367,0.076,0.913,-0.4,-0.004,0.102,0.11,1.11,-0.197,0.517,0.188,-1.151,1.535
2024-09-23 11:24:18.540,161791.377,0.08,0.908,-0.41,0.006,0.057,0.111,1.028,-0.194,0.515,0.193,-1.139,1.542
2024-09-23 11:24:18.550,161791.387,0.084,0.904,-0.419,0.016,0.013,0.1,0.914,-0.177,0.5,0.198,-1.129,1.55
2024-09-23 11:24:18.560,161791.397,0.088,0.9,-0.427,0.014,-0.013,0.081,0.765,-0.192,0.467,0.202,-1.12,1.557
2024-09-23 11:24:18.569,161791.407,0.091,0.896,-0.434,-0.01,-0.027,0.056,0.681,-0.2,0.444,0.207,-1.112,1.564
2024-09-23 11:24:18.580,161791.417,0.094,0.893,-0.44,-0.024,-0.029,0.031,0.64,-0.252,0.414,0.21,-1.104,1.57
2024-09-23 11:24:18.589,161791.426,0.096,0.89,-0.446,-0.036,-0.063,0.007,0.644,-0.289,0.374,0.212,-1.097,1.576
2024-09-23 11:24:18.600,161791.436,0.098,0.887,-0.452,-0.03,-0.104,0.003,0.714,-0.304,0.343,0.213,-1.09,1.58
2024-09-23 11:24:18.610,161791.446,0.099,0.883,-0.459,-0.023,-0.121,0.013,0.784,-0.302,0.299,0.213,-1.082,1.583
2024-09-23 11:24:18.620,161791.456,0.1,0.879,-0.467,-0.025,-0.13,0.02,0.868,-0.305,0.224,0.212,-1.073,1.585
2024-09-23 11:24:18.629,161791.466,0.1,0.875,-0.475,-0.019,-0.131,0.028,0.885,-0.351,0.128,0.208,-1.064,1.585
2024-09-23 11:24:18.639,161791.476,0.099,0.87,-0.483,-0.018,-0.14,0.026,0.944,-0.354,0.025,0.203,-1.055,1.583
2024-09-23 11:24:18.649,161791.486,0.097,0.865,-0.492,-0.027,-0.107,0.015,0.962,-0.371,-0.036,0.196,-1.046,1.579
2024-09-23 11:24:18.659,161791.496,0.095,0.861,-0.5,-0.054,-0.092,-0.01,0.893,-0.389,-0.092,0.188,-1.037,1.574
2024-09-23 11:24:18.669,161791.506,0.092,0.857,-0.508,-0.08,-0.113,-0.029,0.821,-0.429,-0.15,0.179,-1.029,1.569
2024-09-23 11:24:18.679,161791.516,0.088,0.853,-0.515,-0.079,-0.128,-0.03,0.856,-0.424,-0.227,0.169,-1.021,1.562
2024-09-23 11:24:18.689,161791.526,0.084,0.848,-0.523,-0.076,-0.13,-0.018,0.899,-0.385,-0.245,0.159,-1.013,1.555
2024-09-23 11:24:18.699,161791.536,0.08,0.844,-0.531,-0.064,-0.1,0.015,0.948,-0.397,-0.239,0.149,-1.004,1.548
2024-09-23 11:24:18.709,161791.546,0.076,0.839,-0.539,-0.072,-0.054,0.053,0.973,-0.403,-0.218,0.14,-0.995,1.541
2024-09-23 11:24:18.719,161791.556,0.072,0.833,-0.548,-0.081,-0.034,0.057,0.996,-0.402,-0.195,0.131,-0.985,1.535
2024-09-23 11:24:18.730,161791.566,0.068,0.828,-0.556,-0.079,-0.027,0.032,0.923,-0.376,-0.14,0.122,-0.976,1.53
2024-09-23 11:24:18.739,161791.576,0.065,0.823,-0.564,-0.088,-0.029,0.02,0.88,-0.386,-0.147,0.115,-0.967,1.526
2024-09-23 11:24:18.749,161791.586,0.062,0.819,-0.571,-0.087,-0.018,-0.007,0.764,-0.317,-0.171,0.108,-0.959,1.521
2024-09-23 11:24:18.759,161791.596,0.059,0.815,-0.577,-0.079,0.008,-0.022,0.621,-0.222,-0.181,0.102,-0.953,1.517
2024-09-23 11:24:18.769,161791.606,0.056,0.812,-0.581,-0.064,0.074,0.003,0.469,-0.127,-0.169,0.097,-0.947,1.513
2024-09-23 11:24:18.779,161791.616,0.055,0.81,-0.584,-0.057,0.075,0.022,0.31,-0.024,-0.083,0.094,-0.944,1.51
2024-09-23 11:24:18.789,161791.626,0.055,0.808,-0.586,-0.042,-0.003,0.016,0.216,0.095,-0.05,0.093,-0.941,1.509
2024-09-23 11:24:18.799,161791.636,0.055,0.807,-0.588,-0.027,-0.01,0.01,0.186,0.211,-0.029,0.094,-0.939,1.508
2024-09-23 11:24:18.809,161791.646,0.057,0.806,-0.589,-0.039,0.075,-0.013,0.117,0.219,0.028,0.096,-0.938,1.508
2024-09-23 11:24:18.819,161791.656,0.058,0.806,-0.589,-0.082,0.13,-0.034,0.015,0.18,0.004,0.098,-0.937,1.508
2024-09-23 11:24:18.829,161791.666,0.059,0.806,-0.589,-0.081,0.102,-0.041,0.002,0.149,-0.005,0.099,-0.937,1.508
2024-09-23 11:24:18.839,161791.676,0.06,0.806,-0.589,-0.051,0.056,-0.03,0.046,0.137,-0.01,0.101,-0.937,1.508
2024-09-23 11:24:18.849,161791.686,0.06,0.805,-0.59,-0.039,0.028,-0.013,0.109,0.1,-0.011,0.102,-0.936,1.507
2024-09-23 11:24:18.859,161791.696,0.06,0.804,-0.591,-0.027,0.013,0.013,0.184,0.039,-0.047,0.102,-0.934,1.506
2024-09-23 11:24:18.869,161791.706,0.06,0.803,-0.593,-0.01,-0.007,0.029,0.267,0.017,-0.031,0.101,-0.932,1.505
2024-09-23 11:24:18.879,161791.716,0.06,0.801,-0.595,0.006,-0.029,0.048,0.32,0.002,0.004,0.101,-0.929,1.505
2024-09-23 11:24:18.889,161791.726,0.06,0.799,-0.598,0.003,-0.038,0.059,0.441,-0.027,0.142,0.101,-0.926,1.505
2024-09-23 11:24:18.899,161791.736,0.06,0.796,-0.603,0.005,-0.021,0.053,0.444,-0.065,-0.174,0.1,-0.92,1.504
2024-09-23 11:24:18.909,161791.746,0.058,0.793,-0.606,0.014,0.019,0.013,0.305,-0.127,-0.116,0.096,-0.916,1.501
2024-09-23 11:24:18.919,161791.756,0.057,0.792,-0.608,0.041,0.056,-0.174,0.332,-0.13,-0.018,0.094,-0.913,1.499
2024-09-23 11:24:18.929,161791.766,0.056,0.789,-0.611,-0.058,0.211,-0.151,0.354,-0.053,-0.078,0.092,-0.91,1.498
2024-09-23 11:24:18.939,161791.776,0.055,0.787,-0.614,-0.035,0.185,-0.046,0.296,-0.043,-0.109,0.09,-0.907,1.496
2024-09-23 11:24:18.949,161791.786,0.054,0.786,-0.616,0.017,0.025,0.015,0.143,-0.109,-0.15,0.087,-0.905,1.494
2024-09-23 11:24:18.959,161791.796,0.052,0.786,-0.617,-0.003,-0.071,0.021,0.093,-0.141,-0.194,0.084,-0.904,1.491
2024-09-23 11:24:18.969,161791.806,0.049,0.785,-0.617,0.008,-0.113,0.002,0.008,-0.132,-0.161,0.08,-0.903,1.488
2024-09-23 11:24:18.979,161791.816,0.048,0.785,-0.617,0.013,-0.075,-0.028,0.02,-0.085,-0.122,0.077,-0.903,1.485
2024-09-23 11:24:18.989,161791.826,0.046,0.785,-0.617,-0.011,-0.017,-0.03,0.054,-0.01,-0.098,0.075,-0.903,1.484
2024-09-23 11:24:18.999,161791.836,0.046,0.785,-0.618,-0.01,0.014,-0.006,0.027,0.024,-0.056,0.074,-0.903,1.482
2024-09-23 11:24:19.009,161791.846,0.046,0.785,-0.618,-0.011,0.061,-0.0,-0.015,0.036,-0.025,0.074,-0.903,1.482
2024-09-23 11:24:19.019,161791.856,0.046,0.785,-0.618,-0.012,0.057,0.001,-0.013,0.013,-0.02,0.074,-0.903,1.481
2024-09-23 11:24:19.029,161791.866,0.046,0.785,-0.618,0.008,-0.008,-0.005,-0.005,0.035,-0.037,0.074,-0.903,1.481
2024-09-23 11:24:19.039,161791.876,0.046,0.785,-0.618,0.002,-0.023,-0.018,0.011,0.019,-0.045,0.074,-0.903,1.48
2024-09-23 11:24:19.049,161791.886,0.045,0.785,-0.618,-0.023,-0.01,-0.01,-0.003,0.005,-0.058,0.073,-0.903,1.479
2024-09-23 11:24:19.059,161791.896,0.045,0.785,-0.618,-0.023,-0.025,-0.004,0.015,0.035,-0.063,0.072,-0.903,1.478
2024-09-23 11:24:19.069,161791.906,0.045,0.785,-0.618,-0.004,-0.018,0.004,0.085,0.084,-0.052,0.072,-0.902,1.477
2024-09-23 11:24:19.079,161791.916,0.045,0.784,-0.619,0.0,-0.022,0.02,0.183,0.115,-0.026,0.073,-0.901,1.477
2024-09-23 11:24:19.089,161791.926,0.046,0.783,-0.621,-0.008,0.009,0.03,0.234,0.149,-0.011,0.074,-0.899,1.476
2024-09-23 11:24:19.099,161791.936,0.047,0.781,-0.622,-0.011,0.051,0.028,0.214,0.154,0.005,0.075,-0.897,1.476
2024-09-23 11:24:19.109,161791.946,0.048,0.78,-0.624,-0.01,0.046,0.019,0.134,0.159,0.013,0.076,-0.895,1.476
2024-09-23 11:24:19.119,161791.956,0.049,0.78,-0.624,-0.01,-0.011,0.007,0.018,0.159,0.047,0.078,-0.894,1.476
2024-09-23 11:24:19.129,161791.966,0.05,0.78,-0.624,-0.014,-0.052,-0.011,-0.091,0.153,0.072,0.081,-0.895,1.477
2024-09-23 11:24:19.139,161791.976,0.052,0.781,-0.623,-0.023,-0.052,-0.02,-0.167,0.142,0.046,0.083,-0.896,1.478
2024-09-23 11:24:19.148,161791.986,0.053,0.782,-0.621,-0.007,-0.055,-0.022,-0.2,0.106,0.024,0.085,-0.898,1.479
2024-09-23 11:24:19.159,161791.996,0.053,0.783,-0.62,0.001,-0.028,-0.024,-0.207,0.057,-0.006,0.086,-0.9,1.479
2024-09-23 11:24:19.168,161792.006,0.053,0.784,-0.618,0.011,-0.022,-0.008,-0.179,0.017,-0.025,0.086,-0.902,1.479
2024-09-23 11:24:19.178,161792.016,0.053,0.785,-0.617,0.015,-0.017,-0.006,-0.119,0.008,-0.042,0.086,-0.903,1.479
2024-09-23 11:24:19.188,161792.025,0.053,0.786,-0.616,0.021,0.011,0.002,-0.066,0.003,-0.041,0.085,-0.904,1.478
2024-09-23 11:24:19.198,161792.035,0.052,0.786,-0.616,0.014,0.028,0.014,-0.035,-0.012,-0.029,0.085,-0.905,1.478
2024-09-23 11:24:19.208,161792.045,0.052,0.787,-0.615,0.004,0.028,0.013,-0.065,0.002,-0.024,0.084,-0.905,1.477
2024-09-23 11:24:19.218,161792.055,0.052,0.787,-0.615,0.001,0.011,0.005,-0.118,0.019,-0.006,0.084,-0.906,1.477
2024-09-23 11:24:19.228,161792.065,0.052,0.788,-0.614,-0.003,-0.008,-0.007,-0.172,0.033,0.006,0.085,-0.907,1.477
2024-09-23 11:24:19.239,161792.075,0.052,0.789,-0.612,-0.013,-0.024,-0.012,-0.221,0.007,0.008,0.085,-0.909,1.478
2024-09-23 11:24:19.248,161792.085,0.052,0.79,-0.61,-0.01,-0.041,-0.015,-0.238,-0.007,0.007,0.086,-0.911,1.478
2024-09-23 11:24:19.258,161792.095,0.053,0.792,-0.609,-0.005,-0.035,-0.016,-0.205,-0.015,0.011,0.086,-0.914,1.479
2024-09-23 11:24:19.268,161792.105,0.053,0.793,-0.607,0.003,-0.018,-0.008,-0.121,-0.0,0.01,0.086,-0.915,1.479
2024-09-23 11:24:19.278,161792.115,0.053,0.793,-0.607,0.0,0.009,0.005,-0.04,0.003,0.015,0.087,-0.916,1.48
2024-09-23 11:24:19.288,161792.125,0.053,0.793,-0.607,0.004,0.033,0.015,0.023,0.003,0.006,0.087,-0.916,1.48
2024-09-23 11:24:19.298,161792.135,0.053,0.793,-0.607,0.003,0.042,0.019,0.052,-0.008,-0.004,0.087,-0.916,1.48
2024-09-23 11:24:19.308,161792.145,0.053,0.793,-0.607,0.005,0.021,0.017,0.062,-0.021,-0.019,0.087,-0.915,1.479
2024-09-23 11:24:19.318,161792.155,0.052,0.792,-0.608,0.007,0.0,0.009,0.048,-0.034,-0.037,0.086,-0.914,1.479
2024-09-23 11:24:19.328,161792.165,0.052,0.792,-0.608,0.008,-0.003,0.005,0.031,-0.071,-0.056,0.085,-0.914,1.478
2024-09-23 11:24:19.338,161792.175,0.05,0.792,-0.609,0.009,0.003,-0.001,0.059,-0.098,-0.074,0.083,-0.913,1.477
2024-09-23 11:24:19.348,161792.185,0.049,0.791,-0.61,0.012,-0.005,-0.004,0.119,-0.108,-0.089,0.081,-0.913,1.475
2024-09-23 11:24:19.358,161792.195,0.048,0.79,-0.611,0.014,-0.005,0.004,0.185,-0.111,-0.093,0.078,-0.911,1.474
2024-09-23 11:24:19.368,161792.205,0.046,0.789,-0.613,0.01,0.029,0.014,0.276,-0.128,-0.09,0.076,-0.909,1.472
2024-09-23 11:24:19.378,161792.215,0.045,0.787,-0.615,0.005,0.046,0.017,0.362,-0.098,-0.078,0.073,-0.906,1.47
2024-09-23 11:24:19.388,161792.225,0.044,0.785,-0.618,0.005,0.038,0.021,0.402,-0.007,-0.022,0.072,-0.902,1.469
2024-09-23 11:24:19.398,161792.235,0.044,0.783,-0.621,0.006,0.036,0.033,0.252,-0.007,-0.012,0.071,-0.899,1.468
2024-09-23 11:24:19.408,161792.245,0.044,0.782,-0.622,-0.028,0.048,0.005,0.18,0.003,-0.018,0.071,-0.897,1.468
2024-09-23 11:24:19.419,161792.255,0.044,0.781,-0.623,-0.023,0.027,-0.022,0.065,0.017,-0.001,0.071,-0.896,1.468
2024-09-23 11:24:19.429,161792.265,0.044,0.781,-0.623,0.001,-0.116,-0.019,0.041,0.051,-0.008,0.071,-0.896,1.468
2024-09-23 11:24:19.438,161792.275,0.045,0.781,-0.624,-0.008,-0.036,-0.031,-0.035,0.085,-0.009,0.072,-0.895,1.467
2024-09-23 11:24:19.448,161792.285,0.045,0.781,-0.623,-0.011,0.041,-0.007,-0.052,0.092,0.014,0.073,-0.896,1.468
2024-09-23 11:24:19.458,161792.295,0.046,0.781,-0.623,-0.015,-0.002,0.007,-0.053,0.13,0.031,0.074,-0.897,1.468
2024-09-23 11:24:19.468,161792.305,0.048,0.781,-0.622,-0.0,-0.039,0.029,0.019,0.111,0.089,0.076,-0.897,1.469
2024-09-23 11:24:19.478,161792.315,0.049,0.781,-0.622,-0.016,-0.047,0.016,-0.006,0.07,0.103,0.078,-0.897,1.471
2024-09-23 11:24:19.488,161792.325,0.05,0.781,-0.622,-0.013,-0.037,0.019,-0.097,0.051,0.094,0.08,-0.897,1.472
2024-09-23 11:24:19.499,161792.335,0.051,0.783,-0.621,0.012,-0.067,0.013,-0.263,0.002,0.1,0.082,-0.899,1.474
2024-09-23 11:24:19.508,161792.345,0.052,0.785,-0.618,-0.003,-0.06,-0.004,-0.407,-0.031,0.081,0.083,-0.902,1.476
2024-09-23 11:24:19.518,161792.355,0.052,0.787,-0.614,-0.004,-0.107,-0.026,-0.493,0.006,0.075,0.084,-0.906,1.478
2024-09-23 11:24:19.528,161792.365,0.053,0.79,-0.611,0.006,-0.077,-0.037,-0.47,0.09,0.087,0.086,-0.911,1.48
2024-09-23 11:24:19.538,161792.375,0.054,0.793,-0.607,-0.004,-0.018,-0.029,-0.509,0.12,0.084,0.089,-0.916,1.482
2024-09-23 11:24:19.548,161792.385,0.055,0.796,-0.603,-0.018,0.012,-0.015,-0.499,0.07,0.07,0.092,-0.921,1.484
2024-09-23 11:24:19.558,161792.395,0.056,0.799,-0.599,-0.019,0.04,-0.027,-0.413,0.004,0.046,0.093,-0.925,1.485
2024-09-23 11:24:19.568,161792.405,0.056,0.801,-0.596,0.006,-0.021,-0.016,-0.284,-0.023,0.043,0.094,-0.929,1.487
2024-09-23 11:24:19.578,161792.415,0.057,0.802,-0.594,0.02,-0.026,0.007,-0.133,-0.03,0.043,0.095,-0.931,1.488
2024-09-23 11:24:19.588,161792.425,0.057,0.803,-0.594,0.015,0.062,0.023,-0.013,-0.053,0.031,0.095,-0.932,1.488
2024-09-23 11:24:19.598,161792.435,0.056,0.802,-0.594,0.008,0.085,0.032,0.078,-0.062,0.013,0.095,-0.931,1.489
2024-09-23 11:24:19.608,161792.445,0.056,0.802,-0.595,0.01,0.05,0.026,0.11,-0.066,0.005,0.094,-0.93,1.489
2024-09-23 11:24:19.618,161792.455,0.056,0.801,-0.596,0.01,0.027,0.024,0.11,-0.061,-0.003,0.093,-0.929,1.489
2024-09-23 11:24:19.628,161792.465,0.055,0.801,-0.597,0.004,0.016,0.013,0.063,-0.06,-0.015,0.092,-0.928,1.488
2024-09-23 11:24:19.637,161792.475,0.055,0.8,-0.597,0.002,0.001,-0.0,0.02,-0.082,-0.03,0.091,-0.928,1.488
2024-09-23 11:24:19.647,161792.485,0.054,0.8,-0.597,-0.0,-0.014,-0.009,-0.015,-0.117,-0.048,0.09,-0.928,1.487
2024-09-23 11:24:19.658,161792.495,0.053,0.801,-0.597,0.004,-0.028,-0.012,-0.018,-0.149,-0.047,0.088,-0.928,1.486
2024-09-23 11:24:19.668,161792.505,0.051,0.801,-0.597,0.011,-0.027,-0.008,0.02,-0.173,-0.046,0.086,-0.928,1.486
2024-09-23 11:24:19.678,161792.515,0.05,0.8,-0.598,0.01,-0.008,-0.001,0.095,-0.188,-0.04,0.083,-0.928,1.485
2024-09-23 11:24:19.688,161792.525,0.048,0.799,-0.599,0.008,0.014,0.008,0.198,-0.198,-0.042,0.081,-0.926,1.484
2024-09-23 11:24:19.698,161792.535,0.047,0.798,-0.601,0.008,0.036,0.016,0.303,-0.197,-0.05,0.078,-0.924,1.483
2024-09-23 11:24:19.707,161792.545,0.045,0.796,-0.604,0.009,0.042,0.024,0.401,-0.183,-0.057,0.075,-0.921,1.482
2024-09-23 11:24:19.717,161792.555,0.044,0.793,-0.607,0.01,0.047,0.029,0.482,-0.082,-0.041,0.072,-0.916,1.48
2024-09-23 11:24:19.727,161792.565,0.044,0.79,-0.611,0.006,0.047,0.027,0.433,0.098,0.012,0.072,-0.911,1.479
2024-09-23 11:24:19.737,161792.575,0.045,0.788,-0.613,-0.005,0.036,0.031,0.212,0.105,0.02,0.073,-0.908,1.48
2024-09-23 11:24:19.747,161792.585,0.046,0.787,-0.615,-0.061,0.037,-0.002,0.136,0.148,0.011,0.074,-0.906,1.48
2024-09-23 11:24:19.758,161792.595,0.047,0.787,-0.615,-0.035,-0.042,-0.028,0.049,0.2,0.026,0.076,-0.906,1.48
2024-09-23 11:24:19.767,161792.605,0.049,0.787,-0.616,-0.003,-0.171,-0.019,0.045,0.222,0.025,0.079,-0.905,1.48
2024-09-23 11:24:19.777,161792.614,0.05,0.787,-0.615,-0.03,0.003,-0.01,-0.032,0.259,0.004,0.082,-0.905,1.48
2024-09-23 11:24:19.787,161792.624,0.052,0.787,-0.615,-0.03,0.0,-0.002,-0.042,0.256,0.023,0.084,-0.906,1.481
2024-09-23 11:24:19.797,161792.634,0.054,0.787,-0.614,-0.011,-0.053,-0.011,-0.027,0.216,0.029,0.087,-0.906,1.481
2024-09-23 11:24:19.807,161792.644,0.055,0.787,-0.614,-0.014,-0.01,-0.007,-0.004,0.159,0.028,0.089,-0.906,1.482
2024-09-23 11:24:19.817,161792.654,0.056,0.787,-0.614,-0.003,0.004,0.003,0.079,0.076,0.039,0.091,-0.906,1.482
2024-09-23 11:24:19.828,161792.664,0.056,0.786,-0.616,0.017,0.001,0.013,0.186,0.012,0.011,0.091,-0.904,1.482
2024-09-23 11:24:19.837,161792.674,0.056,0.785,-0.617,0.031,0.021,0.029,0.158,-0.059,0.001,0.091,-0.903,1.482
2024-09-23 11:24:19.847,161792.684,0.056,0.784,-0.618,0.036,0.036,0.032,0.072,-0.153,-0.012,0.09,-0.902,1.482
2024-09-23 11:24:19.857,161792.694,0.054,0.784,-0.618,0.022,0.01,0.005,-0.063,-0.186,-0.047,0.088,-0.901,1.481
2024-09-23 11:24:19.867,161792.704,0.053,0.785,-0.617,0.024,-0.047,-0.02,-0.185,-0.179,-0.055,0.085,-0.903,1.481
2024-09-23 11:24:19.878,161792.714,0.051,0.786,-0.616,0.018,-0.06,-0.029,-0.205,-0.227,-0.018,0.083,-0.905,1.48
2024-09-23 11:24:19.888,161792.724,0.05,0.787,-0.614,0.003,-0.047,-0.026,-0.18,-0.26,0.003,0.081,-0.907,1.481
2024-09-23 11:24:19.897,161792.734,0.048,0.789,-0.613,0.003,0.004,-0.018,-0.212,-0.291,0.015,0.078,-0.909,1.481
2024-09-23 11:24:19.907,161792.744,0.047,0.79,-0.611,0.002,0.005,0.003,-0.144,-0.25,0.041,0.076,-0.911,1.482
2024-09-23 11:24:19.917,161792.754,0.046,0.79,-0.611,-0.001,-0.052,-0.008,0.057,-0.169,0.089,0.075,-0.911,1.483
2024-09-23 11:24:19.927,161792.764,0.046,0.79,-0.612,0.008,0.019,-0.015,0.041,-0.119,0.095,0.075,-0.91,1.484
2024-09-23 11:24:19.937,161792.774,0.046,0.79,-0.612,-0.017,0.078,-0.032,-0.127,-0.115,0.084,0.075,-0.91,1.486
2024-09-23 11:24:19.947,161792.784,0.046,0.791,-0.61,-0.023,0.016,-0.009,-0.264,-0.048,0.044,0.076,-0.912,1.487
2024-09-23 11:24:19.957,161792.794,0.046,0.792,-0.608,0.001,-0.084,0.044,-0.261,0.004,0.047,0.076,-0.914,1.488
2024-09-23 11:24:19.967,161792.804,0.047,0.794,-0.607,-0.002,-0.134,0.05,-0.236,0.058,0.038,0.077,-0.917,1.489
2024-09-23 11:24:19.977,161792.814,0.048,0.795,-0.605,-0.024,-0.053,0.008,-0.189,0.077,0.031,0.079,-0.919,1.49
2024-09-23 11:24:19.987,161792.824,0.049,0.796,-0.604,-0.022,0.036,0.001,-0.063,0.169,0.02,0.08,-0.92,1.491
2024-09-23 11:24:19.997,161792.834,0.05,0.796,-0.603,-0.011,0.008,0.005,-0.026,0.229,0.034,0.083,-0.92,1.491
2024-09-23 11:24:20.007,161792.844,0.052,0.796,-0.603,-0.007,0.021,0.022,-0.059,0.194,0.023,0.085,-0.921,1.492
2024-09-23 11:24:20.017,161792.854,0.053,0.797,-0.602,-0.024,0.059,0.01,-0.093,0.124,-0.011,0.087,-0.922,1.492
2024-09-23 11:24:20.027,161792.864,0.053,0.797,-0.601,-0.004,0.01,-0.013,-0.114,0.079,-0.021,0.088,-0.923,1.492
2024-09-23 11:24:20.037,161792.874,0.053,0.798,-0.601,0.02,-0.053,-0.018,-0.068,0.049,-0.02,0.088,-0.924,1.492
2024-09-23 11:24:20.047,161792.884,0.053,0.798,-0.6,0.018,-0.001,-0.008,-0.019,0.045,-0.011,0.089,-0.924,1.491
2024-09-23 11:24:20.057,161792.894,0.054,0.798,-0.6,0.009,0.021,0.008,0.02,0.034,0.002,0.089,-0.924,1.491
2024-09-23 11:24:20.067,161792.904,0.054,0.798,-0.601,0.004,0.016,0.016,0.049,0.039,0.012,0.089,-0.924,1.491
2024-09-23 11:24:20.077,161792.914,0.054,0.797,-0.601,-0.002,0.021,0.01,0.074,0.035,0.035,0.09,-0.923,1.492
2024-09-23 11:24:20.087,161792.924,0.055,0.797,-0.602,-0.006,0.015,0.009,0.077,0.028,0.04,0.091,-0.922,1.492
2024-09-23 11:24:20.097,161792.934,0.055,0.796,-0.602,-0.006,-0.0,0.008,0.062,0.011,0.045,0.091,-0.921,1.493
2024-09-23 11:24:20.107,161792.944,0.056,0.796,-0.603,-0.003,0.001,0.002,0.045,-0.007,0.044,0.092,-0.921,1.493
2024-09-23 11:24:20.117,161792.954,0.056,0.796,-0.603,0.001,-0.001,-0.001,0.019,-0.027,0.035,0.092,-0.92,1.494
2024-09-23 11:24:20.127,161792.964,0.056,0.796,-0.603,0.004,-0.015,0.001,-0.015,-0.05,0.024,0.092,-0.92,1.495
2024-09-23 11:24:20.137,161792.974,0.056,0.796,-0.603,0.007,-0.016,-0.005,-0.037,-0.061,0.007,0.092,-0.921,1.495
2024-09-23 11:24:20.147,161792.984,0.055,0.796,-0.602,0.008,-0.013,-0.005,-0.085,-0.083,-0.004,0.091,-0.921,1.495
2024-09-23 11:24:20.157,161792.994,0.055,0.797,-0.601,0.01,-0.019,-0.005,-0.12,-0.099,-0.014,0.09,-0.923,1.495
2024-09-23 11:24:20.167,161793.004,0.054,0.798,-0.6,0.008,-0.016,-0.009,-0.114,-0.093,-0.018,0.089,-0.924,1.495
2024-09-23 11:24:20.177,161793.014,0.053,0.799,-0.6,0.005,-0.025,-0.012,-0.092,-0.073,-0.009,0.088,-0.925,1.495
2024-09-23 11:24:20.187,161793.024,0.053,0.799,-0.599,0.003,-0.015,-0.001,-0.089,-0.077,0.004,0.088,-0.926,1.495
2024-09-23 11:24:20.197,161793.034,0.052,0.8,-0.598,-0.005,0.012,0.008,-0.065,-0.065,0.012,0.087,-0.927,1.495
2024-09-23 11:24:20.207,161793.044,0.052,0.8,-0.598,-0.003,0.002,0.001,-0.043,-0.045,0.028,0.087,-0.927,1.496
2024-09-23 11:24:20.216,161793.054,0.052,0.8,-0.598,-0.001,-0.008,-0.0,-0.045,-0.046,0.029,0.087,-0.927,1.496
2024-09-23 11:24:20.227,161793.064,0.052,0.8,-0.598,-0.009,0.014,0.006,-0.029,-0.034,0.02,0.087,-0.928,1.497
2024-09-23 11:24:20.236,161793.074,0.052,0.8,-0.598,-0.006,0.001,0.002,0.006,-0.01,0.018,0.087,-0.927,1.497
2024-09-23 11:24:20.246,161793.084,0.052,0.8,-0.598,-0.001,-0.008,-0.001,0.038,-0.006,0.013,0.088,-0.927,1.497
2024-09-23 11:24:20.256,161793.094,0.052,0.8,-0.598,-0.005,0.018,0.01,0.05,-0.036,-0.008,0.087,-0.926,1.497
2024-09-23 11:24:20.267,161793.104,0.052,0.799,-0.599,-0.001,0.015,0.01,0.072,-0.067,-0.023,0.087,-0.926,1.497
2024-09-23 11:24:20.277,161793.114,0.051,0.799,-0.6,0.011,0.003,0.003,0.09,-0.106,-0.028,0.085,-0.925,1.496
2024-09-23 11:24:20.286,161793.124,0.05,0.798,-0.6,0.014,0.005,0.005,0.102,-0.133,-0.031,0.084,-0.924,1.496
2024-09-23 11:24:20.297,161793.134,0.049,0.798,-0.601,0.012,0.012,0.008,0.117,-0.157,-0.045,0.082,-0.923,1.495
2024-09-23 11:24:20.306,161793.144,0.048,0.797,-0.602,0.012,0.002,0.005,0.149,-0.174,-0.049,0.079,-0.922,1.494
2024-09-23 11:24:20.316,161793.154,0.046,0.796,-0.604,0.014,0.004,0.003,0.19,-0.179,-0.055,0.076,-0.92,1.493
2024-09-23 11:24:20.327,161793.164,0.045,0.795,-0.606,0.01,0.016,0.01,0.263,-0.172,-0.056,0.074,-0.918,1.492
2024-09-23 11:24:20.336,161793.174,0.044,0.793,-0.608,0.007,0.021,0.015,0.344,-0.003,-0.035,0.072,-0.915,1.491
2024-09-23 11:24:20.346,161793.184,0.044,0.791,-0.61,0.005,0.026,0.019,0.135,-0.001,0.007,0.072,-0.913,1.49
2024-09-23 11:24:20.356,161793.194,0.044,0.791,-0.61,-0.02,0.027,0.017,0.091,0.05,-0.008,0.072,-0.912,1.49
2024-09-23 11:24:20.366,161793.203,0.044,0.79,-0.611,-0.051,0.008,-0.027,0.06,0.093,0.023,0.073,-0.912,1.49
2024-09-23 11:24:20.376,161793.213,0.045,0.79,-0.611,-0.005,-0.117,-0.014,0.105,0.15,0.043,0.074,-0.911,1.491
2024-09-23 11:24:20.386,161793.223,0.047,0.789,-0.612,-0.023,-0.029,-0.0,0.138,0.221,0.052,0.077,-0.91,1.492
2024-09-23 11:24:20.397,161793.233,0.049,0.788,-0.613,-0.031,0.056,0.015,0.121,0.234,0.061,0.079,-0.908,1.492
2024-09-23 11:24:20.406,161793.243,0.051,0.788,-0.614,-0.025,-0.018,0.013,0.111,0.265,0.048,0.083,-0.907,1.493
2024-09-23 11:24:20.416,161793.253,0.053,0.787,-0.615,-0.019,-0.0,0.003,0.066,0.255,0.028,0.086,-0.906,1.494
2024-09-23 11:24:20.426,161793.263,0.054,0.787,-0.615,-0.01,-0.002,-0.005,0.079,0.23,0.007,0.088,-0.905,1.494
2024-09-23 11:24:20.436,161793.273,0.055,0.786,-0.616,-0.003,-0.003,-0.017,0.113,0.158,-0.014,0.09,-0.904,1.494
2024-09-23 11:24:20.446,161793.283,0.056,0.785,-0.616,0.011,0.012,0.005,0.144,0.092,-0.036,0.091,-0.903,1.493
2024-09-23 11:24:20.456,161793.293,0.056,0.785,-0.618,0.019,-0.002,0.01,0.114,0.069,-0.053,0.091,-0.902,1.492
2024-09-23 11:24:20.466,161793.303,0.056,0.784,-0.618,0.023,0.005,0.006,0.105,0.051,-0.047,0.09,-0.901,1.491
2024-09-23 11:24:20.476,161793.313,0.056,0.783,-0.619,0.015,-0.001,0.002,0.119,0.051,-0.06,0.09,-0.9,1.49
2024-09-23 11:24:20.486,161793.323,0.056,0.783,-0.62,0.009,-0.0,0.004,0.067,0.058,-0.052,0.09,-0.899,1.489
2024-09-23 11:24:20.496,161793.333,0.056,0.783,-0.62,0.009,0.002,-0.006,0.025,0.099,-0.048,0.09,-0.899,1.488
2024-09-23 11:24:20.506,161793.343,0.056,0.783,-0.62,-0.005,0.007,-0.007,-0.013,0.07,0.007,0.09,-0.899,1.488
2024-09-23 11:24:20.517,161793.353,0.057,0.783,-0.62,-0.016,-0.04,-0.005,-0.063,0.04,0.036,0.091,-0.899,1.488
2024-09-23 11:24:20.526,161793.363,0.057,0.784,-0.619,-0.035,-0.039,-0.008,-0.133,0.029,0.057,0.092,-0.9,1.489
2024-09-23 11:24:20.536,161793.373,0.058,0.784,-0.618,-0.013,-0.045,-0.022,-0.116,0.024,0.053,0.093,-0.901,1.49
2024-09-23 11:24:20.546,161793.383,0.058,0.785,-0.617,-0.013,-0.011,-0.002,-0.089,0.052,0.039,0.094,-0.902,1.491
2024-09-23 11:24:20.556,161793.393,0.059,0.785,-0.617,-0.009,-0.014,-0.006,0.048,0.036,0.032,0.095,-0.902,1.492
2024-09-23 11:24:20.566,161793.403,0.06,0.784,-0.618,-0.014,0.011,-0.01,0.112,0.027,0.035,0.096,-0.902,1.492
2024-09-23 11:24:20.576,161793.413,0.06,0.784,-0.618,-0.011,-0.004,-0.007,0.056,0.045,0.053,0.097,-0.901,1.493
2024-09-23 11:24:20.586,161793.423,0.061,0.783,-0.619,-0.003,0.014,0.032,0.084,0.025,0.073,0.098,-0.9,1.493
2024-09-23 11:24:20.596,161793.433,0.061,0.783,-0.619,0.018,-0.037,0.062,0.009,0.014,0.101,0.099,-0.899,1.495
2024-09-23 11:24:20.606,161793.443,0.062,0.783,-0.619,0.016,-0.013,0.039,-0.184,0.041,0.126,0.1,-0.9,1.496
2024-09-23 11:24:20.616,161793.453,0.064,0.785,-0.616,0.002,-0.007,0.003,-0.479,0.075,0.123,0.103,-0.902,1.499
2024-09-23 11:24:20.626,161793.463,0.065,0.788,-0.612,-0.016,-0.102,-0.013,-0.715,0.188,0.12,0.106,-0.908,1.502
2024-09-23 11:24:20.636,161793.473,0.068,0.793,-0.605,-0.021,-0.159,-0.04,-0.918,0.463,0.174,0.113,-0.916,1.506
2024-09-23 11:24:20.647,161793.483,0.073,0.8,-0.596,-0.018,-0.139,-0.057,-1.266,0.636,0.204,0.122,-0.927,1.511
2024-09-23 11:24:20.656,161793.493,0.079,0.808,-0.584,-0.066,-0.041,-0.084,-1.565,0.713,0.161,0.134,-0.941,1.517
2024-09-23 11:24:20.666,161793.503,0.083,0.817,-0.57,-0.097,-0.025,-0.108,-1.759,0.588,0.051,0.145,-0.957,1.523
2024-09-23 11:24:20.676,161793.513,0.087,0.827,-0.555,-0.053,-0.228,-0.094,-1.759,0.463,0.065,0.155,-0.974,1.528
2024-09-23 11:24:20.686,161793.523,0.09,0.837,-0.54,-0.042,-0.175,-0.072,-1.669,0.393,0.036,0.164,-0.991,1.534
2024-09-23 11:24:20.696,161793.533,0.092,0.845,-0.527,-0.013,-0.006,-0.051,-1.523,0.329,0.052,0.173,-1.007,1.54
2024-09-23 11:24:20.706,161793.543,0.094,0.853,-0.514,0.035,-0.006,-0.029,-1.355,0.243,0.047,0.181,-1.021,1.546
2024-09-23 11:24:20.716,161793.553,0.095,0.859,-0.503,0.04,0.041,0.001,-1.215,0.16,0.023,0.187,-1.033,1.551
2024-09-23 11:24:20.726,161793.563,0.096,0.865,-0.493,0.033,0.096,0.014,-1.03,0.161,0.013,0.192,-1.044,1.555
2024-09-23 11:24:20.736,161793.573,0.097,0.869,-0.485,0.035,0.077,0.001,-0.751,0.242,0.007,0.197,-1.053,1.559
2024-09-23 11:24:20.745,161793.583,0.098,0.872,-0.479,0.014,0.092,0.01,-0.533,0.235,-0.059,0.202,-1.059,1.561
2024-09-23 11:24:20.755,161793.593,0.097,0.875,-0.475,-0.044,0.176,0.021,-0.535,0.01,-0.251,0.202,-1.065,1.56
2024-09-23 11:24:20.765,161793.603,0.095,0.877,-0.471,-0.118,0.238,0.023,-0.256,-0.075,-0.085,0.199,-1.07,1.558
2024-09-23 11:24:20.776,161793.613,0.094,0.878,-0.469,-0.174,0.157,0.025,-0.173,-0.098,-0.123,0.198,-1.072,1.557
2024-09-23 11:24:20.786,161793.623,0.091,0.879,-0.468,-0.08,0.027,-0.048,-0.017,-0.183,-0.24,0.193,-1.074,1.553
2024-09-23 11:24:20.795,161793.633,0.089,0.879,-0.469,0.037,0.1,-0.147,0.077,-0.216,-0.159,0.187,-1.073,1.549
2024-09-23 11:24:20.805,161793.643,0.086,0.879,-0.469,-0.142,0.152,-0.086,0.021,-0.243,-0.232,0.181,-1.073,1.545
2024-09-23 11:24:20.815,161793.653,0.083,0.879,-0.47,-0.092,0.095,-0.028,-0.011,-0.217,-0.211,0.175,-1.074,1.54
2024-09-23 11:24:20.826,161793.663,0.08,0.879,-0.47,-0.011,0.065,0.034,-0.032,-0.195,-0.203,0.169,-1.074,1.536
2024-09-23 11:24:20.835,161793.673,0.078,0.88,-0.469,-0.028,0.057,0.054,-0.036,-0.195,-0.201,0.164,-1.075,1.532
2024-09-23 11:24:20.846,161793.683,0.075,0.88,-0.469,-0.004,0.04,0.065,0.008,-0.227,-0.202,0.158,-1.075,1.528
2024-09-23 11:24:20.856,161793.693,0.072,0.88,-0.47,0.02,-0.009,0.079,0.105,-0.248,-0.179,0.152,-1.075,1.524
2024-09-23 11:24:20.865,161793.703,0.069,0.879,-0.472,0.051,-0.052,0.088,0.236,-0.247,-0.13,0.146,-1.074,1.52
2024-09-23 11:24:20.875,161793.713,0.067,0.878,-0.474,0.062,-0.073,0.091,0.243,-0.279,-0.083,0.141,-1.071,1.517
2024-09-23 11:24:20.885,161793.723,0.065,0.877,-0.476,0.067,-0.108,0.092,0.222,-0.297,-0.064,0.136,-1.069,1.515
2024-09-23 11:24:20.895,161793.733,0.063,0.876,-0.478,0.07,-0.136,0.115,0.229,-0.319,-0.085,0.131,-1.067,1.513
2024-09-23 11:24:20.906,161793.743,0.061,0.875,-0.481,0.066,-0.157,0.138,0.32,-0.33,-0.125,0.126,-1.065,1.51
2024-09-23 11:24:20.915,161793.753,0.058,0.873,-0.485,0.06,-0.167,0.144,0.491,-0.317,-0.193,0.119,-1.061,1.506
2024-09-23 11:24:20.926,161793.763,0.054,0.87,-0.49,0.051,-0.15,0.146,0.674,-0.273,-0.26,0.11,-1.055,1.5
2024-09-23 11:24:20.935,161793.773,0.051,0.867,-0.497,0.049,-0.13,0.145,0.787,-0.244,-0.276,0.102,-1.048,1.493
2024-09-23 11:24:20.945,161793.783,0.047,0.863,-0.503,0.033,-0.156,0.123,0.813,-0.186,-0.222,0.094,-1.041,1.486
2024-09-23 11:24:20.955,161793.793,0.045,0.859,-0.511,0.027,-0.212,0.105,0.841,-0.131,-0.049,0.089,-1.032,1.482
2024-09-23 11:24:20.965,161793.802,0.045,0.854,-0.518,0.04,-0.228,0.101,0.894,-0.037,0.076,0.087,-1.024,1.481
2024-09-23 11:24:20.975,161793.812,0.047,0.849,-0.526,0.065,-0.053,0.014,0.905,0.101,0.229,0.088,-1.015,1.482
2024-09-23 11:24:20.985,161793.822,0.049,0.845,-0.533,0.068,0.309,-0.133,0.755,0.13,0.198,0.092,-1.006,1.485
2024-09-23 11:24:20.995,161793.832,0.051,0.841,-0.538,0.04,0.491,-0.213,0.525,0.043,0.079,0.094,-1.0,1.487
2024-09-23 11:24:21.005,161793.842,0.051,0.839,-0.542,0.031,0.302,-0.185,0.352,-0.022,-0.024,0.094,-0.995,1.486
2024-09-23 11:24:21.015,161793.852,0.051,0.837,-0.545,0.054,-0.036,-0.103,0.3,0.007,-0.083,0.092,-0.992,1.485
2024-09-23 11:24:21.026,161793.862,0.05,0.836,-0.547,0.058,-0.174,-0.011,0.222,0.015,-0.111,0.091,-0.99,1.482
2024-09-23 11:24:21.035,161793.872,0.049,0.835,-0.548,0.026,-0.144,0.011,0.24,0.004,-0.054,0.089,-0.988,1.48
2024-09-23 11:24:21.045,161793.882,0.048,0.833,-0.551,-0.002,-0.069,-0.007,0.223,0.01,-0.131,0.088,-0.985,1.478
2024-09-23 11:24:21.055,161793.892,0.048,0.832,-0.552,0.004,-0.005,-0.031,0.167,-0.019,-0.087,0.086,-0.983,1.476
2024-09-23 11:24:21.065,161793.902,0.047,0.831,-0.554,0.015,0.064,-0.086,0.142,-0.043,-0.067,0.084,-0.982,1.474
2024-09-23 11:24:21.075,161793.912,0.046,0.831,-0.555,-0.015,0.091,-0.037,0.099,-0.06,-0.084,0.082,-0.98,1.473
2024-09-23 11:24:21.085,161793.922,0.045,0.83,-0.555,0.006,-0.013,-0.007,0.056,-0.076,-0.07,0.081,-0.98,1.471
2024-09-23 11:24:21.096,161793.932,0.044,0.83,-0.556,0.013,-0.055,-0.009,0.027,-0.085,-0.047,0.079,-0.979,1.47
2024-09-23 11:24:21.105,161793.942,0.043,0.83,-0.556,-0.006,-0.035,-0.018,-0.005,-0.1,-0.043,0.077,-0.979,1.47
2024-09-23 11:24:21.115,161793.952,0.042,0.83,-0.556,-0.009,-0.002,-0.015,-0.007,-0.113,-0.042,0.076,-0.979,1.469
2024-09-23 11:24:21.125,161793.962,0.041,0.83,-0.556,-0.001,0.017,-0.01,0.006,-0.137,-0.043,0.074,-0.979,1.468
2024-09-23 11:24:21.135,161793.972,0.04,0.83,-0.556,0.002,-0.005,0.0,0.014,-0.137,-0.041,0.072,-0.979,1.467
2024-09-23 11:24:21.145,161793.982,0.039,0.83,-0.556,0.007,-0.016,0.006,0.041,-0.119,-0.026,0.07,-0.979,1.467
2024-09-23 11:24:21.155,161793.992,0.038,0.83,-0.557,0.006,0.005,0.008,0.057,-0.089,-0.01,0.068,-0.979,1.466
2024-09-23 11:24:21.165,161794.002,0.038,0.829,-0.557,-0.002,0.004,0.011,0.053,-0.063,0.007,0.068,-0.978,1.466
2024-09-23 11:24:21.174,161794.012,0.038,0.829,-0.558,-0.006,0.005,0.01,0.057,-0.041,0.008,0.067,-0.977,1.466
2024-09-23 11:24:21.185,161794.022,0.037,0.829,-0.558,-0.01,-0.003,0.002,0.066,-0.027,-0.002,0.067,-0.977,1.466
2024-09-23 11:24:21.195,161794.032,0.037,0.828,-0.559,-0.006,-0.005,-0.005,0.072,-0.032,-0.012,0.066,-0.976,1.466
2024-09-23 11:24:21.205,161794.042,0.037,0.828,-0.56,-0.005,0.011,-0.003,0.098,-0.012,-0.023,0.066,-0.975,1.466
2024-09-23 11:24:21.215,161794.052,0.037,0.827,-0.561,-0.0,0.005,0.0,0.118,0.008,-0.018,0.065,-0.974,1.465
2024-09-23 11:24:21.225,161794.062,0.037,0.827,-0.562,-0.001,-0.008,0.008,0.137,0.025,-0.014,0.065,-0.973,1.465
2024-09-23 11:24:21.235,161794.072,0.037,0.826,-0.563,-0.007,0.013,0.015,0.123,0.038,-0.008,0.065,-0.972,1.464
2024-09-23 11:24:21.245,161794.082,0.037,0.825,-0.563,-0.005,0.012,0.015,0.093,0.03,-0.004,0.066,-0.971,1.464
2024-09-23 11:24:21.255,161794.092,0.037,0.825,-0.564,-0.003,-0.014,0.007,0.049,0.009,-0.01,0.066,-0.97,1.464
2024-09-23 11:24:21.265,161794.102,0.037,0.825,-0.564,-0.002,-0.019,-0.001,0.021,-0.023,-0.029,0.065,-0.97,1.464
2024-09-23 11:24:21.275,161794.112,0.036,0.825,-0.564,0.004,-0.025,-0.005,0.049,-0.038,-0.043,0.064,-0.97,1.463
2024-09-23 11:24:21.286,161794.122,0.036,0.824,-0.565,0.008,-0.022,-0.012,0.124,-0.032,-0.056,0.063,-0.969,1.462
2024-09-23 11:24:21.294,161794.132,0.035,0.823,-0.567,0.005,0.01,-0.003,0.221,-0.038,-0.067,0.062,-0.967,1.461
2024-09-23 11:24:21.305,161794.142,0.034,0.822,-0.569,0.0,0.041,0.015,0.327,-0.058,-0.077,0.06,-0.965,1.459
2024-09-23 11:24:21.314,161794.152,0.033,0.82,-0.572,0.008,0.043,0.022,0.437,-0.08,-0.079,0.058,-0.961,1.457
2024-09-23 11:24:21.324,161794.162,0.032,0.817,-0.576,0.014,0.045,0.027,0.516,-0.076,-0.076,0.056,-0.956,1.456
2024-09-23 11:24:21.334,161794.172,0.031,0.814,-0.58,0.014,0.042,0.031,0.562,-0.087,-0.061,0.053,-0.951,1.454
2024-09-23 11:24:21.345,161794.182,0.031,0.811,-0.584,0.009,0.044,0.03,0.508,0.067,0.026,0.053,-0.946,1.453
2024-09-23 11:24:21.355,161794.192,0.032,0.809,-0.587,0.006,0.041,0.024,0.298,0.059,0.025,0.054,-0.942,1.454
2024-09-23 11:24:21.365,161794.202,0.032,0.807,-0.59,-0.003,0.021,0.021,0.241,0.086,-0.027,0.054,-0.939,1.453
2024-09-23 11:24:21.375,161794.212,0.032,0.806,-0.591,-0.018,0.005,-0.023,0.138,0.079,0.014,0.055,-0.937,1.453
2024-09-23 11:24:21.384,161794.222,0.033,0.805,-0.592,-0.006,-0.076,-0.018,0.096,0.173,0.02,0.056,-0.936,1.453
2024-09-23 11:24:21.394,161794.232,0.035,0.805,-0.592,-0.011,-0.065,-0.014,0.044,0.201,0.024,0.058,-0.936,1.453
2024-09-23 11:24:21.405,161794.242,0.036,0.805,-0.592,-0.002,0.051,-0.003,0.011,0.161,0.036,0.06,-0.935,1.454
2024-09-23 11:24:21.415,161794.252,0.037,0.805,-0.593,-0.025,0.01,-0.006,0.007,0.162,-0.02,0.062,-0.935,1.454
2024-09-23 11:24:21.425,161794.262,0.038,0.805,-0.592,-0.002,-0.071,-0.009,-0.0,0.095,0.019,0.063,-0.935,1.454
2024-09-23 11:24:21.435,161794.272,0.038,0.805,-0.592,-0.008,-0.033,-0.017,-0.098,0.057,0.022,0.065,-0.936,1.454
2024-09-23 11:24:21.444,161794.282,0.039,0.806,-0.591,-0.017,-0.06,-0.013,-0.104,0.059,0.026,0.066,-0.937,1.455
2024-09-23 11:24:21.455,161794.292,0.039,0.806,-0.59,0.021,-0.06,0.012,-0.124,0.063,0.052,0.067,-0.938,1.456
2024-09-23 11:24:21.464,161794.302,0.04,0.807,-0.589,0.011,-0.05,0.035,-0.197,0.067,0.044,0.068,-0.939,1.457
2024-09-23 11:24:21.474,161794.312,0.041,0.809,-0.587,-0.009,-0.067,0.03,-0.378,0.054,0.06,0.07,-0.942,1.458
2024-09-23 11:24:21.485,161794.322,0.042,0.811,-0.583,-0.023,-0.1,-0.035,-0.486,0.039,0.093,0.072,-0.946,1.46
2024-09-23 11:24:21.495,161794.332,0.043,0.814,-0.579,-0.03,-0.086,-0.053,-0.513,0.122,0.117,0.074,-0.951,1.462
2024-09-23 11:24:21.505,161794.342,0.045,0.817,-0.575,-0.018,-0.069,-0.033,-0.476,0.241,0.166,0.079,-0.956,1.465
2024-09-23 11:24:21.514,161794.352,0.048,0.82,-0.571,-0.017,-0.007,-0.024,-0.499,0.286,0.185,0.085,-0.961,1.469
2024-09-23 11:24:21.525,161794.362,0.051,0.822,-0.567,-0.044,0.092,-0.029,-0.478,0.148,0.138,0.09,-0.966,1.472
2024-09-23 11:24:21.534,161794.372,0.052,0.825,-0.563,-0.039,0.094,-0.022,-0.389,0.047,0.083,0.093,-0.97,1.475
2024-09-23 11:24:21.545,161794.382,0.053,0.826,-0.56,0.016,-0.074,-0.013,-0.225,-0.001,0.063,0.095,-0.973,1.477
2024-09-23 11:24:21.554,161794.391,0.053,0.827,-0.559,0.05,-0.071,0.01,-0.037,-0.031,0.036,0.095,-0.974,1.478
2024-09-23 11:24:21.564,161794.401,0.053,0.827,-0.56,0.029,0.084,0.029,0.108,-0.068,0.006,0.095,-0.974,1.478
2024-09-23 11:24:21.574,161794.411,0.053,0.826,-0.561,0.022,0.133,0.039,0.177,-0.122,-0.016,0.094,-0.972,1.478
2024-09-23 11:24:21.584,161794.421,0.052,0.825,-0.563,0.025,0.061,0.038,0.182,-0.138,-0.028,0.092,-0.97,1.477
2024-09-23 11:24:21.594,161794.431,0.051,0.824,-0.564,0.025,0.009,0.02,0.16,-0.13,-0.035,0.09,-0.969,1.476
2024-09-23 11:24:21.604,161794.441,0.05,0.823,-0.565,0.015,0.009,0.001,0.119,-0.105,-0.035,0.088,-0.967,1.476
2024-09-23 11:24:21.614,161794.451,0.049,0.823,-0.566,-0.001,0.003,-0.007,0.064,-0.127,-0.045,0.086,-0.967,1.475
2024-09-23 11:24:21.624,161794.461,0.048,0.823,-0.566,-0.008,-0.025,-0.011,0.03,-0.155,-0.053,0.084,-0.966,1.474
2024-09-23 11:24:21.634,161794.471,0.046,0.823,-0.567,-0.003,-0.033,-0.015,0.054,-0.173,-0.053,0.081,-0.966,1.473
2024-09-23 11:24:21.644,161794.481,0.045,0.822,-0.568,0.008,-0.025,-0.008,0.144,-0.187,-0.05,0.079,-0.965,1.472
2024-09-23 11:24:21.655,161794.491,0.043,0.821,-0.569,0.009,0.01,0.007,0.239,-0.203,-0.057,0.076,-0.963,1.471
2024-09-23 11:24:21.664,161794.501,0.042,0.819,-0.572,0.011,0.034,0.023,0.334,-0.206,-0.048,0.073,-0.96,1.469
2024-09-23 11:24:21.675,161794.511,0.04,0.817,-0.575,0.012,0.043,0.025,0.433,-0.196,-0.054,0.07,-0.956,1.468
2024-09-23 11:24:21.684,161794.521,0.039,0.814,-0.579,0.014,0.05,0.024,0.509,-0.194,-0.072,0.066,-0.952,1.466
2024-09-23 11:24:21.694,161794.531,0.038,0.811,-0.583,0.009,0.051,0.028,0.531,0.058,-0.021,0.065,-0.947,1.465
2024-09-23 11:24:21.704,161794.541,0.038,0.809,-0.586,0.001,0.036,0.019,0.235,0.088,-0.005,0.065,-0.943,1.464
2024-09-23 11:24:21.714,161794.551,0.039,0.808,-0.588,-0.033,0.012,0.023,0.149,0.142,-0.02,0.066,-0.941,1.464
2024-09-23 11:24:21.724,161794.561,0.04,0.807,-0.589,-0.075,-0.014,-0.043,0.105,0.183,-0.009,0.067,-0.94,1.463
2024-09-23 11:24:21.734,161794.571,0.041,0.807,-0.589,-0.002,-0.151,-0.022,0.124,0.261,-0.013,0.069,-0.939,1.463
2024-09-23 11:24:21.744,161794.581,0.042,0.806,-0.59,-0.018,-0.069,-0.007,0.094,0.266,-0.022,0.071,-0.938,1.463
2024-09-23 11:24:21.754,161794.591,0.043,0.806,-0.591,-0.033,0.064,0.019,0.015,0.244,-0.033,0.073,-0.937,1.462
2024-09-23 11:24:21.764,161794.601,0.044,0.806,-0.591,-0.017,-0.04,-0.007,0.05,0.167,0.001,0.075,-0.937,1.462
2024-09-23 11:24:21.774,161794.611,0.045,0.805,-0.591,0.008,-0.033,-0.018,0.048,0.154,-0.004,0.077,-0.936,1.462
2024-09-23 11:24:21.784,161794.621,0.046,0.805,-0.592,0.0,-0.003,-0.003,0.101,0.049,0.019,0.078,-0.936,1.462
2024-09-23 11:24:21.794,161794.631,0.046,0.804,-0.592,0.012,0.035,0.015,0.121,0.023,0.007,0.078,-0.934,1.462
2024-09-23 11:24:21.804,161794.641,0.046,0.803,-0.594,0.021,-0.013,0.013,0.164,-0.052,0.028,0.078,-0.933,1.462
2024-09-23 11:24:21.814,161794.651,0.046,0.802,-0.595,0.026,0.021,0.022,0.146,-0.085,0.002,0.077,-0.931,1.462
2024-09-23 11:24:21.824,161794.661,0.046,0.802,-0.596,0.016,-0.02,0.015,0.096,-0.112,-0.001,0.076,-0.93,1.462
2024-09-23 11:24:21.834,161794.671,0.045,0.802,-0.596,0.024,-0.005,-0.001,-0.023,-0.135,-0.006,0.075,-0.93,1.462
2024-09-23 11:24:21.844,161794.681,0.044,0.802,-0.596,0.001,-0.003,-0.011,-0.102,-0.203,0.013,0.073,-0.93,1.462
2024-09-23 11:24:21.854,161794.691,0.043,0.802,-0.596,0.009,-0.038,-0.026,0.075,-0.111,-0.019,0.072,-0.931,1.462
2024-09-23 11:24:21.864,161794.701,0.042,0.801,-0.597,0.007,-0.019,-0.036,0.069,-0.098,0.06,0.071,-0.93,1.462
2024-09-23 11:24:21.874,161794.711,0.043,0.801,-0.597,-0.012,0.019,-0.05,0.033,-0.006,0.061,0.071,-0.929,1.463
2024-09-23 11:24:21.884,161794.721,0.043,0.801,-0.597,-0.015,0.003,-0.05,-0.134,-0.112,0.035,0.071,-0.929,1.464
2024-09-23 11:24:21.894,161794.731,0.042,0.802,-0.596,0.007,-0.025,-0.012,-0.127,-0.057,0.045,0.071,-0.931,1.465
2024-09-23 11:24:21.904,161794.741,0.042,0.803,-0.594,-0.012,-0.052,0.011,-0.287,-0.106,0.031,0.071,-0.933,1.466
2024-09-23 11:24:21.914,161794.751,0.042,0.805,-0.592,0.001,-0.08,0.026,-0.233,-0.039,0.06,0.071,-0.935,1.467
2024-09-23 11:24:21.925,161794.761,0.042,0.806,-0.59,-0.01,-0.076,0.041,-0.209,-0.011,0.031,0.071,-0.938,1.468
2024-09-23 11:24:21.934,161794.771,0.043,0.807,-0.589,-0.001,-0.015,0.058,-0.122,0.012,0.037,0.072,-0.939,1.468
2024-09-23 11:24:21.943,161794.781,0.043,0.808,-0.588,-0.004,0.007,0.015,-0.028,0.049,0.04,0.073,-0.94,1.469
2024-09-23 11:24:21.953,161794.791,0.044,0.808,-0.588,-0.005,0.067,0.007,0.013,0.086,0.028,0.074,-0.94,1.47
2024-09-23 11:24:21.963,161794.801,0.045,0.807,-0.588,-0.009,0.048,0.025,-0.039,0.096,0.028,0.076,-0.94,1.47
2024-09-23 11:24:21.973,161794.811,0.045,0.808,-0.587,-0.002,0.002,0.013,-0.143,0.077,0.025,0.077,-0.941,1.471
2024-09-23 11:24:21.984,161794.821,0.046,0.809,-0.586,-0.012,-0.0,-0.02,-0.233,0.046,0.021,0.078,-0.943,1.471
2024-09-23 11:24:21.994,161794.831,0.046,0.811,-0.584,-0.004,-0.034,-0.036,-0.29,0.005,0.034,0.079,-0.945,1.472
2024-09-23 11:24:22.003,161794.841,0.046,0.812,-0.582,0.005,-0.062,-0.026,-0.275,0.002,0.038,0.08,-0.948,1.473
2024-09-23 11:24:22.014,161794.851,0.047,0.814,-0.579,0.002,-0.05,-0.02,-0.228,0.004,0.041,0.081,-0.95,1.474
2024-09-23 11:24:22.024,161794.861,0.047,0.815,-0.578,0.001,0.005,-0.008,-0.144,-0.013,0.038,0.081,-0.952,1.475
2024-09-23 11:24:22.034,161794.871,0.047,0.815,-0.577,-0.002,0.031,0.009,-0.061,-0.022,0.026,0.082,-0.953,1.476
2024-09-23 11:24:22.044,161794.881,0.047,0.816,-0.577,0.008,0.016,0.013,0.0,-0.033,0.022,0.082,-0.954,1.476
2024-09-23 11:24:22.055,161794.891,0.047,0.815,-0.577,0.009,0.032,0.018,0.033,-0.055,0.004,0.081,-0.953,1.477
2024-09-23 11:24:22.064,161794.901,0.047,0.815,-0.577,0.008,0.031,0.018,0.044,-0.046,-0.01,0.081,-0.953,1.476
2024-09-23 11:24:22.073,161794.911,0.046,0.815,-0.578,0.012,0.007,0.005,0.043,-0.032,-0.017,0.08,-0.952,1.476
2024-09-23 11:24:22.084,161794.921,0.046,0.815,-0.578,0.007,0.006,0.004,0.002,-0.034,-0.025,0.079,-0.952,1.476
2024-09-23 11:24:22.094,161794.931,0.046,0.815,-0.578,-0.004,0.001,0.003,-0.048,-0.053,-0.022,0.079,-0.952,1.475
2024-09-23 11:24:22.104,161794.941,0.045,0.815,-0.578,-0.003,-0.023,-0.009,-0.066,-0.068,-0.025,0.078,-0.953,1.475
2024-09-23 11:24:22.114,161794.951,0.044,0.815,-0.577,0.002,-0.034,-0.014,-0.042,-0.069,-0.028,0.077,-0.954,1.475
2024-09-23 11:24:22.124,161794.961,0.044,0.816,-0.577,0.004,-0.005,-0.01,0.006,-0.082,-0.034,0.076,-0.954,1.474
2024-09-23 11:24:22.134,161794.971,0.043,0.815,-0.577,0.003,0.012,0.003,0.086,-0.103,-0.037,0.074,-0.953,1.473
2024-09-23 11:24:22.143,161794.981,0.042,0.815,-0.578,0.006,0.017,0.011,0.176,-0.112,-0.04,0.073,-0.952,1.473
2024-09-23 11:24:22.154,161794.99,0.041,0.814,-0.58,0.01,0.024,0.017,0.246,-0.132,-0.039,0.071,-0.95,1.472
2024-09-23 11:24:22.163,161795.0,0.04,0.812,-0.582,0.01,0.034,0.025,0.277,-0.149,-0.044,0.069,-0.948,1.471
2024-09-23 11:24:22.174,161795.01,0.039,0.81,-0.585,0.008,0.033,0.021,0.32,-0.153,-0.052,0.066,-0.945,1.47
2024-09-23 11:24:22.183,161795.02,0.038,0.808,-0.588,0.01,0.023,0.01,0.38,0.009,-0.031,0.064,-0.941,1.469
2024-09-23 11:24:22.193,161795.03,0.038,0.806,-0.59,0.008,0.019,0.011,0.195,0.013,-0.018,0.064,-0.938,1.468
2024-09-23 11:24:22.203,161795.04,0.038,0.806,-0.591,-0.01,0.023,0.021,0.077,0.042,-0.026,0.064,-0.937,1.467
2024-09-23 11:24:22.213,161795.05,0.038,0.806,-0.591,-0.052,0.011,-0.024,0.009,0.067,-0.023,0.064,-0.937,1.467
2024-09-23 11:24:22.223,161795.06,0.038,0.806,-0.591,-0.005,-0.11,-0.027,0.064,0.127,0.0,0.065,-0.937,1.467
2024-09-23 11:24:22.233,161795.07,0.039,0.805,-0.592,-0.007,-0.093,-0.008,0.116,0.16,-0.004,0.066,-0.936,1.467
2024-09-23 11:24:22.243,161795.08,0.04,0.804,-0.593,-0.023,0.059,0.014,0.105,0.197,0.001,0.068,-0.935,1.467
2024-09-23 11:24:22.253,161795.09,0.041,0.804,-0.593,-0.021,0.028,0.015,0.054,0.149,0.02,0.07,-0.934,1.467
2024-09-23 11:24:22.263,161795.1,0.042,0.804,-0.594,-0.012,-0.023,0.007,0.071,0.152,0.023,0.071,-0.933,1.467
2024-09-23 11:24:22.273,161795.11,0.044,0.803,-0.594,-0.004,-0.022,-0.013,0.062,0.141,0.023,0.073,-0.932,1.467
2024-09-23 11:24:22.284,161795.12,0.044,0.803,-0.595,0.001,-0.007,0.002,0.091,0.122,0.009,0.075,-0.932,1.467
2024-09-23 11:24:22.293,161795.13,0.045,0.802,-0.595,-0.001,0.01,0.006,0.052,0.076,-0.016,0.075,-0.931,1.467
2024-09-23 11:24:22.303,161795.14,0.045,0.802,-0.596,0.005,0.024,0.01,0.032,0.086,-0.016,0.076,-0.93,1.467
2024-09-23 11:24:22.314,161795.15,0.045,0.802,-0.596,0.004,-0.017,0.007,0.01,0.053,-0.004,0.076,-0.93,1.467
2024-09-23 11:24:22.324,161795.16,0.046,0.802,-0.596,0.006,-0.023,-0.009,-0.022,0.064,-0.016,0.077,-0.93,1.466
2024-09-23 11:24:22.333,161795.17,0.046,0.802,-0.595,0.005,-0.01,-0.01,-0.046,0.063,-0.014,0.077,-0.931,1.466
2024-09-23 11:24:22.343,161795.18,0.046,0.802,-0.595,0.007,-0.003,-0.012,-0.111,0.065,0.019,0.078,-0.931,1.466
2024-09-23 11:24:22.353,161795.19,0.047,0.803,-0.595,0.002,-0.03,-0.009,0.002,0.108,0.024,0.079,-0.932,1.467
2024-09-23 11:24:22.363,161795.2,0.048,0.802,-0.595,0.005,-0.006,0.007,0.081,0.084,0.027,0.08,-0.931,1.467
2024-09-23 11:24:22.373,161795.21,0.048,0.802,-0.595,-0.006,0.016,0.019,0.031,0.099,0.022,0.081,-0.931,1.467
2024-09-23 11:24:22.383,161795.22,0.049,0.802,-0.596,-0.005,-0.007,0.009,0.105,0.119,0.07,0.083,-0.93,1.468
2024-09-23 11:24:22.393,161795.23,0.05,0.801,-0.596,0.005,0.021,-0.009,0.066,0.075,0.021,0.084,-0.929,1.469
2024-09-23 11:24:22.403,161795.24,0.051,0.801,-0.597,0.004,0.01,-0.023,0.04,-0.003,0.04,0.085,-0.928,1.469
2024-09-23 11:24:22.413,161795.25,0.051,0.8,-0.598,-0.004,0.007,-0.032,0.136,0.032,0.031,0.085,-0.927,1.469
2024-09-23 11:24:22.423,161795.26,0.051,0.799,-0.599,0.022,-0.048,0.001,0.062,-0.008,0.007,0.086,-0.926,1.47
2024-09-23 11:24:22.433,161795.27,0.051,0.799,-0.599,0.021,0.007,-0.026,-0.015,-0.04,-0.021,0.085,-0.926,1.469
2024-09-23 11:24:22.443,161795.28,0.051,0.799,-0.599,-0.035,-0.03,0.004,0.031,-0.001,-0.029,0.085,-0.926,1.469
2024-09-23 11:24:22.453,161795.29,0.051,0.799,-0.599,-0.006,-0.082,0.057,0.087,-0.006,-0.003,0.084,-0.925,1.469
2024-09-23 11:24:22.463,161795.3,0.051,0.798,-0.6,0.006,0.013,0.038,0.072,-0.012,0.002,0.084,-0.925,1.469
2024-09-23 11:24:22.473,161795.31,0.051,0.798,-0.6,-0.023,0.017,0.033,0.044,0.017,0.082,0.084,-0.924,1.469
2024-09-23 11:24:22.483,161795.32,0.052,0.798,-0.6,-0.019,-0.024,0.033,-0.108,0.041,0.108,0.086,-0.924,1.471
2024-09-23 11:24:22.493,161795.33,0.053,0.799,-0.599,-0.021,-0.046,0.025,-0.288,0.081,0.129,0.089,-0.926,1.473
2024-09-23 11:24:22.503,161795.34,0.055,0.802,-0.595,-0.002,-0.071,-0.017,-0.472,0.151,0.11,0.092,-0.93,1.475
2024-09-23 11:24:22.513,161795.35,0.057,0.805,-0.591,-0.022,-0.089,-0.023,-0.603,0.419,0.132,0.097,-0.935,1.478
2024-09-23 11:24:22.523,161795.36,0.061,0.809,-0.585,-0.015,-0.107,-0.028,-0.966,0.576,0.133,0.105,-0.942,1.482
2024-09-23 11:24:22.533,161795.37,0.066,0.816,-0.575,-0.04,-0.036,-0.054,-1.425,0.56,0.06,0.114,-0.954,1.486
2024-09-23 11:24:22.543,161795.38,0.069,0.825,-0.561,-0.103,0.012,-0.097,-1.739,0.474,0.026,0.122,-0.97,1.49
2024-09-23 11:24:22.553,161795.39,0.071,0.835,-0.546,-0.062,-0.193,-0.116,-1.845,0.431,0.029,0.13,-0.988,1.494
2024-09-23 11:24:22.563,161795.4,0.074,0.845,-0.53,-0.005,-0.254,-0.113,-1.833,0.368,0.009,0.138,-1.006,1.499
2024-09-23 11:24:22.573,161795.41,0.075,0.854,-0.515,0.002,-0.046,-0.098,-1.737,0.292,-0.026,0.146,-1.024,1.504
2024-09-23 11:24:22.581,161795.42,0.077,0.862,-0.5,0.008,0.032,-0.065,-1.575,0.243,-0.033,0.152,-1.04,1.508
2024-09-23 11:24:22.592,161795.43,0.077,0.87,-0.487,0.021,0.008,-0.021,-1.406,0.163,-0.049,0.157,-1.055,1.512
2024-09-23 11:24:22.602,161795.44,0.077,0.876,-0.476,0.024,0.049,0.0,-1.197,0.04,-0.104,0.161,-1.068,1.514
2024-09-23 11:24:22.612,161795.45,0.076,0.881,-0.467,0.012,0.102,0.002,-0.827,-0.008,-0.073,0.162,-1.078,1.516
2024-09-23 11:24:22.622,161795.46,0.076,0.884,-0.461,-0.016,0.12,-0.003,-0.603,0.013,0.016,0.164,-1.085,1.518
2024-09-23 11:24:22.632,161795.47,0.076,0.886,-0.457,-0.052,0.154,0.011,-0.324,-0.03,-0.069,0.165,-1.09,1.519
2024-09-23 11:24:22.643,161795.48,0.075,0.887,-0.455,-0.025,0.215,-0.003,-0.06,-0.112,-0.074,0.163,-1.092,1.518
2024-09-23 11:24:22.653,161795.49,0.074,0.887,-0.455,-0.055,0.225,-0.007,0.099,-0.205,-0.087,0.16,-1.091,1.516
2024-09-23 11:24:22.663,161795.5,0.071,0.887,-0.456,-0.085,0.186,-0.029,0.122,-0.327,-0.223,0.154,-1.091,1.513
2024-09-23 11:24:22.673,161795.51,0.068,0.886,-0.459,-0.041,0.145,-0.024,0.322,-0.238,-0.06,0.148,-1.088,1.509
2024-09-23 11:24:22.682,161795.52,0.066,0.885,-0.461,-0.096,0.101,0.04,0.22,-0.331,-0.182,0.142,-1.086,1.505
2024-09-23 11:24:22.694,161795.53,0.063,0.884,-0.464,-0.085,0.018,0.079,0.245,-0.306,-0.142,0.135,-1.084,1.501
2024-09-23 11:24:22.703,161795.54,0.06,0.883,-0.466,-0.018,0.024,0.14,0.284,-0.324,-0.146,0.129,-1.081,1.497
2024-09-23 11:24:22.712,161795.55,0.057,0.881,-0.469,-0.065,0.036,0.155,0.327,-0.339,-0.17,0.122,-1.079,1.493
2024-09-23 11:24:22.722,161795.56,0.054,0.88,-0.472,-0.025,-0.007,0.14,0.419,-0.334,-0.179,0.115,-1.075,1.489
2024-09-23 11:24:22.732,161795.57,0.051,0.878,-0.477,-0.008,-0.07,0.12,0.512,-0.312,-0.194,0.107,-1.071,1.484
2024-09-23 11:24:22.742,161795.579,0.048,0.875,-0.482,0.016,-0.103,0.088,0.567,-0.276,-0.172,0.1,-1.066,1.479
2024-09-23 11:24:22.752,161795.589,0.046,0.872,-0.487,0.02,-0.112,0.06,0.523,-0.275,-0.128,0.093,-1.06,1.475
2024-09-23 11:24:22.762,161795.599,0.043,0.87,-0.491,0.02,-0.153,0.04,0.365,-0.32,-0.162,0.087,-1.056,1.471
2024-09-23 11:24:22.772,161795.609,0.04,0.869,-0.494,0.038,-0.221,0.038,0.335,-0.306,-0.205,0.08,-1.053,1.467
2024-09-23 11:24:22.782,161795.619,0.037,0.867,-0.497,0.066,-0.224,0.063,0.542,-0.231,-0.189,0.073,-1.049,1.462
2024-09-23 11:24:22.792,161795.629,0.034,0.863,-0.503,0.073,-0.18,0.074,0.837,-0.14,-0.103,0.068,-1.042,1.458
2024-09-23 11:24:22.802,161795.639,0.033,0.859,-0.511,0.071,-0.14,0.044,0.984,-0.078,-0.04,0.065,-1.033,1.455
2024-09-23 11:24:22.812,161795.649,0.033,0.854,-0.52,0.089,-0.049,0.002,0.874,-0.066,0.0,0.063,-1.023,1.454
2024-09-23 11:24:22.823,161795.659,0.032,0.85,-0.526,0.106,0.074,-0.016,0.744,-0.079,0.003,0.061,-1.015,1.453
2024-09-23 11:24:22.832,161795.669,0.032,0.846,-0.532,0.105,0.122,-0.022,0.655,-0.071,0.012,0.06,-1.008,1.452
2024-09-23 11:24:22.842,161795.679,0.032,0.842,-0.538,0.103,0.104,-0.034,0.634,-0.072,0.02,0.059,-1.002,1.452
2024-09-23 11:24:22.852,161795.689,0.032,0.839,-0.543,0.1,0.091,-0.043,0.584,-0.047,0.023,0.058,-0.996,1.452
2024-09-23 11:24:22.862,161795.699,0.032,0.836,-0.547,0.087,0.07,-0.038,0.465,-0.036,0.009,0.058,-0.991,1.451
2024-09-23 11:24:22.872,161795.709,0.031,0.834,-0.551,0.068,0.014,-0.01,0.366,-0.022,-0.015,0.057,-0.986,1.451
2024-09-23 11:24:22.882,161795.719,0.031,0.832,-0.554,0.046,-0.037,0.005,0.32,0.003,-0.019,0.056,-0.983,1.45
2024-09-23 11:24:22.892,161795.729,0.031,0.831,-0.556,0.026,-0.049,-0.002,0.272,0.012,-0.006,0.056,-0.98,1.45
2024-09-23 11:24:22.902,161795.739,0.031,0.829,-0.558,0.01,-0.032,-0.013,0.218,-0.004,-0.018,0.055,-0.978,1.449
2024-09-23 11:24:22.912,161795.749,0.031,0.828,-0.56,-0.001,-0.019,-0.034,0.165,0.003,-0.001,0.055,-0.976,1.449
2024-09-23 11:24:22.922,161795.759,0.031,0.827,-0.561,-0.011,-0.0,-0.055,0.099,-0.001,0.026,0.055,-0.974,1.449
2024-09-23 11:24:22.932,161795.769,0.031,0.827,-0.561,-0.026,0.013,-0.054,0.009,-0.011,0.016,0.055,-0.974,1.449
2024-09-23 11:24:22.942,161795.779,0.031,0.827,-0.561,-0.033,-0.005,-0.043,-0.045,-0.024,-0.043,0.055,-0.974,1.449
2024-09-23 11:24:22.952,161795.789,0.031,0.827,-0.561,-0.031,-0.015,-0.034,-0.056,0.007,-0.004,0.055,-0.974,1.449
2024-09-23 11:24:22.962,161795.799,0.031,0.828,-0.56,-0.044,0.003,-0.037,-0.064,0.027,0.028,0.055,-0.975,1.449
2024-09-23 11:24:22.972,161795.809,0.031,0.828,-0.56,-0.043,0.016,-0.019,-0.051,0.047,0.041,0.056,-0.976,1.45
2024-09-23 11:24:22.982,161795.819,0.032,0.828,-0.559,-0.023,-0.014,-0.003,-0.084,0.025,0.023,0.057,-0.976,1.45
2024-09-23 11:24:22.992,161795.829,0.032,0.829,-0.559,-0.013,-0.024,0.009,-0.052,-0.009,0.024,0.057,-0.977,1.451
2024-09-23 11:24:23.002,161795.839,0.032,0.829,-0.558,-0.014,-0.005,0.02,-0.003,-0.022,0.04,0.058,-0.977,1.451
2024-09-23 11:24:23.014,161795.849,0.032,0.829,-0.559,-0.008,0.006,0.013,0.034,-0.048,0.044,0.058,-0.977,1.452
2024-09-23 11:24:23.022,161795.859,0.032,0.828,-0.559,0.01,0.03,-0.004,0.043,-0.052,0.029,0.058,-0.976,1.452
2024-09-23 11:24:23.032,161795.869,0.032,0.828,-0.56,0.012,0.022,-0.006,0.044,-0.036,0.023,0.057,-0.976,1.453
2024-09-23 11:24:23.042,161795.879,0.032,0.828,-0.56,0.006,-0.001,0.005,0.04,-0.025,0.014,0.057,-0.975,1.453
2024-09-23 11:24:23.052,161795.889,0.032,0.828,-0.56,0.001,0.002,0.001,0.02,-0.009,0.007,0.057,-0.975,1.453
2024-09-23 11:24:23.062,161795.899,0.032,0.828,-0.561,0.0,-0.003,-0.004,0.002,-0.006,0.001,0.057,-0.975,1.453
2024-09-23 11:24:23.072,161795.909,0.032,0.828,-0.56,0.004,-0.016,-0.003,-0.006,0.015,-0.002,0.057,-0.975,1.453
2024-09-23 11:24:23.082,161795.919,0.032,0.828,-0.56,0.005,-0.03,-0.006,0.002,0.009,-0.01,0.057,-0.975,1.452
2024-09-23 11:24:23.092,161795.929,0.032,0.828,-0.56,0.006,-0.009,-0.003,0.016,-0.006,-0.014,0.056,-0.975,1.452
2024-09-23 11:24:23.102,161795.939,0.031,0.828,-0.561,0.006,0.005,0.004,0.035,-0.026,-0.019,0.056,-0.975,1.452
2024-09-23 11:24:23.111,161795.949,0.031,0.827,-0.561,0.011,-0.006,0.005,0.066,-0.011,-0.019,0.056,-0.974,1.452
2024-09-23 11:24:23.122,161795.959,0.031,0.827,-0.562,0.01,0.003,0.004,0.108,0.003,-0.01,0.055,-0.973,1.451
2024-09-23 11:24:23.132,161795.969,0.031,0.826,-0.563,0.0,0.021,0.006,0.127,0.012,-0.003,0.055,-0.972,1.451
2024-09-23 11:24:23.142,161795.979,0.031,0.825,-0.564,-0.007,0.015,0.01,0.142,0.014,0.0,0.055,-0.971,1.451
2024-09-23 11:24:23.152,161795.989,0.031,0.824,-0.565,-0.006,0.003,0.006,0.159,-0.01,-0.001,0.055,-0.969,1.451
2024-09-23 11:24:23.162,161795.999,0.031,0.823,-0.566,-0.003,-0.003,0.007,0.18,-0.046,-0.013,0.055,-0.968,1.451
2024-09-23 11:24:23.172,161796.009,0.031,0.822,-0.568,0.004,0.009,0.005,0.214,-0.086,-0.031,0.054,-0.966,1.45
2024-09-23 11:24:23.182,161796.019,0.03,0.821,-0.57,0.012,0.012,0.006,0.303,-0.11,-0.055,0.052,-0.963,1.449
2024-09-23 11:24:23.192,161796.029,0.029,0.819,-0.573,0.019,0.005,0.012,0.408,-0.103,-0.066,0.05,-0.96,1.448
2024-09-23 11:24:23.201,161796.039,0.027,0.817,-0.577,0.018,0.036,0.023,0.497,-0.122,-0.077,0.048,-0.955,1.446
2024-09-23 11:24:23.212,161796.049,0.027,0.813,-0.581,0.01,0.066,0.031,0.597,0.05,-0.057,0.046,-0.95,1.445
2024-09-23 11:24:23.222,161796.059,0.027,0.811,-0.585,0.008,0.056,0.031,0.412,0.053,-0.04,0.046,-0.945,1.444
2024-09-23 11:24:23.232,161796.069,0.027,0.809,-0.587,-0.017,0.047,0.022,0.234,0.07,0.012,0.046,-0.942,1.443
2024-09-23 11:24:23.241,161796.079,0.027,0.808,-0.589,-0.046,0.056,-0.031,0.116,0.044,-0.07,0.046,-0.941,1.443
2024-09-23 11:24:23.251,161796.089,0.027,0.808,-0.589,0.018,-0.079,-0.008,0.056,0.158,-0.038,0.046,-0.94,1.442
2024-09-23 11:24:23.261,161796.099,0.028,0.808,-0.589,0.015,-0.091,-0.017,-0.016,0.169,-0.042,0.047,-0.94,1.441
2024-09-23 11:24:23.272,161796.109,0.029,0.808,-0.589,-0.023,0.055,-0.029,-0.065,0.252,-0.041,0.049,-0.94,1.44
2024-09-23 11:24:23.282,161796.119,0.03,0.808,-0.588,-0.03,0.01,-0.019,-0.148,0.16,-0.041,0.051,-0.941,1.44
2024-09-23 11:24:23.292,161796.129,0.03,0.809,-0.586,-0.021,-0.075,-0.005,-0.199,0.092,-0.0,0.052,-0.943,1.44
2024-09-23 11:24:23.301,161796.139,0.031,0.811,-0.585,-0.039,-0.162,0.001,-0.264,0.113,0.024,0.053,-0.945,1.44
2024-09-23 11:24:23.312,161796.149,0.032,0.812,-0.582,0.002,-0.212,0.036,-0.329,0.053,0.074,0.055,-0.948,1.441
2024-09-23 11:24:23.321,161796.159,0.033,0.814,-0.58,-0.005,-0.065,0.049,-0.238,0.015,0.195,0.057,-0.951,1.443
2024-09-23 11:24:23.334,161796.168,0.034,0.816,-0.577,-0.018,-0.058,0.034,-0.404,0.024,0.102,0.059,-0.955,1.446
2024-09-23 11:24:23.342,161796.178,0.036,0.818,-0.574,0.031,-0.098,-0.016,-0.356,0.148,0.144,0.063,-0.958,1.449
2024-09-23 11:24:23.351,161796.188,0.038,0.82,-0.571,0.05,0.035,-0.081,-0.325,0.164,0.128,0.066,-0.962,1.452
2024-09-23 11:24:23.360,161796.198,0.04,0.822,-0.568,-0.043,0.187,-0.036,-0.317,0.087,0.061,0.069,-0.965,1.454
2024-09-23 11:24:23.371,161796.208,0.04,0.824,-0.566,-0.03,0.085,-0.015,-0.275,-0.008,0.05,0.071,-0.968,1.455
2024-09-23 11:24:23.380,161796.218,0.04,0.825,-0.564,0.022,-0.095,-0.016,-0.148,-0.06,0.04,0.071,-0.97,1.456
2024-09-23 11:24:23.392,161796.228,0.04,0.825,-0.564,0.027,-0.048,-0.003,0.026,-0.079,0.023,0.071,-0.97,1.457
2024-09-23 11:24:23.401,161796.238,0.04,0.824,-0.564,0.019,0.078,0.017,0.183,-0.12,-0.005,0.07,-0.969,1.457
2024-09-23 11:24:23.411,161796.248,0.039,0.823,-0.567,0.018,0.092,0.027,0.322,-0.184,-0.032,0.068,-0.967,1.456
2024-09-23 11:24:23.422,161796.258,0.037,0.821,-0.57,0.021,0.093,0.034,0.441,-0.197,-0.065,0.065,-0.963,1.455
2024-09-23 11:24:23.431,161796.268,0.035,0.818,-0.574,0.03,0.049,0.032,0.519,-0.187,-0.087,0.062,-0.958,1.453
2024-09-23 11:24:23.441,161796.278,0.034,0.815,-0.578,0.029,0.036,0.03,0.57,-0.177,-0.107,0.058,-0.953,1.451
2024-09-23 11:24:23.452,161796.288,0.032,0.812,-0.583,0.008,0.072,0.027,0.568,-0.148,-0.113,0.054,-0.947,1.448
2024-09-23 11:24:23.463,161796.298,0.031,0.809,-0.587,0.007,0.039,0.018,0.516,0.113,-0.074,0.052,-0.942,1.446
2024-09-23 11:24:23.472,161796.308,0.031,0.806,-0.591,0.006,0.003,0.01,0.249,0.087,-0.054,0.052,-0.938,1.444
2024-09-23 11:24:23.481,161796.318,0.031,0.805,-0.592,-0.019,-0.008,0.013,0.128,0.179,-0.016,0.053,-0.936,1.444
2024-09-23 11:24:23.491,161796.328,0.032,0.805,-0.592,-0.07,-0.004,-0.047,-0.13,0.136,-0.105,0.053,-0.936,1.443
2024-09-23 11:24:23.501,161796.338,0.032,0.806,-0.591,0.006,-0.099,-0.022,-0.155,0.201,-0.056,0.054,-0.938,1.441
2024-09-23 11:24:23.511,161796.348,0.033,0.807,-0.59,-0.014,-0.173,0.004,-0.075,0.169,-0.049,0.055,-0.939,1.441
2024-09-23 11:24:23.521,161796.358,0.033,0.807,-0.589,-0.042,-0.023,-0.006,-0.032,0.118,-0.01,0.057,-0.94,1.44
2024-09-23 11:24:23.531,161796.368,0.034,0.807,-0.589,-0.023,-0.003,-0.023,0.051,0.064,-0.003,0.057,-0.94,1.44
2024-09-23 11:24:23.541,161796.378,0.034,0.807,-0.59,0.002,-0.004,0.007,0.11,0.042,0.017,0.058,-0.939,1.44
2024-09-23 11:24:23.551,161796.388,0.034,0.806,-0.591,0.015,0.017,0.032,0.158,0.0,0.024,0.058,-0.938,1.44
2024-09-23 11:24:23.561,161796.398,0.035,0.805,-0.592,0.009,0.046,0.031,0.202,0.005,0.041,0.059,-0.936,1.441
2024-09-23 11:24:23.571,161796.408,0.035,0.804,-0.594,0.02,0.026,0.024,0.152,-0.045,0.043,0.059,-0.934,1.441
2024-09-23 11:24:23.581,161796.418,0.035,0.803,-0.595,0.02,0.009,-0.018,0.056,-0.076,0.045,0.059,-0.933,1.442
2024-09-23 11:24:23.592,161796.428,0.035,0.803,-0.595,0.021,-0.027,-0.042,-0.073,-0.028,0.065,0.059,-0.933,1.443
2024-09-23 11:24:23.601,161796.438,0.035,0.804,-0.594,0.036,-0.056,-0.069,-0.196,-0.228,0.014,0.058,-0.934,1.444
2024-09-23 11:24:23.611,161796.448,0.034,0.805,-0.593,0.023,-0.055,-0.085,-0.021,-0.124,0.058,0.057,-0.935,1.444
2024-09-23 11:24:23.621,161796.458,0.034,0.805,-0.592,0.001,-0.033,-0.076,-0.085,-0.136,0.043,0.057,-0.936,1.445
2024-09-23 11:24:23.631,161796.468,0.033,0.806,-0.592,0.005,0.037,-0.049,-0.135,-0.129,0.041,0.056,-0.937,1.446
2024-09-23 11:24:23.641,161796.478,0.033,0.806,-0.59,-0.02,-0.006,-0.021,-0.165,-0.027,0.048,0.056,-0.938,1.447
2024-09-23 11:24:23.651,161796.488,0.033,0.808,-0.589,-0.002,-0.024,0.036,-0.225,-0.004,0.041,0.056,-0.94,1.448
2024-09-23 11:24:23.661,161796.498,0.033,0.809,-0.587,-0.01,-0.021,0.062,-0.267,0.035,0.045,0.057,-0.942,1.449
2024-09-23 11:24:23.671,161796.508,0.034,0.81,-0.585,-0.031,-0.074,0.082,-0.24,0.082,0.032,0.058,-0.945,1.45
2024-09-23 11:24:23.681,161796.518,0.035,0.812,-0.583,-0.025,-0.076,0.098,-0.18,0.055,0.029,0.06,-0.947,1.45
2024-09-23 11:24:23.691,161796.528,0.036,0.812,-0.582,-0.031,-0.045,0.083,-0.073,0.116,0.063,0.061,-0.948,1.451
2024-09-23 11:24:23.701,161796.538,0.037,0.813,-0.581,-0.021,-0.003,0.057,-0.129,0.14,0.082,0.064,-0.949,1.453
2024-09-23 11:24:23.711,161796.548,0.038,0.814,-0.58,-0.013,0.044,0.027,-0.195,0.096,0.043,0.066,-0.95,1.454
2024-09-23 11:24:23.721,161796.558,0.04,0.815,-0.579,-0.022,0.032,-0.011,-0.219,0.119,0.074,0.068,-0.952,1.455
2024-09-23 11:24:23.731,161796.568,0.041,0.816,-0.576,-0.016,0.008,-0.06,-0.262,0.109,0.059,0.07,-0.955,1.457
2024-09-23 11:24:23.741,161796.578,0.042,0.818,-0.574,0.013,-0.006,-0.075,-0.265,0.079,0.056,0.072,-0.957,1.458
2024-09-23 11:24:23.751,161796.588,0.042,0.819,-0.572,0.009,-0.007,-0.026,-0.234,0.05,0.042,0.074,-0.96,1.459
2024-09-23 11:24:23.761,161796.598,0.043,0.82,-0.57,0.01,-0.022,-0.011,-0.181,0.027,0.036,0.075,-0.962,1.46
2024-09-23 11:24:23.771,161796.608,0.043,0.821,-0.569,0.019,-0.01,-0.006,-0.136,-0.009,0.029,0.076,-0.963,1.461
2024-09-23 11:24:23.781,161796.618,0.043,0.822,-0.568,0.014,0.018,0.003,-0.056,-0.026,0.018,0.076,-0.964,1.461
2024-09-23 11:24:23.791,161796.628,0.043,0.822,-0.568,0.014,0.027,0.0,0.029,-0.017,0.009,0.076,-0.965,1.462
2024-09-23 11:24:23.800,161796.638,0.043,0.821,-0.569,0.015,0.022,0.011,0.087,-0.016,-0.0,0.076,-0.964,1.462
2024-09-23 11:24:23.811,161796.648,0.043,0.821,-0.57,0.006,0.039,0.023,0.101,-0.014,-0.007,0.076,-0.963,1.461
2024-09-23 11:24:23.821,161796.658,0.043,0.82,-0.57,0.007,0.029,0.012,0.097,-0.026,-0.012,0.075,-0.962,1.461
2024-09-23 11:24:23.831,161796.668,0.043,0.82,-0.571,0.006,0.013,0.005,0.08,-0.027,-0.016,0.075,-0.961,1.461
2024-09-23 11:24:23.841,161796.678,0.042,0.819,-0.572,0.006,-0.005,0.0,0.053,-0.037,-0.014,0.074,-0.96,1.461
2024-09-23 11:24:23.851,161796.688,0.042,0.819,-0.572,0.005,-0.011,-0.001,0.04,-0.055,-0.008,0.073,-0.96,1.46
2024-09-23 11:24:23.862,161796.698,0.042,0.819,-0.572,0.001,-0.013,0.001,0.013,-0.069,-0.005,0.073,-0.96,1.46
2024-09-23 11:24:23.883,161796.708,0.041,0.819,-0.573,0.001,-0.016,-0.003,0.023,-0.075,-0.006,0.072,-0.959,1.46
2024-09-23 11:24:23.887,161796.718,0.041,0.819,-0.573,-0.0,-0.004,-0.006,0.026,-0.079,-0.009,0.071,-0.959,1.46
2024-09-23 11:24:23.892,161796.728,0.04,0.819,-0.573,0.002,-0.007,-0.001,0.049,-0.065,-0.009,0.07,-0.959,1.46
2024-09-23 11:24:23.901,161796.738,0.04,0.818,-0.573,0.005,-0.001,0.004,0.067,-0.047,-0.009,0.07,-0.959,1.46
2024-09-23 11:24:23.910,161796.748,0.04,0.818,-0.574,0.002,0.002,0.007,0.063,-0.036,-0.008,0.069,-0.958,1.46
2024-09-23 11:24:23.920,161796.758,0.04,0.818,-0.574,0.0,0.005,0.009,0.053,-0.031,-0.011,0.069,-0.958,1.459
2024-09-23 11:24:23.930,161796.767,0.039,0.818,-0.575,-0.0,-0.002,0.002,0.031,-0.033,-0.015,0.068,-0.957,1.459
2024-09-23 11:24:23.940,161796.777,0.039,0.817,-0.575,0.001,-0.012,-0.004,0.011,-0.029,-0.023,0.068,-0.957,1.459
2024-09-23 11:24:23.950,161796.787,0.039,0.817,-0.575,0.002,-0.011,-0.005,-0.0,-0.034,-0.03,0.067,-0.957,1.458
2024-09-23 11:24:23.960,161796.797,0.038,0.817,-0.575,0.006,-0.008,-0.004,0.011,-0.028,-0.034,0.066,-0.957,1.458
2024-09-23 11:24:23.970,161796.807,0.038,0.817,-0.575,0.001,-0.005,0.0,0.022,-0.023,-0.033,0.065,-0.957,1.457
2024-09-23 11:24:23.981,161796.817,0.037,0.817,-0.575,0.003,-0.007,0.003,0.033,-0.016,-0.027,0.065,-0.956,1.457
2024-09-23 11:24:23.990,161796.827,0.037,0.817,-0.575,0.0,0.006,0.004,0.034,-0.013,-0.016,0.064,-0.956,1.456
2024-09-23 11:24:24.000,161796.837,0.037,0.817,-0.576,-0.004,0.003,0.004,0.049,0.019,-0.001,0.064,-0.956,1.456
2024-09-23 11:24:24.011,161796.847,0.037,0.816,-0.576,-0.006,-0.004,0.002,0.061,0.035,0.012,0.065,-0.955,1.456
2024-09-23 11:24:24.021,161796.857,0.038,0.816,-0.577,-0.01,0.002,0.007,0.063,0.038,0.019,0.065,-0.955,1.457
2024-09-23 11:24:24.031,161796.867,0.038,0.816,-0.577,-0.012,0.001,0.005,0.061,0.027,0.022,0.066,-0.954,1.457
2024-09-23 11:24:24.040,161796.877,0.038,0.815,-0.578,-0.006,-0.005,0.001,0.07,0.027,0.018,0.066,-0.953,1.457
2024-09-23 11:24:24.050,161796.887,0.039,0.815,-0.578,-0.001,-0.002,0.003,0.061,0.017,0.003,0.067,-0.953,1.457
2024-09-23 11:24:24.060,161796.897,0.039,0.815,-0.579,0.003,-0.006,0.005,0.05,-0.023,-0.008,0.067,-0.952,1.457
2024-09-23 11:24:24.073,161796.907,0.038,0.814,-0.579,0.007,0.001,0.001,0.058,-0.039,-0.016,0.066,-0.952,1.457
2024-09-23 11:24:24.079,161796.917,0.038,0.814,-0.58,0.012,-0.002,-0.004,0.078,-0.037,-0.026,0.065,-0.951,1.456
2024-09-23 11:24:24.090,161796.927,0.037,0.814,-0.58,0.014,-0.008,0.001,0.084,-0.047,-0.033,0.064,-0.95,1.456
2024-09-23 11:24:24.101,161796.937,0.037,0.813,-0.581,0.006,0.004,0.009,0.105,-0.079,-0.04,0.063,-0.949,1.455
2024-09-23 11:24:24.109,161796.947,0.036,0.812,-0.582,0.004,0.003,0.004,0.13,-0.079,-0.043,0.062,-0.948,1.454
2024-09-23 11:24:24.119,161796.957,0.035,0.812,-0.583,0.009,0.005,-0.001,0.169,-0.101,-0.045,0.06,-0.947,1.453
2024-09-23 11:24:24.129,161796.967,0.034,0.81,-0.585,0.009,0.014,0.007,0.214,-0.118,-0.052,0.058,-0.945,1.452
2024-09-23 11:24:24.139,161796.977,0.033,0.809,-0.587,0.003,0.018,0.01,0.272,0.003,-0.037,0.057,-0.943,1.451
2024-09-23 11:24:24.149,161796.987,0.033,0.808,-0.588,0.011,0.021,0.009,0.168,-0.009,-0.024,0.056,-0.941,1.451
2024-09-23 11:24:24.159,161796.997,0.033,0.807,-0.59,-0.009,0.027,0.012,0.129,0.025,-0.027,0.056,-0.939,1.45
2024-09-23 11:24:24.169,161797.007,0.033,0.806,-0.59,-0.032,0.031,-0.015,0.092,0.043,-0.018,0.056,-0.938,1.45
2024-09-23 11:24:24.179,161797.017,0.033,0.806,-0.591,0.001,-0.073,-0.004,0.124,0.066,-0.001,0.056,-0.937,1.45
2024-09-23 11:24:24.189,161797.027,0.034,0.805,-0.592,-0.008,-0.055,0.008,0.129,0.053,-0.004,0.057,-0.936,1.449
2024-09-23 11:24:24.199,161797.037,0.034,0.805,-0.593,-0.011,0.038,0.016,0.067,0.055,-0.015,0.057,-0.935,1.449
2024-09-23 11:24:24.210,161797.047,0.034,0.804,-0.593,-0.007,-0.005,0.012,0.064,0.062,-0.014,0.057,-0.934,1.449
2024-09-23 11:24:24.220,161797.057,0.035,0.804,-0.594,-0.001,-0.034,0.006,0.133,0.124,-0.005,0.058,-0.934,1.449
2024-09-23 11:24:24.231,161797.067,0.035,0.803,-0.595,-0.001,0.005,0.014,0.031,0.1,-0.001,0.059,-0.933,1.449
2024-09-23 11:24:24.240,161797.077,0.036,0.803,-0.595,-0.013,0.018,0.004,0.056,0.096,-0.008,0.06,-0.933,1.448
2024-09-23 11:24:24.250,161797.087,0.036,0.803,-0.595,-0.014,-0.031,-0.004,0.106,0.148,0.004,0.061,-0.932,1.448
2024-09-23 11:24:24.260,161797.097,0.037,0.802,-0.596,0.016,-0.029,0.009,0.069,0.168,-0.007,0.063,-0.931,1.448
2024-09-23 11:24:24.270,161797.107,0.038,0.802,-0.596,-0.011,0.03,-0.001,-0.024,0.123,-0.01,0.064,-0.93,1.448
2024-09-23 11:24:24.280,161797.117,0.039,0.802,-0.596,-0.013,-0.027,-0.014,-0.005,0.109,-0.002,0.065,-0.931,1.448
2024-09-23 11:24:24.290,161797.127,0.039,0.802,-0.596,0.01,-0.041,-0.005,-0.027,0.045,-0.004,0.066,-0.931,1.448
2024-09-23 11:24:24.300,161797.137,0.039,0.802,-0.596,0.009,0.013,-0.008,-0.047,0.012,-0.0,0.066,-0.931,1.448
2024-09-23 11:24:24.310,161797.147,0.04,0.803,-0.595,0.008,0.004,-0.037,-0.049,0.065,0.055,0.067,-0.932,1.448
2024-09-23 11:24:24.320,161797.157,0.041,0.803,-0.595,0.021,-0.019,-0.023,0.013,0.065,0.036,0.068,-0.932,1.449
2024-09-23 11:24:24.330,161797.167,0.041,0.803,-0.595,0.022,0.013,-0.004,0.009,0.075,0.03,0.069,-0.932,1.449
2024-09-23 11:24:24.340,161797.177,0.042,0.803,-0.595,0.017,0.009,0.001,-0.004,0.108,0.017,0.07,-0.932,1.45
2024-09-23 11:24:24.350,161797.187,0.043,0.803,-0.595,0.004,0.024,-0.01,-0.054,0.044,0.029,0.071,-0.932,1.45
2024-09-23 11:24:24.360,161797.197,0.043,0.803,-0.595,-0.016,-0.002,-0.009,0.001,0.112,0.027,0.072,-0.932,1.451
2024-09-23 11:24:24.370,161797.207,0.044,0.803,-0.595,-0.022,-0.068,0.021,0.006,0.073,0.013,0.074,-0.932,1.451
2024-09-23 11:24:24.380,161797.217,0.044,0.803,-0.595,-0.009,-0.034,0.021,0.037,0.049,0.003,0.074,-0.932,1.451
2024-09-23 11:24:24.390,161797.227,0.045,0.802,-0.595,-0.024,-0.004,0.015,0.101,0.036,0.003,0.075,-0.931,1.451
