Date,TimeStamp,GravityX,GravityY,GravityZ,UserAccelerationX,UserAccelerationY,UserAccelerationZ,RotationRateX,RotationRateY,RotationRateZ,AttitudeRoll,AttitudePitch,AttitudeYaw
2024-11-02 22:52:49.714,40326.934,-0.024,-0.376,-0.926,-0.049,-0.018,0.003,-0.091,0.064,-0.055,-0.026,0.386,1.23
2024-11-02 22:52:49.738,40326.944,-0.024,-0.375,-0.927,-0.029,0.017,0.021,-0.118,0.022,-0.055,-0.026,0.385,1.23
2024-11-02 22:52:49.741,40326.954,-0.024,-0.374,-0.927,-0.015,-0.029,0.029,-0.115,-0.015,-0.074,-0.026,0.384,1.229
2024-11-02 22:52:49.743,40326.964,-0.024,-0.374,-0.927,0.006,-0.038,0.034,-0.072,-0.008,-0.097,-0.026,0.383,1.228
2024-11-02 22:52:49.745,40326.974,-0.023,-0.373,-0.927,0.006,-0.02,0.028,-0.03,0.022,-0.098,-0.025,0.383,1.227
2024-11-02 22:52:49.754,40326.984,-0.022,-0.373,-0.927,-0.016,-0.009,0.014,-0.015,0.042,-0.094,-0.024,0.383,1.226
2024-11-02 22:52:49.764,40326.994,-0.022,-0.373,-0.927,-0.027,-0.006,0.009,-0.032,0.032,-0.104,-0.023,0.383,1.225
2024-11-02 22:52:49.775,40327.004,-0.021,-0.373,-0.928,-0.022,-0.017,0.006,-0.065,0.012,-0.12,-0.023,0.382,1.224
2024-11-02 22:52:49.784,40327.014,-0.021,-0.372,-0.928,-0.017,-0.031,0.01,-0.088,0.007,-0.14,-0.022,0.382,1.222
2024-11-02 22:52:49.795,40327.024,-0.02,-0.372,-0.928,-0.017,-0.034,0.016,-0.103,0.007,-0.148,-0.022,0.381,1.221
2024-11-02 22:52:49.805,40327.034,-0.02,-0.371,-0.928,-0.022,-0.032,0.02,-0.104,0.013,-0.158,-0.021,0.38,1.219
2024-11-02 22:52:49.814,40327.044,-0.019,-0.37,-0.929,-0.028,-0.03,0.023,-0.078,0.012,-0.171,-0.02,0.379,1.217
2024-11-02 22:52:49.826,40327.054,-0.018,-0.37,-0.929,-0.03,-0.024,0.026,-0.055,0.013,-0.189,-0.02,0.379,1.215
2024-11-02 22:52:49.834,40327.064,-0.018,-0.37,-0.929,-0.026,-0.015,0.028,-0.038,0.015,-0.201,-0.019,0.379,1.213
2024-11-02 22:52:49.845,40327.074,-0.017,-0.37,-0.929,-0.026,-0.012,0.028,-0.042,0.007,-0.211,-0.018,0.379,1.211
2024-11-02 22:52:49.855,40327.084,-0.017,-0.369,-0.929,-0.027,-0.018,0.028,-0.067,-0.006,-0.225,-0.018,0.378,1.209
2024-11-02 22:52:49.865,40327.094,-0.016,-0.369,-0.929,-0.029,-0.028,0.031,-0.123,-0.015,-0.242,-0.017,0.378,1.207
2024-11-02 22:52:49.876,40327.104,-0.016,-0.368,-0.93,-0.036,-0.045,0.034,-0.207,-0.018,-0.268,-0.017,0.377,1.204
2024-11-02 22:52:49.884,40327.114,-0.015,-0.366,-0.93,-0.053,-0.076,0.037,-0.274,-0.026,-0.304,-0.016,0.375,1.201
2024-11-02 22:52:49.895,40327.124,-0.014,-0.364,-0.931,-0.072,-0.103,0.042,-0.312,-0.025,-0.352,-0.016,0.373,1.198
2024-11-02 22:52:49.904,40327.134,-0.013,-0.361,-0.932,-0.079,-0.108,0.048,-0.318,-0.003,-0.41,-0.014,0.37,1.194
2024-11-02 22:52:49.914,40327.144,-0.012,-0.359,-0.933,-0.087,-0.104,0.061,-0.287,0.016,-0.457,-0.013,0.367,1.189
2024-11-02 22:52:49.926,40327.154,-0.01,-0.356,-0.934,-0.097,-0.102,0.069,-0.23,0.045,-0.507,-0.011,0.364,1.184
2024-11-02 22:52:49.934,40327.164,-0.008,-0.355,-0.935,-0.096,-0.09,0.068,-0.176,0.053,-0.548,-0.008,0.362,1.178
2024-11-02 22:52:49.945,40327.173,-0.005,-0.353,-0.936,-0.078,-0.078,0.065,-0.171,0.033,-0.595,-0.006,0.361,1.172
2024-11-02 22:52:49.954,40327.183,-0.003,-0.351,-0.936,-0.057,-0.087,0.059,-0.186,-0.01,-0.631,-0.003,0.359,1.166
2024-11-02 22:52:49.964,40327.193,-0.001,-0.35,-0.937,-0.034,-0.096,0.063,-0.207,-0.06,-0.667,-0.001,0.357,1.159
2024-11-02 22:52:49.978,40327.203,0.001,-0.347,-0.938,-0.016,-0.1,0.068,-0.256,-0.118,-0.695,0.001,0.355,1.151
2024-11-02 22:52:49.983,40327.213,0.002,-0.345,-0.939,-0.007,-0.102,0.069,-0.332,-0.173,-0.737,0.002,0.352,1.144
2024-11-02 22:52:49.994,40327.223,0.002,-0.341,-0.94,-0.012,-0.119,0.069,-0.412,-0.207,-0.775,0.003,0.348,1.136
2024-11-02 22:52:50.004,40327.233,0.003,-0.337,-0.942,-0.037,-0.14,0.065,-0.491,-0.21,-0.816,0.003,0.344,1.127
2024-11-02 22:52:50.014,40327.243,0.004,-0.332,-0.943,-0.073,-0.151,0.062,-0.566,-0.177,-0.868,0.004,0.338,1.118
2024-11-02 22:52:50.025,40327.253,0.006,-0.326,-0.945,-0.112,-0.165,0.056,-0.65,-0.135,-0.917,0.006,0.332,1.109
2024-11-02 22:52:50.033,40327.263,0.008,-0.32,-0.948,-0.142,-0.178,0.064,-0.723,-0.087,-0.991,0.008,0.325,1.099
2024-11-02 22:52:50.044,40327.273,0.01,-0.312,-0.95,-0.156,-0.198,0.075,-0.803,-0.044,-1.072,0.011,0.318,1.088
2024-11-02 22:52:50.054,40327.283,0.014,-0.304,-0.953,-0.158,-0.211,0.094,-0.932,0.013,-1.168,0.014,0.309,1.077
2024-11-02 22:52:50.063,40327.293,0.018,-0.294,-0.956,-0.151,-0.228,0.11,-1.115,0.073,-1.294,0.018,0.298,1.064
2024-11-02 22:52:50.075,40327.303,0.023,-0.282,-0.959,-0.153,-0.275,0.121,-1.336,0.133,-1.421,0.024,0.286,1.05
2024-11-02 22:52:50.083,40327.313,0.028,-0.268,-0.963,-0.162,-0.32,0.139,-1.533,0.136,-1.545,0.029,0.271,1.035
2024-11-02 22:52:50.094,40327.323,0.033,-0.252,-0.967,-0.161,-0.34,0.174,-1.668,0.123,-1.675,0.034,0.255,1.019
2024-11-02 22:52:50.106,40327.333,0.039,-0.235,-0.971,-0.149,-0.345,0.206,-1.71,0.121,-1.813,0.04,0.237,1.002
2024-11-02 22:52:50.114,40327.343,0.044,-0.218,-0.975,-0.138,-0.342,0.226,-1.667,0.189,-1.952,0.046,0.219,0.983
2024-11-02 22:52:50.124,40327.353,0.051,-0.201,-0.978,-0.132,-0.323,0.237,-1.576,0.222,-2.084,0.052,0.202,0.963
2024-11-02 22:52:50.133,40327.363,0.057,-0.185,-0.981,-0.137,-0.294,0.251,-1.463,0.226,-2.195,0.058,0.186,0.942
2024-11-02 22:52:50.144,40327.373,0.063,-0.17,-0.983,-0.134,-0.262,0.271,-1.356,0.163,-2.325,0.064,0.17,0.92
2024-11-02 22:52:50.154,40327.383,0.068,-0.155,-0.986,-0.112,-0.236,0.276,-1.292,0.088,-2.453,0.069,0.156,0.897
2024-11-02 22:52:50.163,40327.393,0.072,-0.141,-0.987,-0.095,-0.198,0.249,-1.234,0.016,-2.55,0.073,0.141,0.873
2024-11-02 22:52:50.173,40327.403,0.076,-0.127,-0.989,-0.091,-0.161,0.232,-1.21,-0.037,-2.615,0.076,0.127,0.848
2024-11-02 22:52:50.184,40327.413,0.078,-0.113,-0.991,-0.085,-0.154,0.211,-1.202,-0.116,-2.684,0.079,0.113,0.822
2024-11-02 22:52:50.193,40327.423,0.079,-0.099,-0.992,-0.07,-0.145,0.195,-1.17,-0.232,-2.725,0.08,0.099,0.796
2024-11-02 22:52:50.204,40327.433,0.079,-0.085,-0.993,-0.056,-0.13,0.19,-1.19,-0.317,-2.756,0.079,0.085,0.77
2024-11-02 22:52:50.213,40327.443,0.077,-0.071,-0.994,-0.036,-0.095,0.186,-1.265,-0.422,-2.739,0.078,0.071,0.743
2024-11-02 22:52:50.223,40327.453,0.074,-0.056,-0.996,-0.036,-0.055,0.191,-1.333,-0.517,-2.636,0.075,0.056,0.717
2024-11-02 22:52:50.233,40327.463,0.07,-0.04,-0.997,-0.04,-0.015,0.224,-1.43,-0.634,-2.501,0.07,0.041,0.693
2024-11-02 22:52:50.246,40327.473,0.064,-0.024,-0.998,-0.016,0.022,0.252,-1.467,-0.776,-2.362,0.064,0.024,0.669
2024-11-02 22:52:50.256,40327.483,0.056,-0.008,-0.998,0.013,0.087,0.239,-1.518,-0.875,-2.186,0.056,0.008,0.648
2024-11-02 22:52:50.264,40327.493,0.047,0.008,-0.999,0.029,0.184,0.191,-1.616,-0.905,-1.957,0.047,-0.008,0.628
2024-11-02 22:52:50.274,40327.503,0.038,0.026,-0.999,0.005,0.29,0.115,-1.753,-0.832,-1.748,0.038,-0.026,0.61
2024-11-02 22:52:50.284,40327.513,0.03,0.045,-0.999,-0.046,0.355,0.012,-1.96,-0.709,-1.532,0.03,-0.045,0.594
2024-11-02 22:52:50.294,40327.523,0.022,0.066,-0.998,-0.099,0.373,-0.062,-2.166,-0.623,-1.292,0.022,-0.066,0.581
2024-11-02 22:52:50.304,40327.533,0.015,0.089,-0.996,-0.123,0.373,-0.067,-2.363,-0.57,-1.072,0.015,-0.089,0.569
2024-11-02 22:52:50.314,40327.543,0.009,0.113,-0.994,-0.091,0.362,-0.046,-2.434,-0.581,-0.918,0.009,-0.113,0.56
2024-11-02 22:52:50.324,40327.553,0.002,0.137,-0.991,-0.04,0.368,-0.019,-2.34,-0.582,-0.818,0.002,-0.137,0.551
2024-11-02 22:52:50.334,40327.563,-0.005,0.158,-0.987,0.001,0.395,-0.008,-2.078,-0.542,-0.755,-0.005,-0.159,0.543
2024-11-02 22:52:50.344,40327.573,-0.011,0.177,-0.984,0.014,0.427,-0.026,-1.731,-0.431,-0.725,-0.011,-0.178,0.536
2024-11-02 22:52:50.354,40327.583,-0.016,0.192,-0.981,-0.002,0.439,-0.075,-1.381,-0.309,-0.673,-0.016,-0.194,0.528
2024-11-02 22:52:50.364,40327.593,-0.02,0.203,-0.979,-0.037,0.43,-0.111,-0.776,-0.201,-0.681,-0.02,-0.204,0.521
2024-11-02 22:52:50.374,40327.603,-0.023,0.209,-0.978,-0.047,0.422,-0.131,-0.501,-0.13,-0.718,-0.023,-0.21,0.514
2024-11-02 22:52:50.384,40327.613,-0.025,0.213,-0.977,-0.026,0.407,-0.174,-0.385,-0.054,-0.726,-0.026,-0.214,0.506
2024-11-02 22:52:50.394,40327.623,-0.027,0.217,-0.976,-0.02,0.393,-0.15,-0.564,-0.08,-0.667,-0.028,-0.219,0.499
2024-11-02 22:52:50.404,40327.633,-0.03,0.223,-0.974,-0.012,0.262,-0.154,-0.664,-0.164,-0.618,-0.031,-0.225,0.492
2024-11-02 22:52:50.414,40327.643,-0.033,0.229,-0.973,0.034,0.233,-0.126,-0.64,-0.168,-0.559,-0.034,-0.231,0.486
2024-11-02 22:52:50.424,40327.653,-0.035,0.235,-0.971,0.059,0.249,-0.097,-0.551,-0.097,-0.439,-0.036,-0.237,0.481
2024-11-02 22:52:50.434,40327.663,-0.037,0.24,-0.97,0.064,0.279,-0.046,-0.46,-0.045,-0.398,-0.038,-0.242,0.476
2024-11-02 22:52:50.444,40327.673,-0.038,0.243,-0.969,0.047,0.257,-0.066,-0.383,0.005,-0.39,-0.039,-0.246,0.472
2024-11-02 22:52:50.454,40327.683,-0.039,0.247,-0.968,0.027,0.215,-0.104,-0.382,0.048,-0.367,-0.04,-0.25,0.468
2024-11-02 22:52:50.464,40327.693,-0.039,0.251,-0.967,0.008,0.172,-0.131,-0.404,0.078,-0.339,-0.04,-0.253,0.464
2024-11-02 22:52:50.474,40327.703,-0.039,0.254,-0.966,-0.007,0.128,-0.135,-0.397,0.066,-0.3,-0.04,-0.257,0.461
2024-11-02 22:52:50.484,40327.713,-0.039,0.258,-0.965,-0.008,0.106,-0.122,-0.368,0.073,-0.28,-0.041,-0.261,0.458
2024-11-02 22:52:50.493,40327.723,-0.039,0.261,-0.964,0.006,0.101,-0.106,-0.331,0.067,-0.284,-0.041,-0.264,0.455
2024-11-02 22:52:50.505,40327.733,-0.039,0.264,-0.964,0.009,0.079,-0.086,-0.308,0.04,-0.292,-0.041,-0.267,0.451
2024-11-02 22:52:50.514,40327.743,-0.04,0.267,-0.963,0.011,0.044,-0.057,-0.314,0.023,-0.284,-0.041,-0.27,0.448
2024-11-02 22:52:50.524,40327.753,-0.041,0.27,-0.962,0.024,0.013,-0.013,-0.335,-0.013,-0.266,-0.042,-0.274,0.445
2024-11-02 22:52:50.534,40327.763,-0.042,0.273,-0.961,0.029,-0.024,0.023,-0.3,-0.054,-0.267,-0.043,-0.277,0.443
2024-11-02 22:52:50.544,40327.772,-0.043,0.275,-0.96,0.035,-0.054,0.04,-0.215,-0.088,-0.291,-0.045,-0.279,0.44
2024-11-02 22:52:50.553,40327.782,-0.045,0.277,-0.96,0.036,-0.058,0.027,-0.116,-0.05,-0.304,-0.047,-0.281,0.436
2024-11-02 22:52:50.564,40327.792,-0.046,0.277,-0.96,0.021,-0.018,-0.001,0.008,-0.066,-0.299,-0.048,-0.281,0.433
2024-11-02 22:52:50.573,40327.802,-0.047,0.277,-0.96,-0.006,0.02,-0.045,0.079,-0.049,-0.27,-0.049,-0.28,0.43
2024-11-02 22:52:50.583,40327.812,-0.049,0.276,-0.96,-0.023,0.042,-0.065,0.083,-0.029,-0.255,-0.051,-0.279,0.428
2024-11-02 22:52:50.593,40327.822,-0.05,0.275,-0.96,-0.021,0.045,-0.066,0.038,-0.056,-0.217,-0.052,-0.279,0.425
2024-11-02 22:52:50.604,40327.832,-0.051,0.275,-0.96,-0.028,0.014,-0.047,-0.025,-0.066,-0.157,-0.053,-0.278,0.423
2024-11-02 22:52:50.613,40327.842,-0.052,0.275,-0.96,-0.01,0.013,-0.029,-0.057,-0.05,-0.136,-0.054,-0.279,0.422
2024-11-02 22:52:50.623,40327.852,-0.052,0.276,-0.96,-0.006,0.029,-0.012,-0.067,-0.015,-0.107,-0.055,-0.279,0.42
2024-11-02 22:52:50.634,40327.862,-0.053,0.276,-0.96,-0.027,0.028,0.008,-0.071,0.007,-0.066,-0.055,-0.28,0.419
2024-11-02 22:52:50.643,40327.872,-0.053,0.277,-0.959,-0.028,0.031,0.029,-0.047,0.009,-0.043,-0.055,-0.281,0.419
2024-11-02 22:52:50.653,40327.882,-0.053,0.277,-0.959,-0.013,0.039,0.04,-0.079,-0.05,-0.063,-0.055,-0.281,0.418
2024-11-02 22:52:50.663,40327.892,-0.054,0.279,-0.959,-0.001,0.033,0.018,-0.234,-0.077,-0.023,-0.056,-0.283,0.418
2024-11-02 22:52:50.673,40327.902,-0.054,0.282,-0.958,0.0,0.045,-0.039,-0.305,0.019,0.048,-0.056,-0.286,0.418
2024-11-02 22:52:50.683,40327.912,-0.054,0.285,-0.957,-0.012,0.063,-0.073,-0.331,0.073,0.053,-0.056,-0.289,0.418
2024-11-02 22:52:50.694,40327.922,-0.053,0.288,-0.956,-0.034,0.048,-0.076,-0.347,0.08,0.021,-0.055,-0.292,0.418
2024-11-02 22:52:50.703,40327.932,-0.052,0.291,-0.955,-0.034,0.035,-0.055,-0.377,0.067,0.016,-0.054,-0.296,0.418
2024-11-02 22:52:50.713,40327.942,-0.052,0.295,-0.954,-0.006,0.014,-0.019,-0.348,0.003,0.006,-0.054,-0.3,0.418
2024-11-02 22:52:50.723,40327.952,-0.052,0.298,-0.953,0.006,-0.017,0.013,-0.221,-0.029,-0.025,-0.055,-0.302,0.418
2024-11-02 22:52:50.733,40327.962,-0.052,0.299,-0.953,0.009,-0.024,0.031,-0.053,-0.002,-0.029,-0.055,-0.304,0.417
2024-11-02 22:52:50.743,40327.972,-0.052,0.299,-0.953,-0.002,-0.01,0.047,0.11,0.073,-0.022,-0.055,-0.304,0.417
2024-11-02 22:52:50.753,40327.982,-0.051,0.298,-0.953,-0.033,-0.013,0.059,0.214,0.115,-0.023,-0.054,-0.302,0.417
2024-11-02 22:52:50.763,40327.992,-0.05,0.295,-0.954,-0.044,-0.013,0.068,0.261,0.079,-0.042,-0.053,-0.3,0.417
2024-11-02 22:52:50.773,40328.002,-0.05,0.293,-0.955,-0.029,-0.003,0.074,0.269,0.024,-0.064,-0.052,-0.297,0.416
2024-11-02 22:52:50.783,40328.012,-0.05,0.29,-0.956,0.001,0.012,0.075,0.258,-0.029,-0.068,-0.053,-0.294,0.416
2024-11-02 22:52:50.793,40328.022,-0.051,0.288,-0.956,0.018,0.015,0.069,0.259,-0.033,-0.065,-0.053,-0.292,0.415
2024-11-02 22:52:50.803,40328.032,-0.051,0.285,-0.957,0.006,0.019,0.048,0.273,0.026,-0.053,-0.053,-0.289,0.415
2024-11-02 22:52:50.813,40328.042,-0.051,0.283,-0.958,-0.008,0.033,-0.0,0.229,0.119,-0.031,-0.053,-0.287,0.414
2024-11-02 22:52:50.823,40328.052,-0.049,0.281,-0.958,-0.027,0.027,-0.041,0.12,0.179,0.017,-0.051,-0.285,0.414
2024-11-02 22:52:50.833,40328.062,-0.047,0.28,-0.959,-0.045,-0.01,-0.056,0.017,0.187,0.06,-0.049,-0.284,0.415
2024-11-02 22:52:50.843,40328.072,-0.045,0.281,-0.959,-0.028,-0.035,-0.049,-0.046,0.209,0.079,-0.047,-0.285,0.416
2024-11-02 22:52:50.853,40328.082,-0.043,0.281,-0.959,-0.002,0.005,-0.048,-0.048,0.27,0.047,-0.045,-0.285,0.416
2024-11-02 22:52:50.863,40328.092,-0.04,0.282,-0.959,-0.009,0.033,-0.043,-0.064,0.298,0.038,-0.042,-0.286,0.417
2024-11-02 22:52:50.873,40328.102,-0.037,0.283,-0.958,-0.034,0.025,-0.021,-0.077,0.314,0.057,-0.039,-0.287,0.417
2024-11-02 22:52:50.884,40328.112,-0.034,0.284,-0.958,-0.026,0.041,0.002,-0.088,0.323,0.051,-0.035,-0.288,0.418
2024-11-02 22:52:50.893,40328.122,-0.031,0.285,-0.958,-0.005,0.04,0.005,-0.111,0.339,0.035,-0.032,-0.289,0.418
2024-11-02 22:52:50.902,40328.132,-0.028,0.286,-0.958,-0.008,0.005,0.001,-0.123,0.309,0.044,-0.029,-0.29,0.418
2024-11-02 22:52:50.913,40328.142,-0.025,0.287,-0.958,-0.013,-0.037,0.004,-0.07,0.263,0.059,-0.026,-0.291,0.419
2024-11-02 22:52:50.923,40328.152,-0.022,0.287,-0.958,-0.004,-0.039,0.004,0.012,0.275,0.072,-0.023,-0.291,0.419
2024-11-02 22:52:50.933,40328.162,-0.019,0.287,-0.958,0.005,-0.004,-0.011,0.1,0.305,0.082,-0.02,-0.291,0.42
2024-11-02 22:52:50.943,40328.172,-0.016,0.286,-0.958,-0.015,0.02,-0.012,0.135,0.326,0.104,-0.016,-0.29,0.421
2024-11-02 22:52:50.953,40328.182,-0.012,0.284,-0.959,-0.031,0.013,-0.006,0.124,0.335,0.138,-0.013,-0.288,0.422
2024-11-02 22:52:50.963,40328.192,-0.008,0.283,-0.959,-0.024,0.007,-0.02,0.095,0.363,0.192,-0.009,-0.287,0.424
2024-11-02 22:52:50.972,40328.202,-0.004,0.282,-0.959,-0.026,0.02,-0.038,0.109,0.391,0.232,-0.004,-0.286,0.426
2024-11-02 22:52:50.982,40328.212,0.0,0.281,-0.96,-0.032,0.044,-0.043,0.149,0.404,0.264,0.0,-0.285,0.429
2024-11-02 22:52:50.993,40328.222,0.005,0.28,-0.96,-0.034,0.07,-0.04,0.205,0.398,0.312,0.005,-0.283,0.432
2024-11-02 22:52:51.003,40328.232,0.01,0.277,-0.961,-0.024,0.076,-0.014,0.292,0.385,0.364,0.01,-0.281,0.435
2024-11-02 22:52:51.013,40328.242,0.014,0.274,-0.962,-0.002,0.065,0.013,0.419,0.381,0.426,0.015,-0.277,0.439
2024-11-02 22:52:51.023,40328.252,0.019,0.269,-0.963,0.013,0.071,0.015,0.543,0.39,0.483,0.02,-0.272,0.444
2024-11-02 22:52:51.033,40328.262,0.024,0.263,-0.964,0.005,0.082,-0.019,0.644,0.382,0.543,0.025,-0.266,0.449
2024-11-02 22:52:51.042,40328.272,0.03,0.256,-0.966,-0.007,0.1,-0.059,0.721,0.378,0.614,0.031,-0.259,0.455
2024-11-02 22:52:51.052,40328.282,0.035,0.249,-0.968,-0.012,0.132,-0.082,0.727,0.404,0.699,0.036,-0.252,0.462
2024-11-02 22:52:51.063,40328.292,0.041,0.242,-0.969,-0.013,0.155,-0.078,0.688,0.433,0.789,0.042,-0.244,0.469
2024-11-02 22:52:51.072,40328.302,0.047,0.235,-0.971,-0.016,0.14,-0.039,0.663,0.509,0.897,0.049,-0.237,0.477
2024-11-02 22:52:51.083,40328.312,0.055,0.228,-0.972,-0.007,0.103,0.013,0.729,0.518,0.957,0.056,-0.23,0.486
2024-11-02 22:52:51.093,40328.322,0.062,0.22,-0.974,-0.001,0.06,0.07,0.883,0.535,0.992,0.063,-0.221,0.496
2024-11-02 22:52:51.102,40328.332,0.069,0.21,-0.975,0.014,0.113,0.043,1.058,0.573,1.024,0.071,-0.211,0.506
2024-11-02 22:52:51.112,40328.342,0.077,0.198,-0.977,-0.006,0.193,-0.011,1.2,0.605,1.08,0.079,-0.199,0.515
2024-11-02 22:52:51.122,40328.352,0.085,0.185,-0.979,-0.044,0.222,-0.055,1.278,0.564,1.098,0.087,-0.186,0.525
2024-11-02 22:52:51.132,40328.362,0.092,0.171,-0.981,-0.04,0.217,-0.081,1.281,0.494,1.103,0.094,-0.172,0.535
2024-11-02 22:52:51.143,40328.371,0.098,0.158,-0.983,-0.009,0.183,-0.071,1.176,0.381,1.082,0.1,-0.159,0.545
2024-11-02 22:52:51.153,40328.381,0.103,0.146,-0.984,0.018,0.127,-0.048,1.013,0.275,1.072,0.105,-0.147,0.555
2024-11-02 22:52:51.162,40328.391,0.107,0.136,-0.985,0.034,0.088,-0.026,0.842,0.232,1.039,0.108,-0.136,0.564
2024-11-02 22:52:51.172,40328.401,0.11,0.128,-0.986,0.031,0.064,-0.012,0.65,0.161,1.011,0.112,-0.128,0.574
2024-11-02 22:52:51.182,40328.411,0.113,0.121,-0.986,0.014,0.032,0.01,0.457,0.071,0.983,0.114,-0.121,0.583
2024-11-02 22:52:51.192,40328.421,0.114,0.116,-0.987,0.025,0.015,0.044,0.306,-0.035,0.927,0.115,-0.116,0.592
2024-11-02 22:52:51.203,40328.431,0.114,0.113,-0.987,0.042,0.007,0.063,0.211,-0.15,0.884,0.115,-0.113,0.601
2024-11-02 22:52:51.212,40328.441,0.113,0.11,-0.987,0.042,0.006,0.061,0.143,-0.241,0.835,0.114,-0.11,0.609
2024-11-02 22:52:51.223,40328.451,0.112,0.108,-0.988,0.039,0.003,0.039,0.029,-0.279,0.785,0.112,-0.108,0.617
2024-11-02 22:52:51.232,40328.461,0.11,0.108,-0.988,0.024,-0.019,0.01,-0.121,-0.299,0.751,0.11,-0.108,0.625
2024-11-02 22:52:51.243,40328.471,0.108,0.109,-0.988,0.004,-0.061,0.001,-0.317,-0.254,0.696,0.108,-0.109,0.633
2024-11-02 22:52:51.252,40328.481,0.106,0.113,-0.988,-0.006,-0.112,0.015,-0.572,-0.193,0.687,0.107,-0.113,0.64
2024-11-02 22:52:51.262,40328.491,0.105,0.119,-0.987,-0.011,-0.136,0.05,-0.818,-0.205,0.722,0.106,-0.119,0.648
2024-11-02 22:52:51.273,40328.501,0.104,0.127,-0.986,0.003,-0.128,0.088,-0.972,-0.227,0.691,0.105,-0.127,0.656
2024-11-02 22:52:51.282,40328.511,0.102,0.136,-0.985,0.03,-0.117,0.089,-0.986,-0.257,0.645,0.103,-0.136,0.663
2024-11-02 22:52:51.292,40328.521,0.1,0.145,-0.984,0.035,-0.099,0.072,-0.896,-0.299,0.623,0.102,-0.145,0.671
2024-11-02 22:52:51.302,40328.531,0.098,0.152,-0.983,0.029,-0.06,0.051,-0.75,-0.343,0.574,0.1,-0.153,0.678
2024-11-02 22:52:51.312,40328.541,0.096,0.158,-0.983,0.034,-0.023,0.009,-0.556,-0.368,0.486,0.097,-0.159,0.684
2024-11-02 22:52:51.322,40328.551,0.093,0.162,-0.982,0.016,-0.017,-0.052,-0.345,-0.39,0.403,0.094,-0.163,0.689
2024-11-02 22:52:51.332,40328.561,0.089,0.164,-0.982,-0.011,-0.019,-0.106,-0.181,-0.385,0.31,0.091,-0.165,0.692
2024-11-02 22:52:51.342,40328.571,0.086,0.166,-0.982,-0.026,-0.004,-0.145,-0.189,-0.316,0.232,0.088,-0.167,0.695
2024-11-02 22:52:51.352,40328.581,0.084,0.169,-0.982,-0.037,-0.004,-0.147,-0.437,-0.209,0.247,0.085,-0.169,0.698
2024-11-02 22:52:51.362,40328.591,0.083,0.174,-0.981,-0.061,-0.06,-0.103,-0.792,-0.212,0.384,0.084,-0.175,0.701
2024-11-02 22:52:51.372,40328.601,0.081,0.183,-0.98,-0.062,-0.118,-0.014,-0.999,-0.396,0.522,0.082,-0.184,0.707
2024-11-02 22:52:51.382,40328.611,0.077,0.193,-0.978,0.004,-0.147,0.11,-1.069,-0.612,0.526,0.078,-0.194,0.713
2024-11-02 22:52:51.392,40328.621,0.071,0.203,-0.977,0.109,-0.125,0.195,-1.068,-0.74,0.554,0.073,-0.204,0.719
2024-11-02 22:52:51.402,40328.631,0.065,0.213,-0.975,0.159,-0.039,0.267,-1.088,-0.8,0.719,0.066,-0.214,0.727
2024-11-02 22:52:51.412,40328.641,0.058,0.223,-0.973,0.15,0.047,0.324,-1.05,-0.892,0.932,0.06,-0.225,0.736
2024-11-02 22:52:51.422,40328.651,0.051,0.231,-0.972,0.127,0.138,0.349,-0.828,-1.077,1.064,0.053,-0.233,0.746
2024-11-02 22:52:51.432,40328.661,0.042,0.237,-0.971,0.124,0.257,0.352,-0.385,-1.287,1.135,0.044,-0.239,0.758
2024-11-02 22:52:51.442,40328.671,0.032,0.238,-0.971,0.145,0.401,0.327,0.135,-1.323,1.181,0.033,-0.24,0.77
2024-11-02 22:52:51.452,40328.681,0.023,0.234,-0.972,0.139,0.465,0.223,0.445,-1.251,1.265,0.023,-0.236,0.782
2024-11-02 22:52:51.462,40328.691,0.014,0.229,-0.973,0.065,0.406,0.083,0.554,-1.195,1.388,0.014,-0.231,0.796
2024-11-02 22:52:51.473,40328.701,0.006,0.224,-0.975,-0.015,0.308,-0.027,0.491,-1.155,1.524,0.006,-0.226,0.811
2024-11-02 22:52:51.482,40328.711,-0.002,0.219,-0.976,-0.035,0.226,-0.083,0.377,-1.114,1.591,-0.002,-0.221,0.827
2024-11-02 22:52:51.492,40328.721,-0.009,0.217,-0.976,-0.013,0.188,-0.075,0.2,-1.092,1.623,-0.009,-0.218,0.843
2024-11-02 22:52:51.502,40328.731,-0.016,0.216,-0.976,0.017,0.151,-0.014,-0.051,-1.106,1.669,-0.017,-0.218,0.86
2024-11-02 22:52:51.512,40328.741,-0.024,0.218,-0.976,0.049,0.106,0.068,-0.298,-1.195,1.71,-0.024,-0.22,0.877
2024-11-02 22:52:51.523,40328.751,-0.032,0.222,-0.974,0.078,0.049,0.155,-0.432,-1.302,1.7,-0.033,-0.224,0.895
2024-11-02 22:52:51.531,40328.761,-0.041,0.227,-0.973,0.107,0.006,0.22,-0.409,-1.377,1.629,-0.042,-0.229,0.912
2024-11-02 22:52:51.541,40328.771,-0.051,0.231,-0.972,0.13,-0.009,0.23,-0.195,-1.377,1.499,-0.053,-0.233,0.928
2024-11-02 22:52:51.551,40328.781,-0.061,0.232,-0.971,0.131,0.013,0.197,0.124,-1.341,1.346,-0.063,-0.234,0.942
2024-11-02 22:52:51.562,40328.791,-0.071,0.23,-0.971,0.11,0.053,0.141,0.416,-1.258,1.229,-0.073,-0.232,0.955
2024-11-02 22:52:51.572,40328.801,-0.08,0.226,-0.971,0.069,0.063,0.063,0.622,-1.153,1.159,-0.082,-0.228,0.968
2024-11-02 22:52:51.582,40328.811,-0.088,0.22,-0.971,0.015,0.033,-0.003,0.768,-1.099,1.132,-0.09,-0.222,0.98
2024-11-02 22:52:51.592,40328.821,-0.096,0.214,-0.972,-0.032,-0.021,-0.041,0.806,-1.011,1.161,-0.098,-0.215,0.993
2024-11-02 22:52:51.602,40328.831,-0.103,0.207,-0.973,-0.037,-0.069,-0.037,0.716,-0.957,1.225,-0.105,-0.209,1.006
2024-11-02 22:52:51.612,40328.841,-0.109,0.203,-0.973,-0.026,-0.122,0.008,0.499,-0.949,1.268,-0.112,-0.204,1.019
2024-11-02 22:52:51.622,40328.851,-0.116,0.201,-0.973,-0.028,-0.19,0.074,0.18,-0.924,1.287,-0.119,-0.202,1.032
2024-11-02 22:52:51.632,40328.861,-0.122,0.202,-0.972,-0.019,-0.224,0.116,-0.046,-0.969,1.243,-0.125,-0.203,1.045
2024-11-02 22:52:51.642,40328.871,-0.13,0.204,-0.97,-0.023,-0.224,0.109,-0.058,-1.037,1.121,-0.133,-0.205,1.057
2024-11-02 22:52:51.652,40328.881,-0.138,0.205,-0.969,-0.045,-0.201,0.057,0.243,-1.029,0.978,-0.141,-0.206,1.068
2024-11-02 22:52:51.661,40328.891,-0.145,0.202,-0.969,-0.069,-0.117,-0.009,0.542,-0.791,0.768,-0.148,-0.203,1.077
2024-11-02 22:52:51.671,40328.901,-0.149,0.196,-0.969,-0.117,-0.026,-0.066,0.801,-0.422,0.579,-0.153,-0.198,1.085
2024-11-02 22:52:51.681,40328.911,-0.15,0.191,-0.97,-0.193,0.021,-0.101,0.554,-0.071,0.589,-0.154,-0.192,1.092
2024-11-02 22:52:51.692,40328.921,-0.15,0.189,-0.971,-0.222,-0.173,-0.126,0.069,-0.039,0.569,-0.153,-0.19,1.098
2024-11-02 22:52:51.702,40328.931,-0.149,0.19,-0.97,-0.198,-0.35,-0.109,-0.11,-0.007,0.447,-0.152,-0.191,1.103
2024-11-02 22:52:51.711,40328.941,-0.147,0.191,-0.97,-0.146,-0.384,-0.161,-0.067,0.245,0.362,-0.151,-0.193,1.107
2024-11-02 22:52:51.722,40328.951,-0.142,0.192,-0.971,-0.126,-0.354,-0.258,-0.06,0.757,0.356,-0.145,-0.194,1.111
2024-11-02 22:52:51.731,40328.961,-0.133,0.195,-0.972,-0.221,-0.282,-0.312,-0.307,0.932,0.379,-0.136,-0.196,1.114
2024-11-02 22:52:51.742,40328.97,-0.122,0.2,-0.972,-0.327,-0.27,-0.351,-0.683,1.094,0.407,-0.125,-0.202,1.117
2024-11-02 22:52:51.751,40328.98,-0.114,0.208,-0.972,-0.307,-0.219,-0.415,-0.691,0.329,0.456,-0.117,-0.209,1.121
2024-11-02 22:52:51.761,40328.99,-0.11,0.214,-0.971,-0.25,-0.258,-0.533,-0.529,0.473,0.15,-0.113,-0.216,1.123
2024-11-02 22:52:51.771,40329.0,-0.104,0.218,-0.97,-0.211,-0.06,-0.249,-0.268,0.802,-0.026,-0.107,-0.219,1.123
2024-11-02 22:52:51.781,40329.01,-0.097,0.223,-0.97,-0.168,0.094,-0.068,-0.775,0.631,0.039,-0.099,-0.224,1.123
2024-11-02 22:52:51.791,40329.02,-0.091,0.232,-0.968,-0.158,-0.196,0.006,-1.216,0.468,0.048,-0.094,-0.234,1.122
2024-11-02 22:52:51.801,40329.03,-0.087,0.246,-0.965,-0.122,-0.283,0.125,-1.546,0.432,0.019,-0.09,-0.248,1.121
2024-11-02 22:52:51.811,40329.04,-0.082,0.262,-0.962,-0.115,-0.279,0.163,-1.802,0.52,0.103,-0.085,-0.265,1.12
2024-11-02 22:52:51.821,40329.05,-0.077,0.28,-0.957,-0.114,-0.207,0.181,-2.026,0.6,0.194,-0.08,-0.284,1.12
2024-11-02 22:52:51.831,40329.06,-0.07,0.301,-0.951,-0.144,-0.208,0.173,-2.189,0.613,0.224,-0.074,-0.305,1.121
2024-11-02 22:52:51.841,40329.07,-0.064,0.322,-0.945,-0.178,-0.231,0.113,-2.243,0.595,0.224,-0.067,-0.328,1.122
2024-11-02 22:52:51.851,40329.08,-0.057,0.343,-0.938,-0.178,-0.172,0.025,-2.173,0.626,0.169,-0.061,-0.35,1.122
2024-11-02 22:52:51.861,40329.09,-0.051,0.362,-0.931,-0.192,-0.085,-0.052,-2.012,0.665,0.108,-0.054,-0.371,1.122
2024-11-02 22:52:51.871,40329.1,-0.044,0.38,-0.924,-0.225,-0.044,-0.089,-1.812,0.646,0.08,-0.048,-0.39,1.122
2024-11-02 22:52:51.881,40329.11,-0.038,0.396,-0.917,-0.223,-0.045,-0.09,-1.618,0.628,0.061,-0.042,-0.407,1.122
2024-11-02 22:52:51.891,40329.12,-0.033,0.41,-0.912,-0.187,-0.035,-0.054,-1.342,0.557,-0.005,-0.036,-0.422,1.122
2024-11-02 22:52:51.901,40329.13,-0.028,0.42,-0.907,-0.166,-0.004,-0.014,-1.059,0.61,-0.077,-0.03,-0.434,1.121
2024-11-02 22:52:51.912,40329.14,-0.022,0.429,-0.903,-0.162,0.028,0.024,-0.877,0.67,-0.103,-0.025,-0.443,1.12
2024-11-02 22:52:51.921,40329.15,-0.017,0.437,-0.899,-0.154,0.034,0.054,-0.868,0.682,-0.114,-0.018,-0.452,1.118
2024-11-02 22:52:51.931,40329.16,-0.011,0.445,-0.896,-0.143,-0.008,0.073,-0.938,0.618,-0.127,-0.012,-0.461,1.117
2024-11-02 22:52:51.941,40329.17,-0.007,0.454,-0.891,-0.122,-0.074,0.102,-1.015,0.532,-0.139,-0.007,-0.471,1.115
2024-11-02 22:52:51.951,40329.18,-0.003,0.462,-0.887,-0.112,-0.116,0.114,-0.933,0.538,-0.16,-0.003,-0.481,1.114
2024-11-02 22:52:51.961,40329.19,0.002,0.47,-0.883,-0.119,-0.088,0.114,-0.733,0.614,-0.187,0.002,-0.489,1.112
2024-11-02 22:52:51.971,40329.2,0.007,0.475,-0.88,-0.119,-0.046,0.097,-0.566,0.712,-0.227,0.007,-0.495,1.109
2024-11-02 22:52:51.981,40329.21,0.012,0.48,-0.877,-0.094,-0.008,0.041,-0.504,0.729,-0.285,0.013,-0.501,1.106
2024-11-02 22:52:51.991,40329.22,0.016,0.484,-0.875,-0.068,-0.001,-0.014,-0.524,0.693,-0.34,0.019,-0.506,1.103
2024-11-02 22:52:52.001,40329.23,0.021,0.489,-0.872,-0.05,-0.027,-0.039,-0.578,0.719,-0.394,0.024,-0.511,1.099
2024-11-02 22:52:52.011,40329.24,0.025,0.495,-0.869,-0.045,-0.041,-0.041,-0.691,0.797,-0.381,0.029,-0.518,1.095
2024-11-02 22:52:52.021,40329.25,0.03,0.501,-0.865,-0.062,-0.047,-0.043,-0.736,0.769,-0.361,0.035,-0.525,1.091
2024-11-02 22:52:52.031,40329.26,0.035,0.508,-0.861,-0.082,-0.065,-0.046,-0.705,0.84,-0.374,0.041,-0.532,1.087
2024-11-02 22:52:52.041,40329.27,0.041,0.513,-0.857,-0.079,-0.067,-0.008,-0.538,0.888,-0.402,0.048,-0.539,1.082
2024-11-02 22:52:52.051,40329.28,0.046,0.517,-0.854,-0.045,-0.02,0.019,-0.45,0.936,-0.444,0.054,-0.544,1.078
2024-11-02 22:52:52.060,40329.29,0.052,0.522,-0.852,-0.005,0.002,0.045,-0.516,0.904,-0.449,0.061,-0.549,1.073
2024-11-02 22:52:52.070,40329.3,0.057,0.527,-0.848,0.014,-0.029,0.076,-0.683,0.795,-0.392,0.067,-0.555,1.068
2024-11-02 22:52:52.081,40329.31,0.061,0.534,-0.844,0.039,-0.068,0.098,-0.79,0.642,-0.329,0.072,-0.563,1.065
2024-11-02 22:52:52.091,40329.32,0.064,0.54,-0.839,0.086,-0.045,0.106,-0.732,0.523,-0.316,0.076,-0.571,1.062
2024-11-02 22:52:52.101,40329.33,0.067,0.546,-0.835,0.115,0.037,0.102,-0.62,0.465,-0.366,0.08,-0.578,1.058
2024-11-02 22:52:52.111,40329.34,0.068,0.551,-0.832,0.097,0.109,0.106,-0.473,0.409,-0.392,0.082,-0.583,1.054
2024-11-02 22:52:52.121,40329.35,0.069,0.554,-0.829,0.082,0.15,0.122,-0.321,0.293,-0.408,0.083,-0.588,1.05
2024-11-02 22:52:52.131,40329.36,0.069,0.557,-0.828,0.089,0.138,0.139,-0.161,0.19,-0.426,0.083,-0.59,1.045
2024-11-02 22:52:52.141,40329.37,0.067,0.557,-0.827,0.099,0.126,0.157,0.07,0.085,-0.422,0.081,-0.591,1.04
2024-11-02 22:52:52.151,40329.38,0.065,0.556,-0.829,0.107,0.139,0.192,0.334,-0.061,-0.363,0.079,-0.59,1.035
2024-11-02 22:52:52.161,40329.39,0.062,0.553,-0.831,0.125,0.12,0.241,0.519,-0.198,-0.274,0.075,-0.586,1.031
2024-11-02 22:52:52.171,40329.4,0.059,0.548,-0.834,0.152,0.086,0.275,0.569,-0.313,-0.218,0.071,-0.58,1.028
2024-11-02 22:52:52.180,40329.41,0.055,0.544,-0.838,0.168,0.096,0.28,0.542,-0.455,-0.225,0.065,-0.575,1.025
2024-11-02 22:52:52.191,40329.42,0.049,0.54,-0.84,0.154,0.109,0.257,0.401,-0.588,-0.235,0.058,-0.57,1.021
2024-11-02 22:52:52.201,40329.43,0.042,0.537,-0.843,0.142,0.091,0.218,0.317,-0.711,-0.253,0.05,-0.567,1.018
2024-11-02 22:52:52.211,40329.44,0.034,0.534,-0.845,0.134,0.073,0.182,0.321,-0.793,-0.281,0.041,-0.564,1.015
2024-11-02 22:52:52.221,40329.45,0.026,0.531,-0.847,0.122,0.058,0.132,0.41,-0.83,-0.281,0.031,-0.56,1.012
2024-11-02 22:52:52.231,40329.46,0.017,0.527,-0.85,0.102,0.078,0.092,0.595,-0.853,-0.265,0.021,-0.555,1.008
2024-11-02 22:52:52.241,40329.47,0.009,0.521,-0.853,0.08,0.086,0.067,0.82,-0.81,-0.221,0.011,-0.548,1.005
2024-11-02 22:52:52.250,40329.48,0.001,0.513,-0.858,0.067,0.084,0.06,1.005,-0.77,-0.194,0.002,-0.539,1.003
2024-11-02 22:52:52.260,40329.49,-0.006,0.504,-0.864,0.064,0.099,0.063,1.191,-0.747,-0.207,-0.007,-0.528,1.0
2024-11-02 22:52:52.270,40329.5,-0.014,0.493,-0.87,0.066,0.1,0.056,1.344,-0.664,-0.246,-0.016,-0.516,0.998
2024-11-02 22:52:52.280,40329.51,-0.019,0.483,-0.875,0.069,0.08,0.028,0.95,-0.403,-0.179,-0.022,-0.504,0.996
2024-11-02 22:52:52.291,40329.52,-0.023,0.476,-0.879,0.043,0.023,0.018,0.684,-0.37,-0.165,-0.026,-0.496,0.994
2024-11-02 22:52:52.300,40329.53,-0.027,0.471,-0.882,-0.012,-0.071,-0.059,0.405,-0.429,-0.05,-0.031,-0.491,0.993
2024-11-02 22:52:52.310,40329.54,-0.031,0.468,-0.883,0.004,-0.168,-0.145,0.246,-0.398,0.081,-0.035,-0.487,0.993
2024-11-02 22:52:52.320,40329.55,-0.033,0.466,-0.884,0.035,-0.036,-0.142,0.187,-0.324,0.142,-0.038,-0.485,0.995
2024-11-02 22:52:52.331,40329.56,-0.036,0.464,-0.885,-0.006,0.08,-0.141,0.413,-0.418,0.141,-0.041,-0.483,0.996
2024-11-02 22:52:52.341,40329.569,-0.04,0.459,-0.887,-0.021,0.095,-0.131,0.671,-0.49,0.125,-0.044,-0.477,0.998
2024-11-02 22:52:52.351,40329.579,-0.043,0.453,-0.891,0.04,0.11,-0.076,0.767,-0.475,0.069,-0.049,-0.47,1.0
2024-11-02 22:52:52.360,40329.589,-0.047,0.446,-0.894,0.084,0.136,0.003,0.616,-0.441,0.049,-0.053,-0.463,1.001
2024-11-02 22:52:52.370,40329.599,-0.051,0.442,-0.895,0.066,0.046,0.052,0.299,-0.42,0.138,-0.056,-0.458,1.002
2024-11-02 22:52:52.380,40329.609,-0.054,0.441,-0.896,0.06,-0.092,0.091,0.064,-0.438,0.195,-0.06,-0.457,1.004
2024-11-02 22:52:52.391,40329.619,-0.056,0.441,-0.896,0.062,-0.155,0.086,-0.081,-0.341,0.181,-0.063,-0.457,1.006
2024-11-02 22:52:52.401,40329.629,-0.058,0.442,-0.895,0.054,-0.061,0.046,-0.035,-0.238,0.132,-0.065,-0.458,1.008
2024-11-02 22:52:52.410,40329.639,-0.06,0.443,-0.895,0.027,0.043,-0.01,-0.142,-0.187,0.179,-0.066,-0.458,1.009
2024-11-02 22:52:52.421,40329.649,-0.06,0.445,-0.894,-0.004,-0.001,-0.073,-0.341,-0.158,0.298,-0.067,-0.461,1.012
2024-11-02 22:52:52.430,40329.659,-0.06,0.449,-0.892,-0.015,-0.06,-0.075,-0.462,-0.11,0.387,-0.067,-0.465,1.015
2024-11-02 22:52:52.440,40329.669,-0.058,0.454,-0.889,-0.022,-0.12,-0.088,-0.586,-0.028,0.474,-0.066,-0.471,1.02
2024-11-02 22:52:52.450,40329.679,-0.056,0.46,-0.886,-0.012,-0.091,-0.118,-0.791,0.06,0.564,-0.063,-0.478,1.025
2024-11-02 22:52:52.461,40329.689,-0.052,0.469,-0.882,-0.012,-0.018,-0.13,-1.114,0.087,0.615,-0.059,-0.488,1.031
2024-11-02 22:52:52.470,40329.699,-0.049,0.48,-0.876,-0.026,-0.041,-0.116,-1.38,0.015,0.626,-0.056,-0.501,1.037
2024-11-02 22:52:52.480,40329.709,-0.046,0.493,-0.869,-0.022,-0.097,-0.079,-1.466,0.015,0.65,-0.053,-0.515,1.044
2024-11-02 22:52:52.490,40329.719,-0.042,0.506,-0.862,0.0,-0.077,-0.011,-1.459,0.078,0.652,-0.049,-0.53,1.05
2024-11-02 22:52:52.500,40329.729,-0.038,0.518,-0.854,0.027,0.019,0.028,-1.346,0.033,0.593,-0.045,-0.545,1.057
2024-11-02 22:52:52.510,40329.739,-0.036,0.529,-0.848,0.043,0.07,0.052,-1.109,-0.125,0.499,-0.042,-0.557,1.063
2024-11-02 22:52:52.520,40329.749,-0.035,0.537,-0.843,0.065,0.065,0.05,-0.815,-0.213,0.423,-0.041,-0.567,1.067
2024-11-02 22:52:52.530,40329.759,-0.035,0.542,-0.839,0.09,0.104,0.034,-0.392,-0.277,0.373,-0.042,-0.573,1.072
2024-11-02 22:52:52.540,40329.769,-0.036,0.544,-0.838,0.086,0.14,-0.01,0.044,-0.378,0.334,-0.043,-0.575,1.076
2024-11-02 22:52:52.550,40329.779,-0.037,0.542,-0.839,0.064,0.114,-0.07,0.325,-0.374,0.311,-0.044,-0.573,1.08
2024-11-02 22:52:52.560,40329.789,-0.038,0.539,-0.841,0.04,0.102,-0.042,0.491,-0.351,0.355,-0.046,-0.569,1.084
2024-11-02 22:52:52.570,40329.799,-0.039,0.535,-0.844,0.017,0.063,0.017,0.458,-0.373,0.406,-0.047,-0.565,1.089
2024-11-02 22:52:52.580,40329.809,-0.04,0.532,-0.846,0.032,-0.004,0.069,0.227,-0.363,0.416,-0.048,-0.561,1.094
2024-11-02 22:52:52.590,40329.819,-0.041,0.532,-0.846,0.06,-0.026,0.106,-0.089,-0.407,0.404,-0.049,-0.561,1.099
2024-11-02 22:52:52.600,40329.829,-0.043,0.534,-0.845,0.054,-0.068,0.106,-0.261,-0.529,0.352,-0.051,-0.563,1.103
2024-11-02 22:52:52.610,40329.839,-0.046,0.536,-0.843,0.061,-0.086,0.086,-0.227,-0.61,0.303,-0.055,-0.566,1.107
2024-11-02 22:52:52.620,40329.849,-0.05,0.537,-0.842,0.077,-0.033,0.039,0.04,-0.612,0.282,-0.059,-0.567,1.11
2024-11-02 22:52:52.630,40329.859,-0.054,0.535,-0.843,0.055,0.064,-0.025,0.456,-0.585,0.271,-0.063,-0.565,1.114
2024-11-02 22:52:52.640,40329.869,-0.057,0.53,-0.846,0.012,0.142,-0.082,0.793,-0.477,0.251,-0.067,-0.558,1.117
2024-11-02 22:52:52.650,40329.879,-0.059,0.523,-0.85,-0.022,0.162,-0.114,0.886,-0.377,0.255,-0.069,-0.55,1.121
2024-11-02 22:52:52.660,40329.889,-0.061,0.516,-0.854,-0.036,0.133,-0.102,0.741,-0.352,0.276,-0.071,-0.542,1.125
2024-11-02 22:52:52.670,40329.899,-0.063,0.51,-0.858,-0.027,0.052,-0.063,0.597,-0.411,0.256,-0.073,-0.536,1.128
2024-11-02 22:52:52.680,40329.909,-0.065,0.506,-0.86,-0.005,-0.06,-0.04,0.41,-0.365,0.24,-0.075,-0.531,1.132
2024-11-02 22:52:52.690,40329.919,-0.066,0.503,-0.862,0.018,-0.107,-0.0,0.365,-0.32,0.204,-0.077,-0.527,1.135
2024-11-02 22:52:52.700,40329.929,-0.068,0.5,-0.863,0.016,-0.08,0.025,0.316,-0.287,0.17,-0.079,-0.524,1.137
2024-11-02 22:52:52.709,40329.939,-0.07,0.497,-0.865,0.007,-0.052,0.037,0.389,-0.335,0.108,-0.081,-0.521,1.139
2024-11-02 22:52:52.720,40329.949,-0.073,0.493,-0.867,0.011,-0.008,0.041,0.551,-0.436,0.028,-0.084,-0.516,1.14
2024-11-02 22:52:52.730,40329.959,-0.077,0.487,-0.87,0.017,0.01,0.01,0.898,-0.49,-0.056,-0.088,-0.509,1.141
2024-11-02 22:52:52.740,40329.969,-0.082,0.478,-0.875,0.021,0.037,-0.042,1.286,-0.455,-0.134,-0.093,-0.498,1.141
2024-11-02 22:52:52.750,40329.979,-0.085,0.466,-0.881,-0.001,0.054,-0.103,1.447,-0.189,-0.083,-0.096,-0.484,1.141
2024-11-02 22:52:52.760,40329.989,-0.086,0.454,-0.887,-0.04,0.094,-0.113,1.127,0.018,0.064,-0.096,-0.471,1.142
2024-11-02 22:52:52.770,40329.999,-0.086,0.446,-0.891,-0.074,0.061,-0.06,0.708,-0.016,0.045,-0.096,-0.462,1.144
2024-11-02 22:52:52.780,40330.009,-0.085,0.442,-0.893,-0.07,-0.026,-0.076,0.221,-0.002,0.106,-0.095,-0.458,1.145
2024-11-02 22:52:52.790,40330.019,-0.085,0.441,-0.894,-0.01,-0.068,-0.024,0.046,0.009,0.039,-0.095,-0.456,1.146
2024-11-02 22:52:52.800,40330.029,-0.085,0.441,-0.894,0.017,-0.106,0.019,-0.089,0.069,0.003,-0.094,-0.457,1.146
2024-11-02 22:52:52.810,40330.039,-0.084,0.442,-0.893,0.006,-0.153,0.008,-0.186,0.062,0.009,-0.094,-0.458,1.146
2024-11-02 22:52:52.820,40330.049,-0.083,0.444,-0.892,-0.02,-0.093,0.042,-0.235,0.046,0.023,-0.093,-0.46,1.146
2024-11-02 22:52:52.830,40330.059,-0.083,0.447,-0.891,-0.027,-0.071,0.063,-0.305,0.045,0.07,-0.093,-0.463,1.146
2024-11-02 22:52:52.840,40330.069,-0.082,0.45,-0.889,-0.019,-0.084,0.071,-0.374,0.058,0.117,-0.092,-0.466,1.147
2024-11-02 22:52:52.850,40330.079,-0.081,0.453,-0.888,-0.033,-0.071,0.064,-0.45,0.078,0.163,-0.091,-0.471,1.148
2024-11-02 22:52:52.860,40330.089,-0.079,0.458,-0.885,-0.05,-0.052,0.044,-0.564,0.068,0.199,-0.089,-0.476,1.15
2024-11-02 22:52:52.870,40330.099,-0.078,0.463,-0.883,-0.053,-0.023,0.019,-0.598,0.064,0.191,-0.088,-0.482,1.151
2024-11-02 22:52:52.880,40330.109,-0.076,0.468,-0.88,-0.049,-0.013,-0.008,-0.498,0.052,0.2,-0.086,-0.488,1.153
2024-11-02 22:52:52.890,40330.119,-0.075,0.472,-0.878,-0.026,-0.012,-0.015,-0.372,0.054,0.18,-0.085,-0.492,1.155
2024-11-02 22:52:52.900,40330.129,-0.074,0.475,-0.877,0.005,0.017,-0.01,-0.209,0.014,0.122,-0.084,-0.495,1.156
2024-11-02 22:52:52.910,40330.139,-0.073,0.476,-0.876,0.012,0.045,0.01,-0.085,-0.026,0.067,-0.084,-0.497,1.157
2024-11-02 22:52:52.919,40330.149,-0.073,0.476,-0.876,0.017,0.048,0.023,0.073,0.056,0.053,-0.083,-0.497,1.158
2024-11-02 22:52:52.930,40330.159,-0.071,0.476,-0.876,0.015,0.039,0.046,-0.053,0.206,0.106,-0.081,-0.496,1.159
2024-11-02 22:52:52.940,40330.168,-0.069,0.478,-0.876,-0.01,0.001,0.042,-0.39,0.182,0.217,-0.079,-0.499,1.16
2024-11-02 22:52:52.949,40330.178,-0.067,0.483,-0.873,-0.031,-0.032,0.031,-0.742,0.095,0.224,-0.076,-0.505,1.162
2024-11-02 22:52:52.959,40330.188,-0.065,0.49,-0.869,-0.012,-0.075,0.058,-0.733,0.084,0.113,-0.075,-0.512,1.164
2024-11-02 22:52:52.970,40330.198,-0.063,0.496,-0.866,0.032,-0.073,0.084,-0.717,0.148,0.209,-0.073,-0.52,1.165
2024-11-02 22:52:52.979,40330.208,-0.061,0.503,-0.862,0.035,-0.113,0.053,-0.649,0.058,0.218,-0.071,-0.527,1.167
2024-11-02 22:52:52.989,40330.218,-0.061,0.507,-0.86,0.006,-0.017,0.037,-0.425,-0.135,0.102,-0.07,-0.532,1.168
2024-11-02 22:52:53.000,40330.228,-0.062,0.509,-0.858,0.004,0.051,0.054,0.002,-0.212,-0.001,-0.072,-0.534,1.169
2024-11-02 22:52:53.009,40330.238,-0.064,0.507,-0.859,0.041,0.073,0.04,0.456,-0.174,-0.009,-0.074,-0.532,1.169
2024-11-02 22:52:53.019,40330.248,-0.065,0.502,-0.862,0.026,0.144,0.001,0.733,-0.126,0.063,-0.075,-0.526,1.169
2024-11-02 22:52:53.029,40330.258,-0.065,0.496,-0.866,-0.03,0.142,-0.009,0.655,-0.133,0.211,-0.075,-0.519,1.172
2024-11-02 22:52:53.039,40330.268,-0.066,0.491,-0.869,-0.058,0.095,0.012,0.673,-0.201,0.143,-0.076,-0.513,1.174
2024-11-02 22:52:53.049,40330.278,-0.067,0.485,-0.872,-0.029,0.095,0.067,0.59,-0.233,0.115,-0.077,-0.507,1.176
2024-11-02 22:52:53.060,40330.288,-0.069,0.48,-0.874,0.025,0.043,0.055,0.589,-0.281,0.143,-0.078,-0.501,1.178
2024-11-02 22:52:53.069,40330.298,-0.071,0.475,-0.877,0.031,0.046,0.032,0.688,-0.279,0.091,-0.08,-0.495,1.18
2024-11-02 22:52:53.079,40330.308,-0.073,0.468,-0.881,0.02,0.059,-0.001,0.825,-0.277,0.039,-0.082,-0.487,1.182
2024-11-02 22:52:53.089,40330.318,-0.075,0.46,-0.885,0.016,0.068,-0.034,1.001,-0.309,-0.008,-0.085,-0.478,1.183
2024-11-02 22:52:53.099,40330.328,-0.078,0.451,-0.889,0.025,0.083,-0.056,1.122,-0.251,-0.036,-0.087,-0.468,1.183
2024-11-02 22:52:53.109,40330.338,-0.08,0.441,-0.894,0.03,0.08,-0.053,1.083,-0.15,-0.033,-0.089,-0.456,1.184
2024-11-02 22:52:53.119,40330.348,-0.081,0.432,-0.898,0.011,0.047,-0.026,0.951,-0.177,-0.018,-0.09,-0.446,1.185
2024-11-02 22:52:53.129,40330.358,-0.083,0.424,-0.902,-0.016,-0.008,0.006,0.851,-0.213,-0.017,-0.092,-0.437,1.186
2024-11-02 22:52:53.139,40330.368,-0.085,0.416,-0.905,-0.018,-0.036,0.054,0.718,-0.166,0.007,-0.094,-0.429,1.186
2024-11-02 22:52:53.148,40330.378,-0.086,0.411,-0.908,-0.01,-0.022,0.085,0.521,-0.186,0.097,-0.095,-0.423,1.187
2024-11-02 22:52:53.159,40330.388,-0.088,0.407,-0.909,-0.019,-0.046,0.099,0.385,-0.282,0.184,-0.096,-0.419,1.19
2024-11-02 22:52:53.169,40330.398,-0.09,0.404,-0.91,-0.013,-0.12,0.096,0.314,-0.329,0.198,-0.098,-0.416,1.192
2024-11-02 22:52:53.179,40330.408,-0.092,0.401,-0.911,-0.0,-0.118,0.032,0.28,-0.277,0.209,-0.1,-0.413,1.195
2024-11-02 22:52:53.189,40330.418,-0.093,0.399,-0.912,-0.013,-0.027,-0.055,0.294,-0.076,0.252,-0.101,-0.41,1.197
2024-11-02 22:52:53.199,40330.428,-0.092,0.398,-0.913,-0.045,-0.02,-0.16,0.047,0.072,0.267,-0.1,-0.409,1.2
2024-11-02 22:52:53.209,40330.438,-0.089,0.399,-0.913,-0.066,-0.13,-0.272,-0.366,0.237,0.243,-0.097,-0.411,1.203
2024-11-02 22:52:53.219,40330.448,-0.086,0.404,-0.911,-0.044,-0.193,-0.35,-0.71,0.319,0.194,-0.094,-0.416,1.205
2024-11-02 22:52:53.229,40330.458,-0.082,0.411,-0.908,-0.026,-0.222,-0.316,-0.617,0.307,0.065,-0.09,-0.423,1.206
2024-11-02 22:52:53.239,40330.468,-0.079,0.415,-0.906,0.021,-0.191,-0.187,-0.251,0.346,-0.029,-0.087,-0.428,1.205
2024-11-02 22:52:53.249,40330.478,-0.076,0.415,-0.906,0.101,-0.094,-0.049,0.111,0.348,-0.094,-0.084,-0.428,1.205
2024-11-02 22:52:53.259,40330.488,-0.074,0.413,-0.908,0.132,0.02,0.113,0.289,0.332,-0.109,-0.081,-0.426,1.204
2024-11-02 22:52:53.269,40330.498,-0.072,0.411,-0.909,0.137,0.09,0.261,0.231,0.217,-0.061,-0.079,-0.423,1.203
2024-11-02 22:52:53.279,40330.508,-0.07,0.409,-0.91,0.138,0.074,0.341,0.075,0.057,-0.016,-0.077,-0.422,1.203
2024-11-02 22:52:53.289,40330.518,-0.07,0.409,-0.91,0.118,0.057,0.371,-0.044,-0.013,0.002,-0.077,-0.422,1.202
2024-11-02 22:52:53.299,40330.528,-0.071,0.41,-0.909,0.052,0.102,0.369,-0.046,-0.04,0.001,-0.077,-0.422,1.202
2024-11-02 22:52:53.309,40330.538,-0.071,0.41,-0.91,-0.051,0.163,0.309,0.076,0.038,-0.024,-0.078,-0.422,1.202
2024-11-02 22:52:53.319,40330.548,-0.07,0.408,-0.91,-0.141,0.193,0.208,0.228,0.139,-0.036,-0.077,-0.42,1.202
2024-11-02 22:52:53.329,40330.558,-0.069,0.405,-0.912,-0.2,0.196,0.084,0.372,0.114,0.002,-0.076,-0.417,1.202
2024-11-02 22:52:53.339,40330.568,-0.067,0.402,-0.913,-0.242,0.174,-0.072,0.417,0.181,0.094,-0.074,-0.413,1.203
2024-11-02 22:52:53.349,40330.578,-0.065,0.399,-0.915,-0.245,0.133,-0.189,0.255,0.207,0.153,-0.071,-0.41,1.205
2024-11-02 22:52:53.359,40330.588,-0.063,0.397,-0.915,-0.25,0.059,-0.229,0.033,0.105,0.151,-0.069,-0.409,1.206
2024-11-02 22:52:53.369,40330.598,-0.062,0.398,-0.915,-0.224,-0.056,-0.21,-0.112,0.009,0.147,-0.068,-0.409,1.208
2024-11-02 22:52:53.379,40330.608,-0.061,0.399,-0.915,-0.106,-0.157,-0.196,-0.154,0.024,0.159,-0.067,-0.411,1.21
2024-11-02 22:52:53.389,40330.618,-0.059,0.402,-0.914,0.017,-0.208,-0.19,-0.409,0.269,0.175,-0.065,-0.414,1.211
2024-11-02 22:52:53.399,40330.628,-0.057,0.407,-0.911,0.088,-0.242,-0.216,-0.747,-0.031,0.133,-0.063,-0.419,1.213
2024-11-02 22:52:53.409,40330.638,-0.059,0.413,-0.909,0.091,-0.236,-0.189,-0.393,-0.257,-0.136,-0.065,-0.426,1.212
2024-11-02 22:52:53.419,40330.648,-0.061,0.412,-0.909,0.148,-0.124,-0.037,0.503,0.023,-0.318,-0.067,-0.425,1.21
2024-11-02 22:52:53.429,40330.658,-0.061,0.404,-0.913,0.244,0.062,-0.055,1.113,0.307,-0.252,-0.066,-0.416,1.207
2024-11-02 22:52:53.438,40330.668,-0.059,0.394,-0.917,0.196,0.165,-0.086,1.143,0.199,-0.248,-0.064,-0.405,1.205
2024-11-02 22:52:53.449,40330.678,-0.059,0.384,-0.921,0.159,0.108,-0.004,0.988,-0.005,-0.255,-0.064,-0.394,1.203
2024-11-02 22:52:53.458,40330.688,-0.061,0.375,-0.925,0.223,0.027,0.125,0.854,-0.06,-0.207,-0.065,-0.385,1.201
2024-11-02 22:52:53.468,40330.698,-0.062,0.368,-0.928,0.24,0.076,0.206,0.761,-0.081,-0.148,-0.067,-0.377,1.2
2024-11-02 22:52:53.478,40330.708,-0.063,0.361,-0.931,0.109,0.18,0.21,0.797,-0.09,-0.107,-0.068,-0.369,1.199
2024-11-02 22:52:53.488,40330.718,-0.064,0.352,-0.934,-0.026,0.224,0.205,1.045,0.026,-0.194,-0.069,-0.36,1.198
2024-11-02 22:52:53.498,40330.728,-0.063,0.341,-0.938,-0.101,0.235,0.191,1.239,0.308,-0.204,-0.067,-0.348,1.197
2024-11-02 22:52:53.508,40330.738,-0.061,0.331,-0.942,-0.145,0.243,0.177,0.861,0.313,-0.096,-0.064,-0.337,1.196
2024-11-02 22:52:53.519,40330.748,-0.059,0.326,-0.943,-0.176,0.124,0.154,0.047,0.069,0.045,-0.062,-0.332,1.196
2024-11-02 22:52:53.529,40330.758,-0.06,0.329,-0.942,-0.148,-0.15,0.131,-0.627,-0.29,0.087,-0.063,-0.336,1.197
2024-11-02 22:52:53.539,40330.767,-0.062,0.336,-0.94,-0.151,-0.357,0.076,-0.661,-0.15,0.08,-0.066,-0.342,1.197
2024-11-02 22:52:53.549,40330.777,-0.061,0.341,-0.938,-0.203,-0.221,-0.004,-0.513,0.153,0.117,-0.065,-0.348,1.198
2024-11-02 22:52:53.559,40330.787,-0.06,0.347,-0.936,-0.267,-0.044,-0.148,-0.695,0.07,0.158,-0.064,-0.354,1.199
2024-11-02 22:52:53.569,40330.797,-0.059,0.355,-0.933,-0.28,-0.204,-0.245,-0.949,-0.024,0.092,-0.063,-0.363,1.2
2024-11-02 22:52:53.579,40330.807,-0.059,0.365,-0.929,-0.112,-0.327,-0.215,-1.193,0.089,0.033,-0.063,-0.373,1.2
2024-11-02 22:52:53.589,40330.817,-0.057,0.377,-0.924,0.033,-0.317,-0.277,-1.533,0.087,0.055,-0.062,-0.387,1.199
2024-11-02 22:52:53.598,40330.827,-0.057,0.392,-0.918,0.061,-0.251,-0.383,-1.448,-0.2,-0.043,-0.062,-0.402,1.198
2024-11-02 22:52:53.608,40330.837,-0.06,0.401,-0.914,0.081,-0.111,-0.334,-0.602,-0.175,-0.268,-0.065,-0.413,1.196
2024-11-02 22:52:53.618,40330.847,-0.061,0.402,-0.914,0.227,0.087,-0.2,0.443,0.251,-0.272,-0.066,-0.413,1.193
2024-11-02 22:52:53.628,40330.857,-0.058,0.395,-0.917,0.306,0.35,-0.11,0.853,0.412,-0.112,-0.063,-0.406,1.191
2024-11-02 22:52:53.638,40330.867,-0.055,0.388,-0.92,0.271,0.416,0.087,0.723,0.18,-0.014,-0.06,-0.398,1.191
2024-11-02 22:52:53.648,40330.877,-0.055,0.382,-0.922,0.283,0.232,0.27,0.469,-0.083,-0.012,-0.06,-0.392,1.191
2024-11-02 22:52:53.658,40330.887,-0.056,0.378,-0.924,0.348,0.049,0.408,0.369,-0.122,-0.055,-0.061,-0.388,1.191
2024-11-02 22:52:53.668,40330.897,-0.057,0.375,-0.925,0.292,0.038,0.438,0.334,-0.03,-0.036,-0.062,-0.385,1.191
2024-11-02 22:52:53.678,40330.907,-0.057,0.372,-0.926,0.077,0.038,0.363,0.232,0.017,-0.078,-0.062,-0.382,1.19
2024-11-02 22:52:53.688,40330.917,-0.058,0.37,-0.927,-0.131,-0.02,0.283,0.358,0.008,-0.287,-0.063,-0.379,1.189
2024-11-02 22:52:53.699,40330.927,-0.058,0.365,-0.929,-0.239,-0.053,0.266,0.595,0.325,-0.375,-0.062,-0.374,1.185
2024-11-02 22:52:53.708,40330.937,-0.056,0.36,-0.931,-0.23,-0.014,0.296,0.309,0.36,-0.309,-0.06,-0.369,1.182
2024-11-02 22:52:53.718,40330.947,-0.054,0.361,-0.931,-0.183,-0.05,0.192,-0.435,0.005,-0.115,-0.058,-0.369,1.18
2024-11-02 22:52:53.728,40330.957,-0.056,0.368,-0.928,-0.175,-0.241,0.041,-0.963,-0.291,-0.031,-0.061,-0.376,1.179
2024-11-02 22:52:53.738,40330.967,-0.058,0.376,-0.925,-0.23,-0.277,-0.056,-0.694,0.072,-0.021,-0.062,-0.385,1.178
2024-11-02 22:52:53.748,40330.977,-0.055,0.381,-0.923,-0.303,0.087,-0.185,-0.483,0.332,0.162,-0.06,-0.391,1.178
2024-11-02 22:52:53.758,40330.987,-0.052,0.386,-0.921,-0.351,0.276,-0.36,-0.583,0.189,0.239,-0.056,-0.396,1.18
2024-11-02 22:52:53.768,40330.997,-0.05,0.392,-0.919,-0.266,0.081,-0.371,-0.695,0.094,0.146,-0.054,-0.403,1.182
2024-11-02 22:52:53.778,40331.007,-0.048,0.399,-0.916,-0.04,-0.057,-0.361,-0.931,0.309,0.131,-0.052,-0.41,1.183
2024-11-02 22:52:53.787,40331.017,-0.046,0.409,-0.911,0.092,-0.082,-0.401,-1.234,-0.088,0.141,-0.051,-0.421,1.184
2024-11-02 22:52:53.798,40331.027,-0.049,0.419,-0.907,0.127,-0.096,-0.398,-0.814,-0.519,0.006,-0.054,-0.432,1.184
2024-11-02 22:52:53.808,40331.037,-0.053,0.421,-0.905,0.167,-0.062,-0.183,0.278,-0.23,-0.195,-0.059,-0.435,1.183
2024-11-02 22:52:53.818,40331.047,-0.054,0.414,-0.909,0.298,0.147,-0.08,1.171,0.236,-0.153,-0.059,-0.427,1.181
2024-11-02 22:52:53.829,40331.057,-0.052,0.403,-0.914,0.296,0.3,-0.043,1.206,0.227,-0.128,-0.057,-0.415,1.18
2024-11-02 22:52:53.838,40331.067,-0.051,0.393,-0.918,0.262,0.11,0.079,0.858,-0.01,-0.136,-0.056,-0.404,1.18
2024-11-02 22:52:53.847,40331.077,-0.053,0.387,-0.92,0.326,-0.143,0.23,0.524,-0.166,-0.171,-0.057,-0.398,1.178
2024-11-02 22:52:53.857,40331.087,-0.055,0.383,-0.922,0.363,-0.211,0.356,0.322,-0.157,-0.192,-0.06,-0.393,1.177
2024-11-02 22:52:53.867,40331.097,-0.057,0.381,-0.923,0.225,-0.163,0.373,0.092,-0.098,-0.174,-0.062,-0.391,1.175
2024-11-02 22:52:53.877,40331.107,-0.059,0.381,-0.923,-0.001,-0.116,0.327,0.006,-0.143,-0.235,-0.064,-0.391,1.173
2024-11-02 22:52:53.888,40331.117,-0.06,0.38,-0.923,-0.168,-0.051,0.277,0.189,0.083,-0.285,-0.065,-0.39,1.17
2024-11-02 22:52:53.898,40331.127,-0.059,0.377,-0.924,-0.238,0.023,0.27,0.366,0.268,-0.195,-0.064,-0.387,1.167
2024-11-02 22:52:53.908,40331.137,-0.058,0.375,-0.925,-0.227,0.087,0.14,-0.079,-0.008,0.0,-0.063,-0.385,1.166
2024-11-02 22:52:53.918,40331.147,-0.06,0.378,-0.924,-0.236,0.039,0.007,-0.416,-0.194,0.006,-0.064,-0.388,1.166
2024-11-02 22:52:53.928,40331.157,-0.06,0.381,-0.922,-0.251,0.047,-0.002,-0.266,-0.003,0.055,-0.065,-0.391,1.166
2024-11-02 22:52:53.938,40331.167,-0.059,0.383,-0.922,-0.3,0.11,-0.102,-0.183,0.193,0.161,-0.064,-0.393,1.167
2024-11-02 22:52:53.948,40331.177,-0.057,0.386,-0.921,-0.32,0.13,-0.252,-0.508,0.072,0.199,-0.062,-0.397,1.169
2024-11-02 22:52:53.958,40331.187,-0.056,0.392,-0.918,-0.231,-0.006,-0.265,-0.733,-0.075,0.126,-0.061,-0.403,1.171
2024-11-02 22:52:53.968,40331.197,-0.057,0.4,-0.915,-0.059,-0.22,-0.237,-0.872,0.037,0.063,-0.062,-0.411,1.171
2024-11-02 22:52:53.978,40331.207,-0.057,0.407,-0.911,0.1,-0.274,-0.285,-0.806,-0.36,-0.043,-0.063,-0.42,1.171
2024-11-02 22:52:53.987,40331.217,-0.062,0.413,-0.909,0.166,-0.133,-0.342,-0.252,-0.402,-0.163,-0.068,-0.425,1.169
2024-11-02 22:52:53.998,40331.227,-0.064,0.411,-0.91,0.2,0.011,-0.179,0.617,0.113,-0.213,-0.07,-0.423,1.167
2024-11-02 22:52:54.007,40331.237,-0.063,0.404,-0.913,0.268,0.209,-0.084,0.819,0.217,-0.122,-0.069,-0.416,1.166
2024-11-02 22:52:54.018,40331.247,-0.062,0.397,-0.916,0.225,0.248,-0.074,0.684,0.005,-0.127,-0.068,-0.408,1.165
2024-11-02 22:52:54.028,40331.257,-0.063,0.391,-0.918,0.252,0.037,0.129,0.566,-0.086,-0.152,-0.069,-0.402,1.164
2024-11-02 22:52:54.038,40331.267,-0.064,0.386,-0.92,0.322,-0.085,0.265,0.476,-0.044,-0.142,-0.07,-0.396,1.163
2024-11-02 22:52:54.048,40331.277,-0.065,0.382,-0.922,0.236,-0.028,0.345,0.36,-0.037,-0.128,-0.071,-0.392,1.162
2024-11-02 22:52:54.058,40331.287,-0.067,0.379,-0.923,0.053,-0.036,0.376,0.284,-0.164,-0.176,-0.072,-0.389,1.16
2024-11-02 22:52:54.068,40331.297,-0.068,0.376,-0.924,-0.092,-0.065,0.366,0.424,0.104,-0.281,-0.074,-0.385,1.158
2024-11-02 22:52:54.078,40331.307,-0.067,0.371,-0.926,-0.164,0.008,0.389,0.441,0.339,-0.244,-0.072,-0.38,1.156
2024-11-02 22:52:54.088,40331.317,-0.065,0.37,-0.927,-0.191,0.074,0.294,-0.107,0.118,-0.103,-0.07,-0.379,1.154
2024-11-02 22:52:54.097,40331.327,-0.065,0.373,-0.926,-0.231,0.023,0.096,-0.534,-0.099,0.04,-0.071,-0.382,1.153
2024-11-02 22:52:54.108,40331.337,-0.066,0.378,-0.923,-0.227,-0.027,0.034,-0.546,-0.039,0.094,-0.071,-0.388,1.154
2024-11-02 22:52:54.117,40331.347,-0.064,0.382,-0.922,-0.264,0.053,-0.071,-0.279,0.263,0.132,-0.07,-0.392,1.154
2024-11-02 22:52:54.127,40331.357,-0.061,0.384,-0.921,-0.313,0.188,-0.211,-0.297,0.287,0.208,-0.066,-0.395,1.156
2024-11-02 22:52:54.137,40331.366,-0.058,0.388,-0.92,-0.29,0.076,-0.314,-0.494,0.096,0.193,-0.064,-0.399,1.158
2024-11-02 22:52:54.147,40331.376,-0.057,0.394,-0.917,-0.134,-0.141,-0.311,-0.659,0.016,0.135,-0.063,-0.405,1.16
2024-11-02 22:52:54.157,40331.386,-0.056,0.4,-0.915,0.066,-0.229,-0.351,-0.818,0.161,0.102,-0.062,-0.412,1.16
2024-11-02 22:52:54.167,40331.396,-0.055,0.409,-0.911,0.155,-0.234,-0.43,-0.982,-0.13,0.05,-0.06,-0.421,1.161
2024-11-02 22:52:54.178,40331.406,-0.058,0.416,-0.907,0.168,-0.197,-0.433,-0.56,-0.417,-0.089,-0.064,-0.429,1.16
2024-11-02 22:52:54.187,40331.416,-0.061,0.417,-0.907,0.181,-0.085,-0.195,0.413,-0.006,-0.168,-0.067,-0.43,1.158
2024-11-02 22:52:54.197,40331.426,-0.06,0.41,-0.91,0.291,0.14,0.065,0.866,0.208,-0.12,-0.066,-0.423,1.157
2024-11-02 22:52:54.207,40331.436,-0.059,0.403,-0.913,0.28,0.269,0.129,0.722,0.018,-0.091,-0.065,-0.415,1.157
2024-11-02 22:52:54.218,40331.446,-0.06,0.397,-0.916,0.249,0.104,0.231,0.516,-0.117,-0.147,-0.066,-0.409,1.156
2024-11-02 22:52:54.227,40331.456,-0.062,0.393,-0.917,0.304,-0.092,0.272,0.369,-0.071,-0.152,-0.068,-0.404,1.154
2024-11-02 22:52:54.238,40331.466,-0.063,0.39,-0.919,0.234,-0.111,0.234,0.235,0.007,-0.145,-0.068,-0.401,1.153
2024-11-02 22:52:54.247,40331.476,-0.063,0.388,-0.919,0.036,-0.07,0.209,0.193,-0.002,-0.189,-0.069,-0.399,1.151
2024-11-02 22:52:54.257,40331.486,-0.064,0.386,-0.92,-0.131,-0.049,0.23,0.387,0.195,-0.259,-0.069,-0.396,1.149
2024-11-02 22:52:54.267,40331.496,-0.061,0.381,-0.923,-0.199,-0.002,0.282,0.585,0.462,-0.241,-0.067,-0.391,1.147
2024-11-02 22:52:54.278,40331.506,-0.059,0.377,-0.924,-0.195,0.075,0.237,0.209,0.266,-0.099,-0.063,-0.386,1.145
2024-11-02 22:52:54.287,40331.516,-0.058,0.377,-0.924,-0.224,0.028,0.145,-0.305,-0.056,0.011,-0.062,-0.387,1.145
2024-11-02 22:52:54.298,40331.526,-0.059,0.381,-0.923,-0.225,-0.025,0.141,-0.489,-0.132,0.062,-0.064,-0.391,1.145
2024-11-02 22:52:54.307,40331.536,-0.059,0.385,-0.921,-0.249,0.06,0.023,-0.282,0.094,0.117,-0.064,-0.395,1.146
2024-11-02 22:52:54.317,40331.546,-0.056,0.387,-0.92,-0.34,0.167,-0.124,-0.181,0.227,0.165,-0.061,-0.397,1.147
2024-11-02 22:52:54.328,40331.556,-0.054,0.389,-0.92,-0.347,0.129,-0.251,-0.288,0.178,0.155,-0.059,-0.4,1.149
2024-11-02 22:52:54.337,40331.566,-0.052,0.393,-0.918,-0.209,-0.01,-0.247,-0.425,0.068,0.121,-0.057,-0.404,1.15
2024-11-02 22:52:54.348,40331.576,-0.051,0.397,-0.916,-0.003,-0.137,-0.203,-0.585,0.185,0.103,-0.056,-0.408,1.151
2024-11-02 22:52:54.356,40331.586,-0.05,0.403,-0.914,0.149,-0.161,-0.216,-0.769,-0.093,0.084,-0.055,-0.415,1.152
2024-11-02 22:52:54.367,40331.596,-0.051,0.41,-0.911,0.187,-0.121,-0.254,-0.593,-0.174,0.117,-0.056,-0.423,1.152
2024-11-02 22:52:54.377,40331.606,-0.052,0.413,-0.909,0.148,-0.087,-0.095,0.082,-0.128,0.005,-0.057,-0.425,1.153
2024-11-02 22:52:54.387,40331.616,-0.053,0.41,-0.911,0.19,0.02,-0.045,0.514,0.022,-0.053,-0.058,-0.422,1.153
2024-11-02 22:52:54.397,40331.626,-0.053,0.404,-0.913,0.206,0.135,-0.039,0.722,0.054,-0.147,-0.058,-0.416,1.152
2024-11-02 22:52:54.407,40331.636,-0.053,0.397,-0.916,0.204,0.073,0.064,0.672,-0.032,-0.187,-0.058,-0.409,1.151
2024-11-02 22:52:54.417,40331.646,-0.055,0.391,-0.919,0.241,-0.091,0.076,0.588,-0.093,-0.219,-0.06,-0.402,1.149
2024-11-02 22:52:54.428,40331.656,-0.056,0.386,-0.921,0.235,-0.102,0.113,0.546,-0.044,-0.249,-0.061,-0.396,1.147
2024-11-02 22:52:54.436,40331.666,-0.057,0.381,-0.923,0.145,-0.054,0.13,0.469,0.061,-0.215,-0.062,-0.391,1.145
2024-11-02 22:52:54.446,40331.676,-0.057,0.377,-0.924,0.029,-0.001,0.139,0.493,0.025,-0.182,-0.062,-0.386,1.143
2024-11-02 22:52:54.456,40331.686,-0.058,0.371,-0.927,-0.032,0.045,0.172,0.736,0.158,-0.273,-0.062,-0.38,1.141
2024-11-02 22:52:54.466,40331.696,-0.056,0.363,-0.93,-0.03,0.106,0.214,0.894,0.463,-0.32,-0.06,-0.372,1.138
2024-11-02 22:52:54.476,40331.706,-0.052,0.356,-0.933,-0.034,0.244,0.183,0.671,0.433,-0.222,-0.056,-0.364,1.136
2024-11-02 22:52:54.486,40331.716,-0.05,0.352,-0.935,-0.134,0.17,0.111,0.02,0.177,-0.043,-0.053,-0.36,1.134
2024-11-02 22:52:54.496,40331.726,-0.049,0.355,-0.934,-0.163,-0.025,0.147,-0.551,-0.012,0.087,-0.053,-0.363,1.134
2024-11-02 22:52:54.506,40331.736,-0.049,0.361,-0.931,-0.141,-0.011,0.166,-0.657,-0.017,0.152,-0.053,-0.369,1.135
2024-11-02 22:52:54.516,40331.746,-0.048,0.366,-0.929,-0.193,0.049,0.11,-0.413,0.175,0.157,-0.051,-0.375,1.137
2024-11-02 22:52:54.526,40331.756,-0.045,0.37,-0.928,-0.247,0.037,-0.014,-0.421,0.232,0.179,-0.049,-0.379,1.138
2024-11-02 22:52:54.536,40331.766,-0.043,0.374,-0.926,-0.261,-0.04,-0.102,-0.551,0.09,0.141,-0.046,-0.384,1.14
2024-11-02 22:52:54.546,40331.776,-0.043,0.38,-0.924,-0.179,-0.156,-0.063,-0.589,-0.066,0.055,-0.046,-0.39,1.141
2024-11-02 22:52:54.556,40331.786,-0.043,0.385,-0.922,-0.018,-0.25,-0.052,-0.596,0.078,0.049,-0.046,-0.395,1.141
2024-11-02 22:52:54.566,40331.796,-0.042,0.391,-0.92,0.096,-0.179,-0.144,-0.585,-0.097,0.069,-0.045,-0.401,1.141
2024-11-02 22:52:54.576,40331.806,-0.044,0.395,-0.918,0.129,-0.068,-0.293,-0.274,-0.351,-0.079,-0.048,-0.406,1.141
2024-11-02 22:52:54.586,40331.816,-0.046,0.394,-0.918,0.166,-0.013,-0.309,0.505,0.027,-0.197,-0.05,-0.405,1.14
2024-11-02 22:52:54.596,40331.826,-0.045,0.387,-0.921,0.271,0.132,-0.325,0.852,0.24,-0.141,-0.049,-0.398,1.138
2024-11-02 22:52:54.606,40331.836,-0.044,0.38,-0.924,0.219,0.21,-0.379,0.744,0.082,-0.139,-0.048,-0.39,1.137
2024-11-02 22:52:54.616,40331.846,-0.045,0.373,-0.927,0.181,0.117,-0.223,0.641,-0.045,-0.142,-0.048,-0.383,1.136
2024-11-02 22:52:54.637,40331.856,-0.046,0.368,-0.929,0.269,0.013,-0.013,0.567,-0.056,-0.076,-0.049,-0.377,1.135
2024-11-02 22:52:54.639,40331.866,-0.046,0.363,-0.931,0.263,0.027,0.139,0.514,-0.041,-0.051,-0.05,-0.371,1.135
2024-11-02 22:52:54.646,40331.876,-0.047,0.358,-0.932,0.147,0.055,0.244,0.418,-0.055,-0.053,-0.05,-0.366,1.134
2024-11-02 22:52:54.656,40331.886,-0.048,0.355,-0.934,0.03,0.024,0.323,0.401,-0.111,-0.129,-0.052,-0.362,1.134
2024-11-02 22:52:54.666,40331.896,-0.049,0.351,-0.935,-0.036,0.016,0.391,0.423,0.089,-0.18,-0.052,-0.358,1.132
2024-11-02 22:52:54.676,40331.906,-0.048,0.347,-0.937,-0.072,0.04,0.439,0.235,0.077,-0.152,-0.052,-0.355,1.131
2024-11-02 22:52:54.685,40331.916,-0.049,0.347,-0.937,-0.124,-0.004,0.342,-0.221,-0.108,0.052,-0.052,-0.355,1.13
2024-11-02 22:52:54.695,40331.926,-0.05,0.352,-0.935,-0.177,-0.112,0.197,-0.686,-0.252,0.204,-0.053,-0.359,1.131
2024-11-02 22:52:54.705,40331.936,-0.051,0.358,-0.932,-0.221,-0.132,0.045,-0.671,-0.16,0.227,-0.055,-0.366,1.133
2024-11-02 22:52:54.716,40331.946,-0.051,0.363,-0.93,-0.338,-0.021,-0.073,-0.362,0.106,0.208,-0.055,-0.372,1.135
2024-11-02 22:52:54.726,40331.956,-0.048,0.366,-0.929,-0.389,0.06,-0.243,-0.3,0.182,0.266,-0.052,-0.375,1.137
2024-11-02 22:52:54.736,40331.965,-0.047,0.37,-0.928,-0.328,-0.009,-0.329,-0.443,0.013,0.195,-0.05,-0.379,1.14
2024-11-02 22:52:54.746,40331.975,-0.046,0.375,-0.926,-0.152,-0.121,-0.247,-0.73,0.048,0.097,-0.05,-0.384,1.141
2024-11-02 22:52:54.756,40331.985,-0.046,0.384,-0.922,0.057,-0.122,-0.214,-1.115,-0.198,0.214,-0.05,-0.394,1.142
2024-11-02 22:52:54.766,40331.995,-0.049,0.394,-0.918,0.162,-0.1,-0.243,-0.941,-0.583,0.164,-0.053,-0.405,1.144
2024-11-02 22:52:54.776,40332.005,-0.053,0.398,-0.916,0.18,-0.094,-0.126,-0.028,-0.242,-0.032,-0.058,-0.41,1.144
2024-11-02 22:52:54.786,40332.015,-0.053,0.395,-0.917,0.273,0.126,-0.108,0.606,0.209,-0.047,-0.058,-0.406,1.144
2024-11-02 22:52:54.796,40332.025,-0.051,0.389,-0.92,0.2,0.315,-0.228,0.706,0.149,-0.075,-0.056,-0.4,1.144
2024-11-02 22:52:54.806,40332.035,-0.052,0.383,-0.922,0.133,0.128,-0.161,0.619,-0.053,-0.155,-0.056,-0.393,1.143
2024-11-02 22:52:54.816,40332.045,-0.053,0.377,-0.925,0.267,-0.116,0.007,0.549,-0.051,-0.154,-0.057,-0.387,1.142
2024-11-02 22:52:54.826,40332.055,-0.054,0.373,-0.926,0.355,-0.075,0.183,0.445,-0.071,-0.115,-0.058,-0.382,1.14
2024-11-02 22:52:54.836,40332.065,-0.055,0.369,-0.928,0.251,0.0,0.27,0.27,-0.11,-0.062,-0.059,-0.378,1.14
2024-11-02 22:52:54.846,40332.075,-0.056,0.368,-0.928,0.112,-0.033,0.312,0.077,-0.139,-0.04,-0.06,-0.377,1.139
2024-11-02 22:52:54.856,40332.085,-0.058,0.367,-0.928,0.026,-0.039,0.292,0.182,-0.16,-0.185,-0.063,-0.376,1.138
2024-11-02 22:52:54.866,40332.095,-0.059,0.363,-0.93,-0.083,0.021,0.241,0.531,0.215,-0.284,-0.063,-0.372,1.136
2024-11-02 22:52:54.875,40332.105,-0.057,0.357,-0.932,-0.179,0.094,0.246,0.68,0.403,-0.223,-0.061,-0.365,1.133
2024-11-02 22:52:54.886,40332.115,-0.054,0.353,-0.934,-0.209,0.089,0.151,0.132,0.096,0.018,-0.058,-0.361,1.133
2024-11-02 22:52:54.896,40332.125,-0.055,0.355,-0.933,-0.215,-0.085,0.119,-0.411,-0.258,0.086,-0.059,-0.363,1.133
2024-11-02 22:52:54.906,40332.135,-0.058,0.359,-0.932,-0.198,-0.082,0.12,-0.435,-0.279,0.088,-0.062,-0.367,1.134
2024-11-02 22:52:54.916,40332.145,-0.058,0.361,-0.931,-0.251,0.032,0.028,-0.044,0.074,0.143,-0.062,-0.37,1.135
2024-11-02 22:52:54.926,40332.155,-0.056,0.362,-0.931,-0.349,0.128,-0.132,-0.069,0.23,0.26,-0.06,-0.37,1.137
2024-11-02 22:52:54.936,40332.165,-0.053,0.364,-0.93,-0.358,0.093,-0.259,-0.369,0.067,0.249,-0.057,-0.372,1.14
2024-11-02 22:52:54.946,40332.175,-0.053,0.369,-0.928,-0.21,-0.058,-0.226,-0.638,-0.007,0.157,-0.057,-0.378,1.142
2024-11-02 22:52:54.956,40332.185,-0.052,0.377,-0.925,0.037,-0.198,-0.199,-1.07,-0.124,0.2,-0.056,-0.387,1.143
2024-11-02 22:52:54.966,40332.195,-0.054,0.387,-0.92,0.194,-0.201,-0.281,-0.997,-0.557,0.084,-0.059,-0.398,1.144
2024-11-02 22:52:54.976,40332.205,-0.058,0.392,-0.918,0.21,-0.123,-0.252,-0.109,-0.259,-0.118,-0.064,-0.403,1.143
2024-11-02 22:52:54.986,40332.215,-0.059,0.39,-0.919,0.276,0.047,-0.15,0.568,0.171,-0.118,-0.064,-0.401,1.142
2024-11-02 22:52:54.996,40332.225,-0.058,0.384,-0.922,0.261,0.261,-0.223,0.706,0.136,-0.078,-0.063,-0.394,1.142
2024-11-02 22:52:55.006,40332.235,-0.058,0.378,-0.924,0.204,0.164,-0.11,0.625,-0.052,-0.092,-0.062,-0.387,1.141
2024-11-02 22:52:55.016,40332.245,-0.059,0.372,-0.926,0.306,-0.061,0.071,0.577,-0.103,-0.081,-0.064,-0.381,1.141
2024-11-02 22:52:55.026,40332.255,-0.06,0.367,-0.928,0.364,-0.052,0.234,0.507,-0.087,-0.064,-0.065,-0.376,1.14
2024-11-02 22:52:55.036,40332.265,-0.061,0.363,-0.93,0.247,0.025,0.302,0.363,-0.082,-0.04,-0.066,-0.371,1.14
2024-11-02 22:52:55.046,40332.275,-0.062,0.36,-0.931,0.074,-0.004,0.296,0.225,-0.135,-0.08,-0.067,-0.368,1.14
2024-11-02 22:52:55.056,40332.285,-0.064,0.357,-0.932,-0.047,-0.051,0.253,0.49,0.018,-0.262,-0.068,-0.365,1.138
2024-11-02 22:52:55.067,40332.295,-0.063,0.351,-0.934,-0.136,-0.022,0.272,0.757,0.402,-0.341,-0.067,-0.358,1.135
2024-11-02 22:52:55.076,40332.305,-0.06,0.344,-0.937,-0.146,0.082,0.324,0.504,0.364,-0.34,-0.064,-0.351,1.132
2024-11-02 22:52:55.086,40332.315,-0.059,0.343,-0.938,-0.105,0.072,0.224,-0.265,-0.021,-0.1,-0.063,-0.35,1.13
2024-11-02 22:52:55.096,40332.325,-0.062,0.348,-0.935,-0.11,-0.167,0.128,-0.857,-0.472,0.028,-0.066,-0.356,1.129
2024-11-02 22:52:55.107,40332.335,-0.065,0.355,-0.933,-0.168,-0.171,0.047,-0.416,-0.175,0.077,-0.07,-0.363,1.129
2024-11-02 22:52:55.116,40332.345,-0.064,0.356,-0.932,-0.274,0.184,-0.036,0.177,0.35,0.15,-0.068,-0.364,1.13
2024-11-02 22:52:55.126,40332.355,-0.059,0.354,-0.933,-0.411,0.342,-0.299,0.129,0.386,0.276,-0.063,-0.362,1.133
2024-11-02 22:52:55.136,40332.365,-0.056,0.355,-0.933,-0.429,0.143,-0.387,-0.273,0.159,0.164,-0.06,-0.363,1.135
2024-11-02 22:52:55.146,40332.375,-0.055,0.359,-0.932,-0.19,-0.128,-0.28,-0.663,0.076,0.048,-0.058,-0.368,1.136
2024-11-02 22:52:55.156,40332.385,-0.053,0.368,-0.928,0.06,-0.265,-0.212,-1.115,-0.018,0.174,-0.057,-0.377,1.136
2024-11-02 22:52:55.166,40332.395,-0.055,0.379,-0.924,0.147,-0.275,-0.194,-1.053,-0.47,0.146,-0.059,-0.388,1.137
2024-11-02 22:52:55.176,40332.405,-0.058,0.385,-0.921,0.148,-0.232,-0.11,-0.195,-0.273,-0.02,-0.063,-0.395,1.138
2024-11-02 22:52:55.186,40332.415,-0.059,0.383,-0.922,0.221,-0.053,-0.015,0.428,0.068,-0.101,-0.064,-0.393,1.137
2024-11-02 22:52:55.196,40332.425,-0.059,0.378,-0.924,0.216,0.187,-0.125,0.662,0.084,-0.139,-0.064,-0.388,1.136
2024-11-02 22:52:55.206,40332.435,-0.06,0.372,-0.926,0.145,0.122,-0.099,0.657,-0.064,-0.239,-0.064,-0.381,1.135
2024-11-02 22:52:55.216,40332.445,-0.061,0.366,-0.929,0.243,-0.098,-0.041,0.59,-0.05,-0.281,-0.066,-0.374,1.132
2024-11-02 22:52:55.225,40332.455,-0.062,0.36,-0.931,0.286,-0.052,0.069,0.542,0.014,-0.25,-0.067,-0.369,1.13
2024-11-02 22:52:55.236,40332.465,-0.063,0.356,-0.933,0.16,0.066,0.17,0.431,-0.002,-0.204,-0.067,-0.364,1.128
2024-11-02 22:52:55.246,40332.475,-0.064,0.351,-0.934,0.033,0.053,0.23,0.516,-0.129,-0.268,-0.069,-0.359,1.126
2024-11-02 22:52:55.255,40332.485,-0.065,0.345,-0.936,-0.03,0.072,0.318,0.796,0.189,-0.354,-0.07,-0.352,1.123
2024-11-02 22:52:55.265,40332.495,-0.063,0.337,-0.939,-0.087,0.132,0.376,0.695,0.363,-0.251,-0.067,-0.344,1.12
2024-11-02 22:52:55.276,40332.505,-0.062,0.334,-0.941,-0.155,0.073,0.265,-0.011,-0.02,-0.012,-0.066,-0.341,1.119
2024-11-02 22:52:55.286,40332.515,-0.064,0.337,-0.939,-0.236,-0.129,0.181,-0.497,-0.301,0.051,-0.068,-0.343,1.119
2024-11-02 22:52:55.296,40332.525,-0.066,0.341,-0.938,-0.214,-0.147,0.204,-0.433,-0.108,0.058,-0.07,-0.348,1.119
2024-11-02 22:52:55.306,40332.535,-0.065,0.345,-0.936,-0.251,0.003,0.078,-0.353,0.194,0.137,-0.069,-0.352,1.12
2024-11-02 22:52:55.316,40332.545,-0.062,0.349,-0.935,-0.378,0.06,-0.152,-0.605,0.207,0.181,-0.066,-0.357,1.121
2024-11-02 22:52:55.326,40332.555,-0.06,0.356,-0.932,-0.382,-0.083,-0.252,-0.892,0.065,0.142,-0.065,-0.365,1.123
2024-11-02 22:52:55.335,40332.565,-0.06,0.366,-0.929,-0.177,-0.207,-0.251,-1.012,0.006,0.122,-0.064,-0.374,1.123
2024-11-02 22:52:55.346,40332.574,-0.058,0.376,-0.925,0.035,-0.185,-0.271,-1.176,0.091,0.206,-0.063,-0.385,1.124
2024-11-02 22:52:55.355,40332.584,-0.058,0.386,-0.921,0.145,-0.049,-0.32,-0.947,-0.244,0.131,-0.063,-0.396,1.125
2024-11-02 22:52:55.366,40332.594,-0.06,0.391,-0.918,0.191,0.055,-0.325,-0.121,-0.117,0.038,-0.065,-0.402,1.126
2024-11-02 22:52:55.375,40332.604,-0.06,0.389,-0.919,0.264,0.123,-0.144,0.466,0.182,-0.038,-0.065,-0.4,1.126
2024-11-02 22:52:55.385,40332.614,-0.058,0.384,-0.922,0.331,0.275,-0.192,0.672,0.145,-0.051,-0.063,-0.394,1.126
2024-11-02 22:52:55.396,40332.624,-0.058,0.378,-0.924,0.272,0.167,-0.092,0.683,-0.07,-0.155,-0.063,-0.387,1.125
2024-11-02 22:52:55.405,40332.634,-0.06,0.371,-0.927,0.323,-0.087,0.043,0.675,-0.099,-0.171,-0.064,-0.38,1.124
2024-11-02 22:52:55.415,40332.644,-0.061,0.365,-0.929,0.363,-0.069,0.185,0.595,-0.067,-0.178,-0.066,-0.374,1.122
2024-11-02 22:52:55.425,40332.654,-0.062,0.36,-0.931,0.233,0.018,0.278,0.411,-0.103,-0.152,-0.067,-0.369,1.121
2024-11-02 22:52:55.435,40332.664,-0.065,0.357,-0.932,0.064,0.011,0.32,0.416,-0.201,-0.244,-0.069,-0.365,1.119
2024-11-02 22:52:55.445,40332.674,-0.066,0.352,-0.934,-0.066,-0.008,0.332,0.607,0.156,-0.364,-0.071,-0.359,1.116
2024-11-02 22:52:55.455,40332.684,-0.065,0.345,-0.936,-0.155,0.05,0.342,0.656,0.341,-0.319,-0.069,-0.353,1.113
2024-11-02 22:52:55.465,40332.694,-0.063,0.341,-0.938,-0.217,0.053,0.211,0.09,0.094,-0.043,-0.067,-0.348,1.111
2024-11-02 22:52:55.475,40332.704,-0.064,0.344,-0.937,-0.253,-0.153,0.078,-0.486,-0.243,0.026,-0.068,-0.351,1.111
2024-11-02 22:52:55.485,40332.714,-0.066,0.348,-0.935,-0.24,-0.131,0.089,-0.413,-0.117,0.051,-0.07,-0.356,1.111
2024-11-02 22:52:55.496,40332.724,-0.065,0.351,-0.934,-0.28,0.111,0.038,-0.173,0.163,0.171,-0.069,-0.358,1.112
2024-11-02 22:52:55.505,40332.734,-0.063,0.353,-0.934,-0.36,0.188,-0.118,-0.307,0.176,0.22,-0.067,-0.361,1.114
2024-11-02 22:52:55.515,40332.744,-0.061,0.357,-0.932,-0.338,0.104,-0.204,-0.579,0.014,0.199,-0.065,-0.365,1.116
2024-11-02 22:52:55.525,40332.754,-0.061,0.363,-0.93,-0.153,-0.03,-0.164,-0.648,-0.092,0.184,-0.065,-0.372,1.118
2024-11-02 22:52:55.535,40332.764,-0.06,0.369,-0.927,0.036,-0.112,-0.139,-0.616,0.046,0.221,-0.065,-0.378,1.12
2024-11-02 22:52:55.545,40332.774,-0.06,0.375,-0.925,0.142,-0.086,-0.165,-0.638,-0.189,0.19,-0.064,-0.385,1.122
2024-11-02 22:52:55.555,40332.784,-0.062,0.38,-0.923,0.191,-0.042,-0.255,-0.291,-0.294,0.055,-0.067,-0.39,1.122
2024-11-02 22:52:55.565,40332.794,-0.063,0.38,-0.923,0.191,-0.06,-0.182,0.262,-0.004,-0.078,-0.068,-0.39,1.122
2024-11-02 22:52:55.575,40332.804,-0.063,0.376,-0.924,0.278,0.01,-0.149,0.441,0.011,-0.073,-0.068,-0.386,1.122
2024-11-02 22:52:55.585,40332.814,-0.064,0.372,-0.926,0.258,0.01,-0.205,0.465,-0.106,-0.173,-0.069,-0.381,1.121
2024-11-02 22:52:55.595,40332.824,-0.066,0.368,-0.928,0.263,-0.115,-0.036,0.484,-0.13,-0.193,-0.071,-0.376,1.119
2024-11-02 22:52:55.605,40332.834,-0.068,0.363,-0.929,0.321,-0.103,0.096,0.411,-0.136,-0.129,-0.073,-0.372,1.118
2024-11-02 22:52:55.615,40332.844,-0.07,0.36,-0.93,0.238,-0.015,0.199,0.249,-0.16,-0.103,-0.075,-0.368,1.117
2024-11-02 22:52:55.625,40332.854,-0.071,0.358,-0.931,0.108,0.024,0.257,0.145,-0.178,-0.106,-0.077,-0.366,1.116
2024-11-02 22:52:55.635,40332.864,-0.074,0.356,-0.932,-0.011,0.065,0.264,0.372,-0.1,-0.24,-0.079,-0.364,1.114
2024-11-02 22:52:55.645,40332.874,-0.074,0.351,-0.933,-0.131,0.12,0.278,0.583,0.307,-0.291,-0.079,-0.359,1.112
2024-11-02 22:52:55.655,40332.884,-0.072,0.347,-0.935,-0.209,0.174,0.263,0.18,0.209,-0.16,-0.076,-0.354,1.11
2024-11-02 22:52:55.665,40332.894,-0.072,0.348,-0.935,-0.26,0.05,0.166,-0.335,-0.167,-0.081,-0.077,-0.355,1.108
2024-11-02 22:52:55.675,40332.904,-0.074,0.351,-0.933,-0.256,-0.129,0.184,-0.37,-0.132,-0.054,-0.079,-0.359,1.107
2024-11-02 22:52:55.685,40332.914,-0.074,0.354,-0.932,-0.23,-0.009,0.146,-0.213,0.128,0.079,-0.079,-0.362,1.107
2024-11-02 22:52:55.695,40332.924,-0.072,0.356,-0.932,-0.334,0.163,-0.03,-0.237,0.115,0.182,-0.077,-0.364,1.108
2024-11-02 22:52:55.705,40332.934,-0.07,0.359,-0.931,-0.402,0.067,-0.204,-0.362,0.095,0.187,-0.076,-0.367,1.11
2024-11-02 22:52:55.715,40332.944,-0.069,0.363,-0.929,-0.254,-0.072,-0.264,-0.471,0.13,0.204,-0.074,-0.371,1.112
2024-11-02 22:52:55.725,40332.954,-0.066,0.368,-0.927,-0.052,-0.135,-0.366,-0.664,0.209,0.226,-0.072,-0.377,1.114
2024-11-02 22:52:55.735,40332.964,-0.064,0.376,-0.924,0.067,-0.206,-0.463,-0.829,0.005,0.143,-0.069,-0.385,1.115
2024-11-02 22:52:55.745,40332.974,-0.064,0.382,-0.922,0.209,-0.13,-0.51,-0.499,-0.134,0.082,-0.069,-0.392,1.116
2024-11-02 22:52:55.755,40332.984,-0.065,0.384,-0.921,0.271,-0.038,-0.341,0.219,-0.113,-0.065,-0.07,-0.394,1.116
2024-11-02 22:52:55.764,40332.994,-0.066,0.379,-0.923,0.346,0.088,-0.09,0.742,0.07,-0.105,-0.071,-0.389,1.115
2024-11-02 22:52:55.775,40333.004,-0.065,0.372,-0.926,0.414,0.286,0.041,0.773,0.017,-0.074,-0.07,-0.381,1.115
2024-11-02 22:52:55.785,40333.014,-0.066,0.366,-0.928,0.396,0.167,0.218,0.527,-0.199,-0.062,-0.071,-0.374,1.115
2024-11-02 22:52:55.795,40333.024,-0.069,0.362,-0.93,0.402,-0.076,0.258,0.371,-0.254,-0.087,-0.074,-0.37,1.114
2024-11-02 22:52:55.805,40333.034,-0.071,0.359,-0.931,0.354,-0.093,0.316,0.254,-0.174,-0.069,-0.076,-0.367,1.114
2024-11-02 22:52:55.815,40333.044,-0.073,0.356,-0.931,0.162,-0.044,0.293,0.25,-0.195,-0.102,-0.078,-0.364,1.113
2024-11-02 22:52:55.825,40333.054,-0.075,0.352,-0.933,-0.06,-0.025,0.244,0.585,0.082,-0.235,-0.08,-0.36,1.112
2024-11-02 22:52:55.835,40333.064,-0.073,0.346,-0.935,-0.181,-0.012,0.279,0.698,0.377,-0.302,-0.078,-0.353,1.109
2024-11-02 22:52:55.845,40333.074,-0.071,0.341,-0.937,-0.19,0.027,0.281,0.186,0.171,-0.211,-0.076,-0.348,1.107
2024-11-02 22:52:55.855,40333.084,-0.072,0.342,-0.937,-0.213,-0.092,0.181,-0.445,-0.182,-0.113,-0.077,-0.35,1.105
2024-11-02 22:52:55.865,40333.094,-0.074,0.348,-0.935,-0.245,-0.24,0.181,-0.586,-0.178,-0.091,-0.079,-0.355,1.104
2024-11-02 22:52:55.876,40333.104,-0.075,0.352,-0.933,-0.313,-0.06,0.102,-0.273,0.16,-0.035,-0.08,-0.359,1.103
2024-11-02 22:52:55.885,40333.114,-0.072,0.353,-0.933,-0.476,0.177,-0.055,-0.177,0.353,0.08,-0.077,-0.361,1.103
2024-11-02 22:52:55.894,40333.124,-0.069,0.356,-0.932,-0.54,0.173,-0.199,-0.413,0.236,0.124,-0.073,-0.364,1.104
2024-11-02 22:52:55.904,40333.134,-0.066,0.361,-0.93,-0.385,0.036,-0.206,-0.575,0.178,0.116,-0.071,-0.369,1.104
2024-11-02 22:52:55.914,40333.144,-0.064,0.367,-0.928,-0.141,-0.053,-0.136,-0.658,0.139,0.172,-0.069,-0.376,1.106
2024-11-02 22:52:55.924,40333.154,-0.062,0.374,-0.925,0.016,-0.098,-0.149,-0.875,0.181,0.235,-0.067,-0.383,1.107
2024-11-02 22:52:55.934,40333.164,-0.061,0.382,-0.922,0.118,-0.091,-0.189,-0.845,-0.069,0.053,-0.067,-0.392,1.108
2024-11-02 22:52:55.944,40333.173,-0.062,0.388,-0.92,0.165,-0.06,-0.29,-0.451,-0.019,0.016,-0.067,-0.399,1.108
2024-11-02 22:52:55.954,40333.183,-0.062,0.39,-0.919,0.142,-0.053,-0.183,0.091,0.053,-0.15,-0.067,-0.4,1.107
2024-11-02 22:52:55.964,40333.193,-0.061,0.387,-0.92,0.233,0.055,-0.227,0.39,0.189,-0.129,-0.067,-0.398,1.106
2024-11-02 22:52:55.974,40333.203,-0.061,0.383,-0.922,0.336,0.135,-0.118,0.489,0.051,-0.206,-0.066,-0.393,1.104
2024-11-02 22:52:55.984,40333.213,-0.061,0.378,-0.924,0.398,0.006,-0.011,0.47,0.022,-0.185,-0.066,-0.388,1.102
2024-11-02 22:52:55.995,40333.223,-0.062,0.374,-0.925,0.444,-0.077,0.11,0.354,-0.006,-0.162,-0.067,-0.384,1.101
2024-11-02 22:52:56.005,40333.233,-0.063,0.372,-0.926,0.386,-0.057,0.232,0.189,-0.076,-0.121,-0.068,-0.381,1.1
2024-11-02 22:52:56.014,40333.243,-0.064,0.37,-0.927,0.243,-0.049,0.268,0.126,-0.107,-0.096,-0.069,-0.379,1.098
2024-11-02 22:52:56.024,40333.253,-0.066,0.367,-0.928,0.097,-0.01,0.271,0.56,0.001,-0.229,-0.071,-0.376,1.097
2024-11-02 22:52:56.034,40333.263,-0.064,0.359,-0.931,-0.033,0.072,0.265,1.066,0.489,-0.295,-0.069,-0.368,1.095
2024-11-02 22:52:56.044,40333.273,-0.06,0.351,-0.935,-0.13,0.171,0.26,0.669,0.444,-0.12,-0.064,-0.358,1.093
2024-11-02 22:52:56.054,40333.283,-0.059,0.349,-0.935,-0.2,0.082,0.154,-0.317,-0.137,0.012,-0.063,-0.356,1.093
2024-11-02 22:52:56.064,40333.293,-0.062,0.354,-0.933,-0.212,-0.141,0.174,-0.713,-0.387,-0.004,-0.066,-0.362,1.092
2024-11-02 22:52:56.074,40333.303,-0.064,0.36,-0.931,-0.235,-0.139,0.176,-0.384,-0.056,0.059,-0.068,-0.368,1.092
2024-11-02 22:52:56.084,40333.313,-0.062,0.362,-0.93,-0.388,0.121,-0.0,-0.106,0.221,0.138,-0.067,-0.37,1.093
2024-11-02 22:52:56.094,40333.323,-0.06,0.363,-0.93,-0.553,0.253,-0.222,-0.232,0.239,0.136,-0.064,-0.372,1.095
2024-11-02 22:52:56.104,40333.333,-0.058,0.367,-0.928,-0.498,0.081,-0.289,-0.602,0.093,0.155,-0.062,-0.376,1.096
2024-11-02 22:52:56.114,40333.343,-0.057,0.374,-0.926,-0.238,-0.136,-0.265,-0.861,0.003,0.151,-0.061,-0.383,1.097
2024-11-02 22:52:56.124,40333.353,-0.055,0.383,-0.922,-0.026,-0.218,-0.264,-1.109,0.265,0.174,-0.06,-0.393,1.098
2024-11-02 22:52:56.134,40333.363,-0.055,0.393,-0.918,0.093,-0.158,-0.283,-1.127,-0.132,0.068,-0.059,-0.404,1.099
2024-11-02 22:52:56.144,40333.373,-0.056,0.401,-0.914,0.141,-0.07,-0.353,-0.568,-0.204,0.062,-0.061,-0.413,1.099
2024-11-02 22:52:56.154,40333.383,-0.058,0.403,-0.914,0.136,-0.042,-0.123,0.272,-0.151,-0.059,-0.063,-0.414,1.099
2024-11-02 22:52:56.164,40333.393,-0.058,0.398,-0.916,0.259,0.091,-0.128,0.668,0.124,0.005,-0.063,-0.409,1.099
2024-11-02 22:52:56.174,40333.403,-0.058,0.392,-0.918,0.365,0.224,-0.051,0.627,-0.032,-0.028,-0.063,-0.403,1.099
2024-11-02 22:52:56.184,40333.413,-0.059,0.387,-0.92,0.384,0.019,0.035,0.453,-0.183,-0.026,-0.064,-0.397,1.099
2024-11-02 22:52:56.194,40333.423,-0.061,0.383,-0.922,0.442,-0.189,0.132,0.348,-0.169,-0.034,-0.066,-0.393,1.099
2024-11-02 22:52:56.204,40333.433,-0.062,0.381,-0.923,0.407,-0.156,0.221,0.164,-0.182,-0.027,-0.067,-0.391,1.099
2024-11-02 22:52:56.214,40333.443,-0.064,0.38,-0.923,0.23,-0.123,0.206,-0.08,-0.229,-0.055,-0.069,-0.39,1.099
2024-11-02 22:52:56.224,40333.453,-0.067,0.381,-0.922,0.072,-0.105,0.186,0.011,-0.217,-0.184,-0.073,-0.391,1.097
2024-11-02 22:52:56.234,40333.463,-0.068,0.379,-0.923,-0.058,-0.056,0.196,0.256,0.184,-0.239,-0.074,-0.389,1.095
2024-11-02 22:52:56.244,40333.473,-0.067,0.378,-0.924,-0.16,0.082,0.229,0.056,0.207,-0.112,-0.072,-0.387,1.093
2024-11-02 22:52:56.254,40333.483,-0.066,0.38,-0.923,-0.227,0.131,0.181,-0.505,-0.078,0.013,-0.072,-0.389,1.093
2024-11-02 22:52:56.266,40333.493,-0.068,0.386,-0.92,-0.245,-0.015,0.225,-0.808,-0.238,0.064,-0.073,-0.396,1.093
2024-11-02 22:52:56.274,40333.503,-0.069,0.393,-0.917,-0.222,0.013,0.25,-0.623,-0.164,0.095,-0.075,-0.404,1.093
2024-11-02 22:52:56.283,40333.513,-0.069,0.397,-0.915,-0.28,0.192,0.136,-0.267,0.067,0.131,-0.076,-0.408,1.094
2024-11-02 22:52:56.293,40333.523,-0.067,0.399,-0.915,-0.38,0.236,-0.056,-0.136,0.223,0.168,-0.073,-0.41,1.095
2024-11-02 22:52:56.303,40333.533,-0.065,0.4,-0.914,-0.407,0.107,-0.189,-0.247,0.144,0.182,-0.071,-0.412,1.097
2024-11-02 22:52:56.314,40333.543,-0.063,0.403,-0.913,-0.286,-0.044,-0.24,-0.343,0.065,0.169,-0.069,-0.415,1.099
2024-11-02 22:52:56.323,40333.553,-0.062,0.407,-0.911,-0.065,-0.126,-0.278,-0.551,0.201,0.233,-0.067,-0.419,1.101
2024-11-02 22:52:56.333,40333.563,-0.059,0.415,-0.908,0.118,-0.168,-0.345,-1.032,-0.119,0.31,-0.065,-0.428,1.103
2024-11-02 22:52:56.344,40333.573,-0.06,0.424,-0.904,0.207,-0.133,-0.434,-0.873,-0.196,0.318,-0.066,-0.438,1.106
2024-11-02 22:52:56.354,40333.583,-0.06,0.429,-0.902,0.2,-0.084,-0.262,-0.019,-0.051,0.163,-0.066,-0.443,1.108
2024-11-02 22:52:56.364,40333.593,-0.059,0.426,-0.903,0.299,0.07,-0.081,0.547,0.14,0.052,-0.065,-0.44,1.11
2024-11-02 22:52:56.374,40333.603,-0.059,0.42,-0.906,0.359,0.28,-0.021,0.741,-0.1,-0.11,-0.065,-0.433,1.11
2024-11-02 22:52:56.384,40333.613,-0.061,0.413,-0.909,0.36,0.14,0.135,0.654,-0.246,-0.158,-0.067,-0.426,1.109
2024-11-02 22:52:56.394,40333.623,-0.064,0.408,-0.911,0.415,-0.11,0.222,0.507,-0.249,-0.137,-0.07,-0.42,1.108
2024-11-02 22:52:56.404,40333.633,-0.066,0.404,-0.912,0.363,-0.111,0.296,0.37,-0.195,-0.119,-0.073,-0.416,1.106
2024-11-02 22:52:56.414,40333.643,-0.069,0.4,-0.914,0.137,-0.056,0.3,0.486,-0.246,-0.173,-0.075,-0.412,1.105
2024-11-02 22:52:56.424,40333.653,-0.07,0.394,-0.916,-0.057,-0.002,0.299,0.863,0.173,-0.242,-0.076,-0.405,1.104
2024-11-02 22:52:56.433,40333.663,-0.068,0.385,-0.92,-0.151,0.045,0.406,0.964,0.393,-0.317,-0.074,-0.395,1.101
2024-11-02 22:52:56.443,40333.673,-0.066,0.379,-0.923,-0.113,0.137,0.441,0.284,0.207,-0.19,-0.072,-0.388,1.099
2024-11-02 22:52:56.454,40333.683,-0.067,0.381,-0.922,-0.09,0.06,0.313,-0.772,-0.36,-0.006,-0.073,-0.391,1.098
2024-11-02 22:52:56.464,40333.693,-0.072,0.39,-0.918,-0.158,-0.181,0.04,-1.075,-0.51,0.079,-0.078,-0.401,1.097
2024-11-02 22:52:56.474,40333.703,-0.074,0.396,-0.915,-0.346,-0.147,-0.15,-0.178,0.126,0.047,-0.08,-0.408,1.098
2024-11-02 22:52:56.483,40333.713,-0.069,0.395,-0.916,-0.554,0.257,-0.256,0.385,0.625,0.175,-0.075,-0.406,1.099
2024-11-02 22:52:56.494,40333.723,-0.063,0.392,-0.918,-0.624,0.404,-0.424,0.128,0.448,0.21,-0.069,-0.403,1.101
2024-11-02 22:52:56.503,40333.733,-0.06,0.394,-0.917,-0.469,0.083,-0.296,-0.324,0.077,0.146,-0.066,-0.404,1.103
2024-11-02 22:52:56.514,40333.743,-0.059,0.398,-0.916,-0.091,-0.232,-0.153,-0.555,0.007,0.218,-0.065,-0.409,1.105
2024-11-02 22:52:56.524,40333.753,-0.057,0.405,-0.912,0.185,-0.267,-0.188,-1.007,0.074,0.363,-0.062,-0.417,1.107
2024-11-02 22:52:56.533,40333.763,-0.057,0.416,-0.908,0.238,-0.181,-0.283,-1.179,-0.231,0.376,-0.062,-0.429,1.11
2024-11-02 22:52:56.543,40333.772,-0.056,0.424,-0.904,0.185,-0.138,-0.293,-0.521,-0.067,0.318,-0.062,-0.438,1.114
2024-11-02 22:52:56.553,40333.782,-0.056,0.425,-0.904,0.226,-0.068,-0.1,0.306,-0.04,0.126,-0.062,-0.439,1.116
2024-11-02 22:52:56.563,40333.792,-0.055,0.42,-0.906,0.314,0.111,-0.103,0.691,0.056,-0.013,-0.061,-0.434,1.117
2024-11-02 22:52:56.573,40333.802,-0.056,0.414,-0.909,0.351,0.135,0.062,0.632,-0.071,-0.08,-0.061,-0.427,1.117
2024-11-02 22:52:56.583,40333.812,-0.058,0.409,-0.911,0.368,-0.086,0.173,0.409,-0.276,-0.085,-0.063,-0.421,1.116
2024-11-02 22:52:56.593,40333.822,-0.061,0.406,-0.912,0.352,-0.255,0.239,0.292,-0.264,-0.143,-0.066,-0.418,1.115
2024-11-02 22:52:56.603,40333.832,-0.063,0.403,-0.913,0.249,-0.184,0.245,0.317,-0.151,-0.17,-0.069,-0.415,1.114
2024-11-02 22:52:56.613,40333.842,-0.066,0.398,-0.915,0.05,-0.07,0.191,0.849,-0.08,-0.356,-0.071,-0.409,1.112
2024-11-02 22:52:56.623,40333.852,-0.065,0.387,-0.92,-0.119,0.036,0.2,1.354,0.586,-0.475,-0.07,-0.398,1.108
2024-11-02 22:52:56.633,40333.862,-0.06,0.377,-0.924,-0.133,0.229,0.305,0.662,0.628,-0.304,-0.065,-0.386,1.104
2024-11-02 22:52:56.644,40333.872,-0.059,0.378,-0.924,-0.08,0.228,0.09,-0.882,-0.334,0.138,-0.063,-0.387,1.103
2024-11-02 22:52:56.653,40333.882,-0.064,0.389,-0.919,-0.168,-0.223,0.037,-1.226,-0.734,0.117,-0.069,-0.399,1.104
2024-11-02 22:52:56.664,40333.892,-0.067,0.395,-0.916,-0.2,-0.165,0.228,-0.101,0.049,0.098,-0.073,-0.406,1.105
2024-11-02 22:52:56.673,40333.902,-0.063,0.393,-0.917,-0.264,0.516,0.105,0.431,0.515,0.319,-0.069,-0.404,1.107
2024-11-02 22:52:56.684,40333.912,-0.058,0.39,-0.919,-0.499,0.609,-0.193,0.161,0.359,0.302,-0.063,-0.401,1.111
2024-11-02 22:52:56.693,40333.922,-0.055,0.391,-0.919,-0.5,0.121,-0.198,-0.232,0.071,0.162,-0.059,-0.402,1.113
2024-11-02 22:52:56.703,40333.932,-0.054,0.395,-0.917,-0.157,-0.221,-0.128,-0.543,-0.02,0.142,-0.059,-0.406,1.115
2024-11-02 22:52:56.713,40333.942,-0.053,0.402,-0.914,0.059,-0.297,-0.112,-1.167,0.0,0.296,-0.058,-0.414,1.116
2024-11-02 22:52:56.723,40333.952,-0.054,0.415,-0.908,0.064,-0.287,-0.152,-1.452,-0.531,0.366,-0.06,-0.428,1.119
2024-11-02 22:52:56.733,40333.962,-0.057,0.425,-0.903,0.064,-0.263,-0.188,-0.637,-0.383,0.226,-0.063,-0.439,1.122
2024-11-02 22:52:56.743,40333.972,-0.058,0.426,-0.903,0.181,-0.071,-0.109,0.25,0.03,0.165,-0.064,-0.44,1.124
2024-11-02 22:52:56.753,40333.982,-0.057,0.423,-0.905,0.247,0.292,-0.295,0.579,0.028,0.122,-0.063,-0.436,1.126
2024-11-02 22:52:56.763,40333.992,-0.058,0.417,-0.907,0.196,0.261,-0.301,0.736,-0.22,-0.09,-0.064,-0.43,1.126
2024-11-02 22:52:56.773,40334.002,-0.06,0.409,-0.91,0.292,-0.061,-0.141,0.855,-0.082,-0.169,-0.066,-0.422,1.125
2024-11-02 22:52:56.783,40334.012,-0.061,0.402,-0.914,0.445,-0.109,0.031,0.702,-0.058,-0.115,-0.067,-0.414,1.124
2024-11-02 22:52:56.793,40334.022,-0.062,0.397,-0.916,0.347,-0.1,0.131,0.406,-0.183,-0.116,-0.068,-0.408,1.124
2024-11-02 22:52:56.803,40334.032,-0.065,0.394,-0.917,0.193,-0.212,0.225,0.221,-0.167,-0.17,-0.07,-0.405,1.122
2024-11-02 22:52:56.813,40334.042,-0.067,0.391,-0.918,0.132,-0.162,0.281,0.399,-0.204,-0.27,-0.073,-0.402,1.12
2024-11-02 22:52:56.823,40334.052,-0.068,0.385,-0.92,-0.006,-0.035,0.274,0.919,0.327,-0.416,-0.074,-0.395,1.117
2024-11-02 22:52:56.833,40334.062,-0.065,0.376,-0.925,-0.153,0.069,0.374,0.926,0.64,-0.438,-0.07,-0.385,1.113
2024-11-02 22:52:56.843,40334.072,-0.062,0.371,-0.927,-0.143,0.146,0.391,-0.068,0.233,-0.263,-0.067,-0.38,1.109
2024-11-02 22:52:56.853,40334.082,-0.063,0.377,-0.924,-0.132,-0.045,0.253,-1.089,-0.364,-0.013,-0.068,-0.386,1.108
2024-11-02 22:52:56.863,40334.092,-0.067,0.387,-0.92,-0.172,-0.205,0.209,-1.019,-0.466,0.043,-0.073,-0.398,1.107
2024-11-02 22:52:56.873,40334.102,-0.069,0.393,-0.917,-0.279,-0.013,0.118,-0.205,0.202,0.12,-0.075,-0.404,1.107
2024-11-02 22:52:56.883,40334.112,-0.064,0.393,-0.917,-0.448,0.388,-0.139,0.144,0.485,0.299,-0.07,-0.404,1.11
2024-11-02 22:52:56.893,40334.122,-0.059,0.392,-0.918,-0.572,0.437,-0.378,0.024,0.326,0.299,-0.064,-0.403,1.113
2024-11-02 22:52:56.903,40334.132,-0.056,0.393,-0.918,-0.455,0.082,-0.279,-0.225,0.083,0.249,-0.061,-0.404,1.116
2024-11-02 22:52:56.913,40334.142,-0.055,0.397,-0.916,-0.073,-0.129,-0.146,-0.581,-0.004,0.306,-0.06,-0.408,1.119
2024-11-02 22:52:56.923,40334.152,-0.054,0.406,-0.912,0.165,-0.167,-0.11,-1.193,-0.376,0.445,-0.059,-0.418,1.122
2024-11-02 22:52:56.933,40334.162,-0.057,0.416,-0.907,0.212,-0.191,-0.187,-0.956,-0.535,0.339,-0.063,-0.429,1.126
2024-11-02 22:52:56.943,40334.172,-0.059,0.421,-0.905,0.195,-0.174,-0.181,-0.109,-0.032,0.223,-0.065,-0.435,1.128
2024-11-02 22:52:56.953,40334.182,-0.057,0.421,-0.905,0.234,0.047,-0.248,0.215,-0.005,0.174,-0.063,-0.434,1.131
2024-11-02 22:52:56.963,40334.192,-0.058,0.418,-0.907,0.167,0.189,-0.398,0.383,-0.204,-0.022,-0.064,-0.431,1.132
2024-11-02 22:52:56.973,40334.202,-0.061,0.413,-0.908,0.19,-0.043,-0.189,0.59,-0.265,-0.172,-0.067,-0.426,1.131
2024-11-02 22:52:56.983,40334.212,-0.064,0.407,-0.911,0.371,-0.157,0.024,0.712,-0.172,-0.188,-0.07,-0.42,1.13
2024-11-02 22:52:56.993,40334.222,-0.066,0.401,-0.914,0.363,-0.07,0.183,0.604,-0.172,-0.154,-0.072,-0.413,1.128
2024-11-02 22:52:57.003,40334.232,-0.068,0.396,-0.916,0.238,-0.074,0.286,0.384,-0.218,-0.132,-0.074,-0.408,1.127
2024-11-02 22:52:57.013,40334.242,-0.071,0.394,-0.917,0.165,-0.079,0.303,0.22,-0.194,-0.128,-0.077,-0.405,1.126
2024-11-02 22:52:57.022,40334.252,-0.073,0.39,-0.918,0.062,-0.029,0.295,0.634,-0.113,-0.358,-0.08,-0.401,1.124
2024-11-02 22:52:57.033,40334.262,-0.072,0.381,-0.922,-0.109,0.066,0.305,1.167,0.627,-0.512,-0.079,-0.391,1.12
2024-11-02 22:52:57.043,40334.272,-0.067,0.371,-0.926,-0.203,0.232,0.399,0.7,0.684,-0.295,-0.073,-0.381,1.116
2024-11-02 22:52:57.053,40334.282,-0.066,0.372,-0.926,-0.172,0.146,0.24,-0.897,-0.345,0.037,-0.071,-0.382,1.115
2024-11-02 22:52:57.063,40334.292,-0.072,0.384,-0.921,-0.185,-0.3,0.094,-1.325,-0.746,-0.037,-0.078,-0.394,1.114
2024-11-02 22:52:57.072,40334.302,-0.075,0.391,-0.917,-0.22,-0.231,0.214,-0.171,0.067,0.005,-0.082,-0.402,1.113
2024-11-02 22:52:57.083,40334.312,-0.071,0.389,-0.918,-0.323,0.402,0.038,0.469,0.583,0.302,-0.077,-0.4,1.115
2024-11-02 22:52:57.092,40334.322,-0.065,0.386,-0.92,-0.535,0.6,-0.304,0.259,0.391,0.318,-0.071,-0.396,1.119
2024-11-02 22:52:57.102,40334.332,-0.062,0.385,-0.921,-0.514,0.176,-0.262,-0.139,0.062,0.186,-0.067,-0.395,1.121
2024-11-02 22:52:57.113,40334.342,-0.062,0.388,-0.919,-0.111,-0.179,-0.158,-0.522,-0.043,0.194,-0.067,-0.399,1.123
2024-11-02 22:52:57.122,40334.352,-0.06,0.396,-0.916,0.147,-0.274,-0.177,-1.257,0.081,0.345,-0.065,-0.408,1.125
2024-11-02 22:52:57.132,40334.362,-0.061,0.41,-0.91,0.133,-0.31,-0.245,-1.554,-0.521,0.31,-0.067,-0.422,1.128
2024-11-02 22:52:57.142,40334.371,-0.064,0.421,-0.905,0.089,-0.339,-0.247,-0.69,-0.382,0.126,-0.071,-0.434,1.129
2024-11-02 22:52:57.152,40334.381,-0.067,0.423,-0.904,0.203,-0.196,-0.045,0.102,-0.17,0.024,-0.074,-0.437,1.13
2024-11-02 22:52:57.162,40334.391,-0.068,0.42,-0.905,0.311,0.123,-0.203,0.427,-0.11,-0.039,-0.075,-0.434,1.13
2024-11-02 22:52:57.172,40334.401,-0.07,0.416,-0.907,0.274,0.119,-0.162,0.461,-0.234,-0.152,-0.077,-0.429,1.129
2024-11-02 22:52:57.182,40334.411,-0.073,0.412,-0.908,0.342,-0.159,-0.075,0.422,-0.268,-0.203,-0.08,-0.425,1.128
2024-11-02 22:52:57.192,40334.421,-0.076,0.408,-0.91,0.405,-0.159,0.01,0.476,-0.216,-0.214,-0.083,-0.42,1.126
2024-11-02 22:52:57.202,40334.431,-0.078,0.404,-0.912,0.279,-0.021,0.078,0.452,-0.1,-0.178,-0.086,-0.415,1.124
2024-11-02 22:52:57.212,40334.441,-0.08,0.4,-0.913,0.108,0.047,0.137,0.356,-0.062,-0.166,-0.087,-0.411,1.123
2024-11-02 22:52:57.222,40334.451,-0.081,0.395,-0.915,-0.018,0.111,0.22,0.607,-0.11,-0.318,-0.089,-0.407,1.121
2024-11-02 22:52:57.232,40334.461,-0.082,0.388,-0.918,-0.123,0.134,0.347,1.024,0.442,-0.452,-0.089,-0.398,1.117
2024-11-02 22:52:57.242,40334.471,-0.078,0.379,-0.922,-0.164,0.2,0.416,0.707,0.533,-0.235,-0.084,-0.388,1.114
2024-11-02 22:52:57.252,40334.481,-0.077,0.377,-0.923,-0.201,0.154,0.24,-0.456,-0.306,0.063,-0.083,-0.387,1.114
2024-11-02 22:52:57.262,40334.491,-0.081,0.384,-0.92,-0.248,-0.172,0.165,-0.834,-0.595,0.032,-0.088,-0.394,1.113
2024-11-02 22:52:57.272,40334.501,-0.084,0.389,-0.917,-0.201,-0.133,0.238,-0.183,-0.042,0.129,-0.092,-0.4,1.114
2024-11-02 22:52:57.284,40334.511,-0.082,0.389,-0.917,-0.285,0.256,0.028,0.043,0.269,0.294,-0.089,-0.4,1.116
2024-11-02 22:52:57.293,40334.521,-0.079,0.39,-0.917,-0.473,0.308,-0.287,-0.147,0.133,0.242,-0.086,-0.401,1.119
2024-11-02 22:52:57.302,40334.531,-0.078,0.393,-0.916,-0.38,0.042,-0.289,-0.347,0.007,0.106,-0.085,-0.403,1.121
2024-11-02 22:52:57.312,40334.541,-0.077,0.397,-0.915,-0.025,-0.125,-0.209,-0.633,0.096,0.175,-0.084,-0.408,1.122
2024-11-02 22:52:57.322,40334.551,-0.077,0.404,-0.912,0.198,-0.106,-0.199,-0.844,-0.278,0.225,-0.084,-0.416,1.123
2024-11-02 22:52:57.332,40334.561,-0.079,0.41,-0.909,0.235,-0.066,-0.25,-0.382,-0.156,0.145,-0.087,-0.422,1.125
2024-11-02 22:52:57.342,40334.571,-0.079,0.411,-0.908,0.205,-0.094,-0.122,0.088,0.061,0.103,-0.087,-0.424,1.126
2024-11-02 22:52:57.352,40334.581,-0.078,0.41,-0.909,0.24,-0.028,-0.202,0.111,0.078,0.054,-0.085,-0.423,1.127
2024-11-02 22:52:57.362,40334.591,-0.078,0.409,-0.909,0.209,-0.054,-0.177,0.009,-0.081,-0.088,-0.086,-0.422,1.127
2024-11-02 22:52:57.372,40334.601,-0.08,0.409,-0.909,0.236,-0.272,-0.019,-0.024,-0.131,-0.174,-0.087,-0.422,1.125
2024-11-02 22:52:57.383,40334.611,-0.081,0.41,-0.909,0.281,-0.256,0.141,-0.1,-0.057,-0.172,-0.089,-0.422,1.123
2024-11-02 22:52:57.392,40334.621,-0.082,0.412,-0.908,0.189,-0.059,0.223,-0.366,-0.048,-0.118,-0.09,-0.424,1.122
2024-11-02 22:52:57.402,40334.631,-0.083,0.416,-0.905,0.034,-0.026,0.229,-0.699,0.009,-0.133,-0.091,-0.43,1.12
2024-11-02 22:52:57.413,40334.641,-0.083,0.424,-0.902,-0.074,-0.059,0.217,-1.004,0.131,-0.097,-0.092,-0.438,1.118
2024-11-02 22:52:57.422,40334.651,-0.082,0.434,-0.897,-0.125,-0.058,0.183,-1.304,0.24,-0.057,-0.091,-0.449,1.116
2024-11-02 22:52:57.433,40334.661,-0.079,0.448,-0.891,-0.177,-0.173,0.143,-1.717,0.313,-0.077,-0.089,-0.464,1.113
2024-11-02 22:52:57.442,40334.671,-0.077,0.465,-0.882,-0.209,-0.333,0.161,-2.13,0.354,-0.117,-0.087,-0.483,1.11
2024-11-02 22:52:57.452,40334.681,-0.074,0.485,-0.872,-0.181,-0.388,0.21,-2.452,0.437,-0.107,-0.085,-0.506,1.107
2024-11-02 22:52:57.462,40334.691,-0.07,0.506,-0.859,-0.128,-0.456,0.204,-2.585,0.603,-0.089,-0.081,-0.531,1.103
2024-11-02 22:52:57.472,40334.701,-0.065,0.528,-0.847,-0.146,-0.454,0.124,-2.498,0.765,-0.056,-0.076,-0.556,1.1
2024-11-02 22:52:57.482,40334.711,-0.058,0.549,-0.834,-0.141,-0.12,-0.082,-2.429,0.752,-0.005,-0.07,-0.581,1.098
2024-11-02 22:52:57.491,40334.721,-0.053,0.566,-0.823,-0.114,0.233,-0.293,-1.608,0.657,-0.168,-0.065,-0.601,1.095
2024-11-02 22:52:57.501,40334.731,-0.049,0.576,-0.816,-0.139,0.393,-0.293,-1.02,0.698,-0.108,-0.059,-0.614,1.092
2024-11-02 22:52:57.511,40334.741,-0.044,0.583,-0.811,-0.051,0.383,-0.152,-0.709,0.532,-0.057,-0.054,-0.623,1.091
2024-11-02 22:52:57.521,40334.751,-0.041,0.588,-0.808,0.054,0.367,0.005,-0.512,0.302,-0.093,-0.051,-0.629,1.089
2024-11-02 22:52:57.532,40334.761,-0.039,0.591,-0.806,0.086,0.28,0.072,-0.257,0.207,0.007,-0.049,-0.632,1.089
2024-11-02 22:52:57.542,40334.771,-0.037,0.592,-0.805,0.106,0.241,0.09,-0.055,0.157,0.081,-0.046,-0.634,1.089
2024-11-02 22:52:57.551,40334.781,-0.036,0.592,-0.805,0.095,0.225,0.103,0.084,0.095,0.06,-0.045,-0.634,1.09
2024-11-02 22:52:57.561,40334.791,-0.035,0.591,-0.806,0.061,0.154,0.087,0.127,0.046,0.032,-0.044,-0.633,1.091
2024-11-02 22:52:57.571,40334.801,-0.035,0.59,-0.806,0.037,0.061,0.037,0.109,0.046,0.01,-0.043,-0.631,1.091
2024-11-02 22:52:57.581,40334.811,-0.034,0.59,-0.807,0.005,-0.004,0.0,0.025,0.101,-0.004,-0.042,-0.631,1.091
2024-11-02 22:52:57.592,40334.821,-0.033,0.59,-0.807,-0.04,-0.034,-0.024,-0.101,0.18,-0.034,-0.041,-0.631,1.091
2024-11-02 22:52:57.601,40334.831,-0.031,0.591,-0.806,-0.07,-0.042,-0.022,-0.228,0.268,-0.048,-0.039,-0.633,1.09
2024-11-02 22:52:57.612,40334.841,-0.029,0.594,-0.804,-0.078,-0.053,-0.028,-0.411,0.33,-0.053,-0.037,-0.636,1.089
2024-11-02 22:52:57.622,40334.851,-0.027,0.598,-0.801,-0.053,-0.061,-0.054,-0.576,0.34,-0.051,-0.034,-0.641,1.089
2024-11-02 22:52:57.632,40334.861,-0.025,0.603,-0.797,-0.022,-0.07,-0.062,-0.676,0.299,-0.068,-0.031,-0.647,1.088
2024-11-02 22:52:57.642,40334.871,-0.023,0.608,-0.793,-0.002,-0.091,-0.051,-0.691,0.247,-0.091,-0.029,-0.654,1.086
2024-11-02 22:52:57.652,40334.881,-0.022,0.614,-0.789,0.027,-0.059,-0.047,-0.628,0.236,-0.08,-0.028,-0.661,1.085
2024-11-02 22:52:57.662,40334.891,-0.02,0.618,-0.786,0.047,0.007,-0.067,-0.585,0.226,-0.065,-0.026,-0.667,1.084
2024-11-02 22:52:57.671,40334.901,-0.019,0.623,-0.782,0.041,0.026,-0.071,-0.597,0.204,-0.066,-0.024,-0.672,1.083
2024-11-02 22:52:57.682,40334.911,-0.018,0.628,-0.778,0.037,0.017,-0.052,-0.65,0.17,-0.051,-0.023,-0.679,1.082
2024-11-02 22:52:57.692,40334.921,-0.017,0.633,-0.774,0.045,0.006,-0.021,-0.754,0.156,-0.042,-0.022,-0.686,1.081
2024-11-02 22:52:57.702,40334.931,-0.016,0.64,-0.769,0.053,-0.018,-0.002,-0.958,0.164,-0.05,-0.021,-0.694,1.08
2024-11-02 22:52:57.712,40334.941,-0.015,0.648,-0.762,0.049,-0.049,-0.001,-1.2,0.171,-0.044,-0.02,-0.705,1.079
2024-11-02 22:52:57.721,40334.951,-0.014,0.658,-0.753,0.021,-0.086,-0.008,-1.414,0.185,-0.019,-0.019,-0.718,1.079
2024-11-02 22:52:57.732,40334.961,-0.013,0.669,-0.743,-0.005,-0.103,-0.027,-1.517,0.199,-0.023,-0.017,-0.732,1.078
2024-11-02 22:52:57.742,40334.97,-0.011,0.68,-0.733,-0.016,-0.086,-0.05,-1.571,0.223,-0.013,-0.015,-0.748,1.077
2024-11-02 22:52:57.751,40334.98,-0.01,0.691,-0.723,-0.023,-0.062,-0.059,-1.469,0.189,-0.024,-0.014,-0.763,1.077
2024-11-02 22:52:57.761,40334.99,-0.009,0.701,-0.713,-0.015,-0.066,-0.07,-1.347,0.147,-0.005,-0.012,-0.777,1.076
2024-11-02 22:52:57.771,40335.0,-0.008,0.71,-0.704,0.006,-0.074,-0.077,-1.19,0.096,0.004,-0.011,-0.79,1.076
2024-11-02 22:52:57.781,40335.01,-0.007,0.718,-0.696,0.016,-0.019,-0.056,-0.962,0.045,0.016,-0.011,-0.801,1.076
2024-11-02 22:52:57.791,40335.02,-0.007,0.724,-0.69,0.014,0.059,-0.043,-0.755,0.058,0.055,-0.01,-0.809,1.076
2024-11-02 22:52:57.802,40335.03,-0.006,0.728,-0.685,0.019,0.142,-0.052,-0.603,0.118,0.103,-0.008,-0.816,1.078
2024-11-02 22:52:57.811,40335.04,-0.004,0.732,-0.681,0.018,0.185,-0.06,-0.434,0.142,0.115,-0.006,-0.821,1.079
2024-11-02 22:52:57.821,40335.05,-0.002,0.734,-0.679,0.009,0.147,-0.061,-0.289,0.147,0.104,-0.003,-0.825,1.081
2024-11-02 22:52:57.831,40335.06,-0.0,0.736,-0.677,0.02,0.09,-0.047,-0.259,0.155,0.087,-0.001,-0.827,1.082
2024-11-02 22:52:57.841,40335.07,0.001,0.738,-0.674,0.037,0.058,-0.008,-0.373,0.129,0.071,0.002,-0.831,1.083
2024-11-02 22:52:57.852,40335.08,0.002,0.741,-0.671,0.032,-0.002,0.048,-0.548,0.088,0.056,0.004,-0.835,1.084
2024-11-02 22:52:57.861,40335.09,0.003,0.746,-0.666,0.021,-0.078,0.088,-0.732,0.06,0.028,0.005,-0.842,1.085
2024-11-02 22:52:57.872,40335.1,0.004,0.751,-0.66,0.012,-0.1,0.116,-0.843,0.06,0.008,0.006,-0.849,1.085
2024-11-02 22:52:57.881,40335.11,0.004,0.757,-0.654,0.001,-0.08,0.131,-0.875,0.073,-0.014,0.006,-0.858,1.085
2024-11-02 22:52:57.892,40335.12,0.004,0.762,-0.647,-0.012,-0.072,0.136,-0.833,0.069,-0.033,0.007,-0.867,1.085
2024-11-02 22:52:57.902,40335.13,0.004,0.767,-0.642,-0.02,-0.066,0.137,-0.612,-0.089,-0.028,0.007,-0.874,1.085
2024-11-02 22:52:57.911,40335.14,0.003,0.77,-0.638,-0.019,-0.047,0.104,-0.309,-0.115,-0.029,0.005,-0.879,1.084
2024-11-02 22:52:57.921,40335.15,0.003,0.771,-0.637,-0.014,0.018,0.084,0.001,-0.068,-0.009,0.004,-0.88,1.084
2024-11-02 22:52:57.931,40335.16,0.002,0.77,-0.638,-0.013,0.054,0.064,0.162,-0.081,0.019,0.003,-0.879,1.084
2024-11-02 22:52:57.941,40335.17,0.002,0.769,-0.639,-0.013,0.076,0.01,0.293,-0.102,0.03,0.003,-0.877,1.084
2024-11-02 22:52:57.951,40335.18,0.001,0.767,-0.642,-0.008,0.106,0.019,0.355,-0.113,0.03,0.002,-0.874,1.085
2024-11-02 22:52:57.961,40335.19,0.001,0.764,-0.645,-0.001,0.119,0.02,0.363,-0.12,0.035,0.001,-0.87,1.085
2024-11-02 22:52:57.971,40335.2,0.0,0.762,-0.647,-0.005,0.116,0.028,0.352,-0.114,0.057,0.001,-0.867,1.086
2024-11-02 22:52:57.981,40335.21,0.0,0.76,-0.65,-0.008,0.075,0.035,0.318,-0.132,0.072,0.0,-0.863,1.087
2024-11-02 22:52:57.991,40335.22,-0.001,0.758,-0.653,-0.008,0.025,0.021,0.424,-0.197,0.042,-0.001,-0.86,1.088
2024-11-02 22:52:58.001,40335.23,-0.002,0.754,-0.656,-0.015,-0.001,-0.005,0.52,-0.233,0.011,-0.003,-0.855,1.088
2024-11-02 22:52:58.011,40335.24,-0.003,0.751,-0.661,-0.017,-0.003,-0.025,0.627,-0.242,0.008,-0.005,-0.849,1.089
2024-11-02 22:52:58.021,40335.25,-0.005,0.746,-0.666,-0.017,0.018,-0.031,0.709,-0.221,0.009,-0.007,-0.842,1.089
2024-11-02 22:52:58.031,40335.26,-0.006,0.741,-0.671,-0.028,0.027,-0.027,0.801,-0.174,-0.025,-0.009,-0.835,1.089
2024-11-02 22:52:58.041,40335.27,-0.008,0.735,-0.678,-0.034,0.034,-0.004,0.967,-0.136,-0.067,-0.011,-0.826,1.088
2024-11-02 22:52:58.052,40335.28,-0.009,0.728,-0.685,-0.016,0.04,0.006,1.106,-0.099,-0.078,-0.013,-0.816,1.087
2024-11-02 22:52:58.061,40335.29,-0.01,0.72,-0.694,0.021,0.025,0.011,1.173,-0.099,-0.054,-0.014,-0.804,1.087
2024-11-02 22:52:58.071,40335.3,-0.011,0.712,-0.702,0.055,0.001,0.032,1.157,-0.089,-0.053,-0.016,-0.793,1.086
2024-11-02 22:52:58.081,40335.31,-0.012,0.704,-0.71,0.08,-0.03,0.045,1.133,-0.146,-0.073,-0.017,-0.781,1.085
2024-11-02 22:52:58.091,40335.32,-0.014,0.696,-0.718,0.097,-0.051,0.049,1.097,-0.161,-0.088,-0.019,-0.77,1.085
2024-11-02 22:52:58.101,40335.33,-0.016,0.688,-0.726,0.098,-0.03,0.044,1.268,-0.21,-0.154,-0.022,-0.758,1.083
2024-11-02 22:52:58.111,40335.34,-0.019,0.677,-0.736,0.092,0.045,0.026,1.649,-0.207,-0.211,-0.026,-0.744,1.081
2024-11-02 22:52:58.121,40335.35,-0.022,0.663,-0.748,0.078,0.094,-0.007,2.08,-0.146,-0.236,-0.029,-0.725,1.079
2024-11-02 22:52:58.131,40335.36,-0.024,0.647,-0.762,0.05,0.129,-0.047,2.307,-0.077,-0.227,-0.032,-0.703,1.077
2024-11-02 22:52:58.141,40335.37,-0.026,0.629,-0.777,0.025,0.131,-0.043,2.286,-0.072,-0.224,-0.033,-0.68,1.075
2024-11-02 22:52:58.151,40335.38,-0.028,0.612,-0.791,0.019,0.079,-0.003,2.028,-0.146,-0.186,-0.036,-0.658,1.073
2024-11-02 22:52:58.161,40335.39,-0.031,0.597,-0.802,0.032,-0.007,0.045,1.65,-0.234,-0.127,-0.038,-0.64,1.072
2024-11-02 22:52:58.171,40335.4,-0.033,0.585,-0.81,0.058,-0.078,0.092,1.269,-0.301,-0.09,-0.041,-0.625,1.071
2024-11-02 22:52:58.181,40335.41,-0.036,0.576,-0.816,0.069,-0.102,0.122,0.992,-0.372,-0.051,-0.045,-0.614,1.071
2024-11-02 22:52:58.190,40335.42,-0.04,0.568,-0.822,0.061,-0.098,0.131,0.948,-0.46,-0.07,-0.049,-0.605,1.071
2024-11-02 22:52:58.201,40335.43,-0.045,0.56,-0.827,0.052,-0.073,0.117,1.166,-0.477,-0.122,-0.054,-0.594,1.07
2024-11-02 22:52:58.211,40335.44,-0.049,0.549,-0.835,0.031,-0.013,0.087,1.492,-0.406,-0.154,-0.059,-0.581,1.07
2024-11-02 22:52:58.221,40335.45,-0.053,0.536,-0.843,-0.018,0.054,0.034,1.603,-0.338,-0.161,-0.063,-0.565,1.069
2024-11-02 22:52:58.231,40335.46,-0.057,0.522,-0.851,-0.085,0.097,-0.019,1.697,-0.337,-0.116,-0.066,-0.549,1.068
2024-11-02 22:52:58.241,40335.47,-0.06,0.507,-0.86,-0.141,0.11,-0.053,1.754,-0.343,-0.032,-0.07,-0.531,1.069
2024-11-02 22:52:58.251,40335.48,-0.063,0.492,-0.869,-0.139,0.083,-0.036,1.727,-0.26,0.038,-0.072,-0.514,1.07
2024-11-02 22:52:58.261,40335.49,-0.064,0.478,-0.876,-0.092,0.087,-0.047,1.486,-0.124,0.1,-0.073,-0.498,1.073
2024-11-02 22:52:58.271,40335.5,-0.064,0.467,-0.882,-0.033,0.057,-0.119,0.968,0.039,0.173,-0.072,-0.486,1.075
2024-11-02 22:52:58.281,40335.51,-0.062,0.461,-0.885,0.007,-0.068,-0.221,0.325,0.119,0.196,-0.07,-0.479,1.078
2024-11-02 22:52:58.291,40335.52,-0.06,0.461,-0.885,0.059,-0.221,-0.268,-0.181,0.081,0.15,-0.068,-0.479,1.08
2024-11-02 22:52:58.301,40335.53,-0.059,0.463,-0.884,0.145,-0.27,-0.275,-0.274,0.025,0.058,-0.067,-0.481,1.081
2024-11-02 22:52:58.311,40335.54,-0.059,0.465,-0.884,0.198,-0.217,-0.205,-0.051,0.071,-0.013,-0.066,-0.483,1.081
2024-11-02 22:52:58.321,40335.55,-0.058,0.464,-0.884,0.199,-0.147,-0.052,0.194,0.113,-0.081,-0.066,-0.482,1.08
2024-11-02 22:52:58.330,40335.56,-0.057,0.461,-0.885,0.172,-0.05,0.091,0.303,0.139,-0.034,-0.065,-0.48,1.08
2024-11-02 22:52:58.341,40335.569,-0.057,0.459,-0.886,0.155,0.014,0.23,0.146,-0.018,0.026,-0.064,-0.477,1.08
2024-11-02 22:52:58.351,40335.579,-0.058,0.459,-0.887,0.143,-0.017,0.312,0.034,-0.221,0.021,-0.065,-0.477,1.08
2024-11-02 22:52:58.361,40335.589,-0.06,0.458,-0.887,0.102,-0.013,0.383,0.127,-0.266,-0.028,-0.067,-0.476,1.08
2024-11-02 22:52:58.371,40335.599,-0.063,0.455,-0.888,0.027,0.066,0.393,0.483,-0.246,-0.11,-0.07,-0.473,1.08
2024-11-02 22:52:58.380,40335.609,-0.064,0.45,-0.891,-0.1,0.162,0.305,0.777,0.087,-0.092,-0.072,-0.466,1.079
2024-11-02 22:52:58.391,40335.619,-0.063,0.443,-0.894,-0.211,0.217,0.188,0.561,0.169,0.065,-0.07,-0.459,1.079
2024-11-02 22:52:58.401,40335.629,-0.062,0.441,-0.895,-0.291,0.164,0.029,0.016,-0.166,0.223,-0.069,-0.457,1.081
2024-11-02 22:52:58.410,40335.639,-0.064,0.442,-0.895,-0.324,0.013,-0.038,-0.115,-0.353,0.158,-0.071,-0.458,1.083
2024-11-02 22:52:58.420,40335.649,-0.065,0.442,-0.895,-0.303,-0.032,-0.13,0.148,-0.135,0.157,-0.073,-0.458,1.085
2024-11-02 22:52:58.430,40335.659,-0.065,0.44,-0.896,-0.313,0.055,-0.242,0.336,-0.036,0.222,-0.072,-0.455,1.087
2024-11-02 22:52:58.441,40335.669,-0.065,0.437,-0.897,-0.302,0.073,-0.283,0.312,-0.117,0.201,-0.072,-0.452,1.09
2024-11-02 22:52:58.450,40335.679,-0.064,0.435,-0.898,-0.177,-0.037,-0.237,-0.023,0.057,0.208,-0.071,-0.45,1.092
2024-11-02 22:52:58.460,40335.689,-0.064,0.438,-0.897,0.025,-0.086,-0.213,-0.505,-0.231,0.239,-0.071,-0.453,1.095
2024-11-02 22:52:58.470,40335.699,-0.067,0.443,-0.894,0.14,-0.113,-0.211,-0.441,-0.493,0.063,-0.074,-0.459,1.096
2024-11-02 22:52:58.480,40335.709,-0.071,0.444,-0.893,0.191,-0.094,-0.089,0.219,-0.297,-0.09,-0.079,-0.46,1.096
2024-11-02 22:52:58.490,40335.719,-0.072,0.439,-0.896,0.257,0.077,-0.135,0.823,0.0,-0.08,-0.08,-0.454,1.095
2024-11-02 22:52:58.500,40335.729,-0.072,0.43,-0.9,0.221,0.177,-0.196,1.147,0.017,-0.166,-0.08,-0.444,1.095
2024-11-02 22:52:58.510,40335.739,-0.073,0.419,-0.905,0.198,0.084,-0.106,1.206,-0.019,-0.2,-0.081,-0.432,1.094
2024-11-02 22:52:58.520,40335.749,-0.074,0.408,-0.91,0.268,-0.041,0.055,1.079,-0.063,-0.141,-0.082,-0.421,1.093
2024-11-02 22:52:58.530,40335.759,-0.076,0.399,-0.914,0.317,-0.058,0.228,0.862,-0.19,-0.129,-0.083,-0.411,1.092
2024-11-02 22:52:58.540,40335.769,-0.079,0.393,-0.916,0.261,-0.066,0.319,0.604,-0.229,-0.089,-0.085,-0.404,1.092
2024-11-02 22:52:58.550,40335.779,-0.081,0.388,-0.918,0.165,-0.066,0.368,0.434,-0.289,-0.116,-0.088,-0.398,1.091
2024-11-02 22:52:58.560,40335.789,-0.085,0.383,-0.92,0.036,-0.034,0.35,0.62,-0.165,-0.33,-0.092,-0.393,1.089
2024-11-02 22:52:58.570,40335.799,-0.085,0.376,-0.923,-0.119,0.027,0.298,0.853,0.339,-0.377,-0.092,-0.385,1.086
2024-11-02 22:52:58.580,40335.809,-0.083,0.369,-0.926,-0.233,0.109,0.213,0.444,0.348,-0.223,-0.089,-0.378,1.084
2024-11-02 22:52:58.590,40335.819,-0.082,0.368,-0.926,-0.324,-0.019,0.099,-0.318,-0.045,-0.118,-0.088,-0.377,1.082
2024-11-02 22:52:58.600,40335.829,-0.084,0.374,-0.924,-0.3,-0.197,0.136,-0.752,-0.244,-0.096,-0.09,-0.383,1.08
2024-11-02 22:52:58.610,40335.839,-0.086,0.38,-0.921,-0.219,-0.097,0.129,-0.577,-0.04,-0.024,-0.093,-0.39,1.079
2024-11-02 22:52:58.620,40335.849,-0.084,0.384,-0.92,-0.298,0.105,0.008,-0.324,0.272,0.133,-0.091,-0.394,1.079
2024-11-02 22:52:58.630,40335.859,-0.081,0.388,-0.918,-0.377,0.196,-0.153,-0.495,0.157,0.237,-0.088,-0.398,1.081
2024-11-02 22:52:58.640,40335.869,-0.08,0.393,-0.916,-0.333,0.09,-0.237,-0.554,0.001,0.162,-0.087,-0.404,1.082
2024-11-02 22:52:58.650,40335.879,-0.079,0.398,-0.914,-0.124,-0.074,-0.201,-0.539,0.0,0.169,-0.087,-0.409,1.084
2024-11-02 22:52:58.660,40335.889,-0.077,0.404,-0.911,0.076,-0.154,-0.275,-0.87,0.205,0.276,-0.084,-0.416,1.085
2024-11-02 22:52:58.670,40335.899,-0.076,0.414,-0.907,0.165,-0.149,-0.378,-1.148,-0.263,0.238,-0.084,-0.427,1.087
2024-11-02 22:52:58.680,40335.909,-0.078,0.423,-0.903,0.161,-0.2,-0.398,-0.605,-0.38,0.123,-0.087,-0.436,1.088
2024-11-02 22:52:58.690,40335.919,-0.081,0.424,-0.902,0.233,-0.194,-0.17,0.245,-0.205,-0.035,-0.09,-0.438,1.089
2024-11-02 22:52:58.700,40335.929,-0.082,0.419,-0.904,0.338,0.056,-0.158,0.84,0.008,-0.094,-0.091,-0.432,1.088
2024-11-02 22:52:58.710,40335.939,-0.083,0.41,-0.908,0.296,0.264,-0.014,1.01,0.004,-0.166,-0.091,-0.423,1.088
2024-11-02 22:52:58.720,40335.949,-0.084,0.402,-0.912,0.296,0.123,0.102,0.801,-0.164,-0.142,-0.092,-0.413,1.087
2024-11-02 22:52:58.730,40335.959,-0.086,0.395,-0.914,0.365,-0.059,0.174,0.622,-0.242,-0.142,-0.094,-0.406,1.086
2024-11-02 22:52:58.739,40335.969,-0.089,0.39,-0.916,0.36,-0.076,0.261,0.428,-0.174,-0.09,-0.097,-0.401,1.086
2024-11-02 22:52:58.749,40335.979,-0.09,0.388,-0.917,0.229,-0.035,0.269,0.085,-0.145,-0.092,-0.098,-0.398,1.085
2024-11-02 22:52:58.759,40335.989,-0.093,0.387,-0.917,0.053,-0.025,0.257,0.098,-0.291,-0.255,-0.101,-0.398,1.083
2024-11-02 22:52:58.770,40335.999,-0.095,0.385,-0.918,-0.09,-0.07,0.268,0.448,0.125,-0.453,-0.104,-0.395,1.08
2024-11-02 22:52:58.780,40336.009,-0.094,0.38,-0.92,-0.154,-0.005,0.327,0.385,0.37,-0.43,-0.102,-0.39,1.075
2024-11-02 22:52:58.790,40336.019,-0.094,0.379,-0.921,-0.18,0.116,0.22,-0.327,-0.11,-0.195,-0.102,-0.389,1.072
2024-11-02 22:52:58.800,40336.029,-0.098,0.385,-0.918,-0.233,-0.063,0.044,-0.814,-0.501,-0.033,-0.106,-0.395,1.07
2024-11-02 22:52:58.810,40336.039,-0.102,0.391,-0.915,-0.261,-0.121,0.051,-0.385,-0.325,0.025,-0.111,-0.401,1.069
2024-11-02 22:52:58.821,40336.049,-0.102,0.391,-0.915,-0.355,0.267,0.009,0.358,0.14,0.189,-0.111,-0.401,1.07
2024-11-02 22:52:58.830,40336.059,-0.099,0.387,-0.917,-0.478,0.577,-0.204,0.516,0.22,0.38,-0.108,-0.397,1.074
2024-11-02 22:52:58.840,40336.069,-0.097,0.383,-0.919,-0.483,0.39,-0.267,0.311,0.016,0.298,-0.105,-0.393,1.078
2024-11-02 22:52:58.850,40336.079,-0.096,0.381,-0.919,-0.269,0.019,-0.189,0.107,-0.091,0.247,-0.104,-0.391,1.081
2024-11-02 22:52:58.860,40336.089,-0.095,0.383,-0.919,0.004,-0.162,-0.172,-0.348,0.076,0.309,-0.104,-0.393,1.084
2024-11-02 22:52:58.870,40336.099,-0.096,0.388,-0.917,0.124,-0.242,-0.201,-0.769,-0.384,0.279,-0.104,-0.398,1.087
2024-11-02 22:52:58.880,40336.109,-0.099,0.394,-0.914,0.149,-0.283,-0.256,-0.458,-0.383,0.147,-0.108,-0.405,1.088
2024-11-02 22:52:58.890,40336.119,-0.102,0.396,-0.913,0.193,-0.215,-0.089,0.155,-0.273,-0.021,-0.111,-0.407,1.089
2024-11-02 22:52:58.899,40336.129,-0.103,0.392,-0.914,0.291,-0.014,-0.217,0.51,-0.049,-0.026,-0.113,-0.403,1.089
2024-11-02 22:52:58.910,40336.139,-0.104,0.387,-0.916,0.306,0.162,-0.257,0.695,-0.063,-0.1,-0.113,-0.397,1.089
2024-11-02 22:52:58.920,40336.149,-0.105,0.38,-0.919,0.358,0.07,-0.181,0.746,-0.144,-0.156,-0.114,-0.39,1.089
2024-11-02 22:52:58.930,40336.159,-0.107,0.373,-0.922,0.458,-0.047,-0.092,0.788,-0.113,-0.2,-0.116,-0.382,1.087
2024-11-02 22:52:58.939,40336.169,-0.109,0.365,-0.924,0.495,0.034,0.08,0.718,-0.139,-0.136,-0.117,-0.374,1.087
2024-11-02 22:52:58.950,40336.178,-0.111,0.359,-0.927,0.371,0.04,0.18,0.575,-0.145,-0.08,-0.119,-0.368,1.086
2024-11-02 22:52:58.959,40336.188,-0.112,0.355,-0.928,0.24,-0.001,0.258,0.345,-0.117,-0.03,-0.12,-0.363,1.086
2024-11-02 22:52:58.970,40336.198,-0.114,0.352,-0.929,0.094,0.032,0.3,0.429,-0.26,-0.133,-0.122,-0.36,1.086
2024-11-02 22:52:58.980,40336.208,-0.115,0.345,-0.931,-0.103,0.056,0.327,0.883,0.22,-0.388,-0.123,-0.353,1.084
2024-11-02 22:52:58.990,40336.218,-0.112,0.336,-0.935,-0.24,0.09,0.398,0.914,0.602,-0.241,-0.119,-0.343,1.082
2024-11-02 22:52:58.999,40336.228,-0.109,0.332,-0.937,-0.274,0.108,0.328,-0.07,0.041,-0.033,-0.116,-0.338,1.081
2024-11-02 22:52:59.010,40336.238,-0.112,0.336,-0.935,-0.293,-0.188,0.185,-0.674,-0.437,-0.127,-0.119,-0.342,1.08
2024-11-02 22:52:59.019,40336.248,-0.115,0.34,-0.933,-0.322,-0.293,0.203,-0.245,-0.046,-0.076,-0.122,-0.347,1.078
2024-11-02 22:52:59.029,40336.258,-0.114,0.341,-0.933,-0.425,0.082,0.079,0.048,0.177,0.18,-0.121,-0.348,1.078
2024-11-02 22:52:59.039,40336.268,-0.112,0.341,-0.934,-0.571,0.272,-0.215,0.034,0.084,0.194,-0.119,-0.348,1.08
2024-11-02 22:52:59.049,40336.278,-0.11,0.341,-0.934,-0.57,0.099,-0.208,-0.006,0.11,0.2,-0.117,-0.348,1.082
2024-11-02 22:52:59.059,40336.288,-0.109,0.342,-0.933,-0.311,-0.034,-0.145,-0.27,0.026,0.263,-0.116,-0.349,1.085
2024-11-02 22:52:59.070,40336.298,-0.107,0.347,-0.932,-0.06,-0.128,-0.188,-0.666,0.14,0.321,-0.114,-0.354,1.087
2024-11-02 22:52:59.079,40336.308,-0.105,0.356,-0.928,0.077,-0.279,-0.177,-1.229,-0.194,0.256,-0.112,-0.364,1.089
2024-11-02 22:52:59.089,40336.318,-0.109,0.368,-0.924,0.252,-0.383,-0.344,-1.083,-0.678,-0.116,-0.118,-0.376,1.089
2024-11-02 22:52:59.099,40336.328,-0.114,0.374,-0.921,0.374,-0.351,-0.385,-0.266,-0.189,-0.246,-0.124,-0.383,1.086
2024-11-02 22:52:59.109,40336.338,-0.115,0.374,-0.92,0.441,-0.155,-0.245,-0.005,0.143,-0.146,-0.124,-0.383,1.083
2024-11-02 22:52:59.119,40336.348,-0.115,0.375,-0.92,0.356,0.042,-0.254,-0.307,-0.149,-0.224,-0.125,-0.385,1.081
2024-11-02 22:52:59.129,40336.358,-0.119,0.379,-0.918,0.342,-0.103,-0.087,-0.569,-0.308,-0.263,-0.129,-0.389,1.078
2024-11-02 22:52:59.139,40336.368,-0.121,0.384,-0.915,0.449,-0.206,0.033,-0.494,-0.118,-0.161,-0.132,-0.394,1.075
2024-11-02 22:52:59.149,40336.378,-0.122,0.388,-0.914,0.36,0.007,0.104,-0.379,0.105,-0.079,-0.133,-0.398,1.073
2024-11-02 22:52:59.159,40336.388,-0.121,0.391,-0.912,0.139,0.129,0.169,-0.403,0.101,-0.028,-0.132,-0.402,1.072
2024-11-02 22:52:59.170,40336.398,-0.121,0.394,-0.911,-0.01,0.095,0.309,-0.208,0.017,-0.079,-0.132,-0.405,1.071
2024-11-02 22:52:59.179,40336.408,-0.12,0.394,-0.911,-0.065,0.071,0.456,0.197,0.271,-0.176,-0.131,-0.405,1.07
2024-11-02 22:52:59.189,40336.418,-0.117,0.392,-0.913,-0.142,0.117,0.541,0.181,0.401,-0.048,-0.128,-0.402,1.069
2024-11-02 22:52:59.199,40336.428,-0.115,0.393,-0.912,-0.228,0.125,0.447,-0.441,0.046,0.115,-0.125,-0.404,1.069
2024-11-02 22:52:59.209,40336.438,-0.116,0.399,-0.91,-0.265,-0.076,0.342,-0.75,-0.248,0.037,-0.127,-0.41,1.069
2024-11-02 22:52:59.219,40336.448,-0.117,0.404,-0.907,-0.293,-0.153,0.311,-0.48,0.016,0.015,-0.128,-0.416,1.068
2024-11-02 22:52:59.229,40336.458,-0.115,0.408,-0.906,-0.387,0.106,0.119,-0.33,0.24,0.082,-0.127,-0.42,1.068
2024-11-02 22:52:59.239,40336.468,-0.113,0.411,-0.905,-0.525,0.229,-0.179,-0.322,0.197,0.08,-0.124,-0.423,1.069
2024-11-02 22:52:59.249,40336.478,-0.111,0.414,-0.904,-0.534,0.051,-0.25,-0.3,0.149,0.054,-0.122,-0.427,1.069
2024-11-02 22:52:59.259,40336.488,-0.11,0.417,-0.902,-0.318,-0.058,-0.192,-0.33,0.088,0.09,-0.121,-0.43,1.069
2024-11-02 22:52:59.269,40336.498,-0.109,0.42,-0.901,-0.087,0.01,-0.159,-0.45,-0.019,0.172,-0.12,-0.434,1.07
2024-11-02 22:52:59.278,40336.508,-0.108,0.426,-0.898,0.029,0.009,-0.124,-0.868,-0.02,0.341,-0.119,-0.44,1.072
2024-11-02 22:52:59.289,40336.518,-0.108,0.435,-0.894,0.155,-0.055,-0.197,-1.049,-0.332,0.304,-0.121,-0.451,1.075
2024-11-02 22:52:59.299,40336.528,-0.109,0.443,-0.89,0.231,-0.02,-0.357,-0.422,-0.04,0.138,-0.122,-0.459,1.076
2024-11-02 22:52:59.309,40336.538,-0.108,0.443,-0.89,0.219,0.055,-0.256,0.24,0.099,0.018,-0.121,-0.459,1.077
2024-11-02 22:52:59.319,40336.548,-0.108,0.44,-0.892,0.289,0.16,-0.407,0.589,0.07,-0.098,-0.12,-0.455,1.077
2024-11-02 22:52:59.329,40336.558,-0.108,0.434,-0.895,0.395,0.127,-0.337,0.659,-0.011,-0.209,-0.12,-0.449,1.076
2024-11-02 22:52:59.339,40336.568,-0.109,0.428,-0.897,0.497,-0.087,-0.107,0.575,-0.097,-0.202,-0.121,-0.442,1.075
2024-11-02 22:52:59.349,40336.578,-0.111,0.423,-0.899,0.534,-0.111,0.089,0.454,-0.135,-0.176,-0.123,-0.437,1.073
2024-11-02 22:52:59.359,40336.588,-0.113,0.42,-0.901,0.452,-0.042,0.249,0.253,-0.117,-0.099,-0.125,-0.433,1.072
2024-11-02 22:52:59.369,40336.598,-0.115,0.418,-0.901,0.278,0.01,0.328,0.195,-0.185,-0.069,-0.126,-0.431,1.072
2024-11-02 22:52:59.378,40336.608,-0.116,0.414,-0.903,0.053,0.067,0.321,0.578,0.052,-0.341,-0.128,-0.427,1.07
2024-11-02 22:52:59.389,40336.618,-0.115,0.407,-0.906,-0.164,0.106,0.317,0.985,0.613,-0.387,-0.126,-0.419,1.067
2024-11-02 22:52:59.399,40336.628,-0.111,0.399,-0.91,-0.268,0.14,0.266,0.47,0.399,-0.179,-0.121,-0.411,1.065
2024-11-02 22:52:59.409,40336.638,-0.111,0.399,-0.91,-0.277,-0.116,0.146,-0.504,-0.207,-0.16,-0.121,-0.411,1.063
2024-11-02 22:52:59.419,40336.648,-0.114,0.405,-0.907,-0.244,-0.362,0.198,-0.75,-0.391,-0.123,-0.125,-0.417,1.061
2024-11-02 22:52:59.428,40336.658,-0.117,0.41,-0.905,-0.28,-0.171,0.23,-0.264,0.011,-0.036,-0.128,-0.423,1.059
2024-11-02 22:52:59.438,40336.668,-0.115,0.411,-0.904,-0.463,0.22,0.066,0.017,0.28,0.168,-0.126,-0.424,1.06
2024-11-02 22:52:59.448,40336.678,-0.112,0.411,-0.905,-0.584,0.385,-0.142,-0.05,0.159,0.171,-0.123,-0.424,1.062
2024-11-02 22:52:59.458,40336.688,-0.11,0.412,-0.904,-0.501,0.184,-0.125,-0.128,0.057,0.164,-0.121,-0.425,1.063
2024-11-02 22:52:59.468,40336.698,-0.109,0.414,-0.904,-0.203,-0.012,-0.075,-0.26,-0.048,0.241,-0.12,-0.427,1.065
2024-11-02 22:52:59.478,40336.708,-0.108,0.418,-0.902,0.024,-0.085,-0.138,-0.566,0.078,0.322,-0.119,-0.431,1.068
2024-11-02 22:52:59.489,40336.718,-0.108,0.425,-0.899,0.126,-0.128,-0.194,-0.927,-0.295,0.327,-0.119,-0.439,1.07
2024-11-02 22:52:59.498,40336.728,-0.109,0.433,-0.895,0.212,-0.118,-0.36,-0.652,-0.179,0.235,-0.121,-0.448,1.072
2024-11-02 22:52:59.509,40336.738,-0.109,0.436,-0.893,0.219,-0.079,-0.277,-0.082,-0.038,0.131,-0.122,-0.452,1.074
2024-11-02 22:52:59.519,40336.748,-0.109,0.435,-0.894,0.243,0.024,-0.33,0.399,0.052,-0.002,-0.121,-0.45,1.075
2024-11-02 22:52:59.529,40336.758,-0.109,0.43,-0.896,0.281,0.126,-0.291,0.6,-0.012,-0.167,-0.121,-0.445,1.075
2024-11-02 22:52:59.538,40336.768,-0.111,0.425,-0.898,0.387,-0.056,-0.074,0.523,-0.101,-0.222,-0.122,-0.439,1.073
2024-11-02 22:52:59.549,40336.777,-0.113,0.421,-0.9,0.48,-0.222,0.098,0.366,-0.181,-0.225,-0.125,-0.434,1.071
2024-11-02 22:52:59.558,40336.787,-0.115,0.418,-0.901,0.445,-0.182,0.229,0.285,-0.143,-0.186,-0.127,-0.431,1.07
2024-11-02 22:52:59.568,40336.797,-0.116,0.415,-0.902,0.288,-0.067,0.286,0.259,-0.065,-0.057,-0.128,-0.428,1.069
2024-11-02 22:52:59.579,40336.807,-0.118,0.411,-0.904,0.122,0.085,0.259,0.624,-0.021,-0.286,-0.13,-0.424,1.068
2024-11-02 22:52:59.589,40336.817,-0.117,0.403,-0.908,-0.04,0.16,0.252,1.12,0.609,-0.41,-0.128,-0.414,1.065
2024-11-02 22:52:59.599,40336.827,-0.112,0.393,-0.913,-0.126,0.229,0.312,0.766,0.608,-0.188,-0.122,-0.404,1.063
2024-11-02 22:52:59.608,40336.837,-0.11,0.391,-0.914,-0.151,0.062,0.208,-0.352,-0.072,-0.105,-0.12,-0.402,1.062
2024-11-02 22:52:59.618,40336.847,-0.113,0.397,-0.911,-0.164,-0.265,0.242,-0.871,-0.326,-0.093,-0.123,-0.408,1.06
2024-11-02 22:52:59.628,40336.857,-0.115,0.404,-0.908,-0.2,-0.141,0.306,-0.577,-0.157,-0.009,-0.126,-0.416,1.058
2024-11-02 22:52:59.638,40336.867,-0.115,0.406,-0.907,-0.408,0.211,0.155,-0.011,0.225,0.061,-0.126,-0.418,1.058
2024-11-02 22:52:59.648,40336.877,-0.112,0.405,-0.907,-0.633,0.395,-0.069,0.182,0.338,0.157,-0.122,-0.417,1.06
2024-11-02 22:52:59.658,40336.887,-0.108,0.404,-0.908,-0.651,0.261,-0.207,0.062,0.248,0.129,-0.119,-0.416,1.061
2024-11-02 22:52:59.668,40336.897,-0.106,0.405,-0.908,-0.443,-0.017,-0.158,-0.219,0.037,0.114,-0.117,-0.417,1.063
2024-11-02 22:52:59.678,40336.907,-0.106,0.409,-0.907,-0.157,-0.213,-0.125,-0.486,-0.106,0.13,-0.117,-0.421,1.063
2024-11-02 22:52:59.688,40336.917,-0.106,0.414,-0.904,0.02,-0.28,-0.141,-0.8,0.028,0.214,-0.117,-0.427,1.064
2024-11-02 22:52:59.711,40336.927,-0.107,0.423,-0.9,0.137,-0.264,-0.223,-1.1,-0.388,0.238,-0.118,-0.437,1.066
2024-11-02 22:52:59.718,40336.937,-0.109,0.432,-0.895,0.239,-0.163,-0.426,-0.689,-0.28,0.168,-0.121,-0.447,1.067
2024-11-02 22:52:59.724,40336.947,-0.111,0.434,-0.894,0.244,-0.01,-0.338,0.193,-0.14,0.051,-0.123,-0.449,1.068
2024-11-02 22:52:59.728,40336.957,-0.111,0.43,-0.896,0.247,0.186,-0.346,0.711,0.079,0.014,-0.123,-0.445,1.069
2024-11-02 22:52:59.738,40336.967,-0.11,0.423,-0.899,0.295,0.332,-0.265,0.747,-0.012,-0.083,-0.122,-0.437,1.069
2024-11-02 22:52:59.748,40336.977,-0.111,0.417,-0.902,0.401,0.106,-0.05,0.578,-0.111,-0.112,-0.123,-0.43,1.069
2024-11-02 22:52:59.758,40336.987,-0.113,0.413,-0.904,0.479,-0.141,0.099,0.402,-0.081,-0.125,-0.124,-0.425,1.069
2024-11-02 22:52:59.768,40336.997,-0.114,0.41,-0.905,0.43,-0.146,0.24,0.121,-0.099,-0.094,-0.125,-0.423,1.068
2024-11-02 22:52:59.778,40337.007,-0.115,0.41,-0.905,0.278,-0.136,0.314,-0.202,-0.118,-0.062,-0.127,-0.423,1.067
2024-11-02 22:52:59.788,40337.017,-0.117,0.413,-0.903,0.111,-0.134,0.326,-0.376,-0.113,-0.061,-0.128,-0.426,1.066
2024-11-02 22:52:59.798,40337.027,-0.118,0.415,-0.902,-0.075,-0.078,0.307,0.01,-0.046,-0.281,-0.13,-0.428,1.064
2024-11-02 22:52:59.808,40337.037,-0.118,0.412,-0.903,-0.249,0.023,0.311,0.474,0.428,-0.364,-0.13,-0.425,1.06
2024-11-02 22:52:59.818,40337.047,-0.115,0.408,-0.906,-0.334,0.157,0.341,0.311,0.382,-0.219,-0.126,-0.42,1.058
2024-11-02 22:52:59.828,40337.057,-0.114,0.408,-0.906,-0.339,0.094,0.25,-0.393,-0.023,-0.178,-0.125,-0.42,1.056
2024-11-02 22:52:59.838,40337.067,-0.116,0.413,-0.903,-0.295,-0.148,0.195,-0.667,-0.225,-0.229,-0.128,-0.426,1.053
2024-11-02 22:52:59.848,40337.077,-0.118,0.418,-0.901,-0.288,-0.119,0.092,-0.42,-0.004,-0.015,-0.13,-0.431,1.05
2024-11-02 22:52:59.858,40337.087,-0.117,0.42,-0.9,-0.376,0.072,-0.033,-0.11,0.229,0.117,-0.129,-0.434,1.051
2024-11-02 22:52:59.868,40337.097,-0.114,0.421,-0.9,-0.433,0.214,-0.158,-0.055,0.287,0.137,-0.126,-0.435,1.052
2024-11-02 22:52:59.878,40337.107,-0.111,0.422,-0.9,-0.34,0.192,-0.186,-0.136,0.168,0.123,-0.123,-0.436,1.053
2024-11-02 22:52:59.888,40337.117,-0.109,0.424,-0.899,-0.098,0.035,-0.157,-0.433,0.125,0.174,-0.121,-0.438,1.055
2024-11-02 22:52:59.898,40337.127,-0.108,0.431,-0.896,0.135,-0.095,-0.198,-0.858,-0.241,0.228,-0.12,-0.445,1.056
2024-11-02 22:52:59.908,40337.137,-0.11,0.439,-0.892,0.245,-0.106,-0.372,-0.69,-0.219,0.192,-0.123,-0.454,1.057
2024-11-02 22:52:59.918,40337.147,-0.11,0.442,-0.89,0.184,-0.099,-0.334,0.001,0.06,0.158,-0.123,-0.458,1.059
2024-11-02 22:52:59.928,40337.157,-0.108,0.44,-0.891,0.179,0.041,-0.298,0.378,0.208,0.139,-0.12,-0.456,1.061
2024-11-02 22:52:59.938,40337.167,-0.106,0.436,-0.894,0.248,0.219,-0.274,0.526,0.044,-0.04,-0.119,-0.451,1.062
2024-11-02 22:52:59.948,40337.177,-0.107,0.431,-0.896,0.347,0.055,-0.051,0.524,-0.091,-0.155,-0.119,-0.446,1.062
2024-11-02 22:52:59.958,40337.187,-0.109,0.427,-0.898,0.475,-0.138,0.112,0.408,-0.095,-0.204,-0.121,-0.441,1.06
2024-11-02 22:52:59.967,40337.197,-0.111,0.424,-0.899,0.479,-0.127,0.22,0.203,-0.107,-0.193,-0.122,-0.438,1.058
2024-11-02 22:52:59.978,40337.207,-0.112,0.423,-0.899,0.33,-0.158,0.262,-0.019,-0.066,-0.146,-0.124,-0.436,1.057
2024-11-02 22:52:59.988,40337.217,-0.113,0.424,-0.899,0.151,-0.146,0.262,-0.179,0.007,-0.123,-0.125,-0.437,1.055
2024-11-02 22:52:59.997,40337.227,-0.114,0.424,-0.899,-0.019,-0.047,0.214,0.183,-0.068,-0.267,-0.126,-0.438,1.053
2024-11-02 22:53:00.007,40337.237,-0.114,0.419,-0.901,-0.183,0.029,0.2,0.737,0.485,-0.357,-0.125,-0.433,1.05
2024-11-02 22:53:00.017,40337.247,-0.11,0.412,-0.904,-0.229,0.167,0.293,0.537,0.521,-0.151,-0.121,-0.425,1.048
2024-11-02 22:53:00.027,40337.257,-0.108,0.411,-0.905,-0.161,0.203,0.139,-0.323,-0.082,-0.031,-0.119,-0.424,1.047
2024-11-02 22:53:00.037,40337.267,-0.11,0.416,-0.903,-0.2,-0.06,0.047,-0.46,-0.273,-0.067,-0.121,-0.429,1.046
2024-11-02 22:53:00.047,40337.277,-0.111,0.417,-0.902,-0.281,-0.022,0.131,0.092,0.146,0.055,-0.122,-0.43,1.046
2024-11-02 22:53:00.057,40337.287,-0.108,0.415,-0.903,-0.399,0.308,0.014,0.373,0.387,0.188,-0.119,-0.428,1.048
2024-11-02 22:53:00.067,40337.297,-0.104,0.412,-0.905,-0.524,0.348,-0.163,0.19,0.242,0.179,-0.114,-0.425,1.05
2024-11-02 22:53:00.077,40337.307,-0.102,0.412,-0.905,-0.436,-0.003,-0.163,-0.15,0.019,0.126,-0.112,-0.425,1.052
2024-11-02 22:53:00.087,40337.317,-0.102,0.415,-0.904,-0.112,-0.309,-0.143,-0.482,-0.084,0.104,-0.113,-0.428,1.053
2024-11-02 22:53:00.097,40337.327,-0.102,0.421,-0.901,0.133,-0.412,-0.207,-0.877,0.091,0.122,-0.113,-0.435,1.053
2024-11-02 22:53:00.107,40337.337,-0.101,0.432,-0.896,0.212,-0.399,-0.279,-1.382,-0.225,0.116,-0.112,-0.447,1.053
2024-11-02 22:53:00.117,40337.347,-0.104,0.444,-0.89,0.266,-0.344,-0.372,-1.057,-0.349,-0.014,-0.116,-0.46,1.052
2024-11-02 22:53:00.127,40337.357,-0.106,0.449,-0.887,0.303,-0.258,-0.238,-0.267,-0.14,-0.128,-0.119,-0.466,1.05
2024-11-02 22:53:00.137,40337.367,-0.108,0.449,-0.887,0.358,-0.026,-0.109,0.218,-0.071,-0.143,-0.121,-0.466,1.049
2024-11-02 22:53:00.147,40337.376,-0.109,0.446,-0.888,0.353,0.22,-0.073,0.355,-0.142,-0.183,-0.123,-0.463,1.047
2024-11-02 22:53:00.157,40337.386,-0.111,0.443,-0.89,0.334,0.154,0.098,0.401,-0.157,-0.098,-0.125,-0.459,1.046
2024-11-02 22:53:00.167,40337.396,-0.113,0.439,-0.891,0.323,0.161,0.204,0.462,-0.074,-0.009,-0.126,-0.455,1.046
2024-11-02 22:53:00.177,40337.406,-0.113,0.435,-0.893,0.186,0.263,0.291,0.435,-0.055,0.035,-0.126,-0.45,1.047
2024-11-02 22:53:00.188,40337.416,-0.114,0.431,-0.895,0.016,0.256,0.339,0.554,-0.168,-0.09,-0.127,-0.445,1.048
2024-11-02 22:53:00.198,40337.426,-0.115,0.424,-0.898,-0.118,0.17,0.319,0.847,0.227,-0.247,-0.127,-0.438,1.047
2024-11-02 22:53:00.207,40337.436,-0.113,0.416,-0.902,-0.229,0.12,0.322,0.8,0.416,-0.186,-0.124,-0.429,1.045
2024-11-02 22:53:00.217,40337.446,-0.111,0.412,-0.904,-0.305,0.078,0.268,0.052,0.135,-0.08,-0.122,-0.425,1.045
2024-11-02 22:53:00.228,40337.456,-0.111,0.414,-0.903,-0.317,-0.105,0.209,-0.524,-0.242,-0.018,-0.123,-0.427,1.044
2024-11-02 22:53:00.238,40337.466,-0.114,0.419,-0.901,-0.282,-0.222,0.126,-0.506,-0.175,0.024,-0.125,-0.433,1.043
2024-11-02 22:53:00.247,40337.476,-0.113,0.422,-0.9,-0.365,-0.143,-0.009,-0.021,0.272,0.071,-0.125,-0.436,1.043
2024-11-02 22:53:00.257,40337.486,-0.109,0.421,-0.9,-0.486,0.14,-0.123,0.149,0.404,0.171,-0.121,-0.435,1.045
2024-11-02 22:53:00.267,40337.496,-0.106,0.421,-0.901,-0.445,0.154,-0.225,-0.064,0.15,0.107,-0.117,-0.434,1.046
2024-11-02 22:53:00.277,40337.506,-0.105,0.422,-0.901,-0.196,-0.055,-0.147,-0.144,0.004,0.099,-0.116,-0.436,1.047
2024-11-02 22:53:00.288,40337.516,-0.104,0.424,-0.9,0.139,-0.081,-0.12,-0.214,0.047,0.21,-0.115,-0.437,1.049
2024-11-02 22:53:00.297,40337.526,-0.102,0.427,-0.898,0.313,-0.052,-0.25,-0.503,-0.002,0.284,-0.113,-0.442,1.051
2024-11-02 22:53:00.307,40337.536,-0.102,0.432,-0.896,0.33,-0.026,-0.389,-0.434,-0.122,0.165,-0.113,-0.447,1.053
2024-11-02 22:53:00.317,40337.546,-0.103,0.434,-0.895,0.278,-0.081,-0.342,0.064,-0.068,-0.072,-0.114,-0.449,1.053
2024-11-02 22:53:00.327,40337.556,-0.104,0.432,-0.896,0.327,-0.15,-0.2,0.354,-0.064,-0.202,-0.115,-0.446,1.052
2024-11-02 22:53:00.337,40337.566,-0.105,0.428,-0.898,0.4,-0.105,-0.161,0.437,-0.064,-0.296,-0.117,-0.442,1.05
2024-11-02 22:53:00.347,40337.576,-0.108,0.424,-0.899,0.383,-0.144,0.004,0.404,-0.192,-0.25,-0.119,-0.438,1.047
2024-11-02 22:53:00.357,40337.586,-0.111,0.42,-0.901,0.353,-0.162,0.094,0.424,-0.177,-0.228,-0.122,-0.433,1.045
2024-11-02 22:53:00.367,40337.596,-0.112,0.416,-0.903,0.258,0.003,0.199,0.451,-0.036,-0.152,-0.124,-0.429,1.043
2024-11-02 22:53:00.377,40337.606,-0.114,0.411,-0.905,0.098,0.194,0.225,0.669,-0.137,-0.187,-0.125,-0.423,1.043
2024-11-02 22:53:00.388,40337.616,-0.114,0.403,-0.908,-0.066,0.232,0.212,0.94,0.355,-0.339,-0.125,-0.415,1.041
2024-11-02 22:53:00.397,40337.626,-0.111,0.395,-0.912,-0.132,0.208,0.259,0.667,0.386,-0.232,-0.121,-0.406,1.039
2024-11-02 22:53:00.407,40337.636,-0.111,0.392,-0.913,-0.154,0.135,0.181,-0.1,-0.097,-0.165,-0.121,-0.403,1.037
2024-11-02 22:53:00.417,40337.646,-0.113,0.394,-0.912,-0.218,-0.137,0.17,-0.396,-0.17,-0.093,-0.123,-0.405,1.035
2024-11-02 22:53:00.427,40337.656,-0.114,0.398,-0.91,-0.252,-0.105,0.263,-0.304,-0.0,0.039,-0.124,-0.409,1.034
