Date,TimeStamp,UserAccelerationX,UserAccelerationY,UserAccelerationZ,AttitudePitch,AttitudeRoll,AttitudeYaw,GravityX,GravityY,GravityZ,RotationRateX,RotationRateY,RotationRateZ
2024-11-02 23:37:07.364,1730517023.2985492,-0.0251817889511585,0.3253225982189178,0.1056921482086181,-0.2961121847996604,-0.0483037877221455,-0.3630623561718897,-0.046183556318283,0.2918038070201874,-0.9553625583648682,1.4477672576904297,-0.074888564646244,-0.3519346415996551
2024-11-02 23:37:07.372,1730517023.307178,0.0434936732053756,0.0881215333938598,0.1350239515304565,-0.2853168803720621,-0.0503245369841961,-0.3648973977503412,-0.0482696630060672,0.2814615368843078,-0.9583576917648317,0.6925775408744812,-0.2099345326423645,-0.0926378145813942
2024-11-02 23:37:07.382,1730517023.317184,0.0779068544507026,-0.3194439113140106,-0.0129883289337158,-0.2817442148088375,-0.0517402735334163,-0.3641458067677067,-0.0496780835092067,0.2780315279960632,-0.9592865109443665,0.0547261983156204,-0.0863638594746589,0.187877357006073
2024-11-02 23:37:07.392,1730517023.327167,0.0191493071615695,-0.4841152131557464,-0.1242887377738952,-0.2844440760600803,-0.0510688454650175,-0.3616096933243718,-0.0489954836666584,0.2806239128112793,-0.9585664868354796,-0.5656214952468872,0.0674677789211273,0.303762137889862
2024-11-02 23:37:07.402,1730517023.337132,-0.090159073472023,-0.3778142631053924,-0.0998730063438415,-0.292760182528117,-0.0497967998147183,-0.3589687746035908,-0.0476582907140255,0.2885960638523102,-0.956264078617096,-1.080461025238037,0.0293723251670599,0.2748583853244781
2024-11-02 23:37:07.413,1730517023.348361,-0.0994324833154678,-0.3489731252193451,0.0041843056678771,-0.3070048425037882,-0.0491715058977622,-0.3571414251098272,-0.0468535088002681,0.3022048771381378,-0.9520907998085022,-1.8002111911773682,-0.0064272182062268,0.2133510708808899
2024-11-02 23:37:07.422,1730517023.357064,-0.0039128996431827,-0.5359488725662231,0.0299577116966247,-0.3279596502086354,-0.0497370116804453,-0.3559945157254349,-0.0470666922628879,0.3221120834350586,-0.9455308318138124,-2.2212729454040527,-0.1616759300231933,0.2087617069482803
2024-11-02 23:37:07.432,1730517023.367073,0.0502459071576595,-0.4972424209117889,-0.0349418520927429,-0.351903183272375,-0.0502962706385164,-0.3545957375393115,-0.047194130718708,0.3446849882602691,-0.9375312924385072,-2.4771475791931152,-0.0116443503648042,0.2873409390449524
2024-11-02 23:37:07.442,1730517023.377037,0.0390274487435817,-0.3731794059276581,-0.0793273448944091,-0.3742399814134892,-0.0488506338368207,-0.3522015143683407,-0.0454513914883136,0.3655652105808258,-0.9296753406524658,-1.8538538217544556,0.1252152323722839,0.3844898641109466
2024-11-02 23:37:07.452,1730517023.3871431,-0.0296127088367939,-0.0294514000415802,-0.1138944029808044,-0.388632610246967,-0.0459576897464882,-0.3495592103963986,-0.0425155647099018,0.3789233565330505,-0.924450933933258,-1.006142020225525,0.2397362142801284,0.1939617097377777
2024-11-02 23:37:07.464,1730517023.3985748,-0.0664715841412544,0.2992361783981323,-0.0229780077934265,-0.395387924223372,-0.0440243062875037,-0.3497077756137657,-0.0406145863234996,0.385166198015213,-0.9219530820846558,-0.3962998390197754,0.1402487754821777,-0.1283155381679535
2024-11-02 23:37:07.472,1730517023.407021,0.0265968963503837,0.3966706991195678,0.143140971660614,-0.3962566570578655,-0.044509453598415,-0.3515774680893665,-0.0410469621419906,0.3859677612781524,-0.9215986132621764,0.2371812164783477,-0.0904805734753608,-0.1905592083930969
2024-11-02 23:37:07.482,1730517023.416995,0.1008952111005783,0.3094028532505035,0.074971854686737,-0.390560015994598,-0.0465056611772779,-0.3534309771042022,-0.0429880991578102,0.3807063102722168,-0.923696219921112,0.8543081879615784,-0.1215346306562423,-0.2043429464101791
2024-11-02 23:37:07.492,1730517023.426948,0.1502353847026825,0.1667209863662719,0.0180099606513977,-0.3790328339183867,-0.047662813798729,-0.3550041771291098,-0.0442630834877491,0.3700221180915832,-0.92796790599823,1.4608865976333618,-0.0019927881658077,-0.1986022293567657
2024-11-02 23:37:07.502,1730517023.4369678,0.1168432682752609,0.4422372877597809,0.0534544587135314,-0.3609765910679545,-0.0478461197612166,-0.3561366380929822,-0.0447454713284969,0.3531880676746368,-0.934481680393219,2.1563234329223633,0.0436950698494911,-0.1810771971940994
2024-11-02 23:37:07.514,1730517023.448801,0.020213134586811,0.580016016960144,0.1348879337310791,-0.3373412598656617,-0.0476664818063499,-0.3575444842526289,-0.0449628718197345,0.3309793770313263,-0.9425661563873292,2.460940361022949,0.1073321104049682,-0.331492006778717
2024-11-02 23:37:07.522,1730517023.456812,-0.0312788411974906,0.3605212867259979,0.1156511306762695,-0.3131187305416308,-0.0477829577544651,-0.3604529009569187,-0.0454423353075981,0.3080272078514099,-0.950291633605957,2.3299670219421387,0.0204422138631343,-0.4337658584117889
2024-11-02 23:37:07.532,1730517023.46692,-0.021091416478157,0.3074676096439361,0.1395653486251831,-0.2918418262020949,-0.0493111424469729,-0.3638753607126974,-0.047206912189722,0.287716656923294,-0.956551432609558,1.838789701461792,-0.1102441549301147,-0.4039600193500519
2024-11-02 23:37:07.542,1730517023.4769092,0.0348131507635116,0.0616999864578247,0.1108736991882324,-0.2775586835432972,-0.0511825578652244,-0.3658595377986677,-0.0492021702229976,0.274008572101593,-0.96046781539917,0.9807711839675904,-0.1414113938808441,-0.0894766449928283
2024-11-02 23:37:07.552,1730517023.487028,0.0772053301334381,-0.2447178661823272,-0.0343367457389831,-0.2713193121261402,-0.0521586236137788,-0.364362522502984,-0.0502277836203575,0.2680027186870575,-0.9621079564094543,0.3130607604980469,-0.1117890551686286,0.290544182062149
2024-11-02 23:37:07.563,1730517023.4983811,0.0281184203922748,-0.2985587120056152,-0.109565258026123,-0.2715491509794002,-0.0515916143530323,-0.3608395097512605,-0.0496790744364261,0.268224149942398,-0.9620747566223145,-0.3159075677394867,0.0406625270843505,0.3659110963344574
2024-11-02 23:37:07.572,1730517023.506813,-0.0505119413137435,-0.4088462293148041,-0.1138814687728881,-0.2778556489583196,-0.0503152058736504,-0.3577105391235479,-0.0483649969100952,0.2742941677570343,-0.9604288339614868,-0.9286037087440492,0.0242848899215459,0.2825120687484741
2024-11-02 23:37:07.582,1730517023.516869,-0.0787305682897567,-0.3897149860858917,-0.0085369944572448,-0.2903534215525294,-0.0499518219856088,-0.3559201637152629,-0.0478410758078098,0.2862908840179443,-0.95694762468338,-1.5805630683898926,-0.0463309586048126,0.2031131982803344
2024-11-02 23:37:07.592,1730517023.526844,-0.0350030586123466,-0.5332151651382446,0.0317603349685668,-0.3108727370587775,-0.0503948463882054,-0.3549537701016213,-0.0479589626193046,0.3058896660804748,-0.9508582949638368,-2.4867560863494873,-0.1401205658912658,0.1976156383752823
2024-11-02 23:37:07.602,1730517023.536794,0.0484343059360981,-0.7213153839111328,-0.0175591111183166,-0.3370187447343056,-0.0518134632642064,-0.3541761469057364,-0.04887680336833,0.3306750357151031,-0.9424781799316406,-2.685809850692749,-0.1706569045782089,0.2412407100200653
2024-11-02 23:37:07.614,1730517023.548595,0.0568006597459316,-0.4835541546344757,-0.1332563757896423,-0.3620315365868951,-0.0520482341585475,-0.3527489000295006,-0.0486524552106857,0.3541748225688934,-0.9339128136634828,-2.1851847171783447,-0.0170508325099945,0.2510797381401062
2024-11-02 23:37:07.622,1730517023.5567532,-0.0120678544044494,-0.2146468460559845,-0.1023797988891601,-0.3818483050706837,-0.0504871822150051,-0.3518949343799505,-0.0468310676515102,0.3726362884044647,-0.9267950654029846,-1.7882511615753174,0.2584390640258789,0.1067213043570518
2024-11-02 23:37:07.632,1730517023.566731,-0.0663361400365829,0.1448521018028259,0.0298042297363281,-0.3966567126351358,-0.0475730488302784,-0.3523469497778584,-0.0438628233969211,0.3863368034362793,-0.9213142395019532,-1.132688045501709,0.314316987991333,-0.0391482822597026
2024-11-02 23:37:07.642,1730517023.576674,-0.0487705655395984,0.4268595278263092,0.1172960400581359,-0.4038367782221796,-0.045793875444596,-0.3538496821961103,-0.0420955047011375,0.3929493725299835,-0.918596088886261,-0.3141920268535614,0.1387201249599456,-0.1722917854785919
2024-11-02 23:37:07.652,1730517023.586722,0.0046926885843276,0.2613257765769958,0.091061532497406,-0.4029146762279601,-0.0461538960280547,-0.3563245550632079,-0.0424429140985012,0.3921012878417969,-0.9189424514770508,0.4649793803691864,0.0004261611029505,-0.2787093222141266
2024-11-02 23:37:07.663,1730517023.598537,0.0981492027640342,0.1154113411903381,0.0132196545600891,-0.3948282253196953,-0.0472340367462098,-0.3590440034992735,-0.0435837656259536,0.3846496343612671,-0.9220331311225892,1.124469518661499,0.0069365249946713,-0.2842408716678619
2024-11-02 23:37:07.672,1730517023.60666,0.1546049565076828,0.4275113344192505,0.1048333644866943,-0.3803281431172733,-0.0474960436022641,-0.3609810462309643,-0.0440855324268341,0.3712251782417297,-0.9274957180023192,1.7686729431152344,0.0881962329149246,-0.216185912489891
2024-11-02 23:37:07.682,1730517023.6166692,0.0835019052028656,0.6243011355400085,0.1133034825325012,-0.3592526012796662,-0.0466392174453199,-0.3623867700608068,-0.0436459369957447,0.3515746593475342,-0.9351418614387512,2.3494365215301514,0.2000796198844909,-0.2455396503210067
2024-11-02 23:37:07.692,1730517023.6266022,-0.03019305691123,0.5006510615348816,0.0482535362243652,-0.3357289464738422,-0.0450604214634328,-0.3644700022150002,-0.042530320584774,0.3294575214385986,-0.9432120323181152,2.3188440799713135,0.2244358211755752,-0.3492343425750732
2024-11-02 23:37:07.702,1730517023.636609,-0.058433897793293,0.4113751053810119,0.0813267230987548,-0.3139086305394599,-0.0444927643679707,-0.3673335654679108,-0.0423046164214611,0.3087786138057709,-0.95019268989563,1.9730042219161987,0.070926159620285,-0.384246289730072
2024-11-02 23:37:07.714,1730517023.648727,-0.0154639706015586,0.1898546814918518,0.1445182561874389,-0.2968464812417806,-0.0450378147115778,-0.3701867162708545,-0.0430534668266773,0.292506068944931,-0.9552940130233764,1.4247328042984009,4.026899114251137e-05,-0.2943589985370636
2024-11-02 23:37:07.721,1730517023.656482,0.0499594658613204,-0.199236512184143,0.0378724932670593,-0.2857032655661306,-0.0452630563109331,-0.3715703743654975,-0.0434134304523468,0.2818322777748108,-0.9584810137748718,0.7647689580917358,0.0433158352971077,-0.0564527548849582
2024-11-02 23:37:07.732,1730517023.666737,0.0356946475803852,-0.2775763571262359,-0.0417127609252929,-0.2815721200500832,-0.0443362717595302,-0.3705953285143866,-0.0425763465464115,0.2778662145137787,-0.9596757888793944,0.0908586978912353,0.0732558965682983,0.1939187347888946
2024-11-02 23:37:07.742,1730517023.67668,-0.0382483750581741,-0.2735926210880279,-0.046146810054779,-0.2844948592173579,-0.0425610508885226,-0.3680443830693167,-0.0408379174768924,0.2806726396083832,-0.9589343667030334,-0.6504998207092285,0.1223549991846084,0.2944534420967102
2024-11-02 23:37:07.752,1730517023.686892,-0.0539570525288581,-0.400028795003891,-0.0334150791168212,-0.294064863948035,-0.0409833446758999,-0.3655680938186721,-0.0392130985856056,0.2898449897766113,-0.9562699794769288,-1.2448889017105105,0.0501897223293781,0.2587628364562988
2024-11-02 23:37:07.764,1730517023.698931,-0.0215037874877452,-0.510382354259491,-0.039307415485382,-0.309520822216878,-0.040329068438127,-0.3636665682426109,-0.0384022034704685,0.3046022653579712,-0.9517051577568054,-1.8511769771575928,-0.034780029207468,0.2288767695426941
2024-11-02 23:37:07.771,1730517023.706471,0.0138900429010391,-0.5862835049629211,-0.0635880231857299,-0.3314550219650976,-0.0410369131024256,-0.3622950484305953,-0.0387923792004585,0.3254191875457763,-0.94477379322052,-2.4328622817993164,-0.2092663496732711,0.2251230478286743
2024-11-02 23:37:07.781,1730517023.716443,0.0667447224259376,-0.5016136765480042,-0.0815006494522094,-0.3560428097269002,-0.0427178656429401,-0.3603523194106132,-0.0400265753269195,0.3485679626464844,-0.936428427696228,-2.400632619857788,-0.2107819467782974,0.3483284711837768
2024-11-02 23:37:07.791,1730517023.7264628,0.082267627120018,-0.3281113803386688,-0.1027234196662902,-0.3780201858081525,-0.0429048823738057,-0.3576777679613089,-0.0398634448647499,0.3690811693668365,-0.9285418391227722,-1.955303192138672,-0.0072842231020331,0.3063317239284515
2024-11-02 23:37:07.801,1730517023.7364311,0.0245864987373352,-0.0240045189857482,-0.0808870792388916,-0.3950556561378358,-0.0415126445340988,-0.3568470401528633,-0.0383041352033615,0.384859561920166,-0.9221799969673156,-1.4324995279312134,0.218046635389328,-0.0223185960203409
2024-11-02 23:37:07.814,1730517023.748673,-0.0636486113071441,0.3594331741333008,0.0317766666412353,-0.4064908206059868,-0.039609915774865,-0.3583761550697413,-0.036372747272253,0.3953885436058044,-0.9177935123443604,-0.8138536810874939,0.2033009827136993,-0.1356483399868011
2024-11-02 23:37:07.821,1730517023.756391,-0.0651062652468681,0.2910796105861664,0.1394538283348083,-0.411257178338176,-0.0396830255130016,-0.3604045035057915,-0.0363646671175956,0.3997620046138763,-0.9158973693847656,-0.1489836424589157,-0.0492822751402854,-0.2174548655748367
2024-11-02 23:37:07.831,1730517023.76636,0.0269344523549079,0.0380813479423522,0.0415091514587402,-0.4096179468799787,-0.0420185231392505,-0.3633219767498131,-0.0385311171412467,0.3982589244842529,-0.9164634346961976,0.4461061060428619,-0.1542166769504547,-0.3201234340667724
2024-11-02 23:37:07.841,1730517023.776272,0.1993982046842575,0.1637495756149292,0.056118369102478,-0.4018326828719694,-0.0446094194965442,-0.3664149026984961,-0.041042473167181,0.3911057114601135,-0.9194301962852478,1.0986934900283811,-0.124881163239479,-0.2960538566112518
2024-11-02 23:37:07.851,1730517023.786356,0.189405545592308,0.4754644930362701,0.1263885498046875,-0.3872452463392531,-0.0456607550981836,-0.3680559368319583,-0.0422650165855884,0.3776390850543976,-0.92498779296875,1.8208922147750857,0.0466530434787273,-0.1486910134553909
2024-11-02 23:37:07.864,1730517023.798678,0.0302964486181736,0.4828970432281494,0.1076481342315673,-0.365846709765288,-0.0446808161970382,-0.3691686197952148,-0.0417100116610527,0.3577401041984558,-0.9328892230987548,2.345773220062256,0.2458481788635254,-0.2952569425106048
2024-11-02 23:37:07.871,1730517023.806318,-0.0837344527244567,0.4080926775932312,0.0869417786598205,-0.3427175975920932,-0.0429518668465698,-0.371787920244203,-0.040441557765007,0.336047887802124,-0.9409762620925904,2.2345526218414307,0.2185768783092498,-0.3588044941425323
2024-11-02 23:37:07.881,1730517023.816325,-0.1054814979434013,0.4343850314617157,0.1506866216659546,-0.3224556596124019,-0.0424071188793054,-0.3741112040175807,-0.0402094051241874,0.3168966174125671,-0.947607398033142,1.725854754447937,0.0551714301109313,-0.2399458885192871
2024-11-02 23:37:07.891,1730517023.82622,-0.031585443764925,0.137410283088684,0.1536742448806762,-0.3083077294246013,-0.042610035794551,-0.3749533151181615,-0.0405886210501194,0.3034465909004211,-0.9519835710525512,1.138576626777649,-0.0273106601089239,-0.0246775168925523
2024-11-02 23:37:07.901,1730517023.836314,0.0606932453811168,-0.2434516847133636,-0.0185961127281188,-0.2998983162764072,-0.0417715096867941,-0.3733621043024171,-0.0398954972624778,0.2954230606555938,-0.9545331597328186,0.5261181592941284,0.1285055726766586,0.2468031495809555
2024-11-02 23:37:07.914,1730517023.848655,-0.0098356716334819,-0.3550854325294494,-0.1326473951339721,-0.2985733984164108,-0.0390192402093846,-0.3700474629287033,-0.0372834540903568,0.2941570281982422,-0.9550296068191528,-0.2313932180404663,0.2044368237257003,0.335174560546875
2024-11-02 23:37:07.921,1730517023.856213,-0.0927613005042076,-0.2726669907569885,-0.0802357196807861,-0.3047358280517544,-0.0365872079831591,-0.367320983077524,-0.0348937101662159,0.3000411987304687,-0.9532878398895264,-0.9676526188850404,0.0993346348404884,0.2338433116674423
2024-11-02 23:37:07.931,1730517023.866168,-0.0482994019985199,-0.3387570381164551,-0.0103633403778076,-0.3179807619210476,-0.0357446095878164,-0.3656120552445622,-0.0339454561471939,0.3126491904258728,-0.9492619037628174,-1.680568814277649,-0.0247953049838542,0.1918162256479263
2024-11-02 23:37:07.941,1730517023.876254,0.0264786258339881,-0.7076557278633118,-0.0253560543060302,-0.338519620993365,-0.0361519012353783,-0.3645169586197817,-0.0340927578508853,0.3320910930633545,-0.9426310062408448,-2.375291347503662,-0.1590673625469207,0.174114242196083
2024-11-02 23:37:07.951,1730517023.886209,0.0767403244972229,-0.6354008316993713,-0.0982957482337951,-0.3624137468624623,-0.0378727874427238,-0.3629877799342365,-0.0354042500257492,0.3545322120189667,-0.9343732595443726,-2.323610782623291,-0.2745241820812225,0.3078347742557525
2024-11-02 23:37:07.964,1730517023.898798,0.0816060304641723,-0.350752979516983,-0.1138684153556823,-0.3833755444480758,-0.0397635106319506,-0.3609507473776113,-0.0368672534823417,0.3740530908107757,-0.92667418718338,-1.8638397455215456,-0.2015056312084198,0.1881582140922546
2024-11-02 23:37:07.971,1730517023.9060922,0.0566964820027351,-0.0992519855499267,-0.1105954051017761,-0.3995470147253634,-0.0399558302479306,-0.3612326549755234,-0.0367990098893642,0.3890010714530945,-0.9205020666122437,-1.3709756135940552,0.1456552594900131,-0.1077006012201309
2024-11-02 23:37:07.981,1730517023.9161382,-0.0240813754498958,0.3761426210403442,-0.0302318930625915,-0.4100807039781877,-0.0389567978375773,-0.3631736198387576,-0.0357178002595901,0.3986833393573761,-0.9163928031921388,-0.7701932787895203,0.153577372431755,-0.1302609294652938
2024-11-02 23:37:07.991,1730517023.926178,-0.0811854749917984,0.3967742919921875,0.0650269985198974,-0.4157594747882381,-0.0393314271917954,-0.3647656506890295,-0.035971499979496,0.4038848280906677,-0.91410231590271,-0.3613865971565246,-0.0998306646943092,-0.1452369540929794
2024-11-02 23:37:08.001,1730517023.9360662,0.0608403123915195,0.0687783360481262,0.052102506160736,-0.4167861938906518,-0.0417342253701296,-0.3672777620577896,-0.0381504781544208,0.4048238694667816,-0.9135984778404236,0.1569369584321975,-0.1321635693311691,-0.3049111366271972
2024-11-02 23:37:08.011,1730517023.946046,0.26573446393013,0.1407329142093658,0.0848722457885742,-0.4121916147619326,-0.0446493954311095,-0.3709585380228719,-0.0408961959183216,0.4006183445453644,-0.9153319001197816,0.7261143922805786,-0.1703162789344787,-0.389767438173294
2024-11-02 23:37:08.021,1730517023.956141,0.2468154728412628,0.3003635108470917,0.1396561861038208,-0.4024440337986602,-0.0473525688323768,-0.374203436933043,-0.0435531251132488,0.391668289899826,-0.9190751314163208,1.1721198558807373,-0.0755370408296585,-0.2847429513931274
2024-11-02 23:37:08.031,1730517023.965968,0.0943906009197235,0.2981398105621338,0.1220142841339111,-0.3882036838660744,-0.0477597590931863,-0.376201132664646,-0.0441891774535179,0.378526359796524,-0.9245350956916808,1.702908635139465,0.1524553745985031,-0.2393909245729446
2024-11-02 23:37:08.041,1730517023.97606,-0.0579563826322555,0.3218203485012054,0.0880554914474487,-0.3692856679942261,-0.0454486406235798,-0.378126378374067,-0.0423701480031013,0.3609493374824524,-0.9316223859786988,1.9511866569519043,0.4189240932464599,-0.2968106269836426
2024-11-02 23:37:08.051,1730517023.986027,-0.1857741326093673,0.3507629632949829,0.0875216126441955,-0.3512712422328791,-0.0423974053781304,-0.3801054238833787,-0.0397965274751186,0.3440917134284973,-0.9380922913551332,1.6211137771606443,0.2958482205867767,-0.1942727863788604
2024-11-02 23:37:08.061,1730517023.9960032,-0.2015932500362396,0.2492509484291076,0.1317586302757263,-0.3369050228040011,-0.0409219173265606,-0.3804802204230104,-0.038610603660345,0.3305676877498626,-0.9429921507835388,1.2214829921722412,0.0481452122330665,0.0048184306360781
2024-11-02 23:37:08.071,1730517024.005949,-0.0537407770752906,-0.1236703097820282,0.0946580171585083,-0.3280872103360558,-0.0396788489547036,-0.3789376201857924,-0.0375525392591953,0.3222328424453735,-0.9459153413772584,0.5397648811340332,0.139646902680397,0.2031552195549011
2024-11-02 23:37:08.081,1730517024.015842,0.0285519137978553,-0.4269545078277588,-0.0707902312278747,-0.3258481343643307,-0.0366851585892316,-0.3762179146569303,-0.0347469747066497,0.320112407207489,-0.9467421174049376,-0.0419769212603569,0.2626681625843048,0.2871728837490082
2024-11-02 23:37:08.091,1730517024.025999,-0.0574096478521823,-0.1715688109397888,-0.1445226073265075,-0.3298781229854028,-0.0330466710865738,-0.3732352416824566,-0.0312591642141342,0.3239277303218841,-0.9455652832984924,-0.7604189515113831,0.26604825258255,0.2942380011081695
2024-11-02 23:37:08.101,1730517024.0359092,-0.1150072589516639,-0.2474862039089203,-0.0885282158851623,-0.3411306364373359,-0.030330024634526,-0.3710293540752666,-0.0285779349505901,0.3345527946949005,-0.94194358587265,-1.4736086130142212,0.1006505042314529,0.1784878522157669
2024-11-02 23:37:08.111,1730517024.045852,-0.0459321439266204,-0.4991787075996399,-0.0555288791656494,-0.3599759906705956,-0.0300163404783594,-0.3706879686332703,-0.0280882325023412,0.3522517681121826,-0.935483694076538,-2.366105556488037,-0.0603112243115901,0.0104913897812366
2024-11-02 23:37:08.121,1730517024.055972,0.0376243777573108,-0.5309499502182007,-0.0747917294502258,-0.3853077021101029,-0.0317642004536905,-0.3709275922021498,-0.0294303894042968,0.3758442997932434,-0.9262153506278992,-2.646155834197998,-0.2710863053798675,0.1285009682178497
2024-11-02 23:37:08.131,1730517024.066074,0.0571638941764831,-0.5276762843132019,-0.1424486637115478,-0.4104580383951821,-0.033626063415589,-0.369880246647145,-0.0308272093534469,0.3990293741226196,-0.916419804096222,-2.298698663711548,-0.1752069145441055,0.2141551524400711
2024-11-02 23:37:08.141,1730517024.075807,0.0479203201830387,-0.3621212840080261,-0.1390848755836486,-0.4273648878974871,-0.0336825233797044,-0.3685450643927119,-0.0306473579257726,0.4144741296768188,-0.9095448851585388,-0.7515962719917297,-0.0661110505461692,0.1181111112236976
2024-11-02 23:37:08.151,1730517024.086169,0.0046406835317611,0.1338668167591095,-0.0495562553405761,-0.4283530632528227,-0.0325669375400504,-0.3688804831900042,-0.029619313776493,0.4153732359409332,-0.9091687202453612,0.2770773768424988,0.4709055125713348,-0.1763767153024673
2024-11-02 23:37:08.161,1730517024.09592,-0.033779289573431,0.6054916381835938,0.0236238241195678,-0.4242906882556715,-0.0276174068832645,-0.371626054726373,-0.0251653995364904,0.4116744697093963,-0.9109834432601928,0.4763594269752502,0.5737876892089844,-0.3279567956924438
2024-11-02 23:37:08.171,1730517024.1058269,0.0134787894785404,0.5972495079040527,0.0409180521965026,-0.4201949477031681,-0.0267324425180392,-0.3748708300398402,-0.024404065683484,0.4079384505748749,-0.9126832485198976,0.346554547548294,-0.1355479210615158,-0.2764374017715454
2024-11-02 23:37:08.181,1730517024.115882,0.1997380554676056,0.1149196028709411,0.1151301264762878,-0.4154530364168998,-0.0310589986676819,-0.3778000810622998,-0.0284123513847589,0.4036044776439667,-0.9144923090934752,0.6254259943962097,-0.4096330106258392,-0.3063032031059265
2024-11-02 23:37:08.191,1730517024.125731,0.4418051838874817,-0.0116474628448486,0.2651219964027405,-0.4061941505616203,-0.0352402238931335,-0.3805808348348171,-0.0323660708963871,0.3951160311698913,-0.9180608987808228,1.2572790384292605,-0.2848583161830902,-0.2566714882850647
2024-11-02 23:37:08.201,1730517024.135713,0.2807402312755584,0.3406846225261688,0.3156076073646545,-0.390542187439327,-0.0366343224033608,-0.3818650471219119,-0.0338682830333709,0.3806898295879364,-0.924082338809967,1.9248735904693604,0.0793159157037735,-0.1465225219726562
2024-11-02 23:37:08.211,1730517024.145719,-0.0826005637645721,0.3665601015090942,0.196709394454956,-0.3690719493342883,-0.0340475993195156,-0.3832693773112845,-0.0317487865686416,0.3607500195503235,-0.932121992111206,2.2418787479400635,0.5159419178962708,-0.2761942148208618
2024-11-02 23:37:08.221,1730517024.155751,-0.2235669493675232,0.2654986381530761,0.0844591856002807,-0.3483294710791019,-0.030188200543466,-0.3857383847327894,-0.0283709149807691,0.3413280844688415,-0.9395159482955932,1.8083709478378296,0.3890596628189087,-0.2852424085140228
2024-11-02 23:37:08.231,1730517024.166037,-0.2063645720481872,0.2641416192054748,0.1086001396179199,-0.3332393293527801,-0.028126926923765,-0.3869997236215152,-0.0265760961920022,0.3271058797836303,-0.9446139335632324,1.2259751558303833,0.1095241531729698,-0.0074275829829275
2024-11-02 23:37:08.241,1730517024.175692,-0.0597371160984039,0.0425777733325958,-0.0043979883193969,-0.3244106761170344,-0.0264862319620064,-0.3849381399344278,-0.0251017417758703,0.318750262260437,-0.947506308555603,0.5244460701942444,0.1136195659637451,0.3260309100151062
2024-11-02 23:37:08.251,1730517024.185648,0.0010345559567213,-0.3284840583801269,-0.2246873378753662,-0.3235883326741263,-0.0232708933980943,-0.3809707671220119,-0.0220611561089754,0.3179706931114197,-0.947843849658966,-0.3210426270961761,0.2521049976348877,0.3837178945541382
2024-11-02 23:37:08.260,1730517024.195462,-0.1005805432796478,-0.2400476336479187,-0.2254128456115722,-0.3296173509844983,-0.0201657623399089,-0.3775966869712148,-0.0190788712352514,0.3236809968948364,-0.9459738731384276,-0.8468673825263977,0.1235877722501754,0.2674232721328735
2024-11-02 23:37:08.271,1730517024.205646,-0.1498361378908157,-0.1826086938381195,-0.0182485580444335,-0.3406155830207806,-0.0195790531202585,-0.3757943040636926,-0.0184530410915613,0.3340673744678497,-0.9423685669898988,-1.3662735223770142,-0.1156319975852966,0.118558682501316
2024-11-02 23:37:08.281,1730517024.215982,-0.0010776817798614,-0.5811125040054321,0.0252809524536132,-0.3582746393457384,-0.0212542163822125,-0.3757901500674849,-0.0199031438678503,0.3506589531898498,-0.9362916946411132,-2.2578647136688232,-0.2192611843347549,-0.0480972491204738
2024-11-02 23:37:08.291,1730517024.22561,0.148245632648468,-0.637433648109436,-0.1013141274452209,-0.3823212213072889,-0.0243991032418181,-0.3764551694303884,-0.0226352699100971,0.3730750977993011,-0.927524983882904,-2.484123706817627,-0.3574446141719818,0.0789760127663612
2024-11-02 23:37:08.300,1730517024.2354689,0.1263753622770309,-0.4281584620475769,-0.1437495350837707,-0.4049896140623237,-0.0272325019718134,-0.3758606379037812,-0.0250264760106802,0.3940092027187347,-0.9187657237052916,-1.9522955417633057,-0.2500710189342499,0.0858352556824684
2024-11-02 23:37:08.311,1730517024.245549,0.0534986369311809,-0.3628191649913788,-0.0988691449165344,-0.4171228687418198,-0.0284947754091503,-0.3764571636675977,-0.0260480605065822,0.4051316976547241,-0.9138872027397156,-0.3267987370491028,-0.0062479870393872,-0.1075270175933837
2024-11-02 23:37:08.320,1730517024.255467,-0.0180017556995153,0.0909113585948944,-0.0387491583824157,-0.4161103230234622,-0.0265653190784457,-0.378094161111582,-0.0242955926805734,0.4042057693004608,-0.914345383644104,0.4090107381343841,0.4079643785953522,-0.214069664478302
2024-11-02 23:37:08.331,1730517024.266101,-0.0379561260342597,0.5550183653831482,0.0487904548645019,-0.4104667435273127,-0.0256052086673155,-0.3807252677778168,-0.0234757382422685,0.3990373313426971,-0.9166340827941896,0.6651226878166199,-0.0379382744431495,-0.2777135968208313
2024-11-02 23:37:08.342,1730517024.277278,0.1089348793029785,0.5280027389526367,0.1509246230125427,-0.401953811600614,-0.0286074263007466,-0.3829712163887011,-0.026323776692152,0.3912171721458435,-0.9199218153953552,1.117094874382019,-0.4057929813861847,-0.1807451993227005
2024-11-02 23:37:08.350,1730517024.2854671,0.2625695466995239,0.2496241331100464,0.2549630999565124,-0.3882617931416353,-0.0323798779470354,-0.3843205636275014,-0.0299645587801933,0.3785801529884338,-0.925083339214325,1.5963534116744995,-0.2211845219135284,-0.1819489449262619
2024-11-02 23:37:08.360,1730517024.2954268,0.2462885379791259,0.3174843490123749,0.2698815464973449,-0.3699756704923463,-0.0331764981736988,-0.3854834381236074,-0.0309259742498397,0.3615927398204803,-0.9318230748176576,2.070868492126465,0.1635306626558303,-0.1470366567373275
2024-11-02 23:37:08.370,1730517024.3054218,0.0071221962571144,0.4908061027526855,0.1213634610176086,-0.3484633967300066,-0.0298882639834582,-0.3861558166128809,-0.0280877519398927,0.3414539694786072,-0.9394786953926086,2.1405484676361084,0.491777241230011,-0.1339616030454635
2024-11-02 23:37:08.381,1730517024.3160849,-0.2344274818897247,0.3600342571735382,0.0348378419876098,-0.3294081861904692,-0.0261842071734768,-0.3871914164248081,-0.0247735548764467,0.3234830796718597,-0.94590961933136,1.6191725730895996,0.2707149088382721,-0.1413827836513519
2024-11-02 23:37:08.390,1730517024.3253531,-0.1975497454404831,0.1603191792964935,0.1053906083106994,-0.3166082574210732,-0.0252019689534721,-0.3872371679092413,-0.0239468179643154,0.3113451898097992,-0.9499951004981996,0.935028910636902,-0.0367326587438583,0.0801418870687484
2024-11-02 23:37:08.400,1730517024.335349,0.0020236689597368,-0.1795740723609924,0.0378376245498657,-0.3113339811882162,-0.0244732655030759,-0.3853012644799107,-0.0232944060117006,0.3063287734985351,-0.9516407251358032,0.1321251988410949,0.1074072048068046,0.2415625751018524
2024-11-02 23:37:08.410,1730517024.345463,0.0613584890961647,-0.437974601984024,-0.1255751848220825,-0.3141971647385891,-0.0214718803462238,-0.3824099501119718,-0.0204191505908966,0.3090530335903168,-0.950825572013855,-0.6681541204452515,0.2867908179759979,0.3086404204368591
2024-11-02 23:37:08.420,1730517024.355375,-0.1144769638776779,-0.2665537893772125,-0.1489635705947876,-0.323722522108488,-0.0182949386180488,-0.3799549792034226,-0.0173436924815177,0.3180979192256927,-0.9478992223739624,-1.2014703750610352,0.1730991303920745,0.1713151037693023
2024-11-02 23:37:08.432,1730517024.366581,-0.1860113441944122,-0.3339044451713562,-0.0398590564727783,-0.337805272163239,-0.017428055682421,-0.3792515851048241,-0.0164422653615474,0.3314172029495239,-0.9433410167694092,-1.6280333995819092,-0.0389265716075897,0.0271185170859098
2024-11-02 23:37:08.440,1730517024.375332,-0.0103301983326673,-0.6388055682182312,-0.0452819466590881,-0.356612775600223,-0.0183848197569994,-0.3798375254198074,-0.0172271616756916,0.3491021394729614,-0.9369263052940368,-2.1533095836639404,-0.1027532219886779,-0.0766654089093208
2024-11-02 23:37:08.450,1730517024.385304,0.1260511726140976,-0.5379595160484314,-0.1208177208900451,-0.3783092643137251,-0.0205736573120557,-0.3812541027786793,-0.0191175546497106,0.3693498075008392,-0.9290937781333924,-2.0768163204193115,-0.2433510720729828,-0.0723564103245735
2024-11-02 23:37:08.460,1730517024.395263,0.122477576136589,-0.2046610414981842,-0.0997772812843322,-0.3973134206975363,-0.0230148768674485,-0.3824749569133622,-0.0212202332913875,0.386942446231842,-0.9218596816062928,-1.6785186529159546,-0.1356323361396789,-0.1025741249322891
2024-11-02 23:37:08.470,1730517024.405373,0.077541671693325,-0.1365507543087005,-0.0713460445404052,-0.410444708219991,-0.0241611448463846,-0.3847549539934787,-0.0221522487699985,0.3990171253681183,-0.9166758060455322,-0.8349218368530273,0.1186862289905548,-0.2224462032318115
2024-11-02 23:37:08.481,1730517024.416157,0.0306946579366922,0.1462770402431488,-0.0502365231513977,-0.4123358477606829,-0.0220126474352869,-0.3862821971869615,-0.020166078582406,0.4007504880428314,-0.9159652590751648,0.1100038141012191,0.3506092131137848,-0.1418677866458892
2024-11-02 23:37:08.490,1730517024.42515,0.0268132332712411,0.3839488625526428,0.0350503921508789,-0.4106033890495281,-0.0220397348566133,-0.3891886751624192,-0.0202061589807271,0.3991626501083374,-0.9166574478149414,0.2787084281444549,-0.1191801279783248,-0.3548535704612732
2024-11-02 23:37:08.500,1730517024.435217,0.1472047567367553,0.3621391057968139,0.1221705675125122,-0.4052230365027815,-0.0250938888489022,-0.3918644884407961,-0.0230592265725135,0.3942237496376037,-0.9187251329421996,0.7990292906761169,-0.2240945547819137,-0.1501677483320236
2024-11-02 23:37:08.510,1730517024.445185,0.2061807662248611,0.2616212666034698,0.2526017427444458,-0.3948775958814117,-0.0270191935695463,-0.3931923100870002,-0.0249368604272604,0.3846952021121979,-0.9227067232131958,1.298238754272461,-0.0483871847391128,-0.1676197052001953
2024-11-02 23:37:08.520,1730517024.4552932,0.1202529668807983,0.2063582241535186,0.2362624406814575,-0.378282897528952,-0.0268312596088206,-0.394446687795841,-0.024931302294135,0.3693253099918365,-0.92896568775177,2.000093460083008,0.1909787952899933,-0.1426660418510437
2024-11-02 23:37:08.531,1730517024.466464,-0.0613977164030075,0.3995639085769653,0.1265524625778198,-0.357417613311072,-0.0239497439289428,-0.3955549304849196,-0.0224340576678514,0.3498562276363373,-0.9365347623825072,2.098866701126098,0.4097353816032409,-0.1771760880947113
2024-11-02 23:37:08.540,1730517024.47527,-0.197488859295845,0.3510709404945373,0.0489281415939331,-0.3377964290884021,-0.0211453347108959,-0.3966901771890206,-0.0199488662183284,0.3314088582992553,-0.943276345729828,1.7527912855148315,0.2171105295419693,-0.1090030521154403
2024-11-02 23:37:08.550,1730517024.485292,-0.135008305311203,0.3065232038497925,0.0836161971092224,-0.3225450392118648,-0.0200973373070173,-0.3965105252195479,-0.019059669226408,0.3169813752174377,-0.9482402205467224,1.3229336738586426,-0.0091934436932206,0.0991134047508239
2024-11-02 23:37:08.560,1730517024.495242,-0.0062769502401351,0.0116663575172424,-0.0020176172256469,-0.3118929556978564,-0.0191217893250721,-0.3939177416786268,-0.018198138102889,0.3068608045578003,-0.9515804052352904,0.75204998254776,0.0889826640486717,0.3354604840278625
2024-11-02 23:37:08.571,1730517024.505649,-0.0109218889847397,-0.3170027136802673,-0.1791619658470153,-0.3083142989181206,-0.0163064354151969,-0.3900943671303193,-0.0155368400737643,0.3034528493881225,-0.952719748020172,-0.0002038339152932,0.2072720229625702,0.3574398159980774
2024-11-02 23:37:08.582,1730517024.516958,-0.1133578568696975,-0.2055333256721496,-0.1457231044769287,-0.3119955277201338,-0.0141250196660645,-0.3868884739685578,-0.0134426578879356,0.3069584369659424,-0.9516279697418212,-0.7419553399085999,0.0086033968254923,0.2579901814460754
2024-11-02 23:37:08.590,1730517024.525065,-0.112273022532463,-0.2025953829288482,-0.0131912231445312,-0.3232786626599859,-0.0146457947044139,-0.3851932360515399,-0.0138866305351257,0.3176770806312561,-0.948097288608551,-1.5318604707717896,-0.1920309066772461,0.0836295709013938
2024-11-02 23:37:08.600,1730517024.5351372,0.0544526502490043,-0.6083370447158813,-0.0493043065071105,-0.3430373711726823,-0.0169912152935184,-0.3852060133923218,-0.0160004924982786,0.3363490402698517,-0.9416014552116394,-2.315834045410156,-0.2818036675453186,0.0198703501373529
2024-11-02 23:37:08.610,1730517024.544985,0.1435990184545517,-0.5814469456672668,-0.13905930519104,-0.3676749773265677,-0.0200796002351088,-0.3849471000626764,-0.018736332654953,0.3594467639923095,-0.9329774975776672,-2.5435597896575928,-0.3113652765750885,0.089946374297142
2024-11-02 23:37:08.620,1730517024.555006,0.0821506604552269,-0.4202487766742706,-0.1376590132713318,-0.3890003235965926,-0.0224925109319812,-0.3848342522652385,-0.0208103097975254,0.3792636096477508,-0.9250546097755432,-1.501978039741516,-0.1149789914488792,0.0450300872325897
2024-11-02 23:37:08.631,1730517024.566513,0.0090390555560588,-0.3018075227737427,-0.0741848349571228,-0.3963305947179344,-0.0227686914416708,-0.3852425896383323,-0.0210019331425428,0.3860359787940979,-0.9222446084022522,-0.1545977592468261,0.1218418106436729,-0.1228124499320983
2024-11-02 23:37:08.640,1730517024.574918,-0.0331039950251579,0.0448486804962158,-0.043515145778656,-0.3949008691529202,-0.0221286229430786,-0.3880406584917981,-0.0204238202422857,0.3847166895866394,-0.9228087067604064,0.3810768127441406,0.1903745234012603,-0.3722020387649536
2024-11-02 23:37:08.650,1730517024.584935,0.0649707540869712,0.4960275590419769,0.0486148595809936,-0.3904670061826268,-0.0223756510408004,-0.3916707072943518,-0.0206897407770156,0.3806203007698059,-0.9244999289512634,0.4754680395126343,0.0134173268452286,-0.2798718512058258
2024-11-02 23:37:08.660,1730517024.594963,0.1377433240413665,0.4989605247974396,0.2335294485092163,-0.3841188855451614,-0.0241652508604976,-0.3938337042026936,-0.022402124479413,0.3747423887252807,-0.9268583059310912,0.8482755422592163,-0.1845679283142089,-0.1756112575531005
2024-11-02 23:37:08.670,1730517024.604908,0.173443853855133,0.1687692701816558,0.289625883102417,-0.3721564206363033,-0.026126184324062,-0.3951256807846275,-0.0243349578231573,0.3636250793933868,-0.931227445602417,1.6383239030838013,-0.1487753093242645,-0.1336353123188018
2024-11-02 23:37:08.681,1730517024.6164951,0.1729377061128616,0.371119886636734,0.2756778001785278,-0.3525860950751326,-0.0271012734708685,-0.3957570889031656,-0.025430966168642,0.3453259766101837,-0.93813818693161,2.3213343620300293,0.0171609334647655,-0.1307978332042694
2024-11-02 23:37:08.690,1730517024.62495,0.0236987583339214,0.558993399143219,0.1698335409164428,-0.3271355962729838,-0.0255121251530131,-0.3972206698080418,-0.0241565108299255,0.3213318586349487,-0.946658492088318,2.6733930110931396,0.3676401078701019,-0.291577935218811
2024-11-02 23:37:08.700,1730517024.634845,-0.0981656014919281,0.4695028066635132,0.0923392176628112,-0.3024358165088612,-0.0233330303668576,-0.3999521255431355,-0.0222720131278038,0.2978463470935821,-0.9543539881706238,2.1390559673309326,0.1909337937831878,-0.3043147921562195
2024-11-02 23:37:08.710,1730517024.644908,-0.1351555734872818,0.2903101444244385,0.1353586912155151,-0.2851160165813272,-0.0235104736512512,-0.4012340497788301,-0.022559255361557,0.2812687754631042,-0.95936381816864,1.3215078115463257,-0.140291541814804,0.0076846312731504
2024-11-02 23:37:08.720,1730517024.654818,-0.020134637132287,-0.1198684275150299,0.0040801763534545,-0.2763731663994594,-0.0242923145429228,-0.3992545278210613,-0.0233681574463844,0.2728682458400726,-0.961767554283142,0.425241470336914,-0.0470920912921428,0.3077761232852936
2024-11-02 23:37:08.732,1730517024.666604,0.0341243483126163,-0.5506598949432373,-0.2143840789794922,-0.277108368056146,-0.0223283897396112,-0.3957652374217201,-0.021474789828062,0.273575484752655,-0.9616107940673828,-0.5471859574317932,0.2345284074544906,0.3379555940628052
2024-11-02 23:37:08.740,1730517024.674758,-0.1254149675369262,-0.4131063520908355,-0.276260495185852,-0.2869307755555744,-0.0192959415499544,-0.3924942419654813,-0.0185059178620576,0.2830098271369934,-0.958938479423523,-1.3829560279846191,0.1437204778194427,0.3383746147155761
2024-11-02 23:37:08.750,1730517024.684782,-0.2205296456813812,-0.288129448890686,-0.103373110294342,-0.3042615422442306,-0.0183193442667768,-0.3895630013390748,-0.0174769312143325,0.2995887100696563,-0.953908383846283,-2.071857213973999,-0.1113307252526283,0.2751871347427368
2024-11-02 23:37:08.760,1730517024.694754,-0.032227486371994,-0.6363251209259033,0.0003067851066589,-0.3290439263202604,-0.0196713134993434,-0.3877507234200393,-0.0186147801578044,0.3231383860111236,-0.9461686015129088,-2.8061230182647705,-0.2765255570411682,0.1968772411346435
2024-11-02 23:37:08.770,1730517024.70469,0.1581204384565353,-0.6606782674789429,-0.052302598953247,-0.3591940983462848,-0.0222757109644248,-0.3854324833339978,-0.0208523590117692,0.3515198826789856,-0.935948133468628,-3.213207006454468,-0.3634524643421173,0.3534098863601684
2024-11-02 23:37:08.782,1730517024.716559,0.1344356536865234,-0.3904831111431122,-0.097487986087799,-0.3908690666938336,-0.0244668166741167,-0.3826930598115023,-0.022619230672717,0.3809920847415924,-0.9243015646934508,-2.979849338531494,-0.2031282931566238,0.3257325291633606
2024-11-02 23:37:08.790,1730517024.724664,0.0379951521754264,-0.202490359544754,-0.0368046164512634,-0.4128825128344719,-0.0244248317094467,-0.3798695707528099,-0.0223701391369104,0.4012512862682342,-0.915694773197174,-1.4716960191726685,-0.0486993081867694,0.2452131956815719
2024-11-02 23:37:08.800,1730517024.734648,-0.0513296797871589,0.043284386396408,-0.0280289649963378,-0.4213593803431255,-0.0236471330693199,-0.3796582857331358,-0.0215767975896596,0.4090013206005096,-0.912278652191162,-0.2472173869609832,0.1815528124570846,-0.1570576131343841
2024-11-02 23:37:08.810,1730517024.744684,-0.0027720164507627,0.3851603865623474,-0.0336736440658569,-0.4200356854760243,-0.0224508989854159,-0.3822170739669959,-0.0204976182430982,0.4077930450439453,-0.9128443002700806,0.3945940434932709,0.2083556652069091,-0.2766473889350891
2024-11-02 23:37:08.820,1730517024.754655,0.0778605937957763,0.5224939584732056,0.0523753762245178,-0.415356411499315,-0.0224933818951131,-0.3848824935867784,-0.0205790922045707,0.4035160541534424,-0.9147410988807678,0.5540814995765686,-0.021240783855319,-0.236479565501213
2024-11-02 23:37:08.832,1730517024.766727,0.1399016827344894,0.210103303194046,0.1991398930549621,-0.4074625436540134,-0.0249250035721038,-0.3873909260422302,-0.0228820070624351,0.3962808847427368,-0.9178441166877748,0.998992085456848,-0.2254996448755264,-0.2486294507980346
2024-11-02 23:37:08.840,1730517024.774565,0.2389585077762603,0.196598470211029,0.3579592108726501,-0.3955940287276671,-0.0277571448893329,-0.389237157138626,-0.0256101097911596,0.3853563964366913,-0.92241233587265,1.4266663789749146,-0.1522632539272308,-0.1328567713499069
2024-11-02 23:37:08.850,1730517024.7846088,0.18393175303936,0.332777589559555,0.3182675242424011,-0.374738410869553,-0.0292254781731678,-0.3900474504192913,-0.027193458750844,0.3660291135311126,-0.9302060008049012,2.5270349979400635,0.0378941744565963,-0.1675420403480529
2024-11-02 23:37:08.859,1730517024.794483,0.0059436336159706,0.4155738949775696,0.1958258152008056,-0.3493307527083636,-0.0285616208850842,-0.3932232932223601,-0.0268329065293073,0.3422690629959106,-0.9392187595367432,2.476590633392334,0.2322311699390411,-0.5506937503814697
2024-11-02 23:37:08.870,1730517024.804548,-0.0857521966099739,0.4791008234024048,0.0729677081108093,-0.3261985722101627,-0.0284371468737053,-0.3975965529184416,-0.0269339494407176,0.3204443752765655,-0.9468843340873718,2.010342597961426,0.0831399485468864,-0.3412595689296722
2024-11-02 23:37:08.882,1730517024.816739,-0.1140438988804817,0.2873745560646057,-0.0047462582588195,-0.3104533660752464,-0.0289291882983233,-0.399036239872012,-0.0275423917919397,0.3054903745651245,-0.9517967700958252,1.1376761198043823,-0.1097328290343284,-0.0290725827217102
2024-11-02 23:37:08.889,1730517024.8245149,-0.0588545724749565,-0.2768937349319458,-0.1247146129608154,-0.3034405170591895,-0.0289591188198975,-0.3976065396436584,-0.0276322327554225,0.298805296421051,-0.9539139866828918,0.2727956771850586,0.0193609707057476,0.2577815353870392
2024-11-02 23:37:08.899,1730517024.834445,-0.020596595481038,-0.4139699339866638,-0.1617478728294372,-0.3057986037891084,-0.027064102565443,-0.3942512476408656,-0.0258053634315729,0.301054835319519,-0.9532576203346252,-0.6733881831169128,0.111194223165512,0.3496357500553131
2024-11-02 23:37:08.909,1730517024.844445,-0.1124499440193176,-0.2841746807098388,-0.179063618183136,-0.3161321901438864,-0.0250069434448179,-0.3914976868820574,-0.0237652473151683,0.3108927607536316,-0.950147807598114,-1.358223557472229,0.125746801495552,0.232969045639038
2024-11-02 23:37:08.919,1730517024.854363,-0.1341231614351272,-0.3490759134292602,-0.1064981818199157,-0.3325907009031491,-0.0234764125452367,-0.389627882022423,-0.0221878588199615,0.3264928460121155,-0.9449391961097716,-1.9338054656982424,0.0583299398422241,0.2096268683671951
2024-11-02 23:37:08.932,1730517024.866778,-0.0784493386745452,-0.7202311754226685,-0.0252265930175781,-0.3551364150385698,-0.0226353388277621,-0.3883593009416707,-0.0212210603058338,0.3477182686328888,-0.937358856201172,-2.6153018474578857,0.022258223965764,0.1109490245580673
2024-11-02 23:37:08.940,1730517024.87459,0.0293950252234935,-0.6878113746643066,-0.0380355715751647,-0.3831692239098081,-0.0231733131552564,-0.3875584550313635,-0.0214909631758928,0.3738617599010467,-0.9272354245185852,-2.848329544067383,-0.1870422661304474,0.2334885150194168
2024-11-02 23:37:08.950,1730517024.8846369,0.0724672824144363,-0.3624787330627441,-0.0660021901130676,-0.4103351453400016,-0.0239177244671742,-0.3846406846340944,-0.0219301562756299,0.3989166617393493,-0.9167249202728271,-2.4601213932037354,-0.1382084190845489,0.3776595592498779
2024-11-02 23:37:08.959,1730517024.894524,0.0485664084553718,-0.2404567599296569,-0.0675945878028869,-0.4305460748841709,-0.0238431839796156,-0.3821814078241425,-0.0216651540249586,0.4173671007156372,-0.9084796905517578,-1.5226866006851196,-0.0788100659847259,0.130823016166687
2024-11-02 23:37:08.969,1730517024.904519,0.0104972086846828,0.1165203154087066,-0.022973358631134,-0.4390111298676158,-0.0231968316647243,-0.3823268854094185,-0.0209952481091022,0.4250445663928985,-0.9049288630485536,-0.1989952474832534,0.2653590142726898,-0.0877175703644752
2024-11-02 23:37:08.982,1730517024.916758,-0.0609528347849845,0.5210472345352173,0.089971125125885,-0.4360618538391981,-0.0200405472772324,-0.3838567452804478,-0.0181639790534973,0.4223731160163879,-0.9062400460243224,0.7027798295021057,0.3991117477416992,-0.2124669104814529
2024-11-02 23:37:08.989,1730517024.924361,0.0028664097189903,0.5868058204650879,0.1135476231575012,-0.4280039964017578,-0.0191519276759887,-0.3864341063698666,-0.0174232814460992,0.4150556623935699,-0.9096291661262512,0.8679882287979126,-0.0460183024406433,-0.2666262984275818
2024-11-02 23:37:08.999,1730517024.9342852,0.1900089383125305,0.3784439265727997,0.0609936714172363,-0.4180173660030458,-0.0222151619178945,-0.3888135447491999,-0.020300667732954,0.4059493243694305,-0.9136700630187988,1.1426478624343872,-0.3072035610675812,-0.2193673700094223
2024-11-02 23:37:09.009,1730517024.944223,0.3401332497596741,0.1832489669322967,0.1353363990783691,-0.4052021997093804,-0.0255547416704635,-0.3908704977008705,-0.0234828311949968,0.3942045867443084,-0.9187226295471193,1.438976526260376,-0.1707735508680343,-0.2098114192485809
2024-11-02 23:37:09.019,1730517024.954325,0.2513303756713867,0.249943345785141,0.1923964023590088,-0.3887247546307575,-0.0267349058942082,-0.3921810708291151,-0.0247373506426811,0.3790086209774017,-0.9250624179840088,1.899679183959961,0.027072686702013,-0.1185076087713241
2024-11-02 23:37:09.032,1730517024.96678,-0.0231166388839483,0.2908466160297394,0.1365522742271423,-0.3671087438630631,-0.0256860917513727,-0.3933393561454041,-0.0239719655364751,0.3589183390140533,-0.9330610632896424,2.3010213375091553,0.2859109044075012,-0.2624024748802185
2024-11-02 23:37:09.039,1730517024.9742131,-0.162267580628395,0.183609277009964,0.1256913542747497,-0.3458744402963929,-0.0245687415724427,-0.3972814133704929,-0.0231114402413368,0.3390194475650787,-0.9404954314231871,1.9002238512039185,0.0989974811673164,-0.5564009547233582
2024-11-02 23:37:09.049,1730517024.9841409,-0.1174609065055847,0.1664815247058868,0.1866353154182434,-0.3292900582658112,-0.0263689924958676,-0.4010270680830125,-0.0249493513256311,0.3233713209629059,-0.9459431767463684,1.3575423955917358,-0.1386891156435012,-0.2166668176651001
2024-11-02 23:37:09.059,1730517024.994104,-0.0047060269862413,-0.0415376722812652,0.1090420484542846,-0.3190963241267253,-0.0274925928306754,-0.4016346248217953,-0.0261014588177204,0.313708633184433,-0.9491604566574096,0.66214919090271,-0.0049030901864171,0.0316491909325122
2024-11-02 23:37:09.069,1730517025.004243,0.032297559082508,-0.40169158577919,-0.1472855806350708,-0.3155476348822137,-0.0258238107467173,-0.4000583810599009,-0.0245460718870162,0.3103371262550354,-0.9503096342086792,0.0884944200515747,0.2257002890110016,0.2455803900957107
2024-11-02 23:37:09.079,1730517025.0140982,-0.1195050776004791,-0.1202694177627563,-0.2962481379508972,-0.3174538288535208,-0.0221682715306787,-0.3965334177322281,-0.0210588704794645,0.3121486306190491,-0.9497998356819152,-0.4426097869873047,0.2462708204984665,0.4452238380908966
2024-11-02 23:37:09.089,1730517025.024318,-0.1953970044851303,0.0269436240196228,-0.2088788151741027,-0.3244042551272093,-0.0194716935151539,-0.3917164599207475,-0.0184548981487751,0.3187441825866699,-0.9476611018180848,-0.9432159066200256,-0.0213393215090036,0.4402461349964142
2024-11-02 23:37:09.099,1730517025.034202,-0.0778308361768722,-0.345482736825943,-0.0685773491859436,-0.3373168106295455,-0.0189245453625916,-0.3886071968492088,-0.0178570076823234,0.3309563100337982,-0.9434770941734314,-1.631179690361023,-0.0865510776638984,0.1960200816392898
2024-11-02 23:37:09.109,1730517025.044187,0.060823455452919,-0.5486886501312256,-0.0233828425407409,-0.357216927144935,-0.0200688794873503,-0.3875728884271383,-0.0188007410615682,0.3496682047843933,-0.9366849064826964,-2.370793104171753,-0.2430429458618164,0.1066928654909133
2024-11-02 23:37:09.119,1730517025.054373,0.0627873837947845,-0.4816848337650299,-0.0651471018791198,-0.3817266267754848,-0.022492158330973,-0.3855047538012336,-0.0208714753389358,0.3725233674049377,-0.9277880787849426,-2.4972236156463623,-0.3927762508392334,0.4024001359939575
2024-11-02 23:37:09.129,1730517025.0642009,0.059424877166748,-0.4722158014774322,-0.1228742599487304,-0.405975020159561,-0.024973376128221,-0.382052219055182,-0.0229410994797945,0.3949147164821625,-0.9184313416481018,-2.28197979927063,-0.3703668117523193,0.2890035510063171
2024-11-02 23:37:09.143,1730517025.078414,0.1091368049383163,-0.256432443857193,-0.0471611022949218,-0.4242413661502222,-0.02718381110949,-0.3806487700788851,-0.0247709490358829,0.4116295278072357,-0.9110145568847656,-1.2315624952316284,-0.120011568069458,0.1015154123306274
2024-11-02 23:37:09.151,1730517025.085607,0.0583582818508148,0.1994588673114776,0.0401594638824462,-0.4295000463661657,-0.0257409095146128,-0.3806658343858344,-0.0234003830701112,0.4164163172245025,-0.9088728427886964,0.0583960488438606,0.3331535160541534,-0.1257947087287902
2024-11-02 23:37:09.159,1730517025.094006,-0.0160422548651695,0.3962492346763611,0.114428162574768,-0.4248752577392179,-0.0245825071046804,-0.3837641085008236,-0.0223946254700422,0.4122071266174316,-0.910814881324768,0.7995167970657349,0.1392000317573547,-0.4034065008163452
2024-11-02 23:37:09.169,1730517025.104174,0.0708150118589401,0.4682172238826751,0.0165790915489196,-0.4161584030833818,-0.0257597616040155,-0.3875188976811599,-0.0235585253685712,0.4042497277259826,-0.9143452048301696,0.878624677658081,-0.0733585804700851,-0.3159264624118805
2024-11-02 23:37:09.179,1730517025.1140308,0.1827363222837448,0.3088760077953338,0.0621233582496643,-0.406645565255758,-0.0284763185691335,-0.3905120290977524,-0.026150619611144,0.3955306708812713,-0.9180803894996644,1.055117130279541,-0.1892833113670349,-0.2923109233379364
2024-11-02 23:37:09.189,1730517025.124249,0.2161352187395095,0.1560344099998474,0.2248986959457397,-0.3936833534500523,-0.0302517450412096,-0.3925476204181767,-0.0279332976788282,0.3835926055908203,-0.9230798482894896,1.645974040031433,-0.094764269888401,-0.1728665679693222
2024-11-02 23:37:09.199,1730517025.134283,0.0944435149431228,0.2966990768909454,0.2943199872970581,-0.3742865751493976,-0.0309965054293335,-0.393431277254971,-0.0288459565490484,0.3656086027622223,-0.9303215742111206,2.2942092418670654,0.0267581660300493,-0.1588415503501892
2024-11-02 23:37:09.209,1730517025.143869,-0.0601221621036529,0.301518827676773,0.2304604053497314,-0.3497483555066005,-0.0295784685550789,-0.3952711490154161,-0.0277837067842483,0.3426614105701446,-0.9390480518341064,2.471691131591797,0.3826014995574951,-0.3286228775978088
2024-11-02 23:37:09.219,1730517025.153915,-0.1093812957406044,0.2883066236972809,0.1506180167198181,-0.3279692078468762,-0.0271875823453953,-0.3981264771884139,-0.0257352720946073,0.3221211433410644,-0.9463486075401306,1.834163784980774,0.2488133311271667,-0.2921395301818847
2024-11-02 23:37:09.229,1730517025.1639051,-0.1445297598838806,0.3011779487133026,0.1540701985359192,-0.3128160447793734,-0.0262251505806666,-0.399359550396404,-0.0249496027827262,0.3077392280101776,-0.9511435627937316,1.1809982061386108,0.125004842877388,-0.0121861724182963
2024-11-02 23:37:09.239,1730517025.1738749,-0.0622385889291763,-0.0458256304264068,-0.0209112763404846,-0.3048433958010049,-0.0238868680865832,-0.3978826398485713,-0.0227833725512027,0.3001438081264496,-0.9536218643188475,0.3980885446071625,0.2656154930591583,0.2481509298086166
2024-11-02 23:37:09.249,1730517025.183924,-0.0431142002344131,-0.5031811594963074,-0.2283362746238708,-0.305135363809767,-0.0195100010305925,-0.3939333569497725,-0.0186075810343027,0.3004222810268402,-0.9536247849464417,-0.4267507493495941,0.3481191396713257,0.5029022693634033
2024-11-02 23:37:09.259,1730517025.193801,-0.1392083764076233,-0.3196873962879181,-0.219103991985321,-0.3131052201641627,-0.0149298616040065,-0.3884618780661955,-0.0142034692689776,0.3080143630504608,-0.9512757062911988,-1.1146920919418335,0.2104339897632599,0.5171028971672058
2024-11-02 23:37:09.269,1730517025.203832,-0.119103729724884,-0.1794309318065643,-0.1065340638160705,-0.327077224654707,-0.011978984253583,-0.383875553568995,-0.011343652382493,0.3212765753269195,-0.9469174742698668,-1.664059042930603,0.0894958525896072,0.3987173736095428
2024-11-02 23:37:09.279,1730517025.213762,-0.0251846686005592,-0.5020979046821594,-0.0479596853256225,-0.3465801256436239,-0.0103587945798065,-0.3804379496972529,-0.0097426855936646,0.3396832644939422,-0.9404894113540648,-2.2967405319213867,-0.0057342629879713,0.2942763268947601
2024-11-02 23:37:09.289,1730517025.2238278,0.0041205594316124,-0.5868238210678101,-0.062762975692749,-0.3707898157378127,-0.0107077915161308,-0.3769146841422645,-0.0099799148738384,0.3623516857624054,-0.931988000869751,-2.545882225036621,-0.352683424949646,0.4520497322082519
2024-11-02 23:37:09.299,1730517025.233894,0.0442734584212303,-0.3741900026798248,-0.0671117901802063,-0.3975658478882148,-0.0138938686105272,-0.3722070964192149,-0.0128098204731941,0.3871752023696899,-0.921917200088501,-2.722275733947754,-0.6272111535072327,0.4311423003673553
2024-11-02 23:37:09.309,1730517025.243737,0.0984117165207862,-0.234628826379776,-0.0524353981018066,-0.4220838751072785,-0.0189945581873689,-0.3694742296077509,-0.0173265021294355,0.4096623361110687,-0.9120726585388184,-2.048614263534546,-0.526545524597168,0.130198448896408
2024-11-02 23:37:09.319,1730517025.253793,0.0794453844428062,0.0519057810306549,-0.0016747713088989,-0.4353995893882754,-0.0211981158306368,-0.3697450606321697,-0.0192189253866672,0.4217727482318878,-0.9064978957176208,-0.5910781025886536,0.1511253863573074,-0.093654453754425
2024-11-02 23:37:09.329,1730517025.263618,-0.0287962183356285,0.3042225837707519,0.0166503190994262,-0.4346452166097843,-0.0176282253112997,-0.3710853409702323,-0.015988316386938,0.4210886359214782,-0.9068785905838012,0.6163056492805481,0.5612271428108215,-0.1603285521268844
2024-11-02 23:37:09.339,1730517025.273656,-0.0069691697135567,0.442459374666214,-0.0020796060562133,-0.4267949082957698,-0.014789477563647,-0.3735354528856096,-0.0134623292833566,0.4139553606510162,-0.910197615623474,0.8531280159950256,0.1533456742763519,-0.3008249402046203
2024-11-02 23:37:09.349,1730517025.283893,0.2072788476943969,0.4038755595684051,-0.0311214327812194,-0.4183398398807452,-0.0173881203759938,-0.3767952108990188,-0.0158878490328788,0.4062440097332001,-0.913626492023468,0.859750509262085,-0.3923608064651489,-0.3173072338104248
2024-11-02 23:37:09.359,1730517025.293683,0.4206193685531616,0.1408862471580505,0.1339130401611328,-0.4083636607270163,-0.0237558373269672,-0.3800372784008879,-0.0218003876507282,0.3971080780029297,-0.9175128936767578,1.1788043975830078,-0.5326564311981201,-0.2980206310749054
2024-11-02 23:37:09.369,1730517025.303653,0.3891200721263885,0.0817814767360687,0.2613385915756225,-0.394464039357685,-0.0287028738113396,-0.3819919343625327,-0.0264949314296245,0.3843134343624115,-0.9228224158287048,1.612900733947754,-0.2025743573904037,-0.1285623610019683
2024-11-02 23:37:09.378,1730517025.3134742,0.0777044221758842,0.2587027251720428,0.2099503874778747,-0.3756497310953405,-0.0296673154568826,-0.3826603065601954,-0.0275945495814085,0.366877019405365,-0.9298601150512696,2.160423755645752,0.0655202120542526,-0.1392738670110702
2024-11-02 23:37:09.389,1730517025.3236098,-0.2004730552434921,0.3412923812866211,0.117035686969757,-0.352436134271642,-0.0283708885538098,-0.3845810559365381,-0.0266234874725341,0.3451852202415466,-0.9381569027900696,2.3720500469207764,0.2847351133823395,-0.3730796873569488
2024-11-02 23:37:09.399,1730517025.333897,-0.252158910036087,0.2832339107990265,0.1003125309944152,-0.3298789214236521,-0.028010836694182,-0.3885068539722671,-0.026497071608901,0.3239284753799438,-0.9457104206085204,2.0812177658081055,-0.0189278293401002,-0.4719178676605224
2024-11-02 23:37:09.408,1730517025.34342,-0.1369622349739074,0.1366341114044189,0.169157326221466,-0.3124719625003601,-0.0297665300837629,-0.3914119531095835,-0.028320949524641,0.3074118494987488,-0.9511550068855286,1.3241333961486816,-0.0502364858984947,-0.1712182164192199
2024-11-02 23:37:09.419,1730517025.354085,0.0167175140231847,-0.1512064337730407,0.0775898694992065,-0.3034238375667834,-0.0295618980880495,-0.3915266120959096,-0.0282073747366666,0.298789381980896,-0.9539021253585817,0.5168966054916382,0.1199368461966514,0.096388503909111
2024-11-02 23:37:09.428,1730517025.363483,-0.016103783622384,-0.3304532766342163,-0.1273144483566284,-0.301204039382464,-0.0266646069342683,-0.3890898818633083,-0.0254611484706401,0.2966702580451965,-0.9546405076980592,-0.0497202537953853,0.307366132736206,0.3555018305778503
2024-11-02 23:37:09.444,1730517025.378998,-0.1829986274242401,-0.2757346630096435,-0.250674307346344,-0.3047685102553655,-0.0219482034790452,-0.3845340749394679,-0.020935071632266,0.3000723719596863,-0.9536866545677184,-0.6247507929801941,0.3196755349636078,0.4883312582969665
2024-11-02 23:37:09.451,1730517025.385862,-0.1896669566631317,-0.2350396811962127,-0.20323246717453,-0.3136589999329053,-0.0184484632741542,-0.3805406742461929,-0.0175473857671022,0.3085411787033081,-0.9510491490364076,-1.1442618370056152,0.1777985543012619,0.300349622964859
2024-11-02 23:37:09.458,1730517025.393467,-0.0502031743526458,-0.3217529356479645,-0.0440521240234375,-0.3280315110980006,-0.0165684371024868,-0.378361848058224,-0.015684263780713,0.3221801221370697,-0.9465484619140624,-1.7405537366867063,0.0600261054933071,0.1748727113008499
2024-11-02 23:37:09.468,1730517025.403435,0.0474133864045143,-0.5301862359046936,0.006740927696228,-0.3481347145850516,-0.0168710327607871,-0.3769183760080449,-0.0158581994473934,0.3411450088024139,-0.939876914024353,-2.151014804840088,-0.2180888652801513,0.214297354221344
2024-11-02 23:37:09.478,1730517025.413448,0.08119697868824,-0.5117714405059814,-0.0738800764083862,-0.3710087039059612,-0.0188678433455281,-0.3742791431219808,-0.0175830721855163,0.3625556826591491,-0.9317961931228638,-2.3893094062805176,-0.3131168484687805,0.3073159754276275
2024-11-02 23:37:09.488,1730517025.423406,0.1098384335637092,-0.3400889635086059,-0.1296254992485046,-0.3935171406138673,-0.021485861393467,-0.3725303656628863,-0.0198420882225036,0.3834390938282013,-0.9233530163764954,-1.9763445854187012,-0.3661220073699951,0.0805552676320076
2024-11-02 23:37:09.499,1730517025.434031,0.0679835155606269,0.0162764191627502,-0.0698866844177246,-0.4068915556265611,-0.0233693916187735,-0.3731090152506718,-0.0214594546705484,0.3957566022872925,-0.9181047081947328,-0.6382452249526978,0.1447045058012008,-0.0901669934391975
2024-11-02 23:37:09.508,1730517025.443345,-0.0610055960714817,0.2546340227127075,-0.0207571387290954,-0.4070576544890258,-0.0194415045133406,-0.3745819054619045,-0.0178518090397119,0.3959091305732727,-0.9181161522865297,0.4712125062942505,0.6536015272140503,-0.2084824442863464
2024-11-02 23:37:09.518,1730517025.453378,-0.0539858825504779,0.3569077849388122,0.0639630556106567,-0.4001120837244768,-0.0161866612117745,-0.3779380452081507,-0.014907544478774,0.3895215690135956,-0.9208967089653016,0.8327120542526245,0.2163494080305099,-0.3871371746063232
2024-11-02 23:37:09.528,1730517025.463537,0.1262972205877304,0.4796083271503448,0.072458803653717,-0.391045420708279,-0.0173310308495494,-0.381618627567171,-0.0160219278186559,0.3811551332473755,-0.9243722558021544,0.9864179491996764,-0.1194991767406463,-0.3228652477264404
2024-11-02 23:37:09.538,1730517025.473456,0.2853465974330902,0.2511901557445526,0.1905916929244995,-0.3783796925251018,-0.0203867697383379,-0.3842217066580675,-0.0189433880150318,0.3694152534008026,-0.929071307182312,1.5397453308105469,-0.2507525384426117,-0.1831816285848617
2024-11-02 23:37:09.549,1730517025.484047,0.2680952548980713,0.1539226472377777,0.3092472553253174,-0.3596556401272701,-0.0221541689048268,-0.3857764245993326,-0.0207350067794322,0.35195192694664,-0.93578839302063,2.259423017501831,0.0038216914981603,-0.231558471918106
2024-11-02 23:37:09.558,1730517025.493243,0.0689754411578178,0.3179469704627991,0.2306808233261108,-0.3354493105253441,-0.0207239774677495,-0.3890519054668274,-0.0195674747228622,0.3291934728622436,-0.9440597295761108,2.4438652992248535,0.4714184403419494,-0.4798897802829742
2024-11-02 23:37:09.568,1730517025.503274,-0.1438137888908386,0.4520589113235473,0.0841374397277832,-0.3128459460868639,-0.0178667004558962,-0.3935341473802268,-0.0169985741376876,0.3077676892280578,-0.9513096809387208,2.0147790908813477,0.3268660604953766,-0.4050192534923553
2024-11-02 23:37:09.578,1730517025.513318,-0.2342726737260818,0.3198756873607635,0.0968196392059326,-0.2957128946402635,-0.0171436240708057,-0.3958189612867949,-0.0163986962288618,0.2914218604564667,-0.95645409822464,1.404616355895996,-0.0301487911492586,-0.0857710689306259
2024-11-02 23:37:09.588,1730517025.523265,-0.0596442185342311,-0.1041463017463684,0.0476325750350952,-0.285085760198789,-0.0170646218039837,-0.3951523724120024,-0.0163750573992729,0.2812397480010986,-0.9594978094100952,0.7330384254455566,0.0577983707189559,0.167748287320137
2024-11-02 23:37:09.599,1730517025.5342631,0.0654892772436142,-0.3347103893756866,-0.1624835133552551,-0.281053315152343,-0.0150551281432254,-0.3922659571108934,-0.0144638754427433,0.2773678004741668,-0.96065491437912,0.0348866321146488,0.1926288902759552,0.3665511012077331
2024-11-02 23:37:09.608,1730517025.543206,-0.0892076268792152,-0.1457901298999786,-0.2218855619430542,-0.284754553920135,-0.0118241900591001,-0.3882744752211445,-0.0113477725535631,0.2809219062328338,-0.9596635103225708,-0.7699025273323059,0.1906126141548156,0.3825399279594421
2024-11-02 23:37:09.618,1730517025.553375,-0.20340496301651,-0.1506800353527069,-0.092792272567749,-0.2957980539664534,-0.0097729092909291,-0.3850250150464,-0.009348320774734,0.2915033400058746,-0.956524133682251,-1.4096615314483645,0.0263243373483419,0.2589408755302429
2024-11-02 23:37:09.628,1730517025.563231,-0.1017877832055091,-0.4539937973022461,0.0138682723045349,-0.3125584073793669,-0.0096574114852771,-0.3830577639040028,-0.0091893672943115,0.3074941039085388,-0.9515056014060974,-1.9582775831222536,-0.1135653853416442,0.1447610557079315
2024-11-02 23:37:09.638,1730517025.573405,0.0819381475448608,-0.6818100810050964,1.5497207641601562e-05,-0.3356444798248396,-0.0113109920307621,-0.3824528875676916,-0.0106795905157923,0.3293777406215668,-0.9441378116607666,-2.5971896648406982,-0.2663517296314239,0.0422685444355011
2024-11-02 23:37:09.650,1730517025.584929,0.1557861864566803,-0.5760695338249207,-0.0895473957061767,-0.3635835098165498,-0.0144425664743537,-0.3817611357612206,-0.0134979644790291,0.3556257486343384,-0.9345309734344482,-2.964811325073242,-0.377256691455841,0.1510189920663833
2024-11-02 23:37:09.658,1730517025.593126,0.1084132865071296,-0.4078620970249176,-0.1586878299713134,-0.3912478502367709,-0.0176784851846922,-0.3809637224269773,-0.0163417402654886,0.3813422620296478,-0.9242894649505616,-2.300347328186035,-0.2579563856124878,0.1142888888716697
2024-11-02 23:37:09.668,1730517025.603084,0.033673845231533,-0.247286170721054,-0.1167204976081848,-0.4046634499215756,-0.0176435936494516,-0.3804324719483006,-0.0162177663296461,0.3937094211578369,-0.9190918803215028,-0.5173754096031189,0.2688624262809753,-0.0129319103434681
2024-11-02 23:37:09.678,1730517025.613031,-0.0798869729042053,0.1050153970718383,-0.1018233895301818,-0.4034780074010807,-0.0148250682856646,-0.3826445757886078,-0.0136341312900185,0.3926194310188293,-0.919599950313568,0.6895984411239624,0.4172252416610718,-0.3779219686985016
2024-11-02 23:37:09.688,1730517025.623188,-0.0291694365441799,0.5302333831787109,-0.0748145580291748,-0.3942368894623404,-0.0125663032374825,-0.3867528853616939,-0.0116020357236266,0.3841037154197693,-0.9232170581817628,1.0202938318252563,0.3159375190734863,-0.3482772707939148
2024-11-02 23:37:09.699,1730517025.634368,0.1198011189699173,0.7120848894119263,0.1244598627090454,-0.3838339329402807,-0.0124623624294468,-0.3894993637426562,-0.0115552488714456,0.3744781613349914,-0.9271637201309204,1.08882737159729,-0.1102028787136077,-0.2092911899089813
2024-11-02 23:37:09.708,1730517025.643029,0.2281857132911682,0.3607310652732849,0.3389176726341247,-0.3706759602397547,-0.0158372504307201,-0.3915865529528766,-0.014761010184884,0.3622455596923828,-0.9319658279418944,1.6331020593643188,-0.3458209931850433,-0.2374208271503448
2024-11-02 23:37:09.718,1730517025.6530318,0.2762429118156433,0.2148450314998626,0.4831773042678833,-0.3511984085526059,-0.0182482086901613,-0.3944712891936785,-0.0171334072947502,0.3440233170986175,-0.9388047456741332,2.1903750896453857,0.1840567141771316,-0.3323426842689514
2024-11-02 23:37:09.728,1730517025.663239,0.1248872205615043,0.3358773589134216,0.3580102920532226,-0.3278790356544789,-0.0171917958587703,-0.3982466893020461,-0.016275143250823,0.3220357894897461,-0.9465875625610352,2.2587292194366455,0.2110952585935592,-0.4071250259876251
2024-11-02 23:37:09.738,1730517025.67309,-0.1224031075835228,0.3949205279350281,0.1734009385108947,-0.3066556429527737,-0.0166334691550819,-0.401411362057102,-0.0158567614853382,0.3018719851970672,-0.9532166123390198,1.9351229667663576,0.1136989295482635,-0.2513298988342285
2024-11-02 23:37:09.749,1730517025.68426,-0.1450548470020294,0.1077566444873809,0.0075612068176269,-0.2900141880837804,-0.0156327699377943,-0.4029274018681549,-0.0149793326854705,0.2859658300876617,-0.958122730255127,1.3526486158370972,0.1945708692073822,-0.0935679599642753
2024-11-02 23:37:09.758,1730517025.693068,-0.0695573538541793,-0.1567911505699157,-0.1559769511222839,-0.2801939851430667,-0.0129963207460267,-0.4024155175439417,-0.0124891363084316,0.276542067527771,-0.9609206318855286,0.5881960988044739,0.274422287940979,0.1865303367376327
2024-11-02 23:37:09.768,1730517025.703193,-0.1520307213068008,-0.0968503654003143,-0.2206460237503051,-0.2796656229403105,-0.0098194279619167,-0.399034400220005,-0.0094377696514129,0.276034265756607,-0.9611014723777772,-0.4488981962203979,0.1647131145000457,0.438145250082016
2024-11-02 23:37:09.778,1730517025.71304,-0.1756152361631393,-0.1848997771739959,-0.133657157421112,-0.2881282267009236,-0.0075576961985341,-0.3949350197460846,-0.0072460793890058,0.2841581106185913,-0.958750069141388,-1.193015456199646,0.0591451339423656,0.3228047490119934
2024-11-02 23:37:09.788,1730517025.722897,-0.0714883282780647,-0.3725284934043884,-0.0430828332901001,-0.3025215266939044,-0.0066327358085722,-0.3928920070703535,-0.0063314856961369,0.2979281842708587,-0.9545673131942748,-1.676733136177063,0.0083293579518795,0.1072469055652618
2024-11-02 23:37:09.799,1730517025.734496,-0.0171808153390884,-0.565277099609375,-0.0348979234695434,-0.3218742582982437,-0.0067401899430614,-0.3923436341639392,-0.0063939932733774,0.3163451254367828,-0.9486226439476012,-2.2222437858581543,-0.0672871023416519,0.0281706247478723
2024-11-02 23:37:09.808,1730517025.74282,0.0237448289990425,-0.6303020715713501,-0.0984419584274292,-0.347456120271603,-0.0084249990104581,-0.3926503469044939,-0.0079214442521333,0.3405070602893829,-0.940208613872528,-2.8333258628845215,-0.2798153460025787,-0.0262936819344759
2024-11-02 23:37:09.818,1730517025.7528071,0.1031631156802177,-0.5084637999534607,-0.1620858907699585,-0.3729451907112794,-0.0120089020703837,-0.3920645567412822,-0.0111831203103065,0.3643597364425659,-0.9311911463737488,-2.0099430084228516,-0.4528941810131073,0.1961226165294647
2024-11-02 23:37:09.828,1730517025.7628,0.1229531541466713,-0.3756352961063385,-0.1772069334983825,-0.3873882153248083,-0.013017191516968,-0.3907892102303466,-0.0120522631332278,0.3777714669704437,-0.9258204102516174,-0.8499801754951477,0.1810028702020645,0.0232160799205303
2024-11-02 23:37:09.838,1730517025.772815,0.0576704256236553,-0.0660988390445709,-0.1916677355766296,-0.3895021689319079,-0.0105480695360092,-0.3928850300955783,-0.0097578195855021,0.3797279298305511,-0.9250467419624328,0.3453215956687927,0.4283197224140167,-0.38444384932518
2024-11-02 23:37:09.849,1730517025.7844582,-0.005880422424525,0.52962327003479,-0.1854983568191528,-0.3836825960936144,-0.0078100438249594,-0.3970867805563394,-0.0072421208024024,0.3743378520011902,-0.9272640943527222,0.7216640710830688,0.4026812016963959,-0.348512202501297
2024-11-02 23:37:09.858,1730517025.792747,0.0413594543933868,0.6547544002532959,0.1198971271514892,-0.3766071226087706,-0.0070481446512677,-0.3998883517474355,-0.0065541407093405,0.3677674829959869,-0.9298946857452391,0.7065473198890686,-0.0625559985637664,-0.208036795258522
2024-11-02 23:37:09.868,1730517025.8027558,0.2021027207374572,0.3276889622211456,0.3118807077407837,-0.3688013352378683,-0.0098318158636435,-0.4020931373852383,-0.0091705778613686,0.3604976236820221,-0.9327150583267212,0.9204915761947632,-0.2618009150028229,-0.2278286069631576
2024-11-02 23:37:09.878,1730517025.81267,0.3059846460819244,0.1608510315418243,0.4728121161460876,-0.3554846620581999,-0.013184431255387,-0.4048629949277855,-0.0123597551137208,0.348044753074646,-0.9373964071273804,1.7232273817062378,-0.1550609022378921,-0.3297838866710663
2024-11-02 23:37:09.888,1730517025.822731,0.1688847243785858,0.2766324877738952,0.4677359461784363,-0.3371560506208694,-0.0136152928864729,-0.408597806233553,-0.012848344631493,0.3308045864105224,-0.9436118006706238,1.8741637468338013,0.2928593456745147,-0.4175089299678802
2024-11-02 23:37:09.900,1730517025.8345551,-0.0833721235394477,0.3487586081027984,0.3219788670539856,-0.3167918309442541,-0.0109054737610847,-0.4114210562786776,-0.0103626092895865,0.3115196526050567,-0.9501832127571106,2.2124083042144775,0.1832915842533111,-0.2304122596979141
2024-11-02 23:37:09.908,1730517025.842649,-0.2047474235296249,0.2583945989608764,0.2518367171287536,-0.2976311183565652,-0.0102096632630441,-0.4127725665460406,-0.0097606144845485,0.2932563126087188,-0.9559840559959412,1.6557561159133911,0.0605856366455554,-0.1155189499258995
2024-11-02 23:37:09.918,1730517025.852683,-0.1091510504484176,-0.0327067673206329,-0.0366537570953369,-0.2837525801329678,-0.0088481198685282,-0.4130843807320689,-0.0084941871464252,0.2799601256847381,-0.9599740505218506,1.1193630695343018,0.239094391465187,0.0869193226099014
2024-11-02 23:37:09.928,1730517025.862735,-0.0212317761033773,0.0322005152702331,-0.3202137947082519,-0.2768649931003171,-0.0048152492217607,-0.409887350031709,-0.0046318527311086,0.2733413875102997,-0.9619059562683104,0.2359241396188736,0.3649002611637115,0.4706392884254455
2024-11-02 23:37:09.938,1730517025.87269,-0.2541247010231018,-0.0209690332412719,-0.3432403206825256,-0.2784123014781738,-0.0002964775597697,-0.4053862156834403,-0.0002850611053872,0.2748294472694397,-0.961492955684662,-0.5202632546424866,0.2720614075660705,0.3552378714084625
2024-11-02 23:37:09.950,1730517025.884624,-0.2979365587234497,-0.2261035144329071,-0.1651192903518676,-0.2868127874804189,0.0020771988414464,-0.4029614309734623,0.0019923446234315,0.2828966379165649,-0.9591483473777772,-1.1861352920532229,0.0626226887106895,0.119786724448204
2024-11-02 23:37:09.958,1730517025.892622,-0.0709073394536972,-0.4636041522026062,-0.008598506450653,-0.3027411176104709,0.0019500162472806,-0.4023052608413095,0.0018613338470458,0.2981377840042114,-0.9545210003852844,-2.044401168823242,-0.1110471040010452,0.0007901865756139
2024-11-02 23:37:09.968,1730517025.902601,0.1511933207511901,-0.7439703345298767,-0.0948066711425781,-0.3270716125911834,-0.0004125696746176,-0.4028333048470171,-0.0003906982019543,0.3212712705135345,-0.9469871520996094,-2.631356000900269,-0.3660354614257812,-0.0619773268699646
2024-11-02 23:37:09.977,1730517025.9125118,0.2313188761472702,-0.7023079991340637,-0.1372352242469787,-0.3491116170866057,-0.0041036555907714,-0.4018671701353392,-0.0038560999091714,0.342063158750534,-0.9396690726280212,-1.829218864440918,-0.2688359320163727,0.1508803516626358
2024-11-02 23:37:09.988,1730517025.9225578,0.1447559595108032,-0.5317502021789551,-0.1645275354385376,-0.3617635531938013,-0.0044331690533544,-0.4014864376527344,-0.0041462145745754,0.3539241850376129,-0.9352649450302124,-0.6200231313705444,0.1257523894309997,-0.1006959602236747
2024-11-02 23:37:10.000,1730517025.9346762,0.0207074247300624,-0.1074536442756652,-0.18516606092453,-0.3619316466520119,-0.0029544874702336,-0.4040888695699474,-0.0027630757540464,0.354081392288208,-0.9352105259895324,0.5026038885116577,0.3592426478862762,-0.3468937873840332
2024-11-02 23:37:10.007,1730517025.942486,-0.0416443236172199,0.4712602794170379,-0.1132500767707824,-0.3545411022792024,-0.0004197291133094,-0.407657097781769,-0.0003936244174838,0.3471600413322449,-0.9378058314323424,0.8890724778175354,0.3202102780342102,-0.294338971376419
2024-11-02 23:37:10.017,1730517025.952488,0.0408636070787906,0.626887857913971,0.195296049118042,-0.3460089638036598,-0.0004060890698497,-0.4100170067385921,-0.0003820216807071,0.3391460180282593,-0.9407336711883544,0.8053210973739624,-0.1646517366170883,-0.156662181019783
2024-11-02 23:37:10.028,1730517025.9626498,0.1960197687149047,0.3824534118175506,0.4016435146331787,-0.337235584733116,-0.0037731800208569,-0.411429030773946,-0.0035606394521892,0.330879658460617,-0.9436662197113036,1.000355839729309,-0.3599506616592407,-0.1270923018455505
2024-11-02 23:37:10.037,1730517025.972511,0.2756570279598236,0.1935630440711975,0.4950266480445862,-0.3241697029925872,-0.0070097303485822,-0.4127951021805245,-0.0066445777192711,0.3185218572616577,-0.9478922486305236,1.673404335975647,-0.1526781618595123,-0.1470620781183242
2024-11-02 23:37:10.050,1730517025.984725,0.1205207407474517,0.350011944770813,0.4019234180450439,-0.3010607518717533,-0.0053595886253978,-0.4139648013841985,-0.0051185032352805,0.2965334057807922,-0.9550087451934814,2.6356635093688965,0.4663664400577545,-0.178836241364479
2024-11-02 23:37:10.057,1730517025.992422,-0.1285076141357422,0.421318918466568,0.2419140934944152,-0.2764167170136841,-0.0021114750979559,-0.4172348189196642,-0.0020313209388405,0.2729101479053497,-0.9620373845100404,2.2730512619018555,0.3043200075626373,-0.4047427177429199
2024-11-02 23:37:10.067,1730517026.002362,-0.1345814019441604,0.3886954486370086,0.1097642183303833,-0.2572444818196412,-0.0005218129671443,-0.4197194765395677,-0.0005046425503678,0.254416674375534,-0.9670945405960084,1.5113471746444702,0.1468941569328308,-0.0234936345368623
2024-11-02 23:37:10.077,1730517026.012312,-0.0434621796011924,0.1630858331918716,-0.113699734210968,-0.2465232933628477,0.0013584885631267,-0.4174860916134742,0.0013174165505915,0.2440338432788849,-0.969765841960907,0.6533452868461609,0.1488097757101059,0.4231201112270355
2024-11-02 23:37:10.087,1730517026.02237,-0.1129777729511261,-0.2786648273468017,-0.3673595786094665,-0.2456669620841086,0.0042806417474324,-0.4125396379790874,0.0041521042585372,0.2432033121585846,-0.969966471195221,-0.4701747298240661,0.1672846525907516,0.4731015264987945
2024-11-02 23:37:10.100,1730517026.034769,-0.1978422105312347,-0.3680925369262695,-0.3824047446250915,-0.2543874935700474,0.0060824472352116,-0.4087273708431421,0.0058866632170975,0.2516526579856872,-0.967799723148346,-1.2896133661270142,-0.0011482997797429,0.269832044839859
2024-11-02 23:37:10.107,1730517026.042316,-0.190276637673378,-0.3484443724155426,-0.1546711325645446,-0.2710947267408749,0.0057484766118558,-0.4064766145862238,0.0055385022424161,0.2677863538265228,-0.9634624123573304,-2.034843921661377,-0.1928178668022155,0.1414988338947296
2024-11-02 23:37:10.117,1730517026.052304,-0.0210172161459922,-0.6260400414466858,-0.0466079711914062,-0.2953226089214562,0.003275740993002,-0.4058235041425441,0.0031339230481535,0.2910484969615936,-0.9567031860351562,-2.8319242000579834,-0.3364621102809906,-0.0311680119484663
2024-11-02 23:37:10.128,1730517026.062587,0.163463294506073,-0.7083290815353394,-0.0610635876655578,-0.3237094041434074,-0.001363694122428,-0.4054346912084253,-0.0012928661890327,0.3180854916572571,-0.9480611681938172,-2.6433305740356445,-0.6494379043579102,0.1888841986656189
2024-11-02 23:37:10.138,1730517026.0726771,0.187000036239624,-0.590076208114624,-0.1263248324394226,-0.3456514891221015,-0.0047394676767691,-0.4034144199883128,-0.0044591347686946,0.3388096988201141,-0.9408443570137024,-1.6935861110687256,-0.0901860296726226,0.1505988538265228
2024-11-02 23:37:10.150,1730517026.084898,0.1191184520721435,-0.3884578347206116,-0.11058109998703,-0.3561440613276536,-0.004192965854361,-0.4039096426822155,-0.0039298380725085,0.3486628532409668,-0.937239944934845,-0.4745496809482574,0.159874677658081,-0.2394533157348632
2024-11-02 23:37:10.157,1730517026.092402,0.0377793349325656,0.1634502112865448,-0.192554771900177,-0.3576936672068334,-0.0030446626786684,-0.4073308303802876,-0.0028519518673419,0.3501148223876953,-0.9367024302482604,0.1136336475610733,0.3123949766159057,-0.3565580248832702
2024-11-02 23:37:10.167,1730517026.102367,0.0081650093197822,0.572293758392334,-0.0972743034362793,-0.3551541238064734,-0.0013686902608775,-0.4106821689779307,-0.0012832739157602,0.3477348685264587,-0.9375920295715332,0.3497148752212524,0.1942709982395172,-0.2654494345188141
2024-11-02 23:37:10.177,1730517026.11228,0.0955559313297271,0.5352795124053955,0.209113597869873,-0.351426043625754,-0.0022322615629848,-0.4131398856126026,-0.0020958301611244,0.3442370593547821,-0.938880443572998,0.4312000572681427,-0.18992380797863,-0.2084599286317825
2024-11-02 23:37:10.187,1730517026.12227,0.2021532654762268,0.1749876141548156,0.3584785461425781,-0.3455018638514437,-0.0055189647840132,-0.4153386647797733,-0.0051927985623478,0.3386689126491546,-0.9408912658691406,0.7708668112754822,-0.2804014980792999,-0.2075477838516235
2024-11-02 23:37:10.200,1730517026.134759,0.232771560549736,0.1916677951812744,0.4799498915672302,-0.3358182875004044,-0.0084835688784994,-0.4169920068171993,-0.0080095892772078,0.3295418620109558,-0.9441069960594176,1.1741766929626465,-0.1890553534030914,-0.1055750250816345
2024-11-02 23:37:10.207,1730517026.1421518,0.0857900381088256,0.3362384736537933,0.4539567828178406,-0.3214927066035984,-0.0093817923029488,-0.4176175419122642,-0.0089009841904044,0.3159831464290619,-0.948723077774048,1.6618731021881104,0.0878252536058425,-0.0693003758788108
2024-11-02 23:37:10.217,1730517026.152121,-0.1109592169523239,0.2520691752433777,0.346333384513855,-0.3017762007187799,-0.0060116891537229,-0.4180415665006327,-0.0057399868965148,0.2972165942192077,-0.9547927975654602,2.061046600341797,0.352388471364975,-0.1921761333942413
2024-11-02 23:37:10.227,1730517026.16218,-0.1729370206594467,0.2688401043415069,0.2977279424667358,-0.2858961828642204,-0.0054933565887338,-0.4200824190453764,-0.0052703507244586,0.2820173799991607,-0.9593948125839232,1.338635802268982,-0.1690089404582977,-0.0785835161805152
2024-11-02 23:37:10.237,1730517026.172069,-0.0622008591890335,0.1741650700569152,-0.0013125538825988,-0.275869142846662,-0.0057027699391223,-0.4180493928788052,-0.0054871118627488,0.2723833322525024,-0.9621731638908386,0.5832022428512573,0.1228213161230087,0.3846316337585449
2024-11-02 23:37:10.247,1730517026.1821442,-0.0026877177879214,-0.330370545387268,-0.4256134629249573,-0.2755876130545908,-0.0010284398443152,-0.4139417554323127,-0.0009896319825202,0.2721124291419983,-0.9622649550437928,-0.5258773565292358,0.5191734433174133,0.395046204328537
2024-11-02 23:37:10.257,1730517026.192066,-0.2492598444223404,-0.2567081749439239,-0.5159022808074951,-0.2857583025177189,0.0042541685386638,-0.409779452884415,0.0040816417895257,0.2818850874900818,-0.9594395160675048,-1.5075600147247314,0.2474854886531829,0.3880282938480377
2024-11-02 23:37:10.267,1730517026.201993,-0.4195176661014557,-0.138413518667221,-0.2856179475784302,-0.3046328939739672,0.0050307219582481,-0.4066862721101555,0.0047990726307034,0.2999430000782013,-0.9539450407028198,-2.1983580589294434,-0.2491035163402557,0.1620444357395172
2024-11-02 23:37:10.277,1730517026.211942,-0.1312732696533203,-0.7010424733161926,-0.0860658884048461,-0.3290167676739636,0.001759509905687,-0.4058043348788125,0.0016651297919452,0.3231126964092254,-0.9463590383529664,-2.6487250328063965,-0.4387690424919128,0.0491780117154121
2024-11-02 23:37:10.287,1730517026.222075,0.158532366156578,-0.718633770942688,-0.0811221003532409,-0.3530104034364463,-0.0026762716298618,-0.4035528679010909,-0.0025112396106123,0.3457241356372833,-0.9383328557014464,-2.060492038726806,-0.4500563144683838,0.387977123260498
2024-11-02 23:37:10.297,1730517026.231913,0.1434633135795593,-0.3539459705352783,-0.1006946563720703,-0.3694496633922567,-0.0023073471067553,-0.3999526770442806,-0.0021516596898436,0.361102283000946,-0.9325237274169922,-1.1680595874786377,0.1569486558437347,0.2263754308223724
2024-11-02 23:37:10.307,1730517026.24182,0.0993154048919677,-0.0320662558078765,-0.0854567289352417,-0.3767134397160033,-0.0008161006942326,-0.3994673136761693,-0.0007588745211251,0.3678663671016693,-0.9298783540725708,-0.3495934903621673,0.0910458117723465,-0.1008109524846077
2024-11-02 23:37:10.317,1730517026.251933,0.1045389026403427,0.264362096786499,-0.1998587250709533,-0.3777683157557275,-0.0002800710954994,-0.4009815257855994,-0.0002603233151603,0.3688470721244812,-0.929490089416504,0.1149359568953514,0.1548812538385391,-0.1614061295986175
2024-11-02 23:37:10.327,1730517026.261983,0.1886468380689621,0.424649029970169,-0.0670816898345947,-0.3757078503412026,0.0003254730740135,-0.4030259281199555,0.0003027706989087,0.3669311106204986,-0.9302480816841124,0.244293674826622,0.0637894198298454,-0.2332488894462585
2024-11-02 23:37:10.337,1730517026.271883,0.2559803128242492,0.2878321409225464,0.1510336399078369,-0.3735178537720654,-0.0019654150142774,-0.4061874931399549,-0.0018298974027857,0.3648929893970489,-0.9310476779937744,0.2011308223009109,-0.2897880971431732,-0.3465548157691955
2024-11-02 23:37:10.347,1730517026.281863,0.2770175039768219,0.0211700797080993,0.2563233375549316,-0.3707654340446961,-0.006869711285514,-0.4098259502134501,-0.0064028659835457,0.3623289465904236,-0.9320282936096193,0.3588839769363403,-0.378724604845047,-0.3142256438732147
2024-11-02 23:37:10.357,1730517026.291873,0.239956796169281,0.0578828752040863,0.3757061958312988,-0.3658912894877159,-0.0108144415661161,-0.4123366866898139,-0.0100983856245875,0.3577817380428314,-0.9337506294250488,0.63725745677948,-0.2448006421327591,-0.1573868840932846
2024-11-02 23:37:10.367,1730517026.3018498,0.0591603107750415,0.1944535076618194,0.3626857399940491,-0.3562958167564551,-0.0128321370734246,-0.4135156366231298,-0.0120258880779147,0.3488050997257232,-0.937118113040924,1.2828387022018433,0.0006559918401762,-0.1066233068704605
2024-11-02 23:37:10.377,1730517026.311772,-0.1253405958414077,0.1911692917346954,0.2836515307426452,-0.3415074943975225,-0.0113308096065664,-0.4151120311514499,-0.0106762368232011,0.3349079191684723,-0.9421903491020204,1.6533046960830688,0.3090742826461792,-0.2555921673774719
2024-11-02 23:37:10.387,1730517026.321844,-0.187254250049591,0.2353093326091766,0.3200198411941528,-0.3231736767582892,-0.0090293141966054,-0.4170109125706968,-0.0085617713630199,0.3175775408744812,-0.9481936693191528,1.9342690706253052,0.0068113561719655,-0.2584106028079986
2024-11-02 23:37:10.397,1730517026.33174,-0.1220691204071044,0.3381508886814117,0.2974624037742615,-0.3084880969269505,-0.0110196407205419,-0.4179329370070549,-0.0104992315173149,0.303618460893631,-0.9527358412742616,1.1810940504074097,-0.2964140176773071,0.08766420930624
2024-11-02 23:37:10.407,1730517026.3417702,0.0153936203569173,0.0734700560569763,-0.1411912441253662,-0.3014194204573053,-0.0105598084234025,-0.4149563316050654,-0.0100835431367158,0.296875923871994,-0.9548628330230712,0.2335349768400192,0.2767179310321808,0.4294159412384033
2024-11-02 23:37:10.417,1730517026.3518438,-0.0593796297907829,-0.1239463090896606,-0.5502343773841858,-0.3027920106347959,-0.0049795920994204,-0.4095390108544985,-0.0047530392184853,0.2981863617897033,-0.9544958472251892,-0.4903624951839447,0.4260600209236145,0.5970820188522339
2024-11-02 23:37:10.427,1730517026.361823,-0.4480498135089874,-0.0117392838001251,-0.4313233494758606,-0.3108656577334898,-0.0004905222854373,-0.4033848767688604,-0.0004670111229643,0.3058829307556152,-0.9520690441131592,-1.1015228033065796,0.0632386803627014,0.5278334617614746
2024-11-02 23:37:10.437,1730517026.371721,-0.3992427289485931,-0.374188482761383,-0.0791456699371337,-0.3260079681716244,-0.0004063316333253,-0.3993109678910974,-0.0003849294735118,0.3202638328075409,-0.9473283290863036,-2.0125205516815186,-0.2736408114433288,0.2700713574886322
2024-11-02 23:37:10.447,1730517026.3816829,0.0976476892828941,-0.6489352583885193,0.0500195622444152,-0.3474584806484229,-0.0042752359362808,-0.3962029637508963,-0.0040197405032813,0.3405092656612396,-0.9402325749397278,-2.206000328063965,-0.6596969366073608,0.3723849356174469
2024-11-02 23:37:10.457,1730517026.391696,0.263182669878006,-0.4764513969421386,-0.0195692777633667,-0.3661385675916188,-0.0071241596478661,-0.3917122788343725,-0.0066518909297883,0.3580126166343689,-0.9336930513381958,-1.4591960906982422,-0.1889128684997558,0.4430654644966125
2024-11-02 23:37:10.467,1730517026.401849,0.1029466167092323,-0.3639625608921051,-0.0327075123786926,-0.3742066234793187,-0.0065033840823142,-0.3889193560737458,-0.0060532935895025,0.3655341565608978,-0.9307782053947448,-0.1279705315828323,0.0697269439697265,0.059119913727045
2024-11-02 23:37:10.477,1730517026.411634,-0.009992454200983,0.0052315592765808,-0.1047557592391967,-0.3720025691140668,-0.0047685267511157,-0.3897764149298868,-0.004442349076271,0.3634817600250244,-0.931590735912323,0.4569048881530761,0.3186821639537811,-0.1764882504940033
2024-11-02 23:37:10.487,1730517026.4219332,0.0471728108823299,0.4191297888755798,-0.1581083536148071,-0.3672695281086913,-0.0030003214503584,-0.3919291760126052,-0.0028002294711768,0.3590683937072754,-0.9333070516586304,0.414549171924591,0.1217091828584671,-0.2230134010314941
2024-11-02 23:37:10.497,1730517026.431649,0.2174661755561828,0.2917993664741516,-0.0523989796638488,-0.3640952537859937,-0.0054027625643703,-0.394751176220247,-0.0050485669635236,0.3561040163040161,-0.9344326853752136,0.2706642150878906,-0.4109512567520141,-0.328657865524292
2024-11-02 23:37:10.507,1730517026.441597,0.3949942290782928,-0.0983026325702667,0.1075285077095031,-0.3610226738577278,-0.0131519738203279,-0.399147215255814,-0.0123037910088896,0.3532311618328094,-0.9354551434516908,0.3204205632209778,-0.764967679977417,-0.4718781411647796
2024-11-02 23:37:10.517,1730517026.451918,0.4249964356422424,-0.0797544419765472,0.3181829452514648,-0.3575903672727895,-0.0213170872282172,-0.4030750999583436,-0.0199671182781457,0.3500180542469024,-0.9365301132202148,0.380368173122406,-0.5359749794006348,-0.2386738061904907
2024-11-02 23:37:10.527,1730517026.46162,0.1516359746456146,0.2548125088214874,0.3687668442726135,-0.352071064048009,-0.0245588828618722,-0.404108114082099,-0.0230501368641853,0.3448425829410553,-0.9383774995803832,0.7196527719497681,0.0530760549008846,0.0091788778081536
2024-11-02 23:37:10.536,1730517026.471473,-0.212770476937294,0.3885004818439483,0.3257367014884949,-0.344370478473355,-0.0211380536410696,-0.4043664371946149,-0.0198955181986093,0.3376041948795318,-0.9410778880119324,0.3023280203342438,0.5141435265541077,-0.1488904505968094
2024-11-02 23:37:10.547,1730517026.481652,-0.3517586588859558,0.2082053124904632,0.2290198802947998,-0.3452917894213084,-0.018716592990616,-0.4053052053179237,-0.0176108498126268,0.3384712636470794,-0.9408119320869446,-0.4676200747489929,0.1101555898785591,0.077459879219532
2024-11-02 23:37:10.557,1730517026.4917169,-0.2034846991300583,-0.2233512103557586,-0.077178955078125,-0.3548675082829782,-0.0157432873583561,-0.4029609313389423,-0.0147617533802986,0.3474661409854889,-0.9375763535499572,-1.4671882390975952,0.3568836152553558,0.3211934566497803
2024-11-02 23:37:10.567,1730517026.502224,-0.0779161155223846,-0.6706616878509521,-0.3340440392494201,-0.373826902474518,-0.0095344785649657,-0.4003721948260552,-0.0088758608326315,0.3651807010173797,-0.9308943152427672,-2.3026139736175537,0.6984526515007019,0.2391105592250824
2024-11-02 23:37:10.577,1730517026.5116072,-0.193243458867073,-0.3850955963134765,-0.2666029334068298,-0.4004589056581424,-0.0009212160161467,-0.3969352352826982,-0.0008483313140459,0.3898409903049469,-0.9208818078041076,-3.043390989303589,0.6901896595954895,0.4319354891777038
2024-11-02 23:37:10.586,1730517026.521502,-0.3030970394611358,-0.2484354674816131,-0.0535569190979003,-0.4339891718579964,0.0069251446559727,-0.3920802085476795,0.0062831025570631,0.420493483543396,-0.907273769378662,-3.6277050971984863,0.4980724453926086,0.4034607112407684
2024-11-02 23:37:10.596,1730517026.5313802,-0.1132487058639526,-0.430108368396759,0.037365436553955,-0.4669255874208018,0.0154800402283631,-0.3864205009581838,0.0138224493712186,0.4501430988311767,-0.8928494453430176,-2.9769341945648193,0.733869731426239,0.5714938044548035
2024-11-02 23:37:10.606,1730517026.541395,0.0001683756709098,-0.2604100704193115,0.0245898962020874,-0.4917871324405682,0.0274915017550708,-0.3786138267841209,0.0242304410785436,0.4722019731998443,-0.8811572790145874,-2.067274332046509,0.9247875213623048,0.6744382977485657
2024-11-02 23:37:10.617,1730517026.552034,-0.0877596139907836,-0.0426235496997833,-0.0882650017738342,-0.5083780598030743,0.0407535844791637,-0.3706315429608713,0.0355898365378379,0.486761063337326,-0.8728098273277283,-1.29884934425354,0.9388905167579652,0.6220722794532776
2024-11-02 23:37:10.626,1730517026.561506,-0.0534110739827156,0.2316338717937469,-0.0702821612358093,-0.5182794894130399,0.0534662578101279,-0.3629594800187927,0.0464225597679615,0.4953863024711609,-0.8674314618110657,-0.7899689674377441,0.8470479846000671,0.6331382393836975
2024-11-02 23:37:10.636,1730517026.5714068,0.0536033101379871,0.2513460516929626,0.0698334574699401,-0.5245995242951378,0.0651705370282396,-0.355325679877223,0.0563667826354503,0.5008664131164551,-0.8636872172355652,-0.5690520405769348,0.7309951186180115,0.5990426540374756
2024-11-02 23:37:10.646,1730517026.581318,0.1145016998052597,0.1917505860328674,0.0942500829696655,-0.5287412602963981,0.0754076343799187,-0.3486955359095753,0.0650484859943389,0.5044468641281128,-0.860988974571228,-0.3451907336711883,0.6693128347396851,0.4862726628780365
2024-11-02 23:37:10.656,1730517026.591362,0.0832764729857444,0.2234763503074646,0.0254489183425903,-0.5303115681106869,0.0843030031021478,-0.3435029915569115,0.0726378336548805,0.5058021545410156,-0.8595858812332153,-0.0744908899068832,0.5971318483352661,0.3708691298961639
2024-11-02 23:37:10.667,1730517026.602009,-0.0325491651892662,0.1656361818313598,-0.0450726747512817,-0.5297388278040644,0.0914770725182944,-0.3401503586748176,0.0788290873169899,0.5053079724311829,-0.8593310117721558,0.1536932736635208,0.4703816771507263,0.2192878425121307
2024-11-02 23:37:10.676,1730517026.611215,-0.0766175836324691,0.1601251363754272,-0.0146664381027221,-0.5272151377365188,0.0958830931533587,-0.3382326248436219,0.0827363654971122,0.5031285881996155,-0.8602420091629028,0.3399039208889007,0.2454966306686401,0.1710955649614334
2024-11-02 23:37:10.686,1730517026.62139,-0.0061888173222541,0.1602598130702972,0.0176801681518554,-0.5218589912053312,0.0980857532936798,-0.3372597746972154,0.0848936736583709,0.4984925389289856,-0.8627272248268127,0.7036107778549194,0.0936402603983879,0.0755498558282852
2024-11-02 23:37:10.696,1730517026.631197,0.0973612666130065,0.1324674785137176,0.0697735548019409,-0.5140332031295692,0.0978546423782307,-0.3381923906729375,0.0850728154182434,0.4916932284832001,-0.8666027784347534,0.8334975838661194,-0.0334652289748191,-0.0667465701699256
2024-11-02 23:37:10.706,1730517026.641269,0.1522108018398285,0.1277312040328979,0.0646429657936096,-0.5058579948344867,0.0963269096130647,-0.3401055831569076,0.084132581949234,0.4845581650733948,-0.8707037568092346,0.8114758729934692,-0.0838274657726287,-0.1000712364912033
2024-11-02 23:37:10.717,1730517026.652165,0.1631516218185424,0.1411541998386383,0.0203661918640136,-0.4985519037428243,0.0941595759341333,-0.3419366705325952,0.0825759395956993,0.4781542122364044,-0.8743853569030762,0.6648218035697937,-0.1867823451757431,-0.0653031319379806
2024-11-02 23:37:10.726,1730517026.6613169,0.1216038912534713,-0.0037525296211242,0.028544008731842,-0.4926475219108264,0.0914039931563275,-0.3428768519887403,0.0804224833846092,0.4729602336883545,-0.8774057626724243,0.5298413634300232,-0.2600099444389343,0.0005592371453531
2024-11-02 23:37:10.736,1730517026.671184,0.0891536399722099,-0.1761136651039123,-0.0114778280258178,-0.4879058606458227,0.088634110455357,-0.3432938380051104,0.0781894996762275,0.4687771201133728,-0.8798490762710571,0.4246321022510528,-0.2519882321357727,0.0096761966124176
2024-11-02 23:37:10.746,1730517026.681123,0.0733432546257972,-0.0584138631820678,-0.0314119458198547,-0.4839960046533265,0.0861864566642441,-0.3436282999448065,0.0761928930878639,0.4653199017047882,-0.88185715675354,0.3685653805732727,-0.2225896120071411,0.0028031102847307
2024-11-02 23:37:10.756,1730517026.691144,0.0185386389493942,0.0255723297595977,-0.0005156397819519,-0.4803084117401608,0.0837176414173893,-0.3437624093473839,0.0741584971547126,0.4620527029037475,-0.8837464451789856,0.3910221755504608,-0.2700535356998443,0.0342220738530159
2024-11-02 23:37:10.767,1730517026.702216,0.0080965235829353,-0.0714476704597473,0.0327553749084472,-0.4757252268764458,0.0806309729466627,-0.3440876136293694,0.0716001316905021,0.4579832553863525,-0.8860726356506348,0.5271168947219849,-0.309378832578659,-0.0250846594572067
2024-11-02 23:37:10.776,1730517026.711081,0.0528045296669006,-0.0821682512760162,0.0374055504798889,-0.4699763548801047,0.076994824436072,-0.3452797088401682,0.0685791596770286,0.4528652131557464,-0.8889375329017639,0.6211960911750793,-0.3038405179977417,-0.0893859341740608
2024-11-02 23:37:10.786,1730517026.721104,0.0618237927556037,0.0099663138389587,0.0213978886604309,-0.4637884309298636,0.0731430558508067,-0.3469421059423879,0.0653582140803337,0.4473395347595215,-0.8919728994369507,0.6357966065406799,-0.3253948092460632,-0.1088967844843864
2024-11-02 23:37:10.796,1730517026.730997,0.0295891724526882,0.0337045192718505,0.0122778415679931,-0.4573205862328034,0.0687232261308331,-0.3487215044355116,0.0616126209497451,0.4415456354618072,-0.8951208591461182,0.676368236541748,-0.40520840883255,-0.1201987117528915
2024-11-02 23:37:10.806,1730517026.741082,0.025226816534996,-0.02545827627182,0.0032907724380493,-0.4503139916205431,0.0635438011614589,-0.350719999799099,0.0571706593036651,0.4352482557296753,-0.8984934687614441,0.7574018836021423,-0.4556145966053009,-0.1437066942453384
2024-11-02 23:37:10.817,1730517026.752228,0.0437084287405014,-0.0335794687271118,-0.004292607307434,-0.4422829476497134,0.0581879802998928,-0.3526100000514225,0.0525592826306819,0.4280038475990295,-0.9022473096847534,0.8574767112731934,-0.4402550756931305,-0.0940933972597122
2024-11-02 23:37:10.826,1730517026.7610888,0.0440410040318965,0.0471270978450775,-0.0193517804145813,-0.4338043941125575,0.0540529992543832,-0.3536049903206014,0.0490223653614521,0.4203258454799652,-0.9060479998588562,0.7962160706520081,-0.2956670224666595,0.0039500803686678
2024-11-02 23:37:10.836,1730517026.7709851,0.0152040980756282,0.0976057648658752,-0.0018084645271301,-0.4265489378486938,0.0516049224724725,-0.3534189717583386,0.0469602197408676,0.4137314260005951,-0.9091870188713074,0.6692918539047241,-0.2138320654630661,0.1129219979047775
2024-11-02 23:37:10.846,1730517026.780938,-0.0149118117988109,0.1086856722831726,0.0233091115951538,-0.4194182196243872,0.0494433300622083,-0.3525759023071436,0.0451394841074943,0.4072291553020477,-0.9122098684310912,0.7587487697601318,-0.3176836371421814,0.0554776117205619
2024-11-02 23:37:10.856,1730517026.791052,-0.0750467926263809,0.0464730262756347,-0.0721623301506042,-0.4117822462534893,0.0458097119727178,-0.3530734419693203,0.0419657491147518,0.4002432227134704,-0.9154475331306458,0.7639169096946716,-0.3744270801544189,-0.0286272503435611
2024-11-02 23:37:10.867,1730517026.802349,-0.083827868103981,-0.039820373058319,0.0027754306793212,-0.4045891267683021,0.041554786771051,-0.3531733946996826,0.0381888374686241,0.3936410844326019,-0.9184706211090088,0.6596312522888184,-0.4570777416229248,0.0687837228178978
2024-11-02 23:37:10.876,1730517026.811039,-0.0198681280016899,0.0207068026065826,0.0531315803527832,-0.3987584069016533,0.036966850513318,-0.3524550096757539,0.0340588130056858,0.3882744610309601,-0.9209141731262208,0.4998417794704437,-0.5040966868400574,0.1034642606973648
2024-11-02 23:37:10.886,1730517026.820915,0.0318175554275512,0.0777849853038787,0.0118170976638793,-0.3948262344198134,0.0327497465422857,-0.3512230532546867,0.0302246902137994,0.384647786617279,-0.9225684404373168,0.2885093092918396,-0.4513961672782898,0.1511366963386535
2024-11-02 23:37:10.896,1730517026.830844,0.0182924456894397,-0.0232113599777221,-0.0300670862197875,-0.3953535724251076,0.0293555649632057,-0.34969221397999,0.0270871985703706,0.3851345181465149,-0.9224628210067748,-0.4524790644645691,-0.3375590741634369,0.129767507314682
2024-11-02 23:37:10.906,1730517026.840894,0.0058327931910753,-0.1359367370605468,-0.0633009076118469,-0.4018200908330485,0.0267579506564165,-0.3475552132839023,0.0246237590909004,0.3910941183567047,-0.9200212359428406,-0.5783155560493469,-0.3993111252784729,0.2878516912460327
2024-11-02 23:37:10.917,1730517026.852357,-0.0043143071234226,-0.2526383399963379,-0.0677937865257263,-0.4055726433879199,0.0247410673774436,-0.3447648455630249,0.0227316692471504,0.3945450186729431,-0.9185953736305236,-0.3599403500556946,-0.0968668311834335,0.0903676897287368
2024-11-02 23:37:10.926,1730517026.8609,-0.0707840770483017,-0.4428247511386871,0.0007265210151672,-0.4113762923290515,0.0236570012756429,-0.3466796757924403,0.0216813068836927,0.3998711705207824,-0.9163148999214172,-0.8171936869621277,-0.0597109459340572,-0.4422080516815185
2024-11-02 23:37:10.936,1730517026.8707309,0.0047557596117258,-0.1991800665855407,0.1429296135902404,-0.4180201310785008,0.0191240627231826,-0.3512840820804446,0.0174763090908527,0.4059518575668335,-0.913727343082428,-0.4877857565879822,-0.4892420768737793,-0.3785371780395508
2024-11-02 23:37:10.946,1730517026.880876,0.1813160181045532,0.055855393409729,0.0805777907371521,-0.4218468153342045,0.0100062979971257,-0.3555965853522415,0.0091289365664124,0.4094460606575012,-0.9122886657714844,-0.2690488994121551,-0.9623257517814636,-0.4573805928230285
2024-11-02 23:37:10.956,1730517026.890996,0.2896643579006195,-0.3013840317726135,0.0044050216674804,-0.4214294488558052,-0.0028668451184127,-0.3611901121559991,-0.0026160073466598,0.4090652465820312,-0.9125013947486876,0.3905700147151947,-1.0622936487197876,-0.5208269953727722
2024-11-02 23:37:10.968,1730517026.902813,0.2997723221778869,0.0756683349609375,-0.0357545614242553,-0.4129590076993731,-0.0130091742346192,-0.3656198055293769,-0.0119152525439858,0.4013213515281677,-0.9158598184585572,1.3260921239852903,-0.6070592999458313,-0.3124777972698211
2024-11-02 23:37:10.976,1730517026.9109,0.1438638567924499,0.5192415714263916,0.013369083404541,-0.3963591567210681,-0.018200611288302,-0.3694098118234031,-0.0167886409908533,0.3860623240470886,-0.9223198890686036,1.8868639469146729,-0.0869889035820961,-0.4913157522678375
2024-11-02 23:37:10.986,1730517026.920886,-0.0466744154691696,0.6132559180259705,0.0583188533782959,-0.3768802672887754,-0.0176774364408832,-0.3746400703318934,-0.0164359305053949,0.3680214881896972,-0.9296720027923584,2.0129830837249756,0.5659704804420471,-0.4536639750003814
2024-11-02 23:37:10.996,1730517026.930709,-0.2027669847011566,0.5159362554550171,0.0840823650360107,-0.3562357026948372,-0.0113881598704528,-0.3765839640149368,-0.0106729380786418,0.3487487435340881,-0.9371554851531982,2.126885414123535,0.8599661588668823,0.0072635323740541
2024-11-02 23:37:11.006,1730517026.94071,-0.2444884777069091,0.1298374831676483,0.0964213013648986,-0.3351252259725149,-0.0018613996377982,-0.3761102403896667,-0.0017578473780304,0.3288874328136444,-0.944367527961731,2.06838059425354,0.9761883616447448,0.013481481000781
2024-11-02 23:37:11.017,1730517026.952538,-0.1525297313928604,0.0649784803390502,0.099363088607788,-0.3164195184127623,0.0072764046569177,-0.3760247010652974,0.0069151110947132,0.31116583943367,-0.9503304958343506,1.6277012825012207,0.8134316802024841,0.0462273880839347
2024-11-02 23:37:11.026,1730517026.960627,-0.1432343870401382,0.2674704194068908,0.0210940837860107,-0.3036571908377188,0.0141520951268985,-0.3745899968673771,0.0135041764006018,0.2990120649337768,-0.9541537761688232,0.9475587010383606,0.4781261384487152,0.262333869934082
2024-11-02 23:37:11.036,1730517026.970654,-0.1059331968426704,0.0410281419754028,-0.0517249107360839,-0.2975246573731585,0.0183301040430472,-0.3708495221253673,0.0175237916409969,0.2931545078754425,-0.955904483795166,0.2300606071949005,0.1781258583068847,0.4371402561664581
2024-11-02 23:37:11.046,1730517026.980582,0.0035797972232103,-0.3404529988765716,-0.1017416715621948,-0.2993885031757448,0.0207676968066084,-0.3671078595646104,0.0198424607515335,0.2949359714984894,-0.9553109407424928,-0.6034196019172668,0.0811212733387947,0.2548537850379944
2024-11-02 23:37:11.056,1730517026.990597,0.0097364988178014,-0.4781572520732879,-0.1411343812942505,-0.3104196105506537,0.018011260780014,-0.3665119761929234,0.0171494930982589,0.3054582178592682,-0.952051043510437,-1.348604440689087,-0.5895865559577942,-0.1103678122162818
2024-11-02 23:37:11.068,1730517027.0025811,-0.0593824386596679,-0.503111720085144,-0.0699005722999572,-0.3257199237132505,0.0115751706193318,-0.3671559670089064,0.0109663102775812,0.3199909329414367,-0.9473571181297302,-1.8121463060379028,-0.6523892283439636,-0.0010985806584358
2024-11-02 23:37:11.075,1730517027.010541,-0.0650605708360672,-0.637763261795044,-0.0189681649208068,-0.3437743462218156,0.0041783542325541,-0.3651376037954414,0.0039338641799986,0.3370429873466491,-0.9414810538291932,-1.7909687757492063,-0.9573083519935608,0.3074122667312622
2024-11-02 23:37:11.086,1730517027.0205832,0.0485663376748561,-0.4632629752159118,-0.0883704423904419,-0.3601753190263262,-0.0032747407131295,-0.3621071104070482,-0.0030646116938441,0.3524383008480072,-0.935830056667328,-1.435351014137268,-0.611485481262207,0.2552808821201324
2024-11-02 23:37:11.096,1730517027.0305629,0.1456421762704849,-0.022987425327301,-0.0768876671791076,-0.3675244712213152,-0.0067496963637943,-0.3609778238093823,-0.0062989015132188,0.3593063354492187,-0.9331984519958496,-0.230920672416687,-0.0842876583337783,-0.0567613653838634
2024-11-02 23:37:11.106,1730517027.040546,-0.0170374494045972,0.0119934380054473,-0.2290624380111694,-0.3694954015325943,-0.0050796843249378,-0.3626226117829844,-0.0047368346713483,0.3611449301242828,-0.9324976801872252,-0.0758205652236938,0.3810531198978424,-0.2045098096132278
2024-11-02 23:37:11.118,1730517027.052699,-0.0830237939953804,-0.0010119676589965,-0.196891963481903,-0.3679302399508268,-0.0037768305180946,-0.3647899672295895,-0.0035240531433373,0.3596849739551544,-0.9330671429634094,0.3836580216884613,0.0378726013004779,-0.2099383473396301
2024-11-02 23:37:11.126,1730517027.06091,0.2344443053007125,0.4149834513664245,0.0058614015579223,-0.3626424948691548,-0.004350029306817,-0.3668403186857779,-0.0040671024471521,0.3547461032867431,-0.9349538087844848,0.6526378393173218,0.0230569057166576,-0.1689770668745041
2024-11-02 23:37:11.135,1730517027.070478,0.3689641654491424,0.2718246281147003,0.0976676940917968,-0.3548700561570203,-0.005132990814109,-0.368231258315894,-0.0048131416551768,0.3474685251712799,-0.9376792907714844,0.8926689028739929,-0.1163425296545028,-0.1122819855809211
2024-11-02 23:37:11.145,1730517027.080449,0.3736294507980346,0.2205170094966888,0.1930057406425476,-0.3452616358451537,-0.0074135735182186,-0.3692361520586227,-0.0069760121405124,0.3384428918361664,-0.9409610629081726,1.0224151611328125,-0.2526833415031433,-0.0852498337626457
2024-11-02 23:37:11.155,1730517027.090452,0.2832200527191162,0.3851885199546814,0.2856274843215942,-0.3342902246674206,-0.0102752118126935,-0.369935244104407,-0.0097062401473522,0.3280987739562988,-0.9445935487747192,1.226435661315918,-0.2834798693656921,-0.0769584625959396
2024-11-02 23:37:11.168,1730517027.102668,0.0974421054124832,0.2821515202522278,0.3668072819709778,-0.3198952037074907,-0.0128913604965107,-0.371520898422381,-0.0122370216995477,0.3144670724868774,-0.9491894841194152,1.593741774559021,-0.0368620902299881,-0.271548718214035
2024-11-02 23:37:11.175,1730517027.110368,-0.0922088474035263,0.2020655870437622,0.3604862093925476,-0.3048146242782797,-0.0115014928407553,-0.3742621703336135,-0.0109710618853569,0.3001163601875305,-0.9538395404815674,1.354191780090332,0.4218255877494812,-0.2514257133007049
2024-11-02 23:37:11.185,1730517027.120431,-0.2186910063028335,0.1939015686511993,0.2999966740608215,-0.2943228499369169,-0.0085441528860108,-0.3758820994056182,-0.0081766443327069,0.290091872215271,-0.956963837146759,0.738660454750061,0.1867872476577758,-0.0778043866157531
2024-11-02 23:37:11.195,1730517027.130338,-0.2388646155595779,0.1255802810192108,0.2187786698341369,-0.2887231775214224,-0.0088625387977771,-0.3756723295552074,-0.0084955915808677,0.2847284972667694,-0.9585705399513244,0.4421817660331726,-0.2288847863674163,0.0941734462976455
2024-11-02 23:37:11.205,1730517027.140412,-0.1585830897092819,-0.1789962649345398,0.0981760621070861,-0.2844397236308079,-0.0107485138171676,-0.3743461963143028,-0.0103164296597242,0.280619740486145,-0.9597635865211488,0.4030610024929046,-0.1382355839014053,0.1399193704128265
2024-11-02 23:37:11.218,1730517027.152731,-0.0669870227575302,-0.1969956457614898,-0.0559056401252746,-0.2813507180099027,-0.0098309250304427,-0.372661279687469,-0.0094442339614033,0.2776535153388977,-0.9606348872184752,0.2161176949739456,0.2048602551221847,0.1993962228298187
2024-11-02 23:37:11.225,1730517027.160382,-0.1376874893903732,0.0629332661628723,-0.2279320359230041,-0.2803232424361772,-0.0071853255859692,-0.3706178276409645,-0.0069047943688929,0.2766662836074829,-0.9609412550926208,0.0134777771309018,0.1961338818073272,0.1822561174631118
2024-11-02 23:37:11.235,1730517027.170281,-0.3212405741214752,-0.0685300529003143,-0.2936440706253052,-0.2815076603083689,-0.0044026898375985,-0.3689547603466786,-0.0042293760925531,0.277804285287857,-0.9606283903121948,-0.2933874726295471,0.2545703053474426,0.1391624361276626
2024-11-02 23:37:11.245,1730517027.180239,-0.3021854162216186,-0.310457170009613,-0.3015570044517517,-0.2879138905493823,-0.0029118394726389,-0.3679696986484456,-0.0027919793501496,0.2839525938034057,-0.9588342308998108,-0.97017502784729,0.0040693655610084,0.0807942077517509
2024-11-02 23:37:11.255,1730517027.1903992,-0.0650705769658088,-0.3405050039291382,-0.250839352607727,-0.3010722234638027,-0.0021015770505638,-0.3667467999532326,-0.0020070446189492,0.2965443730354309,-0.9550169706344604,-1.6604429483413696,0.0514936037361621,0.1795931160449981
2024-11-02 23:37:11.268,1730517027.202705,0.1070933118462562,-0.4472308754920959,-0.2096090316772461,-0.318831351893441,-0.0015982864619659,-0.3645865257747457,-0.0015177360037341,0.3134570121765136,-0.9496011734008788,-1.8208632469177248,-0.040034182369709,0.2173492908477783
2024-11-02 23:37:11.275,1730517027.210233,0.1605725288391113,-0.5348452925682068,-0.2659608721733093,-0.3350387782711198,-0.00124863151464,-0.3626805824423472,-0.0011792042059823,0.3288058042526245,-0.9443967938423156,-1.3246266841888428,-0.0108680389821529,0.1331422626972198
2024-11-02 23:37:11.285,1730517027.220218,0.1539433449506759,-0.3307311236858368,-0.2913388013839721,-0.3425322227922522,-0.0004508517978004,-0.3623630146111337,-0.000424660538556,0.3358732759952545,-0.9419071078300476,-0.1319531500339508,0.1949764639139175,-0.0837192088365554
2024-11-02 23:37:11.295,1730517027.23018,0.1634397655725479,0.034249871969223,-0.1779957413673401,-0.3374921627048467,0.0019213233563891,-0.3646722444646647,0.0018129366217181,0.3311217725276947,-0.94358628988266,1.0607991218566897,0.4091063439846039,-0.3522371649742126
2024-11-02 23:37:11.305,1730517027.240179,0.2230816036462783,0.4292610883712768,0.0486055016517639,-0.324673445589239,0.0046066082224984,-0.3685686772373193,0.0043659200891852,0.318999320268631,-0.9477449059486388,1.3954085111618042,0.3444466590881347,-0.3220172226428985
2024-11-02 23:37:11.315,1730517027.2501311,0.2842623591423034,0.4493142068386078,0.2135794758796692,-0.3123949216080251,0.0054612097958447,-0.3708427118940383,0.0051968628540635,0.307338535785675,-0.9515860676765442,1.0088191032409668,-0.0637040883302688,-0.1101631224155426
2024-11-02 23:37:11.325,1730517027.260254,0.334104061126709,0.1339777410030365,0.352840781211853,-0.3040022029256625,0.0021454357934256,-0.3719263489951079,0.0020470577292144,0.2993412911891937,-0.9541439414024352,0.7375500202178955,-0.5021949410438538,-0.1134795546531677
2024-11-02 23:37:11.335,1730517027.270018,0.3523164689540863,-0.0074467360973358,0.4861564040184021,-0.2954002951385935,-0.0043927242450844,-0.3736524624072521,-0.0042024427093565,0.2911228239536285,-0.9566764831542968,1.0830776691436768,-0.6715181469917297,-0.2362615019083023
2024-11-02 23:37:11.345,1730517027.280037,0.2519182860851288,0.1728512942790985,0.5020467638969421,-0.2828871437829269,-0.00983179377684,-0.3767232444169563,-0.0094408625736832,0.2791292071342468,-0.9602071642875672,1.36181378364563,-0.1978773325681686,-0.3424031138420105
2024-11-02 23:37:11.355,1730517027.2902188,0.0226755887269973,0.2832121253013611,0.3947944641113281,-0.2690643270920173,-0.0109227947341309,-0.3797946652660688,-0.0105295833200216,0.2658295333385467,-0.9639625549316406,1.3461259603500366,0.0749826878309249,-0.2760863602161407
2024-11-02 23:37:11.368,1730517027.302681,-0.1827283203601837,0.211234450340271,0.3407831788063049,-0.2566305201587242,-0.0114802760741066,-0.382196788621005,-0.01110406126827,0.2538228631019592,-0.9671869874000548,1.1519999504089355,-0.0736009255051612,-0.2122993916273117
2024-11-02 23:37:11.375,1730517027.310189,-0.2566221058368683,0.0571357309818267,0.2696753740310669,-0.2463745577781941,-0.0132327988619319,-0.3837385925941915,-0.0128328334540128,0.2438896000385284,-0.969718098640442,0.8823508620262146,-0.2011349201202392,-0.1051945686340332
2024-11-02 23:37:11.385,1730517027.320157,-0.1737615913152694,-0.0323710590600967,0.246406078338623,-0.2397704366999901,-0.0145204975145126,-0.3832648482702746,-0.0141046065837144,0.2374796420335769,-0.971290111541748,0.5569970011711121,0.1578693091869354,0.3001433312892914
2024-11-02 23:37:11.395,1730517027.329999,-0.0772924274206161,-0.0040279328823089,0.1668747663497924,-0.2342214190804645,-0.0128412418687592,-0.3793682678505231,-0.0124902725219726,0.2320857346057891,-0.972615122795105,0.3510282337665558,-0.0278829745948314,0.4738322496414184
2024-11-02 23:37:11.405,1730517027.339994,-0.0908174961805343,-0.0192745178937912,-0.1064938306808471,-0.2312763918470275,-0.0128420217066539,-0.3751673880702975,-0.0124997543171048,0.2292201220989227,-0.9732943773269652,0.220828428864479,-0.0828716531395912,0.2787639796733856
2024-11-02 23:37:11.415,1730517027.349918,-0.1007915884256362,-0.0657189786434173,-0.5884090065956116,-0.2314611541794708,-0.0115779576756003,-0.3736589593075985,-0.0112689482048153,0.22939994931221,-0.9732670187950134,-0.3014998733997345,0.2027821987867355,0.0804065614938736
2024-11-02 23:37:11.425,1730517027.359964,-0.3248738348484039,-0.0958650559186935,-0.7155726552009583,-0.2373386310219062,-0.0106450876461235,-0.3724838019785951,-0.0103464797139167,0.2351167052984237,-0.9719120860099792,-0.8067246675491333,-0.0985419601202011,0.1642279624938964
2024-11-02 23:37:11.435,1730517027.369962,-0.5399090647697449,-0.2259051501750946,-0.5713636875152588,-0.2475920275874007,-0.008680313411108,-0.369676620314362,-0.0084155043587088,0.2450701296329498,-0.9694688320159912,-1.3410779237747192,0.5029054880142212,0.3968218863010406
2024-11-02 23:37:11.445,1730517027.379895,-0.3143011331558227,-0.3163426220417022,-0.2026132941246032,-0.2655587794158861,-0.0022764704616543,-0.3647602036324633,-0.0021966691128909,0.2624484896659851,-0.964943528175354,-2.2174341678619385,0.3162150084972381,0.5129533410072327
2024-11-02 23:37:11.455,1730517027.389893,0.0476003028452396,-0.4078476428985595,-0.0485931038856506,-0.2885438353184091,-0.0030326741764277,-0.3605928174266617,-0.002907296642661,0.2845565676689148,-0.9586548209190368,-2.208901643753052,-0.6577256321907043,0.2926807701587677
2024-11-02 23:37:11.465,1730517027.399837,0.3453503847122192,-0.491540253162384,0.0937315821647644,-0.3059850056986283,-0.0099675661618799,-0.3588691853745638,-0.009504422545433,0.3012325763702392,-0.9535033106803894,-1.176075458526611,-0.7226181030273438,0.0534173361957073
2024-11-02 23:37:11.475,1730517027.409833,0.5060945153236389,-0.3581046760082245,0.3272067308425903,-0.3102150476215478,-0.0149892174244735,-0.3601836931300527,-0.0142732169479131,0.3052634298801422,-0.9521609544754028,0.2695488333702087,-0.1541045606136322,-0.2966870367527008
2024-11-02 23:37:11.485,1730517027.4198651,0.3053334057331085,0.1211123764514923,0.2548596262931824,-0.3042764013888445,-0.0150236950891173,-0.364054214816715,-0.0143330274149775,0.2996028959751129,-0.9539563059806824,0.7901667952537537,0.2994951605796814,-0.4040566384792328
2024-11-02 23:37:11.495,1730517027.4299312,0.0572602301836013,0.3751749396324157,0.1513211727142334,-0.2972430775708327,-0.0139579486664098,-0.3673252644124885,-0.013345425017178,0.2928853034973144,-0.9560544490814208,0.5257241129875183,0.0360563248395919,-0.2341057211160659
2024-11-02 23:37:11.505,1730517027.4398232,0.0320734903216362,0.1838807761669159,0.1338309645652771,-0.294047401519134,-0.0163259304153514,-0.3689172226607218,-0.0156245054677128,0.2898282706737518,-0.956951141357422,0.1523111164569854,-0.3897157609462738,-0.0909568294882774
2024-11-02 23:37:11.515,1730517027.4497309,0.2005094438791275,-0.0129968225955963,0.1008645892143249,-0.2925262854128855,-0.0208707605156016,-0.369543582534668,-0.019982686266303,0.2883720993995666,-0.957309901714325,0.2085683196783065,-0.4391796886920929,-0.0430687218904495
2024-11-02 23:37:11.525,1730517027.459792,0.2762571275234222,0.0816312432289123,0.0843808650970459,-0.2870720433508454,-0.0239909908190207,-0.3694851111902684,-0.0230070017278194,0.2831453084945678,-0.9588010311126708,1.0589007139205933,-0.2674750685691833,-0.0097885280847549
2024-11-02 23:37:11.535,1730517027.469849,0.0935436263680458,0.2949599325656891,0.0775419473648071,-0.2724863775817651,-0.0240441667651872,-0.369522843975561,-0.0231548193842172,0.2691269218921661,-0.962826371192932,1.7892767190933228,0.3683810234069824,-0.0931535139679908
2024-11-02 23:37:11.545,1730517027.479718,-0.1302704960107803,0.4299933910369873,0.0570748448371887,-0.2532625862106669,-0.0185775384699372,-0.370555248657599,-0.0179838817566633,0.2505638003349304,-0.9679330587387084,1.976451396942139,0.6672837734222412,-0.1771685183048248
2024-11-02 23:37:11.555,1730517027.489954,-0.1983473449945449,0.4827008247375488,0.0838874578475952,-0.2357550381171637,-0.0131526990868458,-0.3714963113900088,-0.0127885034307837,0.2335772067308426,-0.9722541570663452,1.4394012689590454,0.427181214094162,-0.0287277046591043
2024-11-02 23:37:11.565,1730517027.499668,-0.1770239025354385,0.2359546273946762,0.0686036944389343,-0.2267531289488266,-0.0102660255075001,-0.3704883073240977,-0.0100030545145273,0.2248149514198303,-0.9743501543998718,0.3916860520839691,0.1208053082227706,0.2001669853925705
2024-11-02 23:37:11.575,1730517027.509659,-0.0714935362339019,-0.1589035838842392,-0.0658303499221801,-0.2272766371175757,-0.0095474044461957,-0.3675612904751096,-0.0093017388135194,0.2253250330686569,-0.9742392301559448,-0.5026793479919434,-0.0765655562281608,0.3263577818870544
2024-11-02 23:37:11.585,1730517027.519826,-0.0265461355447769,-0.3583661615848541,-0.1813840270042419,-0.2360871802168113,-0.0101114560072982,-0.3653463536292666,-0.0098308026790618,0.2339001446962356,-0.9722109436988832,-1.2075352668762207,-0.1287110447883606,0.0841243863105773
2024-11-02 23:37:11.595,1730517027.529612,-0.1172379404306411,-0.4546400308609009,-0.2544906735420227,-0.2495971485152393,-0.0118684964971362,-0.3659722345387111,-0.0115004461258649,0.2470136135816574,-0.9689437747001648,-1.4906834363937378,-0.2105699628591537,-0.1366897523403167
2024-11-02 23:37:11.605,1730517027.539614,-0.2319424599409103,-0.4495607614517212,-0.2817578911781311,-0.2660266059627278,-0.0148100962067997,-0.3676013492262539,-0.0142886005342006,0.2628999054431915,-0.9647173285484314,-1.8261555433273315,-0.2798393070697784,-0.1354266256093979
2024-11-02 23:37:11.615,1730517027.549582,-0.1855211853981018,-0.5253150463104248,-0.2436083555221557,-0.282442763949383,-0.0190462092759025,-0.3671911190793906,-0.0182904452085495,0.2787024676799774,-0.9602032899856568,-1.4349128007888794,-0.4942911565303802,0.3727704584598541
2024-11-02 23:37:11.625,1730517027.559593,0.0294043812900781,-0.3921143710613251,-0.1524415016174316,-0.2977709126040363,-0.0198577473344869,-0.3632958332984423,-0.0189826171845197,0.2933899462223053,-0.9558043479919434,-1.4918476343154907,0.062289260327816,0.3383991718292236
2024-11-02 23:37:11.635,1730517027.5702372,0.1905236840248108,-0.2240275740623474,-0.0845811367034912,-0.3094159519176264,-0.0195315951851631,-0.3626118857608596,-0.0186028871685266,0.3045023679733276,-0.9523298740386964,-0.8294163346290588,-0.0684375911951065,-0.1686853915452957
2024-11-02 23:37:11.644,1730517027.579527,0.1760245561599731,-0.0765666663646698,-0.0792867541313171,-0.3142255622614262,-0.0213718461525637,-0.3660179692175092,-0.0203238483518362,0.3090800344944,-0.9508188366889954,-0.151603490114212,-0.0281604751944541,-0.4034185409545898
2024-11-02 23:37:11.655,1730517027.589632,0.2400537282228469,0.0325821042060852,-0.0696309208869934,-0.3130677990860644,-0.0218164790460028,-0.3699204929387788,-0.0207544043660163,0.3079787790775299,-0.951166808605194,0.3141904175281524,0.1599242091178894,-0.3355272114276886
2024-11-02 23:37:11.664,1730517027.599514,0.3117369413375854,0.3515543639659881,-0.0161648988723754,-0.3090260688620996,-0.0211445863951458,-0.3725527744086958,-0.0201414711773395,0.3041309714317322,-0.952417254447937,0.4632046818733215,0.0941041857004165,-0.1794848889112472
2024-11-02 23:37:11.674,1730517027.609466,0.2122273743152618,0.2619177401065826,0.0797019600868225,-0.3044231865599024,-0.0213944073583138,-0.3737417328730102,-0.0204091351479291,0.2997429370880127,-0.953801691532135,0.4716036319732666,-0.0759663432836532,-0.0813945904374122
