Date,TimeStamp,GravityX,GravityY,GravityZ,UserAccelerationX,UserAccelerationY,UserAccelerationZ,RotationRateX,RotationRateY,RotationRateZ,AttitudeRoll,AttitudePitch,AttitudeYaw
2024-10-15 13:29:11.065,72902.503,0.28,0.35,-0.894,0.032,-0.005,0.009,-0.06,-0.023,-0.028,0.304,-0.358,0.896
2024-10-15 13:29:11.077,72902.513,0.28,0.351,-0.893,0.019,-0.01,0.008,-0.048,-0.002,-0.021,0.304,-0.359,0.896
2024-10-15 13:29:11.081,72902.523,0.28,0.351,-0.893,-0.005,-0.002,0.004,-0.044,0.012,-0.007,0.304,-0.359,0.896
2024-10-15 13:29:11.082,72902.533,0.28,0.352,-0.893,-0.008,0.006,0.003,-0.042,0.007,0.002,0.304,-0.359,0.896
2024-10-15 13:29:11.092,72902.543,0.28,0.352,-0.893,-0.004,0.001,0.003,-0.033,-0.005,0.01,0.304,-0.36,0.897
2024-10-15 13:29:11.103,72902.553,0.28,0.352,-0.893,-0.0,0.001,0.004,-0.02,-0.004,0.015,0.304,-0.36,0.897
2024-10-15 13:29:11.113,72902.563,0.28,0.352,-0.893,-0.004,0.003,0.007,-0.014,-0.001,0.023,0.304,-0.36,0.897
2024-10-15 13:29:11.122,72902.573,0.28,0.352,-0.893,-0.01,0.003,0.007,-0.008,0.001,0.027,0.304,-0.36,0.897
2024-10-15 13:29:11.133,72902.583,0.281,0.352,-0.893,-0.009,0.002,0.006,-0.006,-0.002,0.023,0.304,-0.36,0.898
2024-10-15 13:29:11.143,72902.593,0.281,0.352,-0.893,-0.008,-0.003,0.009,-0.007,0.001,0.024,0.305,-0.36,0.898
2024-10-15 13:29:11.153,72902.603,0.281,0.352,-0.893,-0.009,-0.007,0.01,-0.005,-0.004,0.019,0.305,-0.36,0.898
2024-10-15 13:29:11.163,72902.613,0.281,0.352,-0.893,-0.005,-0.01,0.01,-0.005,-0.008,0.008,0.305,-0.36,0.898
2024-10-15 13:29:11.173,72902.623,0.281,0.352,-0.893,-0.004,-0.008,0.006,-0.003,-0.015,0.007,0.304,-0.36,0.898
2024-10-15 13:29:11.184,72902.633,0.281,0.352,-0.893,-0.003,-0.007,0.006,-0.01,-0.01,0.003,0.304,-0.36,0.899
2024-10-15 13:29:11.193,72902.643,0.28,0.352,-0.893,-0.003,-0.01,0.005,-0.021,-0.008,0.012,0.304,-0.36,0.899
2024-10-15 13:29:11.203,72902.653,0.28,0.352,-0.893,-0.006,-0.006,0.003,-0.018,-0.002,0.018,0.304,-0.36,0.899
2024-10-15 13:29:11.213,72902.663,0.281,0.353,-0.893,-0.005,-0.003,0.003,-0.021,0.016,0.013,0.304,-0.36,0.899
2024-10-15 13:29:11.223,72902.673,0.281,0.353,-0.893,-0.007,-0.003,0.002,-0.028,0.012,0.02,0.305,-0.361,0.899
2024-10-15 13:29:11.234,72902.683,0.281,0.353,-0.892,-0.006,-0.005,0.003,-0.025,0.008,0.024,0.305,-0.361,0.9
2024-10-15 13:29:11.243,72902.693,0.281,0.353,-0.892,0.001,-0.011,0.006,-0.018,0.002,0.013,0.305,-0.361,0.9
2024-10-15 13:29:11.253,72902.703,0.281,0.353,-0.892,-0.0,-0.005,0.006,-0.014,0.004,0.005,0.305,-0.361,0.9
2024-10-15 13:29:11.263,72902.713,0.281,0.353,-0.892,-0.002,-0.003,0.007,-0.003,0.001,0.0,0.305,-0.361,0.9
2024-10-15 13:29:11.273,72902.723,0.281,0.353,-0.892,-0.003,-0.004,0.008,-0.001,-0.001,0.001,0.305,-0.361,0.9
2024-10-15 13:29:11.284,72902.733,0.281,0.353,-0.892,-0.001,-0.006,0.005,-0.007,0.006,-0.003,0.305,-0.361,0.9
2024-10-15 13:29:11.293,72902.742,0.281,0.353,-0.892,-0.003,-0.006,0.003,-0.008,0.006,0.007,0.305,-0.361,0.9
2024-10-15 13:29:11.302,72902.752,0.281,0.353,-0.892,-0.003,-0.005,0.005,-0.012,0.008,0.001,0.305,-0.361,0.9
2024-10-15 13:29:11.314,72902.762,0.281,0.354,-0.892,-0.002,-0.006,0.008,-0.012,0.007,0.005,0.305,-0.361,0.9
2024-10-15 13:29:11.323,72902.772,0.281,0.354,-0.892,-0.004,-0.003,0.007,-0.004,0.005,0.009,0.305,-0.361,0.9
2024-10-15 13:29:11.334,72902.782,0.281,0.354,-0.892,-0.001,-0.002,0.006,0.001,0.005,0.002,0.306,-0.361,0.9
2024-10-15 13:29:11.343,72902.792,0.281,0.354,-0.892,-0.002,-0.003,0.002,0.001,0.008,0.006,0.306,-0.361,0.9
2024-10-15 13:29:11.352,72902.802,0.282,0.353,-0.892,-0.003,-0.004,0.004,0.004,0.005,0.009,0.306,-0.361,0.901
2024-10-15 13:29:11.363,72902.812,0.282,0.353,-0.892,-0.001,-0.005,0.005,0.001,0.007,0.01,0.306,-0.361,0.901
2024-10-15 13:29:11.372,72902.822,0.282,0.353,-0.892,0.001,-0.005,0.007,0.006,-0.003,0.006,0.306,-0.361,0.901
2024-10-15 13:29:11.382,72902.832,0.282,0.353,-0.892,0.003,-0.006,0.007,0.008,-0.007,-0.002,0.306,-0.361,0.901
2024-10-15 13:29:11.392,72902.842,0.282,0.353,-0.892,0.002,-0.007,0.007,0.005,-0.013,-0.004,0.306,-0.361,0.901
2024-10-15 13:29:11.402,72902.852,0.281,0.353,-0.892,0.0,-0.006,0.007,0.008,-0.013,-0.006,0.306,-0.361,0.901
2024-10-15 13:29:11.413,72902.862,0.281,0.353,-0.892,-0.001,-0.005,0.004,0.001,-0.006,-0.005,0.305,-0.361,0.9
2024-10-15 13:29:11.422,72902.872,0.281,0.353,-0.892,-0.004,-0.006,0.002,0.002,-0.002,-0.004,0.305,-0.361,0.9
2024-10-15 13:29:11.433,72902.882,0.281,0.353,-0.892,-0.003,-0.004,0.002,0.008,-0.001,-0.006,0.305,-0.361,0.9
2024-10-15 13:29:11.443,72902.892,0.281,0.353,-0.892,-0.001,-0.003,0.004,0.015,-0.008,-0.007,0.305,-0.361,0.9
2024-10-15 13:29:11.452,72902.902,0.281,0.353,-0.892,0.005,0.0,0.007,0.027,-0.019,-0.017,0.305,-0.361,0.9
2024-10-15 13:29:11.463,72902.912,0.281,0.353,-0.893,0.009,0.001,0.009,0.03,-0.022,-0.018,0.305,-0.36,0.9
2024-10-15 13:29:11.473,72902.922,0.281,0.353,-0.893,0.001,-0.002,0.005,0.013,-0.017,-0.013,0.304,-0.36,0.9
2024-10-15 13:29:11.482,72902.932,0.28,0.353,-0.893,-0.006,-0.008,0.005,0.001,-0.017,-0.015,0.304,-0.36,0.899
2024-10-15 13:29:11.492,72902.942,0.28,0.353,-0.893,-0.01,-0.014,0.011,-0.006,-0.022,-0.025,0.304,-0.36,0.899
2024-10-15 13:29:11.502,72902.952,0.28,0.353,-0.893,-0.011,-0.015,0.015,-0.007,-0.027,-0.028,0.304,-0.36,0.899
2024-10-15 13:29:11.512,72902.962,0.279,0.353,-0.893,-0.007,-0.01,0.012,-0.0,-0.025,-0.028,0.303,-0.361,0.899
2024-10-15 13:29:11.523,72902.972,0.279,0.353,-0.893,-0.006,-0.003,0.007,0.009,-0.019,-0.028,0.303,-0.361,0.898
2024-10-15 13:29:11.532,72902.982,0.279,0.353,-0.893,-0.004,-0.001,0.004,0.02,-0.021,-0.02,0.303,-0.361,0.898
2024-10-15 13:29:11.542,72902.992,0.279,0.353,-0.893,0.002,0.002,0.005,0.04,-0.033,-0.021,0.302,-0.36,0.898
2024-10-15 13:29:11.552,72903.002,0.278,0.352,-0.894,0.008,0.004,0.007,0.052,-0.041,-0.025,0.302,-0.36,0.897
2024-10-15 13:29:11.563,72903.012,0.278,0.352,-0.894,0.007,0.007,0.006,0.057,-0.038,-0.019,0.301,-0.36,0.897
2024-10-15 13:29:11.582,72903.022,0.277,0.351,-0.894,-0.002,0.006,0.001,0.059,-0.027,-0.014,0.301,-0.359,0.897
2024-10-15 13:29:11.589,72903.032,0.277,0.351,-0.894,-0.012,-0.004,0.0,0.047,-0.032,-0.007,0.3,-0.358,0.896
2024-10-15 13:29:11.594,72903.042,0.277,0.351,-0.895,-0.014,-0.012,0.002,0.027,-0.027,0.006,0.3,-0.358,0.896
2024-10-15 13:29:11.602,72903.052,0.277,0.35,-0.895,-0.016,-0.011,-0.001,0.009,-0.004,0.019,0.3,-0.358,0.896
2024-10-15 13:29:11.612,72903.062,0.277,0.35,-0.895,-0.024,-0.01,-0.006,-0.013,0.011,0.043,0.3,-0.358,0.897
2024-10-15 13:29:11.622,72903.072,0.277,0.351,-0.895,-0.028,-0.009,-0.007,-0.072,0.006,0.043,0.3,-0.358,0.897
2024-10-15 13:29:11.632,72903.082,0.277,0.351,-0.894,-0.022,-0.009,0.001,-0.109,-0.021,0.046,0.301,-0.359,0.898
2024-10-15 13:29:11.642,72903.092,0.277,0.352,-0.894,-0.006,-0.023,0.011,-0.154,-0.061,0.064,0.301,-0.36,0.899
2024-10-15 13:29:11.653,72903.102,0.277,0.354,-0.894,0.008,-0.02,0.011,-0.175,-0.073,0.061,0.3,-0.361,0.9
2024-10-15 13:29:11.662,72903.112,0.276,0.355,-0.893,-0.001,-0.011,0.008,-0.186,-0.076,0.078,0.3,-0.363,0.901
2024-10-15 13:29:11.672,72903.122,0.276,0.356,-0.893,-0.01,-0.004,0.006,-0.194,-0.069,0.091,0.3,-0.364,0.903
2024-10-15 13:29:11.682,72903.132,0.276,0.358,-0.892,-0.013,0.007,0.004,-0.234,-0.073,0.099,0.3,-0.366,0.905
2024-10-15 13:29:11.692,72903.142,0.275,0.36,-0.891,-0.01,0.002,0.002,-0.259,-0.091,0.113,0.3,-0.368,0.906
2024-10-15 13:29:11.702,72903.152,0.275,0.362,-0.891,-0.002,-0.008,0.002,-0.292,-0.114,0.121,0.299,-0.37,0.908
2024-10-15 13:29:11.712,72903.162,0.274,0.364,-0.89,0.003,0.0,0.001,-0.332,-0.111,0.141,0.299,-0.373,0.911
2024-10-15 13:29:11.722,72903.172,0.274,0.367,-0.889,-0.001,0.014,0.002,-0.317,-0.123,0.203,0.299,-0.375,0.913
2024-10-15 13:29:11.732,72903.182,0.273,0.369,-0.888,0.003,0.022,0.004,-0.31,-0.133,0.205,0.299,-0.378,0.917
2024-10-15 13:29:11.742,72903.192,0.273,0.371,-0.888,0.007,0.027,0.005,-0.288,-0.107,0.195,0.298,-0.38,0.92
2024-10-15 13:29:11.752,72903.202,0.273,0.373,-0.887,-0.004,0.014,0.005,-0.251,-0.095,0.218,0.299,-0.382,0.923
2024-10-15 13:29:11.762,72903.212,0.273,0.374,-0.886,-0.0,0.007,0.01,-0.209,-0.107,0.22,0.299,-0.383,0.926
2024-10-15 13:29:11.772,72903.222,0.273,0.375,-0.886,0.013,-0.001,0.019,-0.171,-0.118,0.185,0.299,-0.385,0.928
2024-10-15 13:29:11.782,72903.232,0.272,0.376,-0.886,0.021,-0.008,0.019,-0.121,-0.134,0.162,0.298,-0.386,0.931
2024-10-15 13:29:11.791,72903.242,0.272,0.377,-0.886,0.019,-0.01,0.022,-0.073,-0.143,0.149,0.297,-0.386,0.932
2024-10-15 13:29:11.802,72903.252,0.271,0.377,-0.886,0.016,-0.005,0.02,0.021,-0.135,0.113,0.297,-0.386,0.934
2024-10-15 13:29:11.812,72903.262,0.27,0.376,-0.887,0.01,0.01,0.003,0.129,-0.118,0.105,0.296,-0.385,0.935
2024-10-15 13:29:11.821,72903.272,0.269,0.374,-0.888,0.006,0.037,-0.015,0.227,-0.119,0.106,0.295,-0.383,0.935
2024-10-15 13:29:11.832,72903.282,0.269,0.371,-0.889,0.008,0.066,-0.023,0.293,-0.102,0.101,0.294,-0.38,0.936
2024-10-15 13:29:11.842,72903.292,0.268,0.368,-0.89,0.003,0.077,-0.014,0.353,-0.062,0.11,0.293,-0.377,0.936
2024-10-15 13:29:11.852,72903.302,0.268,0.364,-0.892,-0.011,0.069,-0.007,0.379,-0.046,0.147,0.292,-0.373,0.936
2024-10-15 13:29:11.862,72903.312,0.269,0.36,-0.893,-0.007,0.052,0.002,0.384,-0.058,0.175,0.292,-0.369,0.936
2024-10-15 13:29:11.872,72903.321,0.269,0.357,-0.895,0.008,0.032,0.011,0.369,-0.087,0.176,0.292,-0.365,0.937
2024-10-15 13:29:11.882,72903.331,0.268,0.353,-0.896,0.017,0.018,0.023,0.347,-0.112,0.168,0.291,-0.361,0.938
2024-10-15 13:29:11.892,72903.341,0.268,0.349,-0.898,0.015,-0.001,0.034,0.336,-0.14,0.162,0.29,-0.357,0.938
2024-10-15 13:29:11.902,72903.351,0.267,0.346,-0.899,0.009,-0.015,0.043,0.351,-0.141,0.137,0.289,-0.353,0.939
2024-10-15 13:29:11.912,72903.361,0.266,0.342,-0.901,-0.004,-0.015,0.038,0.413,-0.143,0.115,0.287,-0.349,0.939
2024-10-15 13:29:11.922,72903.371,0.265,0.338,-0.903,-0.018,0.002,0.017,0.494,-0.137,0.106,0.286,-0.345,0.939
2024-10-15 13:29:11.932,72903.381,0.265,0.333,-0.905,-0.027,0.025,-0.005,0.596,-0.1,0.104,0.284,-0.339,0.938
2024-10-15 13:29:11.941,72903.391,0.264,0.327,-0.907,-0.04,0.031,-0.012,0.651,-0.059,0.117,0.283,-0.333,0.937
2024-10-15 13:29:11.951,72903.401,0.264,0.321,-0.91,-0.044,0.027,-0.008,0.637,-0.041,0.135,0.283,-0.326,0.937
2024-10-15 13:29:11.961,72903.411,0.264,0.315,-0.912,-0.033,0.015,0.005,0.569,-0.048,0.113,0.282,-0.32,0.936
2024-10-15 13:29:11.972,72903.421,0.264,0.31,-0.913,-0.019,-0.019,0.015,0.476,-0.057,0.098,0.281,-0.315,0.936
2024-10-15 13:29:11.981,72903.431,0.264,0.305,-0.915,-0.018,-0.046,0.016,0.395,-0.056,0.105,0.281,-0.31,0.936
2024-10-15 13:29:11.991,72903.441,0.264,0.302,-0.916,-0.015,-0.04,0.016,0.336,-0.034,0.112,0.28,-0.307,0.936
2024-10-15 13:29:12.002,72903.451,0.264,0.299,-0.917,-0.02,-0.026,0.017,0.293,-0.028,0.12,0.28,-0.303,0.936
2024-10-15 13:29:12.011,72903.461,0.264,0.296,-0.918,-0.02,-0.023,0.024,0.239,-0.022,0.108,0.28,-0.3,0.936
2024-10-15 13:29:12.021,72903.471,0.264,0.294,-0.919,-0.016,-0.034,0.023,0.221,-0.037,0.087,0.28,-0.298,0.937
2024-10-15 13:29:12.031,72903.481,0.264,0.291,-0.92,-0.013,-0.035,0.014,0.222,-0.05,0.075,0.279,-0.296,0.937
2024-10-15 13:29:12.042,72903.491,0.263,0.289,-0.92,-0.003,-0.03,0.002,0.242,-0.079,0.081,0.279,-0.293,0.937
2024-10-15 13:29:12.051,72903.501,0.263,0.287,-0.921,-0.003,-0.017,0.002,0.25,-0.025,0.089,0.278,-0.291,0.937
2024-10-15 13:29:12.061,72903.511,0.263,0.284,-0.922,-0.012,-0.01,0.015,0.235,-0.007,0.096,0.278,-0.288,0.937
2024-10-15 13:29:12.071,72903.521,0.263,0.282,-0.923,0.002,-0.012,0.024,0.197,-0.026,0.077,0.278,-0.286,0.937
2024-10-15 13:29:12.081,72903.531,0.263,0.28,-0.923,0.027,-0.029,0.039,0.199,-0.039,0.074,0.278,-0.284,0.938
2024-10-15 13:29:12.092,72903.541,0.263,0.278,-0.924,0.041,-0.026,0.038,0.246,-0.04,0.057,0.277,-0.281,0.938
2024-10-15 13:29:12.101,72903.551,0.263,0.275,-0.925,0.044,0.003,0.02,0.311,-0.048,0.031,0.277,-0.279,0.937
2024-10-15 13:29:12.111,72903.561,0.262,0.272,-0.926,0.044,0.015,-0.001,0.365,-0.054,0.017,0.276,-0.275,0.936
2024-10-15 13:29:12.121,72903.571,0.262,0.268,-0.927,0.038,0.012,-0.012,0.344,-0.042,0.025,0.275,-0.272,0.936
2024-10-15 13:29:12.131,72903.581,0.262,0.265,-0.928,0.025,-0.004,-0.01,0.311,-0.05,0.033,0.275,-0.268,0.935
2024-10-15 13:29:12.142,72903.591,0.261,0.262,-0.929,0.017,-0.022,-0.003,0.297,-0.049,0.042,0.274,-0.265,0.935
2024-10-15 13:29:12.151,72903.601,0.261,0.26,-0.93,0.013,-0.018,0.006,0.272,-0.051,0.053,0.274,-0.263,0.934
2024-10-15 13:29:12.161,72903.611,0.261,0.257,-0.931,0.009,-0.006,0.014,0.253,-0.044,0.057,0.273,-0.26,0.934
2024-10-15 13:29:12.171,72903.621,0.26,0.255,-0.931,0.001,-0.007,0.018,0.214,-0.036,0.06,0.273,-0.257,0.934
2024-10-15 13:29:12.182,72903.631,0.26,0.253,-0.932,-0.005,-0.002,0.024,0.162,-0.04,0.063,0.272,-0.255,0.934
2024-10-15 13:29:12.191,72903.641,0.26,0.251,-0.932,-0.006,-0.009,0.024,0.147,-0.042,0.063,0.272,-0.254,0.934
2024-10-15 13:29:12.201,72903.651,0.26,0.25,-0.933,-0.005,-0.006,0.013,0.154,-0.044,0.088,0.272,-0.252,0.935
2024-10-15 13:29:12.211,72903.661,0.26,0.248,-0.933,-0.003,0.018,0.005,0.199,-0.056,0.109,0.271,-0.25,0.935
2024-10-15 13:29:12.221,72903.671,0.259,0.245,-0.934,0.006,0.033,0.003,0.267,-0.063,0.105,0.271,-0.248,0.936
2024-10-15 13:29:12.231,72903.681,0.259,0.242,-0.935,0.006,0.041,-0.002,0.349,-0.058,0.116,0.27,-0.245,0.936
2024-10-15 13:29:12.242,72903.691,0.259,0.238,-0.936,-0.001,0.046,-0.004,0.407,-0.061,0.118,0.27,-0.241,0.936
2024-10-15 13:29:12.251,72903.701,0.258,0.234,-0.937,-0.0,0.034,0.001,0.415,-0.06,0.077,0.269,-0.236,0.936
2024-10-15 13:29:12.261,72903.711,0.258,0.23,-0.938,-0.001,0.012,0.002,0.419,-0.057,0.033,0.268,-0.232,0.935
2024-10-15 13:29:12.271,72903.721,0.258,0.226,-0.939,-0.007,-0.005,-0.008,0.415,-0.044,0.018,0.268,-0.228,0.934
2024-10-15 13:29:12.281,72903.731,0.257,0.222,-0.941,-0.02,-0.008,-0.041,0.468,-0.046,0.054,0.267,-0.224,0.933
2024-10-15 13:29:12.292,72903.741,0.257,0.217,-0.942,-0.032,-0.0,-0.046,0.494,-0.024,0.079,0.266,-0.219,0.933
2024-10-15 13:29:12.301,72903.751,0.257,0.212,-0.943,-0.032,0.022,-0.012,0.472,-0.017,0.084,0.266,-0.214,0.932
2024-10-15 13:29:12.311,72903.761,0.257,0.208,-0.944,-0.03,0.003,0.007,0.397,-0.03,0.103,0.266,-0.21,0.932
2024-10-15 13:29:12.321,72903.771,0.257,0.204,-0.945,-0.024,-0.019,0.011,0.339,-0.032,0.132,0.266,-0.206,0.932
2024-10-15 13:29:12.331,72903.781,0.257,0.201,-0.945,-0.021,-0.031,0.006,0.267,-0.03,0.161,0.265,-0.202,0.933
2024-10-15 13:29:12.342,72903.791,0.257,0.198,-0.946,-0.017,-0.023,-0.024,0.197,0.001,0.203,0.265,-0.2,0.934
2024-10-15 13:29:12.351,72903.801,0.258,0.197,-0.946,-0.02,-0.024,-0.055,0.06,0.048,0.246,0.266,-0.198,0.936
2024-10-15 13:29:12.361,72903.811,0.259,0.196,-0.946,-0.021,-0.061,-0.069,-0.104,0.079,0.273,0.267,-0.197,0.939
2024-10-15 13:29:12.371,72903.821,0.26,0.197,-0.945,-0.003,-0.105,-0.051,-0.292,0.102,0.253,0.269,-0.198,0.942
2024-10-15 13:29:12.381,72903.831,0.262,0.2,-0.944,0.015,-0.107,-0.028,-0.504,0.08,0.202,0.27,-0.202,0.945
2024-10-15 13:29:12.391,72903.841,0.262,0.205,-0.943,0.039,-0.122,0.021,-0.424,-0.039,0.077,0.271,-0.206,0.948
2024-10-15 13:29:12.401,72903.851,0.261,0.208,-0.943,0.078,-0.139,0.084,-0.284,-0.131,-0.067,0.27,-0.209,0.949
2024-10-15 13:29:12.410,72903.861,0.26,0.21,-0.943,0.118,-0.088,0.118,-0.093,-0.16,-0.089,0.269,-0.211,0.948
2024-10-15 13:29:12.421,72903.871,0.258,0.211,-0.943,0.13,-0.079,0.135,-0.11,-0.224,0.043,0.267,-0.212,0.948
2024-10-15 13:29:12.431,72903.881,0.255,0.212,-0.943,0.134,-0.08,0.111,-0.158,-0.324,0.007,0.264,-0.214,0.949
2024-10-15 13:29:12.441,72903.891,0.252,0.213,-0.944,0.098,-0.046,0.052,-0.151,-0.315,0.008,0.261,-0.215,0.949
2024-10-15 13:29:12.451,72903.9,0.25,0.214,-0.944,0.019,0.047,-0.027,-0.079,-0.248,0.061,0.259,-0.216,0.95
2024-10-15 13:29:12.461,72903.91,0.248,0.215,-0.945,-0.05,0.122,-0.051,-0.039,-0.153,0.085,0.257,-0.216,0.951
2024-10-15 13:29:12.471,72903.92,0.247,0.215,-0.945,-0.097,0.129,-0.026,0.041,-0.136,0.109,0.256,-0.216,0.952
2024-10-15 13:29:12.481,72903.93,0.246,0.213,-0.946,-0.089,0.134,0.019,0.221,-0.141,0.096,0.254,-0.215,0.953
2024-10-15 13:29:12.491,72903.94,0.245,0.21,-0.947,-0.054,0.148,0.069,0.398,-0.148,0.074,0.253,-0.211,0.953
2024-10-15 13:29:12.501,72903.95,0.243,0.206,-0.948,-0.034,0.183,0.074,0.458,-0.138,0.08,0.251,-0.207,0.952
2024-10-15 13:29:12.511,72903.96,0.242,0.201,-0.949,-0.046,0.156,0.03,0.441,-0.104,0.107,0.25,-0.202,0.952
2024-10-15 13:29:12.521,72903.97,0.242,0.197,-0.95,-0.09,0.102,-0.024,0.399,-0.015,0.198,0.25,-0.198,0.952
2024-10-15 13:29:12.530,72903.98,0.243,0.193,-0.951,-0.129,0.053,-0.049,0.267,-0.003,0.278,0.25,-0.194,0.954
2024-10-15 13:29:12.541,72903.99,0.243,0.19,-0.951,-0.118,-0.016,-0.028,0.156,0.013,0.233,0.25,-0.191,0.956
2024-10-15 13:29:12.551,72904.0,0.244,0.189,-0.951,-0.094,-0.064,-0.011,-0.019,0.026,0.265,0.251,-0.19,0.958
2024-10-15 13:29:12.561,72904.01,0.245,0.19,-0.951,-0.07,-0.112,-0.013,-0.34,0.054,0.251,0.252,-0.191,0.961
2024-10-15 13:29:12.571,72904.02,0.246,0.195,-0.949,-0.049,-0.225,-0.016,-0.884,0.103,0.244,0.253,-0.196,0.965
2024-10-15 13:29:12.581,72904.03,0.246,0.205,-0.947,-0.033,-0.318,-0.034,-1.213,-0.174,0.243,0.254,-0.206,0.971
2024-10-15 13:29:12.591,72904.04,0.244,0.214,-0.946,0.041,-0.338,-0.006,-0.734,-0.189,-0.037,0.253,-0.216,0.974
2024-10-15 13:29:12.601,72904.05,0.243,0.218,-0.945,0.1,-0.093,0.01,-0.119,-0.147,-0.153,0.251,-0.22,0.974
2024-10-15 13:29:12.611,72904.06,0.241,0.217,-0.946,0.08,0.139,-0.068,0.29,-0.062,-0.178,0.25,-0.219,0.972
2024-10-15 13:29:12.621,72904.07,0.24,0.215,-0.947,0.088,0.049,-0.039,0.157,-0.169,-0.083,0.248,-0.217,0.97
2024-10-15 13:29:12.631,72904.08,0.238,0.214,-0.947,0.153,-0.032,0.017,0.146,-0.246,-0.107,0.246,-0.216,0.969
2024-10-15 13:29:12.640,72904.09,0.235,0.212,-0.948,0.167,0.078,0.047,0.335,-0.21,-0.066,0.243,-0.214,0.967
2024-10-15 13:29:12.651,72904.1,0.234,0.208,-0.95,0.123,0.257,0.024,0.478,-0.081,0.03,0.242,-0.21,0.966
2024-10-15 13:29:12.660,72904.11,0.234,0.203,-0.951,0.05,0.231,0.034,0.523,-0.041,0.073,0.241,-0.205,0.966
2024-10-15 13:29:12.670,72904.12,0.233,0.199,-0.952,0.002,0.127,0.077,0.433,-0.078,0.042,0.24,-0.2,0.965
2024-10-15 13:29:12.681,72904.13,0.232,0.195,-0.953,0.001,0.056,0.097,0.374,-0.156,-0.004,0.239,-0.196,0.964
2024-10-15 13:29:12.691,72904.14,0.23,0.191,-0.954,-0.009,-0.021,0.094,0.459,-0.184,-0.039,0.237,-0.192,0.963
2024-10-15 13:29:12.700,72904.15,0.229,0.186,-0.956,-0.03,-0.025,0.097,0.586,-0.152,-0.087,0.235,-0.187,0.961
2024-10-15 13:29:12.710,72904.16,0.227,0.181,-0.957,-0.053,0.037,0.045,0.506,-0.12,-0.092,0.233,-0.182,0.959
2024-10-15 13:29:12.720,72904.17,0.226,0.177,-0.958,-0.071,0.031,-0.04,0.316,-0.077,-0.052,0.232,-0.178,0.957
2024-10-15 13:29:12.730,72904.18,0.226,0.175,-0.958,-0.11,-0.055,-0.093,0.127,-0.024,0.071,0.231,-0.176,0.957
2024-10-15 13:29:12.741,72904.19,0.226,0.174,-0.958,-0.147,-0.086,-0.112,-0.041,0.016,0.161,0.231,-0.175,0.958
2024-10-15 13:29:12.750,72904.2,0.227,0.175,-0.958,-0.158,-0.069,-0.045,-0.111,0.083,0.143,0.232,-0.176,0.96
2024-10-15 13:29:12.760,72904.21,0.228,0.176,-0.958,-0.143,-0.097,0.01,-0.276,0.126,0.201,0.234,-0.177,0.962
2024-10-15 13:29:12.771,72904.22,0.23,0.18,-0.957,-0.114,-0.168,0.015,-0.586,0.163,0.179,0.236,-0.181,0.965
2024-10-15 13:29:12.780,72904.23,0.232,0.186,-0.955,-0.102,-0.239,-0.008,-0.876,0.23,0.157,0.238,-0.188,0.968
2024-10-15 13:29:12.790,72904.24,0.234,0.195,-0.952,-0.074,-0.235,-0.033,-1.052,0.064,0.11,0.241,-0.197,0.972
2024-10-15 13:29:12.800,72904.25,0.233,0.205,-0.951,0.007,-0.238,-0.068,-0.889,-0.137,0.014,0.241,-0.206,0.975
2024-10-15 13:29:12.810,72904.26,0.233,0.211,-0.949,0.102,-0.139,-0.025,-0.418,0.017,-0.177,0.24,-0.213,0.976
2024-10-15 13:29:12.820,72904.27,0.233,0.214,-0.949,0.097,0.093,-0.003,-0.121,0.063,-0.046,0.241,-0.216,0.975
2024-10-15 13:29:12.831,72904.28,0.233,0.215,-0.948,0.118,0.098,-0.022,-0.079,-0.018,-0.129,0.241,-0.217,0.974
2024-10-15 13:29:12.841,72904.29,0.232,0.216,-0.948,0.186,0.051,0.071,-0.004,-0.106,-0.16,0.24,-0.217,0.973
2024-10-15 13:29:12.850,72904.3,0.231,0.215,-0.949,0.201,0.149,0.08,0.197,-0.109,-0.142,0.238,-0.217,0.971
2024-10-15 13:29:12.860,72904.31,0.23,0.213,-0.95,0.148,0.245,0.074,0.387,-0.034,-0.058,0.237,-0.214,0.97
2024-10-15 13:29:12.871,72904.32,0.229,0.209,-0.951,0.067,0.215,0.076,0.434,-0.042,-0.005,0.237,-0.21,0.968
2024-10-15 13:29:12.880,72904.33,0.229,0.205,-0.952,0.035,0.128,0.07,0.417,-0.126,-0.018,0.236,-0.206,0.967
2024-10-15 13:29:12.890,72904.34,0.227,0.201,-0.953,0.023,0.049,0.06,0.35,-0.19,-0.077,0.234,-0.203,0.966
2024-10-15 13:29:12.900,72904.35,0.225,0.198,-0.954,-0.024,0.024,0.044,0.438,-0.15,-0.097,0.232,-0.199,0.964
2024-10-15 13:29:12.911,72904.36,0.224,0.194,-0.955,-0.066,0.03,0.068,0.475,-0.097,-0.118,0.23,-0.195,0.962
2024-10-15 13:29:12.920,72904.37,0.222,0.19,-0.956,-0.054,0.027,0.05,0.402,-0.116,-0.125,0.228,-0.191,0.96
2024-10-15 13:29:12.931,72904.38,0.221,0.187,-0.957,-0.055,-0.052,-0.027,0.256,-0.073,-0.029,0.227,-0.188,0.958
2024-10-15 13:29:12.940,72904.39,0.221,0.185,-0.958,-0.118,-0.087,-0.103,0.139,-0.008,0.064,0.227,-0.186,0.958
2024-10-15 13:29:12.950,72904.4,0.222,0.183,-0.958,-0.195,-0.012,-0.091,0.179,0.122,0.115,0.227,-0.184,0.958
2024-10-15 13:29:12.960,72904.41,0.223,0.181,-0.958,-0.212,0.057,-0.027,0.121,0.113,0.206,0.229,-0.182,0.96
2024-10-15 13:29:12.971,72904.42,0.225,0.18,-0.958,-0.156,-0.019,0.025,-0.07,0.158,0.192,0.23,-0.181,0.962
2024-10-15 13:29:12.980,72904.43,0.227,0.182,-0.957,-0.123,-0.096,0.024,-0.394,0.196,0.243,0.233,-0.183,0.964
2024-10-15 13:29:12.990,72904.44,0.229,0.187,-0.955,-0.126,-0.159,-0.02,-0.717,0.28,0.248,0.236,-0.188,0.968
2024-10-15 13:29:13.000,72904.45,0.233,0.195,-0.953,-0.096,-0.214,-0.053,-1.186,0.39,0.232,0.24,-0.196,0.972
2024-10-15 13:29:13.010,72904.46,0.235,0.208,-0.949,-0.049,-0.254,-0.083,-1.507,-0.065,0.171,0.243,-0.209,0.978
2024-10-15 13:29:13.020,72904.47,0.234,0.22,-0.947,0.053,-0.35,-0.043,-0.913,-0.064,-0.106,0.243,-0.221,0.981
2024-10-15 13:29:13.030,72904.479,0.234,0.226,-0.946,0.144,-0.105,0.019,-0.386,0.046,-0.129,0.243,-0.228,0.982
2024-10-15 13:29:13.040,72904.489,0.234,0.229,-0.945,0.112,0.149,-0.049,-0.307,-0.009,-0.153,0.243,-0.231,0.981
2024-10-15 13:29:13.050,72904.499,0.233,0.232,-0.944,0.123,-0.045,0.012,-0.261,-0.149,-0.223,0.242,-0.234,0.98
2024-10-15 13:29:13.060,72904.509,0.231,0.235,-0.944,0.184,-0.063,0.037,-0.117,-0.18,-0.284,0.24,-0.237,0.978
2024-10-15 13:29:13.070,72904.519,0.228,0.236,-0.945,0.187,0.114,0.063,0.053,-0.143,-0.233,0.237,-0.238,0.975
2024-10-15 13:29:13.080,72904.529,0.227,0.235,-0.945,0.132,0.188,0.078,0.123,-0.12,-0.151,0.236,-0.237,0.973
2024-10-15 13:29:13.090,72904.539,0.225,0.234,-0.946,0.096,0.191,0.074,0.214,-0.152,-0.11,0.234,-0.236,0.971
2024-10-15 13:29:13.100,72904.549,0.224,0.231,-0.947,0.065,0.201,0.055,0.526,-0.085,-0.137,0.232,-0.233,0.969
2024-10-15 13:29:13.110,72904.559,0.223,0.225,-0.948,0.013,0.243,0.021,0.748,0.069,-0.17,0.231,-0.227,0.966
2024-10-15 13:29:13.120,72904.569,0.224,0.219,-0.95,-0.054,0.21,0.026,0.574,0.029,-0.159,0.231,-0.221,0.963
2024-10-15 13:29:13.130,72904.579,0.223,0.215,-0.951,-0.035,-0.036,0.031,0.226,-0.118,-0.158,0.23,-0.217,0.961
2024-10-15 13:29:13.140,72904.589,0.221,0.214,-0.951,0.0,-0.195,0.025,0.188,-0.106,-0.175,0.229,-0.216,0.958
2024-10-15 13:29:13.149,72904.599,0.221,0.212,-0.952,-0.063,-0.071,-0.007,0.279,0.031,-0.033,0.228,-0.214,0.957
2024-10-15 13:29:13.159,72904.609,0.221,0.21,-0.952,-0.145,0.051,-0.062,0.081,0.047,0.158,0.228,-0.212,0.957
2024-10-15 13:29:13.169,72904.619,0.222,0.21,-0.952,-0.181,0.023,-0.037,0.006,0.058,0.16,0.229,-0.211,0.959
2024-10-15 13:29:13.180,72904.629,0.224,0.209,-0.952,-0.174,0.032,0.013,0.108,0.151,0.213,0.231,-0.21,0.96
2024-10-15 13:29:13.189,72904.639,0.226,0.207,-0.952,-0.15,0.089,0.017,-0.003,0.216,0.252,0.233,-0.209,0.962
2024-10-15 13:29:13.200,72904.649,0.229,0.208,-0.951,-0.142,-0.029,-0.018,-0.331,0.238,0.306,0.236,-0.21,0.966
2024-10-15 13:29:13.210,72904.659,0.232,0.212,-0.949,-0.143,-0.2,-0.049,-0.713,0.358,0.313,0.24,-0.214,0.97
2024-10-15 13:29:13.220,72904.669,0.235,0.222,-0.946,-0.08,-0.293,-0.1,-1.393,0.234,0.27,0.244,-0.223,0.975
2024-10-15 13:29:13.230,72904.679,0.237,0.235,-0.943,-0.048,-0.347,-0.108,-1.387,0.007,0.143,0.246,-0.237,0.981
2024-10-15 13:29:13.240,72904.689,0.237,0.245,-0.94,0.015,-0.375,0.009,-0.792,-0.035,0.098,0.247,-0.248,0.985
2024-10-15 13:29:13.250,72904.699,0.238,0.25,-0.939,0.122,-0.057,0.017,-0.316,0.08,-0.082,0.248,-0.253,0.987
2024-10-15 13:29:13.259,72904.709,0.237,0.253,-0.938,0.154,0.085,0.057,-0.202,-0.152,-0.123,0.248,-0.256,0.986
2024-10-15 13:29:13.269,72904.719,0.234,0.254,-0.938,0.209,-0.097,0.113,0.046,-0.396,-0.25,0.244,-0.257,0.984
2024-10-15 13:29:13.279,72904.729,0.229,0.253,-0.94,0.291,0.001,0.133,0.398,-0.467,-0.289,0.239,-0.255,0.981
2024-10-15 13:29:13.290,72904.739,0.224,0.248,-0.942,0.243,0.256,0.102,0.685,-0.356,-0.293,0.234,-0.251,0.977
2024-10-15 13:29:13.300,72904.749,0.221,0.242,-0.945,0.125,0.371,0.051,0.72,-0.236,-0.169,0.23,-0.244,0.973
2024-10-15 13:29:13.310,72904.759,0.219,0.235,-0.947,0.01,0.337,0.012,0.858,-0.191,-0.117,0.227,-0.237,0.97
2024-10-15 13:29:13.320,72904.769,0.218,0.226,-0.949,-0.028,0.255,0.018,1.044,0.056,-0.196,0.225,-0.228,0.966
2024-10-15 13:29:13.330,72904.779,0.218,0.218,-0.951,-0.043,0.253,0.022,0.753,0.083,-0.187,0.225,-0.22,0.962
2024-10-15 13:29:13.340,72904.789,0.218,0.214,-0.952,-0.044,0.009,0.033,0.238,-0.009,-0.177,0.225,-0.215,0.959
2024-10-15 13:29:13.350,72904.799,0.218,0.213,-0.952,0.001,-0.252,0.046,-0.017,0.024,-0.174,0.225,-0.215,0.957
2024-10-15 13:29:13.359,72904.809,0.218,0.213,-0.952,-0.035,-0.174,0.014,0.11,0.118,-0.096,0.225,-0.215,0.955
2024-10-15 13:29:13.369,72904.819,0.219,0.212,-0.952,-0.104,-0.06,-0.023,0.119,0.171,0.05,0.226,-0.214,0.955
2024-10-15 13:29:13.380,72904.829,0.221,0.211,-0.952,-0.144,-0.027,-0.053,-0.055,0.139,0.13,0.228,-0.213,0.956
2024-10-15 13:29:13.390,72904.839,0.223,0.212,-0.952,-0.154,-0.026,-0.047,-0.077,0.112,0.157,0.23,-0.213,0.957
2024-10-15 13:29:13.400,72904.849,0.225,0.212,-0.951,-0.154,0.002,-0.026,-0.03,0.228,0.204,0.232,-0.214,0.959
2024-10-15 13:29:13.409,72904.859,0.227,0.212,-0.95,-0.161,0.018,-0.017,-0.171,0.233,0.329,0.235,-0.214,0.962
2024-10-15 13:29:13.419,72904.869,0.23,0.214,-0.949,-0.127,-0.145,-0.039,-0.443,0.226,0.324,0.238,-0.216,0.966
2024-10-15 13:29:13.429,72904.879,0.233,0.219,-0.947,-0.083,-0.233,-0.08,-0.769,0.339,0.273,0.242,-0.221,0.971
2024-10-15 13:29:13.440,72904.889,0.237,0.229,-0.944,-0.05,-0.262,-0.103,-1.5,0.336,0.297,0.246,-0.231,0.976
2024-10-15 13:29:13.449,72904.899,0.24,0.244,-0.94,-0.03,-0.354,-0.108,-1.715,0.102,0.282,0.25,-0.247,0.984
2024-10-15 13:29:13.459,72904.909,0.242,0.258,-0.936,0.035,-0.397,0.017,-1.223,0.048,0.257,0.253,-0.26,0.99
2024-10-15 13:29:13.469,72904.919,0.242,0.265,-0.933,0.104,-0.051,0.015,-0.569,-0.104,0.074,0.253,-0.269,0.994
2024-10-15 13:29:13.480,72904.929,0.241,0.269,-0.933,0.137,0.184,0.058,-0.146,-0.018,-0.049,0.253,-0.272,0.995
2024-10-15 13:29:13.489,72904.939,0.24,0.27,-0.932,0.148,0.148,0.117,-0.219,-0.112,-0.077,0.252,-0.274,0.995
2024-10-15 13:29:13.499,72904.949,0.238,0.272,-0.932,0.121,0.051,0.139,-0.152,-0.244,-0.199,0.25,-0.276,0.994
2024-10-15 13:29:13.509,72904.959,0.235,0.273,-0.933,0.151,0.05,0.133,0.117,-0.437,-0.241,0.246,-0.277,0.992
2024-10-15 13:29:13.519,72904.969,0.229,0.271,-0.935,0.214,0.145,0.108,0.622,-0.609,-0.321,0.24,-0.274,0.988
2024-10-15 13:29:13.529,72904.979,0.223,0.263,-0.939,0.206,0.234,0.064,1.072,-0.441,-0.426,0.233,-0.266,0.982
2024-10-15 13:29:13.539,72904.989,0.219,0.254,-0.942,0.117,0.358,-0.014,1.011,-0.238,-0.267,0.228,-0.257,0.976
2024-10-15 13:29:13.549,72904.999,0.216,0.244,-0.945,-0.014,0.302,-0.029,1.292,-0.128,-0.191,0.225,-0.247,0.971
2024-10-15 13:29:13.559,72905.009,0.216,0.231,-0.949,-0.028,0.205,0.047,1.446,0.096,-0.255,0.224,-0.233,0.966
2024-10-15 13:29:13.569,72905.019,0.216,0.22,-0.951,0.017,0.317,0.037,1.019,-0.013,-0.143,0.223,-0.222,0.961
2024-10-15 13:29:13.579,72905.029,0.215,0.213,-0.953,0.028,-0.029,-0.004,0.395,-0.136,-0.0,0.222,-0.215,0.959
2024-10-15 13:29:13.589,72905.039,0.214,0.211,-0.954,-0.039,-0.294,-0.062,0.16,0.063,0.087,0.221,-0.212,0.958
2024-10-15 13:29:13.599,72905.049,0.216,0.21,-0.953,-0.198,-0.106,-0.114,-0.112,0.264,0.261,0.223,-0.212,0.96
2024-10-15 13:29:13.609,72905.058,0.219,0.212,-0.952,-0.281,-0.133,-0.052,-0.523,0.213,0.3,0.226,-0.214,0.964
2024-10-15 13:29:13.619,72905.068,0.222,0.218,-0.95,-0.236,-0.364,0.032,-0.709,0.228,0.266,0.229,-0.22,0.968
2024-10-15 13:29:13.629,72905.078,0.225,0.224,-0.948,-0.18,-0.35,0.028,-0.851,0.28,0.319,0.233,-0.226,0.973
2024-10-15 13:29:13.639,72905.088,0.228,0.233,-0.945,-0.162,-0.264,-0.009,-0.961,0.29,0.278,0.237,-0.235,0.978
2024-10-15 13:29:13.648,72905.098,0.232,0.241,-0.942,-0.153,-0.2,-0.031,-1.11,0.378,0.241,0.241,-0.244,0.983
2024-10-15 13:29:13.658,72905.108,0.235,0.252,-0.939,-0.087,-0.072,-0.047,-1.255,0.015,0.489,0.245,-0.255,0.99
2024-10-15 13:29:13.668,72905.118,0.236,0.261,-0.936,0.04,-0.079,0.001,-0.741,-0.035,0.208,0.246,-0.264,0.996
2024-10-15 13:29:13.679,72905.128,0.236,0.265,-0.935,0.132,0.12,0.021,-0.349,0.076,0.251,0.248,-0.268,0.999
2024-10-15 13:29:13.689,72905.138,0.238,0.268,-0.934,0.073,0.276,-0.068,-0.379,0.048,0.274,0.249,-0.271,1.003
2024-10-15 13:29:13.699,72905.148,0.238,0.271,-0.933,0.086,-0.039,-0.012,-0.483,-0.072,0.14,0.25,-0.275,1.006
2024-10-15 13:29:13.708,72905.158,0.238,0.275,-0.932,0.117,-0.067,0.041,-0.314,-0.081,-0.025,0.25,-0.279,1.008
2024-10-15 13:29:13.718,72905.168,0.237,0.277,-0.931,0.114,0.063,0.081,-0.083,-0.118,-0.137,0.249,-0.281,1.007
2024-10-15 13:29:13.728,72905.178,0.234,0.277,-0.932,0.108,0.05,0.124,0.151,-0.265,-0.228,0.246,-0.281,1.005
2024-10-15 13:29:13.739,72905.188,0.23,0.275,-0.933,0.179,-0.017,0.132,0.395,-0.524,-0.387,0.241,-0.279,1.002
2024-10-15 13:29:13.749,72905.198,0.223,0.271,-0.936,0.218,0.01,0.096,0.759,-0.581,-0.49,0.234,-0.274,0.996
2024-10-15 13:29:13.759,72905.208,0.218,0.264,-0.94,0.166,0.196,0.001,0.968,-0.292,-0.428,0.228,-0.267,0.989
2024-10-15 13:29:13.769,72905.218,0.215,0.256,-0.943,0.034,0.316,-0.089,0.968,-0.253,-0.281,0.224,-0.259,0.983
2024-10-15 13:29:13.779,72905.228,0.213,0.245,-0.946,-0.065,0.237,-0.009,1.434,0.095,-0.391,0.221,-0.247,0.977
2024-10-15 13:29:13.789,72905.238,0.214,0.233,-0.949,-0.02,0.283,0.067,1.138,0.175,-0.346,0.221,-0.235,0.97
2024-10-15 13:29:13.799,72905.248,0.213,0.227,-0.95,0.011,0.11,0.017,0.302,-0.121,-0.262,0.22,-0.229,0.966
2024-10-15 13:29:13.809,72905.258,0.212,0.226,-0.951,0.02,-0.367,0.012,-0.008,-0.018,-0.196,0.219,-0.228,0.963
2024-10-15 13:29:13.819,72905.268,0.212,0.227,-0.95,-0.088,-0.256,-0.057,-0.182,0.216,0.088,0.22,-0.229,0.963
2024-10-15 13:29:13.829,72905.278,0.215,0.229,-0.949,-0.257,0.013,-0.054,-0.166,0.319,0.23,0.223,-0.231,0.965
2024-10-15 13:29:13.838,72905.288,0.219,0.23,-0.948,-0.3,0.033,0.048,-0.2,0.245,0.327,0.227,-0.232,0.968
2024-10-15 13:29:13.848,72905.298,0.222,0.232,-0.947,-0.209,-0.081,0.088,-0.463,0.253,0.301,0.23,-0.234,0.972
2024-10-15 13:29:13.858,72905.308,0.225,0.236,-0.945,-0.181,-0.142,0.061,-0.575,0.283,0.362,0.234,-0.239,0.976
2024-10-15 13:29:13.869,72905.318,0.229,0.241,-0.943,-0.207,-0.167,-0.036,-0.665,0.358,0.336,0.238,-0.244,0.981
2024-10-15 13:29:13.879,72905.328,0.233,0.248,-0.94,-0.165,-0.158,-0.112,-0.932,0.441,0.294,0.243,-0.25,0.986
2024-10-15 13:29:13.889,72905.338,0.237,0.259,-0.937,-0.086,-0.246,-0.144,-1.485,0.018,0.466,0.248,-0.262,0.993
2024-10-15 13:29:13.899,72905.348,0.236,0.27,-0.933,0.058,-0.374,-0.122,-1.045,-0.241,0.127,0.248,-0.273,1.0
2024-10-15 13:29:13.908,72905.358,0.235,0.277,-0.932,0.176,-0.14,-0.016,-0.406,0.054,0.026,0.248,-0.28,1.002
2024-10-15 13:29:13.919,72905.368,0.236,0.279,-0.931,0.097,0.326,-0.038,-0.163,0.071,-0.028,0.249,-0.283,1.003
2024-10-15 13:29:13.928,72905.378,0.236,0.281,-0.93,0.117,0.135,0.082,-0.157,-0.121,-0.052,0.248,-0.284,1.003
2024-10-15 13:29:13.939,72905.388,0.234,0.282,-0.931,0.294,-0.076,0.141,-0.067,-0.284,-0.27,0.246,-0.286,1.002
2024-10-15 13:29:13.949,72905.398,0.23,0.282,-0.931,0.366,0.112,0.119,0.322,-0.276,-0.313,0.242,-0.286,0.998
2024-10-15 13:29:13.959,72905.408,0.227,0.278,-0.933,0.272,0.248,0.05,0.644,-0.206,-0.294,0.239,-0.282,0.994
2024-10-15 13:29:13.968,72905.418,0.224,0.272,-0.936,0.152,0.269,0.006,0.768,-0.218,-0.284,0.235,-0.275,0.989
2024-10-15 13:29:13.979,72905.428,0.221,0.265,-0.938,0.053,0.201,-0.006,0.793,-0.248,-0.268,0.232,-0.268,0.985
2024-10-15 13:29:13.988,72905.438,0.219,0.257,-0.941,-0.004,0.108,0.064,1.099,-0.074,-0.302,0.229,-0.26,0.98
2024-10-15 13:29:13.998,72905.448,0.218,0.246,-0.944,-0.047,0.159,0.233,1.334,0.097,-0.382,0.227,-0.249,0.973
2024-10-15 13:29:14.008,72905.458,0.218,0.236,-0.947,-0.018,0.183,0.169,0.959,-0.001,-0.268,0.226,-0.238,0.967
2024-10-15 13:29:14.019,72905.468,0.217,0.23,-0.949,-0.0,-0.065,-0.002,0.469,-0.127,-0.09,0.225,-0.232,0.964
2024-10-15 13:29:14.028,72905.478,0.216,0.226,-0.95,-0.097,-0.232,-0.123,0.417,0.019,0.085,0.224,-0.228,0.963
2024-10-15 13:29:14.038,72905.488,0.218,0.221,-0.951,-0.214,-0.01,-0.147,0.366,0.161,0.247,0.225,-0.223,0.964
2024-10-15 13:29:14.048,72905.498,0.22,0.219,-0.951,-0.234,0.019,-0.05,0.043,0.111,0.293,0.227,-0.221,0.966
2024-10-15 13:29:14.058,72905.508,0.221,0.219,-0.95,-0.192,-0.215,0.039,-0.189,0.052,0.264,0.229,-0.221,0.969
2024-10-15 13:29:14.068,72905.518,0.222,0.221,-0.95,-0.16,-0.274,0.022,-0.295,0.089,0.267,0.23,-0.223,0.972
2024-10-15 13:29:14.078,72905.528,0.224,0.224,-0.948,-0.148,-0.233,-0.042,-0.635,0.181,0.247,0.232,-0.226,0.976
2024-10-15 13:29:14.088,72905.538,0.227,0.231,-0.946,-0.179,-0.262,-0.079,-0.931,0.217,0.263,0.235,-0.233,0.98
2024-10-15 13:29:14.098,72905.548,0.229,0.241,-0.943,-0.136,-0.296,-0.07,-1.146,0.26,0.239,0.239,-0.243,0.985
2024-10-15 13:29:14.108,72905.558,0.232,0.252,-0.94,-0.009,-0.253,-0.086,-1.442,-0.032,0.413,0.242,-0.255,0.992
2024-10-15 13:29:14.118,72905.568,0.231,0.263,-0.937,0.09,-0.218,-0.102,-1.018,-0.253,0.116,0.241,-0.267,0.998
2024-10-15 13:29:14.128,72905.578,0.23,0.27,-0.935,0.146,0.019,-0.019,-0.488,0.047,-0.04,0.241,-0.274,1.0
2024-10-15 13:29:14.138,72905.588,0.231,0.274,-0.934,0.057,0.391,-0.025,-0.343,0.115,0.079,0.242,-0.277,1.001
2024-10-15 13:29:14.148,72905.598,0.231,0.277,-0.932,0.087,0.144,0.045,-0.459,-0.03,0.004,0.243,-0.281,1.002
2024-10-15 13:29:14.158,72905.608,0.231,0.282,-0.931,0.192,-0.075,0.078,-0.489,-0.087,-0.22,0.243,-0.286,1.002
2024-10-15 13:29:14.168,72905.618,0.229,0.287,-0.93,0.226,0.014,0.052,-0.404,-0.034,-0.313,0.241,-0.291,1.001
2024-10-15 13:29:14.178,72905.628,0.228,0.291,-0.929,0.134,0.019,0.013,-0.213,0.003,-0.298,0.241,-0.295,0.998
2024-10-15 13:29:14.188,72905.637,0.227,0.292,-0.929,0.056,0.077,0.026,0.101,0.026,-0.355,0.24,-0.296,0.995
2024-10-15 13:29:14.198,72905.647,0.226,0.289,-0.93,0.031,0.196,0.076,0.691,-0.032,-0.421,0.238,-0.294,0.991
2024-10-15 13:29:14.208,72905.657,0.226,0.28,-0.933,-0.0,0.29,0.103,1.465,0.268,-0.562,0.237,-0.284,0.983
2024-10-15 13:29:14.218,72905.667,0.227,0.268,-0.936,-0.083,0.356,0.09,1.413,0.265,-0.434,0.238,-0.271,0.974
2024-10-15 13:29:14.228,72905.677,0.227,0.259,-0.939,-0.1,0.072,0.062,0.611,-0.077,-0.369,0.237,-0.262,0.968
2024-10-15 13:29:14.238,72905.687,0.224,0.257,-0.94,-0.012,-0.322,0.017,0.142,-0.235,-0.285,0.234,-0.259,0.963
2024-10-15 13:29:14.248,72905.697,0.222,0.256,-0.941,-0.015,-0.231,-0.051,0.115,-0.059,-0.075,0.232,-0.259,0.961
2024-10-15 13:29:14.258,72905.707,0.223,0.255,-0.941,-0.115,0.068,-0.07,0.087,0.084,0.148,0.233,-0.258,0.961
2024-10-15 13:29:14.268,72905.717,0.224,0.255,-0.941,-0.169,0.089,-0.012,-0.147,-0.02,0.217,0.233,-0.257,0.964
2024-10-15 13:29:14.278,72905.727,0.224,0.256,-0.94,-0.096,-0.068,0.078,-0.123,0.015,0.077,0.234,-0.259,0.965
2024-10-15 13:29:14.288,72905.737,0.225,0.256,-0.94,-0.066,-0.033,0.078,-0.058,0.139,0.14,0.235,-0.259,0.967
2024-10-15 13:29:14.298,72905.747,0.227,0.257,-0.939,-0.124,-0.001,-0.001,-0.184,0.22,0.219,0.237,-0.26,0.969
2024-10-15 13:29:14.308,72905.757,0.23,0.259,-0.938,-0.148,-0.133,-0.067,-0.373,0.281,0.206,0.24,-0.262,0.972
2024-10-15 13:29:14.318,72905.767,0.234,0.264,-0.936,-0.132,-0.185,-0.12,-0.766,0.357,0.199,0.245,-0.267,0.975
2024-10-15 13:29:14.328,72905.777,0.238,0.272,-0.932,-0.117,-0.184,-0.165,-1.209,0.406,0.271,0.25,-0.276,0.98
2024-10-15 13:29:14.338,72905.787,0.242,0.284,-0.928,-0.127,-0.278,-0.135,-1.43,0.231,0.416,0.255,-0.288,0.987
2024-10-15 13:29:14.348,72905.797,0.243,0.295,-0.924,-0.047,-0.305,0.006,-1.098,-0.128,0.149,0.258,-0.3,0.993
2024-10-15 13:29:14.358,72905.807,0.242,0.303,-0.922,0.139,-0.119,0.107,-0.481,-0.209,-0.184,0.256,-0.307,0.995
2024-10-15 13:29:14.368,72905.817,0.239,0.306,-0.922,0.258,0.116,0.147,-0.18,-0.278,-0.173,0.254,-0.311,0.994
2024-10-15 13:29:14.378,72905.827,0.235,0.308,-0.922,0.284,0.024,0.127,-0.098,-0.498,-0.213,0.249,-0.313,0.992
2024-10-15 13:29:14.387,72905.837,0.229,0.308,-0.923,0.322,0.018,0.083,0.179,-0.513,-0.354,0.243,-0.313,0.989
2024-10-15 13:29:14.398,72905.847,0.224,0.306,-0.925,0.306,0.29,0.019,0.498,-0.346,-0.324,0.237,-0.311,0.985
2024-10-15 13:29:14.408,72905.857,0.221,0.3,-0.928,0.159,0.442,-0.036,0.862,-0.169,-0.232,0.234,-0.305,0.981
2024-10-15 13:29:14.418,72905.867,0.219,0.291,-0.931,0.01,0.393,-0.013,1.224,0.025,-0.238,0.231,-0.295,0.976
2024-10-15 13:29:14.428,72905.877,0.219,0.28,-0.935,-0.031,0.303,0.064,1.198,0.066,-0.264,0.23,-0.283,0.97
2024-10-15 13:29:14.438,72905.887,0.219,0.271,-0.938,0.001,0.066,0.109,0.837,-0.052,-0.284,0.229,-0.274,0.965
2024-10-15 13:29:14.448,72905.897,0.217,0.265,-0.939,0.026,-0.179,0.104,0.504,-0.079,-0.295,0.227,-0.268,0.96
2024-10-15 13:29:14.458,72905.907,0.217,0.261,-0.941,-0.04,-0.136,0.018,0.398,0.08,-0.153,0.226,-0.265,0.957
2024-10-15 13:29:14.468,72905.917,0.217,0.259,-0.941,-0.144,-0.033,-0.089,0.179,0.126,0.077,0.227,-0.262,0.956
2024-10-15 13:29:14.478,72905.927,0.219,0.257,-0.941,-0.192,-0.043,-0.101,0.071,0.183,0.08,0.229,-0.26,0.957
2024-10-15 13:29:14.487,72905.937,0.221,0.256,-0.941,-0.224,-0.011,-0.036,0.13,0.247,0.094,0.231,-0.259,0.957
2024-10-15 13:29:14.497,72905.947,0.224,0.255,-0.941,-0.231,-0.041,0.03,0.044,0.201,0.184,0.234,-0.258,0.958
2024-10-15 13:29:14.507,72905.957,0.226,0.255,-0.94,-0.169,-0.169,0.05,-0.132,0.141,0.182,0.236,-0.258,0.96
2024-10-15 13:29:14.518,72905.967,0.228,0.257,-0.939,-0.125,-0.253,-0.011,-0.432,0.148,0.165,0.238,-0.26,0.963
2024-10-15 13:29:14.527,72905.977,0.23,0.262,-0.937,-0.127,-0.255,-0.07,-0.721,0.187,0.19,0.24,-0.266,0.966
2024-10-15 13:29:14.538,72905.987,0.232,0.27,-0.934,-0.105,-0.25,-0.1,-1.022,0.245,0.316,0.244,-0.273,0.971
2024-10-15 13:29:14.547,72905.997,0.235,0.281,-0.931,-0.021,-0.252,-0.172,-1.413,0.189,0.332,0.248,-0.284,0.977
2024-10-15 13:29:14.557,72906.007,0.237,0.294,-0.926,0.002,-0.234,-0.172,-1.518,0.086,0.143,0.251,-0.298,0.983
2024-10-15 13:29:14.567,72906.017,0.238,0.306,-0.922,-0.034,-0.126,-0.055,-1.091,0.109,0.103,0.253,-0.311,0.988
2024-10-15 13:29:14.577,72906.027,0.24,0.314,-0.919,0.055,0.101,0.007,-0.741,0.056,0.07,0.255,-0.319,0.991
2024-10-15 13:29:14.587,72906.037,0.239,0.319,-0.917,0.162,0.101,0.072,-0.455,-0.114,-0.068,0.255,-0.325,0.993
2024-10-15 13:29:14.597,72906.047,0.238,0.322,-0.916,0.227,0.1,0.153,-0.041,-0.127,-0.164,0.254,-0.328,0.992
2024-10-15 13:29:14.607,72906.057,0.236,0.322,-0.917,0.285,0.201,0.232,0.168,-0.214,-0.164,0.252,-0.327,0.99
2024-10-15 13:29:14.617,72906.067,0.233,0.32,-0.919,0.295,0.205,0.265,0.343,-0.297,-0.223,0.248,-0.325,0.988
2024-10-15 13:29:14.627,72906.077,0.23,0.316,-0.921,0.261,0.207,0.202,0.517,-0.226,-0.213,0.244,-0.322,0.984
2024-10-15 13:29:14.637,72906.087,0.227,0.311,-0.923,0.14,0.259,0.073,0.662,-0.131,-0.132,0.242,-0.316,0.981
2024-10-15 13:29:14.647,72906.097,0.226,0.305,-0.925,-0.021,0.257,-0.028,0.825,0.021,-0.142,0.24,-0.309,0.978
2024-10-15 13:29:14.657,72906.107,0.227,0.297,-0.928,-0.11,0.227,0.012,0.902,0.092,-0.154,0.24,-0.301,0.974
2024-10-15 13:29:14.667,72906.117,0.227,0.29,-0.93,-0.067,0.079,0.041,0.528,0.01,-0.143,0.239,-0.294,0.971
2024-10-15 13:29:14.677,72906.127,0.226,0.288,-0.931,-0.013,-0.182,0.004,0.148,-0.155,-0.153,0.238,-0.292,0.968
2024-10-15 13:29:14.687,72906.137,0.224,0.286,-0.931,-0.083,-0.291,-0.058,0.226,-0.003,-0.07,0.236,-0.29,0.967
2024-10-15 13:29:14.697,72906.147,0.225,0.284,-0.932,-0.196,-0.096,-0.143,0.232,0.054,0.037,0.236,-0.288,0.966
2024-10-15 13:29:14.707,72906.157,0.225,0.282,-0.933,-0.263,0.018,-0.088,0.294,0.076,0.113,0.237,-0.286,0.966
2024-10-15 13:29:14.717,72906.167,0.226,0.278,-0.933,-0.231,-0.004,0.015,0.406,0.031,0.173,0.238,-0.282,0.967
2024-10-15 13:29:14.727,72906.177,0.227,0.274,-0.935,-0.154,-0.005,0.056,0.437,0.029,0.201,0.238,-0.277,0.968
2024-10-15 13:29:14.737,72906.187,0.228,0.27,-0.936,-0.124,-0.002,0.026,0.31,0.078,0.232,0.239,-0.273,0.969
2024-10-15 13:29:14.747,72906.197,0.23,0.267,-0.936,-0.133,-0.013,-0.032,0.114,0.083,0.215,0.24,-0.27,0.971
2024-10-15 13:29:14.757,72906.207,0.231,0.267,-0.936,-0.091,-0.136,-0.089,-0.25,0.171,0.168,0.242,-0.27,0.973
2024-10-15 13:29:14.767,72906.216,0.233,0.271,-0.934,-0.018,-0.21,-0.136,-0.734,0.139,0.189,0.244,-0.275,0.976
2024-10-15 13:29:14.777,72906.226,0.235,0.279,-0.931,0.013,-0.242,-0.156,-1.02,0.137,0.131,0.247,-0.283,0.98
2024-10-15 13:29:14.787,72906.236,0.236,0.288,-0.928,0.048,-0.273,-0.083,-0.913,-0.019,0.059,0.249,-0.292,0.983
2024-10-15 13:29:14.797,72906.246,0.235,0.295,-0.926,0.136,-0.17,-0.053,-0.635,-0.069,-0.063,0.249,-0.3,0.985
2024-10-15 13:29:14.807,72906.256,0.234,0.3,-0.925,0.233,-0.034,0.041,-0.381,-0.16,-0.052,0.248,-0.305,0.986
2024-10-15 13:29:14.817,72906.266,0.232,0.303,-0.925,0.264,0.063,0.132,-0.132,-0.286,-0.107,0.245,-0.308,0.986
2024-10-15 13:29:14.827,72906.276,0.229,0.303,-0.925,0.307,0.117,0.169,0.041,-0.26,-0.188,0.242,-0.308,0.984
2024-10-15 13:29:14.837,72906.286,0.226,0.303,-0.926,0.25,0.194,0.137,0.147,-0.206,-0.175,0.239,-0.308,0.982
2024-10-15 13:29:14.847,72906.296,0.224,0.301,-0.927,0.114,0.18,0.077,0.26,-0.102,-0.164,0.237,-0.306,0.98
2024-10-15 13:29:14.857,72906.306,0.223,0.299,-0.928,0.01,0.17,0.054,0.465,-0.099,-0.134,0.235,-0.303,0.978
2024-10-15 13:29:14.867,72906.316,0.222,0.292,-0.93,-0.029,0.167,0.092,1.017,0.026,-0.241,0.234,-0.297,0.974
2024-10-15 13:29:14.877,72906.326,0.222,0.283,-0.933,-0.023,0.206,0.154,1.104,0.269,-0.336,0.234,-0.286,0.968
2024-10-15 13:29:14.887,72906.336,0.223,0.276,-0.935,-0.033,0.131,0.073,0.391,-0.018,-0.129,0.234,-0.279,0.964
2024-10-15 13:29:14.897,72906.346,0.222,0.275,-0.936,-0.025,-0.34,-0.019,-0.052,-0.188,-0.055,0.233,-0.279,0.963
2024-10-15 13:29:14.907,72906.356,0.221,0.275,-0.936,-0.071,-0.292,-0.145,0.055,0.089,-0.039,0.232,-0.279,0.962
2024-10-15 13:29:14.917,72906.366,0.223,0.274,-0.936,-0.246,0.237,-0.216,0.134,0.257,0.109,0.234,-0.278,0.962
2024-10-15 13:29:14.927,72906.376,0.225,0.273,-0.935,-0.339,0.165,-0.129,0.119,0.19,0.16,0.236,-0.276,0.964
2024-10-15 13:29:14.937,72906.386,0.227,0.272,-0.935,-0.254,-0.137,0.017,0.022,0.103,0.074,0.238,-0.275,0.965
2024-10-15 13:29:14.947,72906.396,0.228,0.272,-0.935,-0.154,-0.158,0.067,-0.114,0.079,0.019,0.239,-0.275,0.965
2024-10-15 13:29:14.957,72906.406,0.229,0.274,-0.934,-0.146,-0.22,0.012,-0.372,0.16,0.139,0.241,-0.278,0.966
2024-10-15 13:29:14.967,72906.416,0.232,0.279,-0.932,-0.178,-0.215,-0.046,-0.792,0.235,0.195,0.244,-0.282,0.97
2024-10-15 13:29:14.977,72906.426,0.234,0.288,-0.928,-0.088,-0.168,-0.14,-1.351,0.218,0.255,0.247,-0.292,0.975
2024-10-15 13:29:14.987,72906.436,0.237,0.302,-0.923,0.008,-0.278,-0.171,-1.601,0.253,0.226,0.252,-0.306,0.981
2024-10-15 13:29:14.996,72906.446,0.24,0.314,-0.918,0.02,-0.192,-0.132,-1.167,0.242,0.144,0.256,-0.32,0.986
2024-10-15 13:29:15.007,72906.456,0.243,0.322,-0.915,0.071,0.098,-0.119,-0.641,0.264,0.088,0.259,-0.328,0.99
2024-10-15 13:29:15.017,72906.466,0.245,0.327,-0.913,0.158,0.262,-0.004,-0.395,0.179,0.036,0.262,-0.333,0.992
2024-10-15 13:29:15.027,72906.476,0.246,0.33,-0.911,0.233,0.17,0.139,-0.3,0.102,0.021,0.264,-0.336,0.993
2024-10-15 13:29:15.037,72906.486,0.247,0.332,-0.91,0.263,0.004,0.224,-0.248,0.043,0.01,0.265,-0.339,0.994
2024-10-15 13:29:15.047,72906.496,0.247,0.334,-0.91,0.23,0.002,0.234,-0.129,0.048,-0.084,0.265,-0.34,0.994
2024-10-15 13:29:15.056,72906.506,0.247,0.336,-0.909,0.157,0.037,0.159,-0.207,0.04,-0.142,0.266,-0.342,0.994
2024-10-15 13:29:15.066,72906.516,0.247,0.338,-0.908,0.059,-0.03,0.057,-0.242,0.059,-0.138,0.266,-0.345,0.993
2024-10-15 13:29:15.077,72906.526,0.247,0.34,-0.907,-0.026,-0.067,0.007,-0.222,0.05,-0.096,0.266,-0.347,0.992
2024-10-15 13:29:15.086,72906.536,0.248,0.343,-0.906,-0.019,-0.004,0.001,-0.265,0.022,-0.053,0.267,-0.35,0.992
2024-10-15 13:29:15.096,72906.546,0.247,0.346,-0.905,-0.013,-0.001,0.009,-0.305,-0.01,-0.048,0.267,-0.353,0.992
2024-10-15 13:29:15.108,72906.556,0.247,0.348,-0.904,-0.026,0.01,0.042,-0.244,-0.126,-0.067,0.266,-0.356,0.993
2024-10-15 13:29:15.117,72906.566,0.245,0.349,-0.904,-0.023,0.058,0.112,0.101,-0.115,-0.131,0.265,-0.357,0.992
2024-10-15 13:29:15.127,72906.576,0.244,0.348,-0.905,0.028,0.076,0.267,0.315,-0.13,-0.328,0.263,-0.355,0.989
2024-10-15 13:29:15.137,72906.586,0.241,0.347,-0.906,0.062,0.018,0.3,-0.075,-0.151,-0.37,0.26,-0.355,0.985
2024-10-15 13:29:15.146,72906.596,0.238,0.352,-0.905,0.028,-0.266,0.234,-0.788,-0.247,-0.523,0.257,-0.36,0.982
2024-10-15 13:29:15.156,72906.606,0.234,0.363,-0.902,-0.078,-0.456,-0.019,-1.17,0.08,-0.598,0.254,-0.371,0.978
2024-10-15 13:29:15.166,72906.616,0.235,0.375,-0.897,-0.236,-0.197,-0.441,-1.411,0.414,-0.316,0.256,-0.385,0.977
2024-10-15 13:29:15.176,72906.626,0.239,0.389,-0.89,-0.316,-0.045,-0.587,-1.574,0.511,-0.09,0.262,-0.4,0.979
2024-10-15 13:29:15.187,72906.636,0.242,0.403,-0.883,-0.246,-0.074,-0.368,-1.45,0.523,-0.118,0.268,-0.415,0.982
2024-10-15 13:29:15.196,72906.646,0.246,0.415,-0.876,-0.111,0.002,-0.099,-1.305,0.426,-0.206,0.274,-0.428,0.985
2024-10-15 13:29:15.205,72906.656,0.249,0.426,-0.87,-0.016,0.057,0.022,-1.056,0.413,-0.191,0.278,-0.44,0.986
2024-10-15 13:29:15.216,72906.666,0.251,0.435,-0.864,0.001,0.024,0.101,-1.011,0.357,-0.174,0.283,-0.451,0.987
2024-10-15 13:29:15.226,72906.676,0.253,0.444,-0.859,-0.015,0.028,0.206,-1.002,0.214,-0.121,0.286,-0.461,0.989
2024-10-15 13:29:15.237,72906.686,0.254,0.453,-0.855,0.013,0.016,0.237,-0.865,0.183,-0.122,0.289,-0.47,0.99
2024-10-15 13:29:15.246,72906.696,0.255,0.46,-0.851,0.029,0.09,0.178,-0.684,0.2,-0.059,0.292,-0.478,0.992
2024-10-15 13:29:15.256,72906.706,0.257,0.465,-0.847,0.008,0.159,0.083,-0.598,0.168,-0.072,0.294,-0.484,0.993
2024-10-15 13:29:15.266,72906.716,0.258,0.47,-0.844,0.01,0.157,-0.008,-0.487,0.15,-0.046,0.296,-0.489,0.994
2024-10-15 13:29:15.276,72906.726,0.259,0.474,-0.842,0.045,0.125,-0.07,-0.411,0.194,-0.015,0.299,-0.494,0.996
2024-10-15 13:29:15.286,72906.736,0.261,0.477,-0.839,0.061,0.111,-0.098,-0.417,0.206,0.013,0.301,-0.498,0.997
2024-10-15 13:29:15.296,72906.746,0.263,0.481,-0.837,0.054,0.057,-0.091,-0.412,0.223,0.03,0.304,-0.501,0.999
2024-10-15 13:29:15.306,72906.756,0.265,0.484,-0.834,0.055,0.01,-0.076,-0.375,0.225,0.041,0.307,-0.505,1.0
2024-10-15 13:29:15.316,72906.766,0.267,0.487,-0.832,0.059,0.003,-0.05,-0.27,0.163,0.041,0.31,-0.508,1.002
2024-10-15 13:29:15.326,72906.776,0.268,0.488,-0.831,0.068,0.003,-0.028,-0.086,0.089,0.016,0.312,-0.51,1.003
2024-10-15 13:29:15.336,72906.786,0.268,0.488,-0.831,0.078,0.011,0.012,0.068,0.019,-0.036,0.312,-0.51,1.003
2024-10-15 13:29:15.346,72906.796,0.268,0.487,-0.831,0.056,0.031,0.033,0.231,-0.041,-0.073,0.312,-0.509,1.002
2024-10-15 13:29:15.356,72906.805,0.267,0.485,-0.833,0.011,0.068,0.024,0.41,-0.095,-0.079,0.31,-0.506,1.0
2024-10-15 13:29:15.366,72906.815,0.265,0.481,-0.836,-0.023,0.113,0.012,0.58,-0.144,-0.035,0.308,-0.501,0.997
2024-10-15 13:29:15.376,72906.825,0.264,0.475,-0.839,-0.044,0.141,-0.006,0.695,-0.154,-0.001,0.305,-0.495,0.995
2024-10-15 13:29:15.386,72906.835,0.263,0.469,-0.843,-0.063,0.167,-0.01,0.718,-0.088,0.009,0.303,-0.488,0.993
2024-10-15 13:29:15.396,72906.845,0.263,0.463,-0.847,-0.103,0.161,-0.03,0.756,-0.075,0.072,0.301,-0.481,0.991
2024-10-15 13:29:15.406,72906.855,0.263,0.456,-0.85,-0.137,0.145,-0.04,0.704,-0.046,0.091,0.3,-0.474,0.989
2024-10-15 13:29:15.416,72906.865,0.263,0.45,-0.853,-0.137,0.087,-0.02,0.658,-0.024,0.139,0.299,-0.467,0.988
2024-10-15 13:29:15.426,72906.875,0.263,0.444,-0.856,-0.143,0.049,0.006,0.634,0.02,0.149,0.298,-0.461,0.987
2024-10-15 13:29:15.436,72906.885,0.264,0.438,-0.859,-0.122,0.062,0.022,0.725,0.054,0.154,0.299,-0.454,0.987
2024-10-15 13:29:15.447,72906.895,0.266,0.432,-0.862,-0.1,0.069,0.04,0.743,0.081,0.146,0.299,-0.446,0.986
2024-10-15 13:29:15.456,72906.905,0.267,0.425,-0.865,-0.078,0.055,0.06,0.662,0.089,0.11,0.299,-0.439,0.985
2024-10-15 13:29:15.481,72906.915,0.268,0.419,-0.868,-0.057,-0.006,0.068,0.727,0.081,0.038,0.3,-0.432,0.984
2024-10-15 13:29:15.483,72906.925,0.269,0.412,-0.871,-0.045,-0.06,0.067,0.847,0.115,-0.007,0.3,-0.425,0.981
2024-10-15 13:29:15.487,72906.935,0.27,0.405,-0.874,-0.036,-0.035,0.056,0.857,0.162,-0.023,0.3,-0.417,0.978
2024-10-15 13:29:15.496,72906.945,0.271,0.398,-0.877,-0.018,-0.112,0.068,0.789,0.14,-0.027,0.3,-0.409,0.975
2024-10-15 13:29:15.506,72906.955,0.272,0.391,-0.879,0.017,-0.177,0.083,0.731,0.115,-0.042,0.3,-0.402,0.973
2024-10-15 13:29:15.515,72906.965,0.273,0.385,-0.882,0.046,-0.175,0.102,0.661,0.07,-0.081,0.3,-0.395,0.97
2024-10-15 13:29:15.526,72906.975,0.273,0.38,-0.884,0.063,-0.178,0.096,0.641,-0.0,-0.074,0.299,-0.389,0.967
2024-10-15 13:29:15.536,72906.985,0.272,0.374,-0.886,0.074,-0.168,0.066,0.583,-0.041,-0.062,0.298,-0.384,0.964
2024-10-15 13:29:15.546,72906.995,0.272,0.37,-0.889,0.063,-0.106,0.039,0.545,-0.062,-0.03,0.297,-0.378,0.962
2024-10-15 13:29:15.556,72907.005,0.271,0.365,-0.891,0.04,-0.049,0.019,0.539,-0.052,-0.01,0.295,-0.373,0.96
2024-10-15 13:29:15.565,72907.015,0.271,0.36,-0.893,0.025,0.005,-0.001,0.596,-0.033,0.051,0.295,-0.368,0.957
2024-10-15 13:29:15.575,72907.025,0.271,0.354,-0.895,0.029,0.053,-0.016,0.666,-0.007,0.07,0.294,-0.362,0.956
2024-10-15 13:29:15.586,72907.035,0.271,0.348,-0.898,0.041,0.082,-0.044,0.695,-0.001,0.09,0.293,-0.355,0.954
2024-10-15 13:29:15.595,72907.045,0.271,0.341,-0.9,0.054,0.058,-0.075,0.674,-0.023,0.154,0.293,-0.348,0.952
2024-10-15 13:29:15.605,72907.055,0.272,0.335,-0.902,0.072,0.007,-0.082,0.582,-0.05,0.177,0.293,-0.342,0.952
2024-10-15 13:29:15.616,72907.065,0.272,0.33,-0.904,0.076,-0.023,-0.053,0.506,-0.056,0.143,0.292,-0.336,0.952
2024-10-15 13:29:15.626,72907.075,0.272,0.325,-0.906,0.068,-0.016,-0.026,0.451,-0.044,0.144,0.291,-0.331,0.952
2024-10-15 13:29:15.636,72907.085,0.272,0.321,-0.907,0.059,-0.02,-0.009,0.397,-0.024,0.127,0.291,-0.327,0.952
2024-10-15 13:29:15.646,72907.095,0.272,0.317,-0.909,0.045,-0.036,0.013,0.446,-0.018,0.102,0.291,-0.322,0.95
2024-10-15 13:29:15.655,72907.105,0.272,0.312,-0.91,0.048,-0.055,0.039,0.507,-0.009,0.093,0.291,-0.317,0.948
2024-10-15 13:29:15.665,72907.115,0.273,0.307,-0.912,0.061,-0.034,0.058,0.549,-0.005,0.056,0.29,-0.312,0.947
2024-10-15 13:29:15.676,72907.125,0.273,0.302,-0.914,0.041,-0.025,0.047,0.62,-0.018,0.055,0.29,-0.306,0.946
2024-10-15 13:29:15.685,72907.135,0.273,0.296,-0.916,0.045,-0.017,0.038,0.655,-0.045,0.069,0.289,-0.3,0.945
2024-10-15 13:29:15.695,72907.145,0.272,0.29,-0.918,0.06,0.014,0.05,0.599,-0.087,0.091,0.288,-0.294,0.944
2024-10-15 13:29:15.705,72907.155,0.271,0.284,-0.92,0.061,-0.017,0.071,0.547,-0.144,0.163,0.287,-0.288,0.943
2024-10-15 13:29:15.716,72907.165,0.27,0.279,-0.922,0.053,-0.023,0.078,0.538,-0.179,0.223,0.286,-0.282,0.943
2024-10-15 13:29:15.726,72907.175,0.269,0.273,-0.923,0.038,0.005,0.075,0.476,-0.191,0.218,0.284,-0.277,0.944
2024-10-15 13:29:15.736,72907.185,0.268,0.269,-0.925,0.008,0.009,0.067,0.418,-0.162,0.226,0.282,-0.272,0.945
2024-10-15 13:29:15.747,72907.195,0.267,0.264,-0.927,-0.018,-0.006,0.055,0.395,-0.181,0.171,0.281,-0.267,0.946
2024-10-15 13:29:15.755,72907.205,0.266,0.26,-0.928,-0.017,-0.011,0.046,0.466,-0.154,0.135,0.279,-0.263,0.946
2024-10-15 13:29:15.765,72907.215,0.265,0.254,-0.93,0.013,-0.017,0.053,0.652,-0.182,0.098,0.277,-0.257,0.946
2024-10-15 13:29:15.775,72907.225,0.263,0.247,-0.932,0.033,0.019,0.052,0.836,-0.194,0.037,0.275,-0.25,0.944
2024-10-15 13:29:15.785,72907.235,0.262,0.24,-0.935,0.028,0.058,0.025,0.719,-0.162,0.004,0.273,-0.242,0.942
2024-10-15 13:29:15.795,72907.245,0.26,0.234,-0.937,-0.009,0.02,-0.057,0.532,-0.171,0.057,0.271,-0.236,0.941
2024-10-15 13:29:15.805,72907.255,0.259,0.229,-0.938,-0.08,-0.0,-0.207,0.482,-0.132,0.148,0.269,-0.231,0.941
2024-10-15 13:29:15.815,72907.265,0.259,0.224,-0.94,-0.122,0.082,-0.2,0.43,-0.053,0.134,0.268,-0.226,0.941
2024-10-15 13:29:15.825,72907.275,0.259,0.221,-0.94,-0.144,0.078,-0.157,0.232,-0.019,0.184,0.268,-0.223,0.941
2024-10-15 13:29:15.835,72907.285,0.259,0.219,-0.941,-0.127,-0.006,-0.167,-0.048,0.041,0.258,0.269,-0.221,0.943
2024-10-15 13:29:15.845,72907.295,0.261,0.22,-0.94,-0.108,-0.076,-0.134,-0.383,0.173,0.309,0.27,-0.222,0.947
2024-10-15 13:29:15.855,72907.305,0.263,0.225,-0.938,-0.09,-0.151,-0.088,-0.701,0.253,0.291,0.274,-0.227,0.951
2024-10-15 13:29:15.865,72907.315,0.266,0.231,-0.936,-0.03,-0.204,-0.049,-0.725,0.192,0.211,0.277,-0.233,0.956
2024-10-15 13:29:15.875,72907.325,0.268,0.236,-0.934,0.039,-0.208,-0.029,-0.402,0.09,0.099,0.279,-0.238,0.959
2024-10-15 13:29:15.885,72907.335,0.269,0.238,-0.933,0.108,-0.107,0.055,-0.053,0.085,-0.021,0.28,-0.24,0.96
2024-10-15 13:29:15.894,72907.345,0.269,0.237,-0.934,0.141,-0.049,0.182,0.26,-0.038,-0.03,0.28,-0.239,0.959
2024-10-15 13:29:15.905,72907.355,0.268,0.234,-0.935,0.195,-0.1,0.242,0.491,-0.147,-0.027,0.279,-0.236,0.958
2024-10-15 13:29:15.915,72907.365,0.266,0.228,-0.937,0.258,-0.017,0.254,0.691,-0.197,-0.042,0.277,-0.23,0.956
2024-10-15 13:29:15.925,72907.375,0.264,0.222,-0.939,0.22,0.064,0.195,0.596,-0.231,0.007,0.274,-0.224,0.954
2024-10-15 13:29:15.935,72907.384,0.262,0.218,-0.94,0.144,0.028,0.106,0.35,-0.268,0.015,0.272,-0.219,0.953
2024-10-15 13:29:15.945,72907.394,0.259,0.215,-0.942,0.063,-0.003,0.004,0.208,-0.253,0.038,0.269,-0.217,0.952
2024-10-15 13:29:15.955,72907.404,0.257,0.213,-0.943,-0.021,0.051,-0.051,0.201,-0.202,0.05,0.267,-0.215,0.952
2024-10-15 13:29:15.965,72907.414,0.256,0.211,-0.943,-0.08,0.103,-0.012,0.23,-0.156,0.068,0.265,-0.212,0.952
2024-10-15 13:29:15.975,72907.424,0.254,0.209,-0.944,-0.089,0.103,0.031,0.105,-0.182,0.071,0.263,-0.21,0.952
2024-10-15 13:29:15.985,72907.434,0.253,0.209,-0.945,-0.08,0.073,-0.016,-0.073,-0.175,0.071,0.261,-0.21,0.953
2024-10-15 13:29:15.995,72907.444,0.252,0.21,-0.945,-0.123,0.05,-0.105,-0.173,-0.043,0.125,0.261,-0.211,0.954
2024-10-15 13:29:16.005,72907.454,0.253,0.211,-0.944,-0.22,0.066,-0.163,-0.247,0.126,0.189,0.261,-0.213,0.956
2024-10-15 13:29:16.015,72907.464,0.255,0.214,-0.943,-0.276,0.062,-0.147,-0.413,0.204,0.247,0.264,-0.215,0.959
2024-10-15 13:29:16.024,72907.474,0.257,0.218,-0.941,-0.239,-0.059,-0.085,-0.695,0.242,0.291,0.267,-0.22,0.963
2024-10-15 13:29:16.035,72907.484,0.26,0.225,-0.939,-0.181,-0.158,-0.031,-0.868,0.281,0.272,0.271,-0.227,0.968
2024-10-15 13:29:16.044,72907.494,0.263,0.232,-0.936,-0.156,-0.145,-0.004,-0.726,0.175,0.274,0.274,-0.234,0.973
2024-10-15 13:29:16.055,72907.504,0.265,0.237,-0.935,-0.102,-0.142,-0.007,-0.55,0.046,0.243,0.276,-0.239,0.978
2024-10-15 13:29:16.065,72907.514,0.265,0.241,-0.934,0.029,-0.122,-0.019,-0.488,-0.162,0.227,0.277,-0.244,0.982
2024-10-15 13:29:16.075,72907.524,0.264,0.243,-0.933,0.137,-0.14,0.061,0.016,-0.122,-0.052,0.275,-0.246,0.983
2024-10-15 13:29:16.085,72907.534,0.263,0.241,-0.934,0.173,-0.038,0.102,0.431,-0.092,-0.04,0.274,-0.244,0.982
2024-10-15 13:29:16.095,72907.544,0.261,0.238,-0.936,0.207,0.014,0.066,0.351,-0.3,-0.099,0.272,-0.24,0.98
2024-10-15 13:29:16.105,72907.554,0.257,0.235,-0.938,0.337,-0.208,0.116,0.393,-0.457,-0.221,0.268,-0.237,0.977
2024-10-15 13:29:16.115,72907.564,0.252,0.231,-0.94,0.321,-0.128,0.077,0.497,-0.411,-0.234,0.262,-0.233,0.974
2024-10-15 13:29:16.125,72907.574,0.249,0.227,-0.942,0.163,0.09,-0.024,0.346,-0.273,-0.151,0.258,-0.229,0.971
2024-10-15 13:29:16.135,72907.584,0.246,0.225,-0.943,0.009,0.114,-0.075,0.211,-0.187,-0.061,0.255,-0.227,0.969
2024-10-15 13:29:16.145,72907.594,0.245,0.222,-0.944,-0.054,0.109,-0.058,0.428,-0.036,-0.055,0.254,-0.224,0.968
2024-10-15 13:29:16.155,72907.604,0.245,0.218,-0.945,-0.051,0.207,0.095,0.523,0.071,-0.021,0.254,-0.22,0.966
2024-10-15 13:29:16.164,72907.614,0.245,0.214,-0.946,0.012,0.183,0.206,0.194,-0.115,-0.012,0.254,-0.216,0.965
2024-10-15 13:29:16.175,72907.624,0.243,0.213,-0.946,0.058,-0.053,0.201,0.167,-0.241,-0.118,0.251,-0.215,0.964
2024-10-15 13:29:16.185,72907.634,0.241,0.211,-0.947,-0.002,-0.075,0.154,0.402,-0.162,-0.108,0.249,-0.212,0.962
2024-10-15 13:29:16.195,72907.644,0.239,0.207,-0.949,-0.107,0.144,0.064,0.355,-0.101,-0.046,0.247,-0.209,0.96
2024-10-15 13:29:16.205,72907.654,0.239,0.205,-0.949,-0.192,0.129,-0.064,0.158,-0.055,0.049,0.246,-0.206,0.96
2024-10-15 13:29:16.214,72907.664,0.239,0.204,-0.949,-0.261,0.03,-0.217,-0.002,0.056,0.078,0.246,-0.205,0.96
2024-10-15 13:29:16.225,72907.674,0.24,0.204,-0.949,-0.307,0.068,-0.285,-0.057,0.229,0.116,0.248,-0.205,0.961
2024-10-15 13:29:16.235,72907.684,0.243,0.205,-0.948,-0.305,0.049,-0.242,-0.25,0.292,0.237,0.251,-0.206,0.963
2024-10-15 13:29:16.244,72907.694,0.246,0.208,-0.947,-0.202,-0.101,-0.144,-0.577,0.258,0.216,0.255,-0.21,0.967
2024-10-15 13:29:16.254,72907.704,0.249,0.213,-0.945,-0.083,-0.227,-0.089,-0.632,0.26,0.177,0.258,-0.215,0.97
2024-10-15 13:29:16.265,72907.714,0.252,0.22,-0.942,-0.012,-0.212,-0.084,-0.916,0.189,0.195,0.261,-0.222,0.974
2024-10-15 13:29:16.274,72907.724,0.253,0.229,-0.94,0.045,-0.245,-0.12,-0.954,-0.084,0.141,0.263,-0.231,0.979
2024-10-15 13:29:16.284,72907.734,0.253,0.235,-0.938,0.11,-0.265,-0.036,-0.44,0.076,-0.013,0.263,-0.238,0.981
2024-10-15 13:29:16.294,72907.744,0.253,0.238,-0.938,0.118,-0.009,0.028,-0.155,0.028,0.031,0.264,-0.24,0.982
2024-10-15 13:29:16.304,72907.754,0.253,0.239,-0.938,0.15,0.01,0.088,-0.044,-0.093,-0.068,0.263,-0.241,0.982
2024-10-15 13:29:16.314,72907.764,0.251,0.239,-0.938,0.237,-0.098,0.19,0.024,-0.211,-0.081,0.262,-0.241,0.981
2024-10-15 13:29:16.324,72907.774,0.249,0.239,-0.939,0.25,-0.012,0.196,0.106,-0.29,-0.135,0.259,-0.241,0.98
2024-10-15 13:29:16.334,72907.784,0.245,0.237,-0.94,0.192,0.078,0.179,0.358,-0.31,-0.164,0.255,-0.239,0.978
2024-10-15 13:29:16.344,72907.794,0.242,0.233,-0.942,0.097,0.168,0.146,0.529,-0.29,-0.148,0.252,-0.235,0.975
2024-10-15 13:29:16.354,72907.804,0.239,0.228,-0.944,0.026,0.203,0.161,0.564,-0.279,-0.103,0.248,-0.23,0.972
2024-10-15 13:29:16.364,72907.814,0.236,0.223,-0.946,-0.038,0.165,0.18,0.529,-0.27,-0.092,0.245,-0.225,0.97
2024-10-15 13:29:16.374,72907.824,0.234,0.218,-0.947,-0.096,0.126,0.156,0.608,-0.229,-0.08,0.242,-0.22,0.968
2024-10-15 13:29:16.384,72907.834,0.232,0.212,-0.949,-0.142,0.113,0.123,0.761,-0.065,-0.065,0.24,-0.214,0.966
2024-10-15 13:29:16.394,72907.844,0.232,0.206,-0.951,-0.151,0.115,0.113,0.449,-0.078,-0.003,0.239,-0.207,0.964
2024-10-15 13:29:16.404,72907.854,0.231,0.204,-0.951,-0.145,-0.008,-0.049,-0.039,-0.061,-0.0,0.238,-0.206,0.963
2024-10-15 13:29:16.414,72907.864,0.232,0.206,-0.951,-0.209,-0.135,-0.217,-0.25,0.24,0.02,0.239,-0.207,0.964
2024-10-15 13:29:16.424,72907.874,0.235,0.209,-0.949,-0.328,-0.08,-0.296,-0.46,0.401,0.131,0.243,-0.21,0.965
2024-10-15 13:29:16.434,72907.884,0.239,0.214,-0.947,-0.28,-0.131,-0.229,-0.798,0.376,0.119,0.247,-0.216,0.968
2024-10-15 13:29:16.444,72907.894,0.243,0.223,-0.944,-0.113,-0.243,-0.131,-1.007,0.377,0.076,0.252,-0.225,0.971
2024-10-15 13:29:16.454,72907.904,0.247,0.233,-0.941,-0.02,-0.188,-0.095,-1.112,0.452,0.154,0.257,-0.235,0.975
2024-10-15 13:29:16.464,72907.914,0.251,0.243,-0.937,-0.004,-0.179,-0.097,-1.198,0.297,0.205,0.262,-0.245,0.98
2024-10-15 13:29:16.474,72907.924,0.253,0.253,-0.934,0.039,-0.165,-0.162,-0.93,0.056,0.139,0.265,-0.255,0.985
2024-10-15 13:29:16.484,72907.934,0.254,0.259,-0.932,0.121,-0.029,-0.085,-0.454,0.166,0.022,0.266,-0.262,0.987
2024-10-15 13:29:16.494,72907.944,0.256,0.261,-0.931,0.139,0.125,0.012,-0.152,0.105,0.12,0.268,-0.264,0.989
2024-10-15 13:29:16.504,72907.954,0.256,0.262,-0.93,0.178,0.06,0.092,-0.044,-0.019,0.022,0.269,-0.265,0.99
2024-10-15 13:29:16.515,72907.963,0.256,0.262,-0.931,0.27,-0.035,0.188,0.051,-0.161,-0.065,0.268,-0.265,0.99
2024-10-15 13:29:16.523,72907.973,0.253,0.261,-0.931,0.304,-0.037,0.232,0.151,-0.249,-0.162,0.266,-0.264,0.988
2024-10-15 13:29:16.533,72907.983,0.25,0.26,-0.933,0.265,-0.04,0.247,0.27,-0.379,-0.16,0.262,-0.263,0.986
2024-10-15 13:29:16.543,72907.993,0.246,0.257,-0.935,0.18,-0.057,0.197,0.387,-0.443,-0.24,0.257,-0.26,0.983
2024-10-15 13:29:16.554,72908.003,0.241,0.254,-0.937,0.093,0.004,0.121,0.389,-0.392,-0.246,0.252,-0.257,0.98
2024-10-15 13:29:16.563,72908.013,0.237,0.251,-0.939,-0.035,0.091,0.024,0.546,-0.283,-0.189,0.247,-0.253,0.976
2024-10-15 13:29:16.574,72908.023,0.235,0.244,-0.941,-0.127,0.149,0.055,0.875,-0.02,-0.111,0.245,-0.247,0.973
2024-10-15 13:29:16.584,72908.033,0.235,0.237,-0.943,-0.097,0.21,0.171,0.711,-0.118,-0.095,0.244,-0.239,0.97
2024-10-15 13:29:16.594,72908.043,0.232,0.232,-0.945,0.004,0.092,0.101,0.382,-0.278,-0.159,0.241,-0.234,0.967
2024-10-15 13:29:16.604,72908.053,0.23,0.229,-0.946,-0.019,-0.029,-0.052,0.317,-0.051,-0.107,0.239,-0.231,0.965
2024-10-15 13:29:16.614,72908.063,0.231,0.227,-0.946,-0.203,0.122,-0.23,0.121,0.232,0.085,0.24,-0.229,0.964
2024-10-15 13:29:16.624,72908.073,0.234,0.227,-0.945,-0.33,0.107,-0.283,-0.187,0.364,0.141,0.243,-0.229,0.966
2024-10-15 13:29:16.634,72908.083,0.238,0.229,-0.944,-0.3,-0.072,-0.214,-0.373,0.315,0.145,0.247,-0.231,0.968
2024-10-15 13:29:16.644,72908.093,0.241,0.233,-0.942,-0.169,-0.167,-0.105,-0.502,0.266,0.138,0.251,-0.235,0.97
2024-10-15 13:29:16.654,72908.103,0.244,0.238,-0.94,-0.049,-0.179,-0.014,-0.676,0.263,0.136,0.254,-0.24,0.973
2024-10-15 13:29:16.664,72908.113,0.247,0.245,-0.938,-0.035,-0.185,0.014,-0.865,0.287,0.165,0.257,-0.248,0.977
2024-10-15 13:29:16.674,72908.123,0.25,0.253,-0.935,-0.049,-0.174,-0.008,-0.852,0.307,0.171,0.261,-0.256,0.981
2024-10-15 13:29:16.684,72908.133,0.254,0.26,-0.932,-0.022,-0.11,-0.054,-0.752,0.363,0.177,0.266,-0.263,0.985
2024-10-15 13:29:16.694,72908.143,0.257,0.267,-0.929,0.02,-0.03,-0.102,-0.868,0.246,0.167,0.27,-0.27,0.988
2024-10-15 13:29:16.704,72908.153,0.259,0.274,-0.926,0.057,-0.045,-0.146,-0.713,0.084,0.071,0.272,-0.278,0.992
2024-10-15 13:29:16.714,72908.163,0.26,0.279,-0.924,0.084,-0.002,-0.101,-0.436,0.159,0.058,0.274,-0.283,0.994
2024-10-15 13:29:16.724,72908.173,0.262,0.282,-0.923,0.082,0.124,-0.039,-0.222,0.142,0.113,0.276,-0.286,0.996
2024-10-15 13:29:16.734,72908.183,0.263,0.283,-0.922,0.105,0.063,0.081,-0.104,0.02,0.042,0.277,-0.287,0.997
2024-10-15 13:29:16.744,72908.193,0.262,0.284,-0.923,0.16,-0.025,0.185,0.04,-0.173,-0.04,0.277,-0.288,0.997
2024-10-15 13:29:16.754,72908.203,0.26,0.283,-0.923,0.203,-0.033,0.229,0.18,-0.263,-0.12,0.274,-0.287,0.996
2024-10-15 13:29:16.763,72908.213,0.256,0.281,-0.925,0.172,-0.023,0.218,0.268,-0.325,-0.143,0.271,-0.285,0.994
2024-10-15 13:29:16.774,72908.223,0.253,0.279,-0.927,0.088,-0.056,0.149,0.294,-0.381,-0.16,0.266,-0.283,0.992
2024-10-15 13:29:16.784,72908.233,0.249,0.277,-0.928,0.019,-0.055,0.058,0.277,-0.337,-0.174,0.262,-0.28,0.989
2024-10-15 13:29:16.794,72908.243,0.246,0.274,-0.93,-0.037,0.007,-0.023,0.28,-0.247,-0.144,0.258,-0.278,0.987
2024-10-15 13:29:16.804,72908.253,0.244,0.272,-0.931,-0.088,0.048,-0.065,0.218,-0.081,-0.109,0.256,-0.276,0.985
2024-10-15 13:29:16.813,72908.263,0.243,0.27,-0.932,-0.112,0.071,-0.037,0.311,-0.088,-0.11,0.255,-0.274,0.983
2024-10-15 13:29:16.823,72908.273,0.242,0.266,-0.933,-0.079,0.076,0.053,0.623,0.079,-0.18,0.254,-0.269,0.981
2024-10-15 13:29:16.834,72908.283,0.243,0.261,-0.934,-0.021,0.151,0.109,0.425,0.036,-0.128,0.254,-0.265,0.978
2024-10-15 13:29:16.843,72908.293,0.242,0.259,-0.935,0.003,0.021,0.084,0.107,-0.118,-0.127,0.253,-0.262,0.976
2024-10-15 13:29:16.854,72908.303,0.241,0.259,-0.935,0.0,-0.12,0.048,0.11,-0.01,-0.106,0.252,-0.262,0.974
2024-10-15 13:29:16.863,72908.313,0.241,0.258,-0.936,-0.074,0.068,-0.025,0.027,0.083,0.022,0.252,-0.261,0.974
2024-10-15 13:29:16.873,72908.323,0.242,0.258,-0.935,-0.148,0.107,-0.08,-0.022,0.106,0.058,0.253,-0.261,0.974
2024-10-15 13:29:16.883,72908.333,0.243,0.258,-0.935,-0.152,0.007,-0.101,0.006,0.14,0.066,0.255,-0.261,0.975
2024-10-15 13:29:16.893,72908.343,0.245,0.258,-0.935,-0.108,0.027,-0.1,-0.017,0.158,0.097,0.256,-0.261,0.976
2024-10-15 13:29:16.903,72908.353,0.247,0.258,-0.934,-0.075,-0.002,-0.099,-0.16,0.168,0.102,0.258,-0.261,0.977
2024-10-15 13:29:16.913,72908.363,0.249,0.26,-0.933,-0.069,-0.059,-0.106,-0.259,0.219,0.121,0.261,-0.263,0.979
2024-10-15 13:29:16.923,72908.373,0.252,0.262,-0.932,-0.066,-0.105,-0.125,-0.373,0.335,0.123,0.264,-0.266,0.981
2024-10-15 13:29:16.934,72908.383,0.256,0.267,-0.929,-0.055,-0.144,-0.151,-0.69,0.45,0.159,0.269,-0.27,0.983
2024-10-15 13:29:16.943,72908.393,0.259,0.275,-0.926,-0.032,-0.184,-0.174,-1.015,0.22,0.122,0.273,-0.278,0.987
2024-10-15 13:29:16.953,72908.403,0.261,0.283,-0.923,0.008,-0.229,-0.17,-0.74,0.135,0.042,0.276,-0.287,0.991
2024-10-15 13:29:16.963,72908.413,0.262,0.287,-0.921,0.064,-0.124,-0.048,-0.311,0.064,0.074,0.277,-0.292,0.993
2024-10-15 13:29:16.973,72908.423,0.262,0.289,-0.921,0.111,0.016,0.063,-0.063,-0.106,0.005,0.277,-0.293,0.994
2024-10-15 13:29:16.983,72908.433,0.26,0.289,-0.921,0.179,-0.043,0.213,0.036,-0.242,-0.082,0.275,-0.293,0.993
2024-10-15 13:29:16.993,72908.443,0.257,0.289,-0.922,0.22,-0.063,0.258,0.064,-0.342,-0.131,0.272,-0.293,0.992
2024-10-15 13:29:17.003,72908.453,0.253,0.288,-0.923,0.197,-0.063,0.229,0.136,-0.383,-0.189,0.268,-0.293,0.99
2024-10-15 13:29:17.013,72908.463,0.25,0.287,-0.925,0.153,-0.001,0.155,0.282,-0.341,-0.217,0.264,-0.291,0.987
2024-10-15 13:29:17.023,72908.473,0.246,0.284,-0.927,0.088,0.125,0.069,0.505,-0.229,-0.207,0.26,-0.288,0.984
2024-10-15 13:29:17.033,72908.483,0.244,0.279,-0.929,0.01,0.216,0.01,0.637,-0.154,-0.139,0.257,-0.283,0.981
2024-10-15 13:29:17.043,72908.493,0.242,0.273,-0.931,-0.041,0.233,0.02,0.852,-0.185,-0.157,0.254,-0.276,0.978
2024-10-15 13:29:17.053,72908.503,0.24,0.264,-0.934,-0.029,0.192,0.098,1.159,0.007,-0.259,0.252,-0.267,0.973
2024-10-15 13:29:17.063,72908.513,0.24,0.255,-0.937,-0.018,0.18,0.138,0.803,-0.039,-0.145,0.251,-0.257,0.968
2024-10-15 13:29:17.073,72908.523,0.238,0.25,-0.938,-0.02,-0.06,0.109,0.312,-0.216,-0.145,0.249,-0.252,0.965
2024-10-15 13:29:17.083,72908.533,0.236,0.248,-0.939,-0.014,-0.245,0.06,0.154,-0.12,-0.126,0.246,-0.251,0.963
2024-10-15 13:29:17.093,72908.542,0.236,0.248,-0.94,-0.099,-0.029,-0.066,-0.082,0.042,0.017,0.246,-0.25,0.963
2024-10-15 13:29:17.103,72908.552,0.237,0.249,-0.939,-0.207,0.042,-0.167,-0.269,0.184,0.112,0.247,-0.252,0.964
2024-10-15 13:29:17.113,72908.562,0.24,0.252,-0.938,-0.263,-0.015,-0.189,-0.273,0.303,0.173,0.25,-0.254,0.966
2024-10-15 13:29:17.123,72908.572,0.243,0.254,-0.936,-0.219,0.023,-0.134,-0.324,0.303,0.212,0.254,-0.257,0.969
2024-10-15 13:29:17.133,72908.582,0.247,0.257,-0.934,-0.112,-0.021,-0.075,-0.461,0.331,0.24,0.258,-0.26,0.972
2024-10-15 13:29:17.143,72908.592,0.25,0.261,-0.932,-0.059,-0.082,-0.05,-0.633,0.357,0.265,0.262,-0.264,0.976
2024-10-15 13:29:17.153,72908.602,0.254,0.267,-0.93,-0.06,-0.125,-0.081,-0.65,0.351,0.259,0.267,-0.27,0.98
2024-10-15 13:29:17.163,72908.612,0.259,0.273,-0.927,-0.035,-0.112,-0.13,-0.819,0.441,0.212,0.273,-0.276,0.985
2024-10-15 13:29:17.172,72908.622,0.263,0.281,-0.923,-0.007,-0.096,-0.202,-1.027,0.247,0.196,0.277,-0.285,0.989
2024-10-15 13:29:17.182,72908.632,0.265,0.289,-0.92,0.005,-0.192,-0.187,-0.82,0.108,0.086,0.28,-0.294,0.993
2024-10-15 13:29:17.192,72908.642,0.266,0.295,-0.918,0.058,-0.11,-0.103,-0.353,0.135,0.072,0.282,-0.299,0.996
2024-10-15 13:29:17.202,72908.652,0.267,0.296,-0.917,0.089,0.094,0.033,-0.085,0.049,0.029,0.284,-0.301,0.997
2024-10-15 13:29:17.212,72908.662,0.267,0.296,-0.917,0.123,0.018,0.168,0.112,-0.193,-0.059,0.283,-0.301,0.997
2024-10-15 13:29:17.223,72908.672,0.264,0.294,-0.918,0.198,-0.047,0.249,0.34,-0.297,-0.171,0.28,-0.299,0.995
2024-10-15 13:29:17.233,72908.682,0.26,0.291,-0.921,0.238,-0.009,0.308,0.513,-0.448,-0.214,0.275,-0.295,0.992
2024-10-15 13:29:17.243,72908.692,0.255,0.286,-0.924,0.225,-0.036,0.319,0.714,-0.571,-0.278,0.269,-0.29,0.988
2024-10-15 13:29:17.253,72908.702,0.248,0.279,-0.928,0.183,0.003,0.258,0.912,-0.532,-0.319,0.262,-0.283,0.982
2024-10-15 13:29:17.262,72908.712,0.243,0.272,-0.931,0.094,0.108,0.143,0.844,-0.42,-0.269,0.256,-0.275,0.977
2024-10-15 13:29:17.272,72908.722,0.239,0.264,-0.935,-0.024,0.105,0.053,1.071,-0.302,-0.255,0.25,-0.267,0.972
2024-10-15 13:29:17.284,72908.732,0.237,0.253,-0.938,-0.098,0.122,0.046,1.304,0.053,-0.253,0.248,-0.256,0.966
2024-10-15 13:29:17.293,72908.742,0.237,0.244,-0.941,-0.088,0.168,0.023,0.646,-0.189,-0.125,0.246,-0.246,0.962
2024-10-15 13:29:17.303,72908.752,0.233,0.241,-0.942,-0.008,-0.163,-0.01,0.137,-0.303,-0.227,0.243,-0.243,0.959
2024-10-15 13:29:17.313,72908.762,0.231,0.241,-0.943,-0.023,-0.196,-0.05,-0.063,-0.002,-0.133,0.241,-0.243,0.957
2024-10-15 13:29:17.323,72908.772,0.233,0.244,-0.942,-0.179,0.101,-0.152,-0.495,0.192,0.148,0.242,-0.246,0.958
2024-10-15 13:29:17.333,72908.782,0.235,0.248,-0.94,-0.278,0.018,-0.205,-0.552,0.25,0.197,0.245,-0.251,0.961
2024-10-15 13:29:17.343,72908.792,0.239,0.252,-0.938,-0.255,-0.031,-0.18,-0.332,0.415,0.205,0.249,-0.255,0.964
2024-10-15 13:29:17.353,72908.802,0.243,0.254,-0.936,-0.163,0.126,-0.099,-0.35,0.39,0.308,0.254,-0.257,0.968
2024-10-15 13:29:17.362,72908.812,0.247,0.257,-0.934,-0.085,0.024,-0.032,-0.427,0.352,0.301,0.259,-0.26,0.972
2024-10-15 13:29:17.372,72908.822,0.251,0.261,-0.932,-0.047,-0.083,-0.024,-0.545,0.331,0.304,0.264,-0.264,0.976
2024-10-15 13:29:17.382,72908.832,0.255,0.265,-0.93,-0.037,-0.097,-0.078,-0.502,0.383,0.273,0.268,-0.268,0.981
2024-10-15 13:29:17.392,72908.842,0.259,0.27,-0.927,-0.025,-0.111,-0.147,-0.647,0.249,0.21,0.273,-0.273,0.985
2024-10-15 13:29:17.402,72908.852,0.261,0.276,-0.925,-0.017,-0.119,-0.229,-0.652,0.161,0.09,0.275,-0.279,0.988
2024-10-15 13:29:17.413,72908.862,0.263,0.281,-0.923,0.027,-0.126,-0.173,-0.47,0.162,0.062,0.278,-0.285,0.99
2024-10-15 13:29:17.423,72908.872,0.264,0.284,-0.922,0.054,-0.019,-0.069,-0.205,0.076,0.034,0.279,-0.288,0.992
2024-10-15 13:29:17.433,72908.882,0.264,0.284,-0.922,0.119,-0.008,0.097,0.057,-0.158,-0.072,0.279,-0.288,0.992
2024-10-15 13:29:17.442,72908.892,0.261,0.283,-0.923,0.229,-0.045,0.258,0.312,-0.442,-0.201,0.276,-0.287,0.99
2024-10-15 13:29:17.452,72908.902,0.255,0.28,-0.926,0.313,-0.071,0.37,0.609,-0.692,-0.304,0.269,-0.283,0.986
2024-10-15 13:29:17.462,72908.912,0.247,0.273,-0.93,0.314,-0.06,0.393,0.924,-0.692,-0.381,0.26,-0.277,0.981
2024-10-15 13:29:17.473,72908.922,0.241,0.265,-0.934,0.217,0.061,0.319,0.913,-0.489,-0.35,0.253,-0.269,0.974
2024-10-15 13:29:17.482,72908.932,0.236,0.259,-0.937,0.036,0.118,0.162,0.596,-0.461,-0.197,0.247,-0.262,0.97
2024-10-15 13:29:17.492,72908.942,0.232,0.253,-0.939,-0.094,0.038,-0.021,0.877,-0.203,-0.239,0.242,-0.256,0.966
2024-10-15 13:29:17.502,72908.952,0.231,0.244,-0.942,-0.125,0.166,-0.056,0.94,0.071,-0.149,0.241,-0.247,0.961
2024-10-15 13:29:17.512,72908.962,0.231,0.239,-0.943,-0.083,0.192,-0.047,0.266,-0.122,-0.107,0.24,-0.241,0.959
2024-10-15 13:29:17.522,72908.972,0.229,0.239,-0.943,0.005,-0.195,-0.014,-0.243,-0.08,-0.178,0.238,-0.242,0.957
2024-10-15 13:29:17.532,72908.982,0.229,0.243,-0.942,-0.056,-0.201,-0.09,-0.539,0.135,-0.01,0.239,-0.246,0.957
2024-10-15 13:29:17.542,72908.992,0.231,0.249,-0.941,-0.239,-0.016,-0.232,-0.547,0.285,0.113,0.241,-0.251,0.959
2024-10-15 13:29:17.552,72909.002,0.235,0.253,-0.938,-0.324,0.028,-0.235,-0.408,0.483,0.182,0.246,-0.255,0.962
2024-10-15 13:29:17.562,72909.012,0.241,0.256,-0.936,-0.262,0.115,-0.128,-0.432,0.444,0.257,0.251,-0.259,0.965
2024-10-15 13:29:17.572,72909.022,0.245,0.26,-0.934,-0.13,0.007,-0.019,-0.479,0.381,0.258,0.257,-0.263,0.969
2024-10-15 13:29:17.582,72909.032,0.249,0.263,-0.932,-0.06,-0.057,-0.006,-0.434,0.377,0.252,0.261,-0.266,0.973
2024-10-15 13:29:17.592,72909.042,0.253,0.267,-0.93,-0.041,-0.037,-0.067,-0.463,0.372,0.265,0.266,-0.27,0.977
2024-10-15 13:29:17.602,72909.052,0.258,0.271,-0.928,-0.02,-0.052,-0.131,-0.531,0.335,0.194,0.271,-0.274,0.98
2024-10-15 13:29:17.612,72909.062,0.26,0.275,-0.925,0.014,-0.029,-0.22,-0.502,0.232,0.117,0.274,-0.279,0.983
2024-10-15 13:29:17.622,72909.072,0.263,0.279,-0.924,0.045,-0.049,-0.206,-0.414,0.254,0.057,0.277,-0.283,0.985
2024-10-15 13:29:17.632,72909.082,0.265,0.282,-0.922,0.08,-0.058,-0.081,-0.25,0.169,0.065,0.28,-0.286,0.987
2024-10-15 13:29:17.642,72909.092,0.266,0.284,-0.921,0.141,-0.088,0.088,-0.118,-0.04,-0.03,0.281,-0.288,0.988
2024-10-15 13:29:17.652,72909.102,0.264,0.284,-0.922,0.238,-0.137,0.25,0.093,-0.271,-0.163,0.279,-0.288,0.987
2024-10-15 13:29:17.662,72909.112,0.261,0.283,-0.923,0.285,-0.104,0.364,0.174,-0.379,-0.212,0.275,-0.287,0.984
2024-10-15 13:29:17.672,72909.121,0.256,0.282,-0.925,0.262,-0.078,0.408,0.331,-0.551,-0.235,0.27,-0.286,0.982
2024-10-15 13:29:17.682,72909.131,0.25,0.278,-0.928,0.15,-0.038,0.299,0.634,-0.521,-0.269,0.263,-0.281,0.978
2024-10-15 13:29:17.692,72909.141,0.244,0.272,-0.931,0.034,0.136,0.142,0.616,-0.522,-0.227,0.257,-0.276,0.973
2024-10-15 13:29:17.702,72909.151,0.239,0.267,-0.934,-0.079,0.167,0.018,0.719,-0.457,-0.189,0.251,-0.27,0.97
2024-10-15 13:29:17.712,72909.161,0.236,0.259,-0.937,-0.136,0.163,0.002,1.1,-0.107,-0.192,0.247,-0.262,0.966
2024-10-15 13:29:17.722,72909.171,0.235,0.25,-0.939,-0.117,0.276,0.102,0.783,-0.073,-0.136,0.245,-0.253,0.961
2024-10-15 13:29:17.732,72909.181,0.233,0.246,-0.941,-0.043,0.07,0.057,0.205,-0.264,-0.138,0.243,-0.248,0.959
2024-10-15 13:29:17.742,72909.191,0.231,0.245,-0.941,-0.031,-0.204,-0.036,0.012,0.003,-0.125,0.241,-0.248,0.957
2024-10-15 13:29:17.752,72909.201,0.232,0.246,-0.941,-0.168,-0.009,-0.179,-0.181,0.271,0.035,0.242,-0.249,0.957
2024-10-15 13:29:17.762,72909.211,0.236,0.248,-0.939,-0.322,0.04,-0.257,-0.319,0.402,0.138,0.246,-0.251,0.959
2024-10-15 13:29:17.772,72909.221,0.24,0.251,-0.938,-0.287,-0.096,-0.199,-0.324,0.398,0.148,0.251,-0.254,0.961
2024-10-15 13:29:17.782,72909.231,0.244,0.254,-0.936,-0.151,-0.078,-0.14,-0.401,0.425,0.162,0.255,-0.257,0.963
2024-10-15 13:29:17.792,72909.241,0.249,0.258,-0.934,-0.063,-0.09,-0.13,-0.552,0.45,0.197,0.26,-0.261,0.966
2024-10-15 13:29:17.802,72909.251,0.254,0.263,-0.931,-0.05,-0.103,-0.179,-0.672,0.503,0.237,0.266,-0.267,0.97
2024-10-15 13:29:17.812,72909.261,0.26,0.269,-0.927,-0.045,-0.043,-0.25,-0.768,0.548,0.228,0.273,-0.273,0.975
2024-10-15 13:29:17.821,72909.271,0.265,0.276,-0.924,-0.006,0.043,-0.31,-0.739,0.452,0.198,0.279,-0.28,0.979
2024-10-15 13:29:17.831,72909.281,0.269,0.281,-0.921,0.027,0.032,-0.203,-0.529,0.285,0.155,0.284,-0.285,0.982
2024-10-15 13:29:17.841,72909.291,0.271,0.284,-0.92,0.116,-0.015,0.018,-0.105,0.129,0.082,0.287,-0.288,0.985
2024-10-15 13:29:17.851,72909.301,0.272,0.284,-0.92,0.218,-0.01,0.274,0.123,-0.089,-0.02,0.287,-0.288,0.985
2024-10-15 13:29:17.861,72909.311,0.27,0.283,-0.92,0.306,-0.113,0.472,0.035,-0.283,-0.146,0.285,-0.287,0.984
2024-10-15 13:29:17.871,72909.321,0.266,0.284,-0.921,0.332,-0.258,0.536,-0.133,-0.431,-0.193,0.281,-0.288,0.982
2024-10-15 13:29:17.881,72909.331,0.261,0.286,-0.922,0.249,-0.284,0.392,-0.116,-0.387,-0.243,0.276,-0.29,0.98
2024-10-15 13:29:17.891,72909.341,0.257,0.288,-0.922,0.051,-0.138,0.198,-0.228,-0.365,-0.2,0.272,-0.292,0.979
2024-10-15 13:29:17.901,72909.351,0.253,0.291,-0.923,-0.111,-0.064,0.044,-0.35,-0.448,-0.198,0.268,-0.296,0.977
2024-10-15 13:29:17.911,72909.361,0.249,0.293,-0.923,-0.151,-0.031,0.038,0.173,-0.268,-0.234,0.264,-0.297,0.976
2024-10-15 13:29:17.921,72909.371,0.247,0.29,-0.925,-0.08,0.078,0.274,0.567,-0.066,-0.391,0.261,-0.294,0.971
2024-10-15 13:29:17.931,72909.381,0.245,0.287,-0.926,0.002,0.133,0.283,0.27,0.043,-0.443,0.259,-0.291,0.966
2024-10-15 13:29:17.941,72909.391,0.245,0.29,-0.925,-0.02,-0.164,0.094,-0.794,-0.0,-0.365,0.259,-0.294,0.963
2024-10-15 13:29:17.951,72909.401,0.244,0.301,-0.922,-0.105,-0.42,-0.103,-1.276,0.104,-0.401,0.258,-0.306,0.962
2024-10-15 13:29:17.961,72909.411,0.246,0.314,-0.917,-0.154,-0.239,-0.363,-1.487,0.549,-0.315,0.262,-0.32,0.962
2024-10-15 13:29:17.971,72909.421,0.251,0.33,-0.91,-0.231,0.085,-0.482,-1.873,0.729,-0.243,0.269,-0.337,0.963
2024-10-15 13:29:17.981,72909.431,0.257,0.349,-0.901,-0.222,-0.076,-0.403,-2.205,0.715,-0.218,0.277,-0.357,0.967
2024-10-15 13:29:17.991,72909.441,0.262,0.37,-0.891,-0.139,-0.121,-0.28,-2.147,0.705,-0.189,0.286,-0.379,0.971
2024-10-15 13:29:18.001,72909.451,0.268,0.388,-0.882,-0.106,0.026,-0.157,-1.782,0.603,-0.115,0.295,-0.398,0.976
2024-10-15 13:29:18.011,72909.461,0.272,0.401,-0.875,-0.079,0.13,-0.047,-1.267,0.522,-0.126,0.302,-0.413,0.98
2024-10-15 13:29:18.021,72909.471,0.276,0.411,-0.869,-0.068,0.224,0.038,-0.795,0.482,-0.104,0.307,-0.423,0.982
2024-10-15 13:29:18.031,72909.481,0.279,0.417,-0.865,-0.084,0.294,0.108,-0.524,0.387,-0.044,0.312,-0.43,0.983
2024-10-15 13:29:18.041,72909.491,0.282,0.421,-0.862,-0.074,0.236,0.158,-0.392,0.239,-0.033,0.316,-0.434,0.984
2024-10-15 13:29:18.053,72909.501,0.283,0.424,-0.86,-0.038,0.169,0.179,-0.293,0.064,-0.035,0.318,-0.437,0.985
2024-10-15 13:29:18.061,72909.511,0.283,0.426,-0.86,0.003,0.123,0.167,-0.155,-0.048,-0.03,0.318,-0.44,0.985
2024-10-15 13:29:18.071,72909.521,0.283,0.427,-0.859,0.014,0.1,0.128,-0.061,-0.052,0.032,0.318,-0.441,0.986
2024-10-15 13:29:18.081,72909.531,0.282,0.427,-0.859,-0.008,0.103,0.066,-0.014,-0.053,0.079,0.318,-0.441,0.985
2024-10-15 13:29:18.091,72909.541,0.282,0.426,-0.859,-0.022,0.072,0.001,0.056,-0.067,0.059,0.317,-0.44,0.984
2024-10-15 13:29:18.101,72909.551,0.282,0.425,-0.86,-0.02,0.04,-0.03,0.174,-0.066,0.069,0.317,-0.439,0.985
2024-10-15 13:29:18.111,72909.561,0.282,0.423,-0.861,-0.013,0.064,-0.002,0.331,-0.037,0.112,0.316,-0.437,0.985
2024-10-15 13:29:18.121,72909.571,0.282,0.419,-0.863,0.001,0.086,0.006,0.406,0.014,0.141,0.316,-0.433,0.985
2024-10-15 13:29:18.131,72909.581,0.283,0.415,-0.865,0.011,0.094,0.018,0.391,0.019,0.123,0.316,-0.428,0.985
2024-10-15 13:29:18.141,72909.591,0.284,0.412,-0.866,0.008,0.043,0.02,0.428,0.036,0.14,0.317,-0.424,0.985
2024-10-15 13:29:18.151,72909.601,0.285,0.407,-0.868,0.021,0.022,0.005,0.468,0.02,0.166,0.317,-0.419,0.985
2024-10-15 13:29:18.161,72909.611,0.285,0.403,-0.87,0.05,0.017,-0.01,0.485,-0.011,0.157,0.317,-0.414,0.985
2024-10-15 13:29:18.171,72909.621,0.286,0.398,-0.872,0.075,-0.016,-0.016,0.496,-0.041,0.157,0.317,-0.409,0.985
2024-10-15 13:29:18.181,72909.631,0.286,0.393,-0.874,0.08,-0.057,-0.024,0.529,-0.076,0.121,0.316,-0.404,0.985
2024-10-15 13:29:18.192,72909.641,0.285,0.388,-0.876,0.08,-0.074,-0.027,0.565,-0.088,0.072,0.315,-0.398,0.984
2024-10-15 13:29:18.201,72909.651,0.285,0.383,-0.879,0.077,-0.079,-0.033,0.566,-0.051,0.037,0.314,-0.393,0.982
2024-10-15 13:29:18.210,72909.661,0.285,0.378,-0.881,0.065,-0.093,-0.033,0.565,-0.027,-0.011,0.313,-0.387,0.981
2024-10-15 13:29:18.221,72909.671,0.285,0.373,-0.883,0.054,-0.117,-0.019,0.526,0.006,-0.057,0.312,-0.382,0.977
2024-10-15 13:29:18.231,72909.681,0.284,0.369,-0.885,0.054,-0.146,0.007,0.454,0.029,-0.093,0.311,-0.378,0.975
2024-10-15 13:29:18.241,72909.691,0.284,0.366,-0.886,0.056,-0.173,0.042,0.313,0.046,-0.147,0.31,-0.375,0.972
2024-10-15 13:29:18.251,72909.7,0.284,0.364,-0.887,0.056,-0.19,0.062,0.202,0.028,-0.201,0.31,-0.373,0.97
2024-10-15 13:29:18.261,72909.71,0.283,0.363,-0.888,0.058,-0.192,0.057,0.159,0.025,-0.186,0.309,-0.372,0.966
2024-10-15 13:29:18.271,72909.72,0.283,0.362,-0.888,0.051,-0.138,0.034,0.119,0.05,-0.18,0.309,-0.371,0.963
2024-10-15 13:29:18.281,72909.73,0.283,0.362,-0.888,0.019,-0.072,-0.002,0.071,0.063,-0.166,0.308,-0.37,0.961
2024-10-15 13:29:18.291,72909.74,0.283,0.362,-0.888,-0.008,-0.009,-0.027,0.082,0.079,-0.14,0.309,-0.37,0.96
2024-10-15 13:29:18.301,72909.75,0.283,0.361,-0.888,-0.012,0.049,-0.03,0.097,0.093,-0.123,0.309,-0.37,0.958
2024-10-15 13:29:18.311,72909.76,0.284,0.36,-0.889,-0.015,0.101,-0.033,0.204,0.099,-0.093,0.309,-0.369,0.956
2024-10-15 13:29:18.321,72909.77,0.285,0.358,-0.889,-0.025,0.148,-0.037,0.364,0.126,-0.0,0.31,-0.366,0.955
2024-10-15 13:29:18.331,72909.78,0.286,0.355,-0.89,-0.034,0.173,-0.029,0.35,0.125,-0.01,0.311,-0.363,0.954
2024-10-15 13:29:18.341,72909.79,0.287,0.351,-0.891,-0.042,0.146,-0.017,0.431,0.053,-0.004,0.311,-0.359,0.952
2024-10-15 13:29:18.351,72909.8,0.287,0.347,-0.893,-0.023,0.067,-0.003,0.562,-0.011,0.086,0.311,-0.354,0.951
2024-10-15 13:29:18.360,72909.81,0.287,0.341,-0.895,0.008,0.077,0.017,0.653,-0.068,0.118,0.31,-0.348,0.95
2024-10-15 13:29:18.371,72909.82,0.286,0.335,-0.898,0.007,0.042,0.036,0.713,-0.113,0.12,0.309,-0.341,0.949
2024-10-15 13:29:18.381,72909.83,0.286,0.328,-0.9,0.001,-0.032,0.029,0.693,-0.168,0.193,0.307,-0.334,0.948
2024-10-15 13:29:18.391,72909.84,0.285,0.322,-0.903,0.01,-0.07,0.025,0.537,-0.24,0.225,0.305,-0.327,0.949
2024-10-15 13:29:18.401,72909.85,0.283,0.317,-0.905,0.034,-0.096,0.03,0.373,-0.264,0.181,0.303,-0.323,0.949
2024-10-15 13:29:18.411,72909.86,0.281,0.314,-0.907,0.03,-0.102,0.013,0.217,-0.194,0.146,0.301,-0.319,0.95
2024-10-15 13:29:18.421,72909.87,0.281,0.312,-0.908,-0.001,-0.063,0.001,0.157,-0.052,0.076,0.3,-0.317,0.951
2024-10-15 13:29:18.431,72909.88,0.281,0.31,-0.908,-0.031,-0.032,-0.012,0.238,0.046,0.004,0.3,-0.315,0.95
2024-10-15 13:29:18.441,72909.89,0.281,0.308,-0.909,-0.022,-0.04,-0.046,0.308,0.076,-0.064,0.3,-0.313,0.949
2024-10-15 13:29:18.450,72909.9,0.282,0.306,-0.909,0.002,-0.07,-0.069,0.075,0.108,-0.074,0.301,-0.311,0.948
2024-10-15 13:29:18.461,72909.91,0.282,0.306,-0.909,0.021,-0.128,-0.031,-0.058,0.045,-0.093,0.301,-0.311,0.947
2024-10-15 13:29:18.471,72909.92,0.282,0.307,-0.909,0.035,-0.151,-0.039,0.01,0.04,-0.077,0.301,-0.312,0.946
2024-10-15 13:29:18.481,72909.93,0.283,0.306,-0.909,0.044,-0.043,-0.039,0.114,0.062,-0.003,0.302,-0.311,0.946
2024-10-15 13:29:18.491,72909.94,0.283,0.305,-0.909,0.019,0.02,-0.037,0.144,0.035,0.034,0.302,-0.31,0.945
2024-10-15 13:29:18.501,72909.95,0.284,0.304,-0.91,0.016,0.014,0.003,0.143,-0.008,0.044,0.302,-0.308,0.945
2024-10-15 13:29:18.510,72909.96,0.283,0.302,-0.91,0.028,0.021,0.051,0.179,-0.053,0.04,0.302,-0.307,0.945
2024-10-15 13:29:18.521,72909.97,0.283,0.3,-0.911,0.023,0.035,0.078,0.21,-0.051,0.051,0.301,-0.305,0.945
2024-10-15 13:29:18.531,72909.98,0.283,0.298,-0.912,0.003,0.031,0.094,0.234,-0.051,0.071,0.301,-0.303,0.945
2024-10-15 13:29:18.541,72909.99,0.282,0.295,-0.913,-0.014,0.014,0.104,0.26,-0.069,0.078,0.3,-0.3,0.945
2024-10-15 13:29:18.550,72910.0,0.282,0.292,-0.914,-0.007,0.001,0.107,0.366,-0.131,0.06,0.299,-0.297,0.945
2024-10-15 13:29:18.561,72910.01,0.281,0.288,-0.916,0.002,-0.013,0.092,0.522,-0.18,0.058,0.297,-0.292,0.944
2024-10-15 13:29:18.571,72910.02,0.279,0.282,-0.918,0.012,0.022,0.054,0.714,-0.213,0.07,0.295,-0.286,0.943
2024-10-15 13:29:18.580,72910.03,0.277,0.275,-0.921,0.026,0.089,0.036,0.89,-0.233,0.101,0.292,-0.278,0.941
2024-10-15 13:29:18.590,72910.04,0.275,0.266,-0.924,0.035,0.104,0.023,0.926,-0.243,0.108,0.29,-0.269,0.939
2024-10-15 13:29:18.600,72910.05,0.273,0.257,-0.927,0.034,0.086,-0.005,0.853,-0.215,0.118,0.287,-0.26,0.938
2024-10-15 13:29:18.610,72910.06,0.272,0.25,-0.929,0.01,0.061,-0.021,0.78,-0.19,0.15,0.285,-0.252,0.937
2024-10-15 13:29:18.620,72910.07,0.271,0.242,-0.932,-0.004,0.043,-0.032,0.686,-0.145,0.206,0.283,-0.245,0.936
2024-10-15 13:29:18.631,72910.08,0.27,0.236,-0.934,-0.008,0.046,-0.036,0.601,-0.118,0.177,0.282,-0.238,0.937
2024-10-15 13:29:18.640,72910.09,0.269,0.23,-0.935,-0.023,0.02,-0.01,0.485,-0.036,0.039,0.281,-0.233,0.936
2024-10-15 13:29:18.650,72910.1,0.269,0.226,-0.936,-0.056,-0.001,-0.052,0.353,-0.016,0.112,0.28,-0.228,0.935
2024-10-15 13:29:18.660,72910.11,0.269,0.223,-0.937,-0.085,-0.06,-0.106,0.208,-0.058,0.182,0.28,-0.225,0.936
2024-10-15 13:29:18.670,72910.12,0.269,0.222,-0.937,-0.056,-0.11,-0.054,0.006,-0.058,0.14,0.28,-0.224,0.938
2024-10-15 13:29:18.680,72910.13,0.269,0.222,-0.937,-0.063,-0.085,-0.08,-0.24,-0.047,0.169,0.28,-0.224,0.939
2024-10-15 13:29:18.691,72910.14,0.269,0.225,-0.936,-0.08,-0.129,-0.128,-0.521,0.012,0.22,0.28,-0.227,0.942
2024-10-15 13:29:18.700,72910.15,0.27,0.231,-0.935,-0.081,-0.164,-0.16,-0.932,0.127,0.265,0.282,-0.234,0.947
2024-10-15 13:29:18.710,72910.16,0.273,0.242,-0.931,-0.074,-0.206,-0.165,-1.494,0.225,0.31,0.285,-0.244,0.953
2024-10-15 13:29:18.720,72910.17,0.275,0.256,-0.927,-0.05,-0.273,-0.11,-1.51,0.125,0.258,0.289,-0.258,0.96
2024-10-15 13:29:18.730,72910.18,0.277,0.266,-0.923,0.006,-0.237,-0.055,-0.926,0.031,0.208,0.291,-0.27,0.966
2024-10-15 13:29:18.740,72910.19,0.277,0.272,-0.922,0.105,-0.005,0.041,-0.397,0.037,0.077,0.292,-0.275,0.97
2024-10-15 13:29:18.750,72910.2,0.277,0.273,-0.921,0.159,0.129,0.207,0.089,-0.073,-0.035,0.292,-0.277,0.97
2024-10-15 13:29:18.760,72910.21,0.276,0.271,-0.922,0.173,0.004,0.294,0.293,-0.186,-0.007,0.291,-0.275,0.97
2024-10-15 13:29:18.770,72910.22,0.274,0.268,-0.924,0.218,-0.037,0.304,0.334,-0.256,-0.047,0.288,-0.272,0.967
2024-10-15 13:29:18.780,72910.23,0.271,0.266,-0.925,0.177,-0.029,0.254,0.239,-0.295,-0.06,0.285,-0.269,0.966
2024-10-15 13:29:18.790,72910.24,0.268,0.264,-0.927,0.096,-0.007,0.159,0.217,-0.302,-0.095,0.282,-0.267,0.964
2024-10-15 13:29:18.800,72910.25,0.265,0.262,-0.928,0.022,0.04,0.083,0.282,-0.191,-0.13,0.278,-0.265,0.962
2024-10-15 13:29:18.810,72910.26,0.263,0.259,-0.929,-0.033,0.095,0.098,0.344,-0.248,-0.034,0.276,-0.262,0.961
2024-10-15 13:29:18.821,72910.27,0.261,0.256,-0.931,-0.039,0.12,0.13,0.403,-0.244,-0.074,0.273,-0.259,0.959
2024-10-15 13:29:18.830,72910.279,0.258,0.252,-0.933,-0.015,0.089,0.194,0.524,-0.288,-0.131,0.27,-0.255,0.957
2024-10-15 13:29:18.840,72910.289,0.255,0.247,-0.935,-0.02,0.102,0.116,0.499,-0.358,-0.117,0.266,-0.25,0.954
2024-10-15 13:29:18.850,72910.299,0.251,0.243,-0.937,-0.053,0.137,-0.07,0.429,-0.295,-0.103,0.262,-0.246,0.952
2024-10-15 13:29:18.860,72910.309,0.249,0.24,-0.938,-0.179,0.152,-0.247,0.366,-0.065,-0.008,0.26,-0.242,0.95
2024-10-15 13:29:18.870,72910.319,0.25,0.236,-0.939,-0.307,0.165,-0.354,0.315,0.106,0.106,0.26,-0.239,0.95
2024-10-15 13:29:18.880,72910.329,0.252,0.234,-0.939,-0.327,0.087,-0.347,0.102,0.215,0.158,0.262,-0.236,0.951
2024-10-15 13:29:18.890,72910.339,0.254,0.234,-0.938,-0.246,-0.023,-0.254,-0.151,0.233,0.141,0.264,-0.236,0.952
2024-10-15 13:29:18.900,72910.349,0.257,0.236,-0.937,-0.133,-0.105,-0.163,-0.425,0.203,0.187,0.267,-0.238,0.954
2024-10-15 13:29:18.910,72910.359,0.259,0.241,-0.935,-0.04,-0.213,-0.091,-0.832,0.192,0.216,0.27,-0.244,0.958
2024-10-15 13:29:18.920,72910.369,0.261,0.251,-0.932,-0.009,-0.268,-0.067,-1.376,0.229,0.234,0.273,-0.254,0.963
2024-10-15 13:29:18.930,72910.379,0.264,0.265,-0.927,-0.024,-0.294,-0.118,-1.741,0.12,0.305,0.277,-0.268,0.971
2024-10-15 13:29:18.940,72910.389,0.265,0.279,-0.923,-0.026,-0.304,-0.068,-1.248,0.086,0.182,0.28,-0.283,0.977
2024-10-15 13:29:18.950,72910.399,0.267,0.286,-0.92,0.03,-0.065,-0.032,-0.349,0.139,0.188,0.282,-0.29,0.982
2024-10-15 13:29:18.960,72910.409,0.269,0.286,-0.92,0.096,0.196,0.036,0.078,0.145,0.104,0.284,-0.29,0.983
2024-10-15 13:29:18.970,72910.419,0.269,0.285,-0.92,0.187,0.099,0.169,0.189,-0.078,0.003,0.285,-0.289,0.983
2024-10-15 13:29:18.980,72910.429,0.268,0.282,-0.921,0.264,-0.132,0.252,0.369,-0.219,-0.105,0.283,-0.286,0.982
2024-10-15 13:29:18.990,72910.439,0.265,0.278,-0.923,0.316,-0.126,0.296,0.561,-0.33,-0.201,0.279,-0.282,0.979
2024-10-15 13:29:19.000,72910.449,0.26,0.273,-0.926,0.27,-0.055,0.264,0.623,-0.429,-0.243,0.274,-0.277,0.975
2024-10-15 13:29:19.010,72910.459,0.256,0.269,-0.929,0.185,-0.047,0.197,0.545,-0.407,-0.273,0.269,-0.272,0.971
2024-10-15 13:29:19.020,72910.469,0.252,0.264,-0.931,0.063,0.005,0.091,0.473,-0.302,-0.223,0.264,-0.268,0.967
2024-10-15 13:29:19.030,72910.479,0.249,0.261,-0.933,-0.058,0.085,-0.004,0.472,-0.176,-0.15,0.261,-0.264,0.964
2024-10-15 13:29:19.039,72910.489,0.248,0.255,-0.934,-0.129,0.131,-0.014,0.724,0.009,-0.1,0.259,-0.258,0.961
2024-10-15 13:29:19.050,72910.499,0.248,0.249,-0.936,-0.11,0.159,0.109,0.745,0.017,-0.095,0.259,-0.251,0.958
2024-10-15 13:29:19.060,72910.509,0.247,0.244,-0.938,-0.014,0.103,0.108,0.318,-0.183,-0.085,0.258,-0.246,0.956
2024-10-15 13:29:19.070,72910.519,0.245,0.243,-0.939,0.013,-0.052,0.013,-0.003,-0.169,-0.118,0.255,-0.245,0.955
2024-10-15 13:29:19.080,72910.529,0.244,0.243,-0.939,-0.118,0.003,-0.096,-0.107,0.036,0.001,0.254,-0.246,0.954
2024-10-15 13:29:19.089,72910.539,0.245,0.245,-0.938,-0.271,0.123,-0.208,-0.197,0.185,0.168,0.256,-0.247,0.955
2024-10-15 13:29:19.099,72910.549,0.248,0.247,-0.937,-0.314,0.055,-0.255,-0.339,0.296,0.225,0.259,-0.249,0.958
2024-10-15 13:29:19.109,72910.559,0.252,0.25,-0.935,-0.27,-0.007,-0.203,-0.552,0.338,0.276,0.263,-0.253,0.962
2024-10-15 13:29:19.119,72910.569,0.256,0.255,-0.932,-0.166,-0.041,-0.136,-0.755,0.318,0.337,0.268,-0.258,0.966
2024-10-15 13:29:19.130,72910.579,0.26,0.262,-0.929,-0.079,-0.12,-0.129,-0.866,0.323,0.363,0.272,-0.265,0.972
2024-10-15 13:29:19.139,72910.589,0.264,0.27,-0.926,-0.045,-0.138,-0.139,-1.031,0.419,0.316,0.277,-0.273,0.978
2024-10-15 13:29:19.149,72910.599,0.268,0.28,-0.922,-0.009,-0.151,-0.155,-1.446,0.17,0.367,0.282,-0.284,0.985
2024-10-15 13:29:19.159,72910.609,0.269,0.292,-0.918,0.039,-0.236,-0.151,-1.17,-0.063,0.212,0.285,-0.296,0.992
2024-10-15 13:29:19.170,72910.619,0.269,0.298,-0.916,0.114,-0.111,-0.004,-0.253,0.056,0.143,0.286,-0.303,0.996
2024-10-15 13:29:19.179,72910.629,0.27,0.297,-0.916,0.119,0.175,0.043,0.236,0.07,0.096,0.287,-0.302,0.997
2024-10-15 13:29:19.189,72910.639,0.27,0.294,-0.917,0.164,0.091,0.181,0.408,-0.127,-0.075,0.286,-0.299,0.996
2024-10-15 13:29:19.199,72910.649,0.267,0.291,-0.919,0.256,-0.177,0.286,0.46,-0.311,-0.156,0.283,-0.295,0.994
2024-10-15 13:29:19.210,72910.659,0.263,0.287,-0.921,0.317,-0.198,0.326,0.531,-0.448,-0.247,0.279,-0.291,0.99
2024-10-15 13:29:19.219,72910.669,0.258,0.283,-0.924,0.274,-0.127,0.292,0.516,-0.483,-0.263,0.273,-0.286,0.986
2024-10-15 13:29:19.230,72910.679,0.253,0.279,-0.926,0.166,-0.042,0.189,0.409,-0.447,-0.247,0.267,-0.283,0.982
2024-10-15 13:29:19.239,72910.689,0.249,0.276,-0.928,0.024,0.048,0.052,0.336,-0.324,-0.176,0.262,-0.28,0.979
2024-10-15 13:29:19.249,72910.699,0.246,0.272,-0.93,-0.097,0.133,-0.036,0.574,-0.141,-0.112,0.259,-0.276,0.977
2024-10-15 13:29:19.259,72910.709,0.246,0.265,-0.932,-0.146,0.203,0.037,1.014,0.131,-0.093,0.258,-0.268,0.974
2024-10-15 13:29:19.269,72910.719,0.247,0.256,-0.935,-0.068,0.214,0.181,0.848,0.032,-0.067,0.258,-0.259,0.97
2024-10-15 13:29:19.279,72910.729,0.246,0.251,-0.936,0.063,-0.014,0.18,0.297,-0.263,-0.118,0.256,-0.254,0.968
2024-10-15 13:29:19.289,72910.739,0.242,0.25,-0.937,0.098,-0.255,0.111,0.031,-0.265,-0.161,0.253,-0.253,0.966
2024-10-15 13:29:19.299,72910.749,0.241,0.251,-0.938,-0.055,-0.089,-0.065,-0.117,-0.073,-0.061,0.251,-0.254,0.965
2024-10-15 13:29:19.309,72910.759,0.241,0.252,-0.937,-0.241,0.089,-0.242,-0.197,0.125,0.079,0.252,-0.255,0.965
2024-10-15 13:29:19.319,72910.769,0.243,0.254,-0.936,-0.331,0.074,-0.33,-0.312,0.321,0.162,0.254,-0.257,0.967
2024-10-15 13:29:19.330,72910.779,0.247,0.257,-0.934,-0.324,0.103,-0.292,-0.388,0.356,0.204,0.258,-0.26,0.97
2024-10-15 13:29:19.339,72910.789,0.251,0.261,-0.932,-0.221,0.02,-0.172,-0.51,0.311,0.257,0.263,-0.264,0.974
2024-10-15 13:29:19.349,72910.799,0.254,0.266,-0.93,-0.094,-0.064,-0.088,-0.698,0.303,0.279,0.267,-0.269,0.978
2024-10-15 13:29:19.359,72910.809,0.258,0.273,-0.927,-0.05,-0.084,-0.052,-0.909,0.272,0.304,0.271,-0.276,0.983
2024-10-15 13:29:19.369,72910.819,0.261,0.28,-0.924,-0.026,-0.142,-0.067,-0.946,0.322,0.262,0.276,-0.284,0.988
2024-10-15 13:29:19.379,72910.829,0.265,0.29,-0.92,0.006,-0.144,-0.124,-1.365,0.303,0.27,0.281,-0.294,0.994
2024-10-15 13:29:19.389,72910.839,0.268,0.303,-0.915,0.009,-0.173,-0.173,-1.359,0.103,0.204,0.284,-0.307,1.001
2024-10-15 13:29:19.399,72910.849,0.269,0.312,-0.911,0.03,-0.174,-0.066,-0.651,0.121,0.118,0.287,-0.317,1.006
2024-10-15 13:29:19.409,72910.859,0.271,0.314,-0.91,0.05,0.109,-0.019,-0.015,0.129,0.131,0.289,-0.319,1.008
2024-10-15 13:29:19.419,72910.868,0.272,0.313,-0.91,0.121,0.207,0.114,0.092,0.046,-0.009,0.29,-0.319,1.008
2024-10-15 13:29:19.429,72910.878,0.271,0.312,-0.91,0.174,-0.024,0.234,0.108,-0.171,-0.023,0.289,-0.318,1.008
2024-10-15 13:29:19.439,72910.888,0.269,0.311,-0.912,0.237,-0.156,0.267,0.237,-0.268,-0.158,0.287,-0.316,1.006
2024-10-15 13:29:19.449,72910.898,0.265,0.309,-0.913,0.232,-0.071,0.238,0.363,-0.31,-0.21,0.283,-0.314,1.004
2024-10-15 13:29:19.460,72910.908,0.262,0.306,-0.915,0.149,-0.014,0.166,0.374,-0.362,-0.208,0.278,-0.311,1.0
2024-10-15 13:29:19.469,72910.918,0.258,0.303,-0.917,0.078,-0.032,0.105,0.403,-0.297,-0.224,0.274,-0.308,0.997
2024-10-15 13:29:19.479,72910.928,0.255,0.3,-0.919,-0.001,0.015,0.033,0.247,-0.213,-0.164,0.271,-0.305,0.994
2024-10-15 13:29:19.489,72910.938,0.253,0.299,-0.92,-0.073,0.023,-0.003,0.217,-0.203,-0.124,0.268,-0.304,0.992
2024-10-15 13:29:19.499,72910.948,0.251,0.296,-0.922,-0.103,0.017,0.029,0.615,-0.015,-0.165,0.266,-0.3,0.99
2024-10-15 13:29:19.509,72910.958,0.251,0.29,-0.924,-0.082,0.12,0.123,0.701,0.075,-0.151,0.266,-0.294,0.986
2024-10-15 13:29:19.519,72910.968,0.251,0.285,-0.925,-0.027,0.062,0.115,0.302,-0.152,-0.109,0.265,-0.289,0.984
2024-10-15 13:29:19.529,72910.978,0.249,0.284,-0.926,0.017,-0.134,0.067,0.061,-0.185,-0.144,0.262,-0.288,0.982
2024-10-15 13:29:19.539,72910.988,0.247,0.284,-0.926,-0.055,-0.042,-0.049,0.023,-0.022,-0.014,0.261,-0.288,0.981
2024-10-15 13:29:19.549,72910.998,0.248,0.283,-0.926,-0.171,0.13,-0.167,0.002,0.174,0.158,0.262,-0.287,0.981
2024-10-15 13:29:19.559,72911.008,0.251,0.283,-0.926,-0.239,0.157,-0.215,-0.064,0.294,0.129,0.265,-0.287,0.983
2024-10-15 13:29:19.569,72911.018,0.254,0.284,-0.925,-0.226,0.108,-0.16,-0.106,0.262,0.158,0.268,-0.288,0.985
2024-10-15 13:29:19.579,72911.028,0.257,0.285,-0.924,-0.097,-0.011,-0.084,-0.175,0.22,0.162,0.271,-0.289,0.987
2024-10-15 13:29:19.589,72911.038,0.259,0.286,-0.922,-0.012,-0.045,-0.043,-0.262,0.194,0.135,0.274,-0.29,0.989
2024-10-15 13:29:19.599,72911.048,0.261,0.289,-0.921,-0.02,-0.087,-0.045,-0.347,0.189,0.149,0.276,-0.293,0.991
2024-10-15 13:29:19.609,72911.058,0.263,0.292,-0.919,-0.017,-0.141,-0.071,-0.563,0.207,0.146,0.279,-0.297,0.994
2024-10-15 13:29:19.619,72911.068,0.266,0.298,-0.917,-0.012,-0.171,-0.101,-0.805,0.236,0.1,0.282,-0.303,0.997
2024-10-15 13:29:19.629,72911.078,0.268,0.307,-0.913,-0.008,-0.195,-0.15,-1.041,0.145,0.127,0.285,-0.312,1.001
2024-10-15 13:29:19.639,72911.088,0.269,0.315,-0.91,-0.027,-0.165,-0.152,-0.867,0.156,0.057,0.288,-0.321,1.005
2024-10-15 13:29:19.648,72911.098,0.271,0.321,-0.907,-0.035,-0.035,-0.064,-0.453,0.149,0.122,0.29,-0.327,1.008
2024-10-15 13:29:19.659,72911.108,0.272,0.323,-0.906,-0.011,0.121,-0.004,-0.103,0.056,0.05,0.292,-0.329,1.009
2024-10-15 13:29:19.668,72911.118,0.273,0.323,-0.906,0.066,0.094,0.11,0.107,-0.037,-0.016,0.292,-0.329,1.009
2024-10-15 13:29:19.678,72911.128,0.271,0.321,-0.907,0.118,0.01,0.167,0.289,-0.206,-0.069,0.291,-0.327,1.008
2024-10-15 13:29:19.688,72911.138,0.269,0.318,-0.909,0.158,-0.056,0.192,0.436,-0.291,-0.178,0.287,-0.324,1.006
2024-10-15 13:29:19.698,72911.148,0.265,0.315,-0.911,0.183,-0.058,0.191,0.5,-0.322,-0.205,0.283,-0.32,1.003
2024-10-15 13:29:19.709,72911.158,0.262,0.311,-0.914,0.178,-0.046,0.161,0.456,-0.309,-0.241,0.279,-0.316,0.999
2024-10-15 13:29:19.718,72911.168,0.258,0.308,-0.916,0.146,-0.039,0.12,0.39,-0.233,-0.256,0.275,-0.313,0.995
2024-10-15 13:29:19.729,72911.178,0.256,0.305,-0.917,0.081,0.001,0.06,0.294,-0.174,-0.176,0.272,-0.31,0.992
2024-10-15 13:29:19.738,72911.188,0.254,0.302,-0.919,0.013,0.026,0.008,0.479,-0.149,-0.183,0.269,-0.307,0.989
2024-10-15 13:29:19.749,72911.198,0.253,0.296,-0.921,-0.021,0.075,0.014,0.918,0.092,-0.284,0.268,-0.301,0.985
2024-10-15 13:29:19.759,72911.208,0.253,0.289,-0.923,-0.043,0.138,0.038,0.74,0.074,-0.18,0.268,-0.293,0.98
2024-10-15 13:29:19.768,72911.218,0.252,0.285,-0.925,-0.021,-0.061,0.054,0.301,-0.171,-0.181,0.266,-0.289,0.977
2024-10-15 13:29:19.778,72911.228,0.249,0.283,-0.926,0.032,-0.263,0.057,0.265,-0.226,-0.258,0.263,-0.287,0.974
2024-10-15 13:29:19.788,72911.238,0.247,0.28,-0.927,-0.006,-0.042,-0.007,0.359,-0.091,-0.185,0.261,-0.284,0.971
2024-10-15 13:29:19.798,72911.248,0.247,0.278,-0.928,-0.099,0.169,-0.066,0.231,0.019,-0.025,0.26,-0.282,0.969
2024-10-15 13:29:19.808,72911.258,0.247,0.276,-0.929,-0.16,0.118,-0.095,0.143,0.002,0.051,0.26,-0.28,0.969
2024-10-15 13:29:19.818,72911.268,0.247,0.275,-0.929,-0.152,0.089,-0.101,0.077,0.064,0.122,0.26,-0.279,0.97
2024-10-15 13:29:19.828,72911.278,0.249,0.274,-0.929,-0.132,0.197,-0.091,0.159,0.116,0.127,0.261,-0.277,0.97
2024-10-15 13:29:19.838,72911.288,0.25,0.272,-0.929,-0.14,0.18,-0.06,0.138,0.143,0.189,0.263,-0.275,0.972
2024-10-15 13:29:19.849,72911.298,0.252,0.27,-0.929,-0.101,0.076,-0.05,0.058,0.169,0.194,0.265,-0.274,0.973
2024-10-15 13:29:19.858,72911.308,0.255,0.27,-0.928,-0.075,-0.021,-0.047,-0.177,0.202,0.205,0.268,-0.274,0.975
2024-10-15 13:29:19.868,72911.318,0.257,0.273,-0.927,-0.069,-0.107,-0.058,-0.381,0.213,0.21,0.27,-0.276,0.978
2024-10-15 13:29:19.878,72911.328,0.26,0.276,-0.925,-0.055,-0.201,-0.082,-0.547,0.316,0.158,0.274,-0.28,0.981
2024-10-15 13:29:19.888,72911.338,0.264,0.283,-0.922,-0.046,-0.234,-0.113,-1.007,0.379,0.141,0.279,-0.287,0.985
2024-10-15 13:29:19.898,72911.348,0.267,0.294,-0.918,-0.04,-0.309,-0.166,-1.378,0.217,0.135,0.283,-0.298,0.99
2024-10-15 13:29:19.908,72911.358,0.269,0.305,-0.914,-0.03,-0.401,-0.141,-1.01,0.094,0.012,0.286,-0.31,0.994
2024-10-15 13:29:19.918,72911.368,0.27,0.311,-0.911,0.026,-0.18,-0.068,-0.39,0.112,-0.034,0.288,-0.316,0.996
2024-10-15 13:29:19.928,72911.378,0.27,0.313,-0.911,0.082,0.116,0.058,0.046,0.02,-0.122,0.288,-0.318,0.996
2024-10-15 13:29:19.938,72911.388,0.269,0.312,-0.911,0.14,0.063,0.209,0.324,-0.205,-0.127,0.287,-0.317,0.994
2024-10-15 13:29:19.948,72911.398,0.266,0.308,-0.913,0.233,-0.019,0.277,0.487,-0.347,-0.192,0.283,-0.313,0.991
2024-10-15 13:29:19.958,72911.408,0.261,0.304,-0.916,0.281,0.045,0.313,0.586,-0.461,-0.238,0.278,-0.309,0.988
2024-10-15 13:29:19.968,72911.418,0.256,0.299,-0.919,0.227,0.083,0.257,0.709,-0.486,-0.245,0.272,-0.303,0.983
2024-10-15 13:29:19.978,72911.428,0.251,0.292,-0.923,0.145,0.124,0.143,0.725,-0.398,-0.231,0.266,-0.297,0.979
2024-10-15 13:29:19.988,72911.438,0.248,0.287,-0.925,0.044,0.155,0.033,0.695,-0.289,-0.186,0.261,-0.291,0.975
2024-10-15 13:29:19.998,72911.447,0.245,0.28,-0.928,-0.055,0.129,-0.022,0.911,-0.104,-0.194,0.258,-0.283,0.971
2024-10-15 13:29:20.008,72911.457,0.245,0.271,-0.931,-0.085,0.125,0.011,0.917,0.061,-0.154,0.257,-0.275,0.966
2024-10-15 13:29:20.018,72911.467,0.244,0.265,-0.933,-0.049,0.049,0.022,0.408,-0.126,-0.111,0.256,-0.268,0.963
2024-10-15 13:29:20.028,72911.477,0.243,0.264,-0.934,0.006,-0.16,0.014,-0.005,-0.11,-0.157,0.254,-0.267,0.962
2024-10-15 13:29:20.038,72911.487,0.242,0.265,-0.933,-0.05,-0.113,-0.057,-0.253,0.075,-0.049,0.254,-0.269,0.961
2024-10-15 13:29:20.048,72911.497,0.244,0.268,-0.932,-0.182,0.047,-0.147,-0.327,0.239,0.123,0.256,-0.271,0.962
2024-10-15 13:29:20.058,72911.507,0.247,0.271,-0.931,-0.243,0.049,-0.183,-0.279,0.328,0.217,0.259,-0.274,0.965
2024-10-15 13:29:20.068,72911.517,0.251,0.273,-0.929,-0.213,0.067,-0.134,-0.303,0.394,0.235,0.264,-0.276,0.968
2024-10-15 13:29:20.078,72911.527,0.255,0.275,-0.927,-0.136,0.066,-0.04,-0.452,0.368,0.304,0.269,-0.279,0.971
2024-10-15 13:29:20.088,72911.537,0.259,0.279,-0.925,-0.066,-0.026,0.018,-0.528,0.276,0.326,0.273,-0.283,0.976
2024-10-15 13:29:20.099,72911.547,0.262,0.283,-0.923,-0.028,-0.056,0.013,-0.378,0.251,0.317,0.277,-0.286,0.98
2024-10-15 13:29:20.108,72911.557,0.265,0.285,-0.921,-0.021,-0.007,-0.033,-0.329,0.222,0.308,0.28,-0.289,0.985
2024-10-15 13:29:20.118,72911.567,0.268,0.287,-0.92,-0.019,-0.039,-0.08,-0.409,0.191,0.255,0.284,-0.292,0.988
2024-10-15 13:29:20.128,72911.577,0.271,0.293,-0.917,-0.003,-0.167,-0.119,-1.015,0.214,0.222,0.287,-0.297,0.993
2024-10-15 13:29:20.138,72911.587,0.273,0.305,-0.912,0.003,-0.248,-0.156,-1.643,0.076,0.301,0.291,-0.31,1.0
2024-10-15 13:29:20.148,72911.597,0.274,0.317,-0.908,0.003,-0.33,-0.064,-1.198,0.057,0.17,0.293,-0.323,1.006
2024-10-15 13:29:20.158,72911.607,0.275,0.324,-0.905,0.02,-0.118,-0.048,-0.344,0.066,0.208,0.295,-0.33,1.011
2024-10-15 13:29:20.168,72911.617,0.276,0.324,-0.905,0.034,0.224,-0.038,0.077,0.119,0.067,0.297,-0.33,1.012
2024-10-15 13:29:20.177,72911.627,0.277,0.323,-0.905,0.073,0.12,0.118,0.153,-0.007,-0.057,0.297,-0.329,1.012
2024-10-15 13:29:20.188,72911.637,0.276,0.322,-0.906,0.113,-0.15,0.201,0.19,-0.216,-0.131,0.295,-0.328,1.01
2024-10-15 13:29:20.198,72911.647,0.273,0.32,-0.907,0.195,-0.209,0.215,0.284,-0.299,-0.265,0.292,-0.326,1.008
2024-10-15 13:29:20.208,72911.657,0.269,0.318,-0.909,0.198,-0.143,0.202,0.363,-0.412,-0.292,0.287,-0.324,1.004
2024-10-15 13:29:20.218,72911.667,0.264,0.316,-0.911,0.165,-0.126,0.147,0.325,-0.47,-0.331,0.282,-0.321,1.0
2024-10-15 13:29:20.228,72911.677,0.258,0.314,-0.914,0.127,-0.073,0.083,0.327,-0.424,-0.313,0.276,-0.319,0.995
2024-10-15 13:29:20.238,72911.687,0.254,0.311,-0.916,0.047,0.069,0.019,0.393,-0.293,-0.208,0.271,-0.316,0.992
2024-10-15 13:29:20.248,72911.697,0.252,0.306,-0.918,-0.025,0.207,0.01,0.857,-0.126,-0.16,0.268,-0.311,0.988
2024-10-15 13:29:20.257,72911.707,0.251,0.297,-0.921,-0.048,0.296,0.094,1.186,0.118,-0.179,0.266,-0.301,0.984
2024-10-15 13:29:20.268,72911.717,0.251,0.288,-0.924,0.009,0.286,0.116,0.688,-0.19,-0.071,0.265,-0.292,0.98
2024-10-15 13:29:20.277,72911.727,0.248,0.284,-0.926,0.06,-0.009,0.081,0.367,-0.316,-0.159,0.262,-0.288,0.977
2024-10-15 13:29:20.287,72911.737,0.246,0.281,-0.928,-0.01,-0.018,-0.008,0.232,-0.07,-0.04,0.259,-0.285,0.975
2024-10-15 13:29:20.298,72911.747,0.246,0.28,-0.928,-0.186,0.217,-0.168,-0.03,0.094,0.173,0.259,-0.284,0.976
2024-10-15 13:29:20.307,72911.757,0.248,0.281,-0.927,-0.297,0.086,-0.238,-0.193,0.243,0.233,0.262,-0.285,0.978
2024-10-15 13:29:20.317,72911.767,0.252,0.282,-0.926,-0.311,-0.035,-0.223,-0.296,0.335,0.275,0.265,-0.286,0.981
2024-10-15 13:29:20.328,72911.777,0.256,0.285,-0.924,-0.23,-0.058,-0.141,-0.526,0.306,0.308,0.27,-0.289,0.985
2024-10-15 13:29:20.338,72911.787,0.259,0.29,-0.921,-0.136,-0.187,-0.059,-0.633,0.243,0.262,0.274,-0.294,0.99
2024-10-15 13:29:20.347,72911.797,0.262,0.295,-0.919,-0.098,-0.221,-0.038,-0.559,0.234,0.237,0.277,-0.299,0.994
2024-10-15 13:29:20.358,72911.807,0.265,0.301,-0.916,-0.073,-0.173,-0.051,-0.979,0.2,0.288,0.281,-0.306,0.999
2024-10-15 13:29:20.367,72911.817,0.266,0.31,-0.913,-0.043,-0.164,-0.051,-1.031,-0.093,0.268,0.284,-0.315,1.005
2024-10-15 13:29:20.377,72911.827,0.267,0.316,-0.91,0.021,-0.147,0.022,-0.418,0.107,0.102,0.285,-0.322,1.009
2024-10-15 13:29:20.387,72911.837,0.268,0.318,-0.91,0.017,0.185,-0.073,-0.007,0.089,0.226,0.287,-0.323,1.011
2024-10-15 13:29:20.397,72911.847,0.269,0.317,-0.909,0.045,0.181,-0.056,-0.001,0.053,0.095,0.288,-0.323,1.013
2024-10-15 13:29:20.407,72911.857,0.27,0.317,-0.909,0.125,-0.113,0.028,-0.082,-0.056,0.063,0.288,-0.323,1.014
2024-10-15 13:29:20.417,72911.867,0.269,0.318,-0.909,0.161,-0.17,0.059,-0.072,-0.074,-0.076,0.288,-0.324,1.014
2024-10-15 13:29:20.427,72911.877,0.268,0.319,-0.909,0.157,-0.141,0.116,0.023,-0.101,-0.158,0.286,-0.324,1.013
2024-10-15 13:29:20.437,72911.887,0.266,0.319,-0.91,0.153,-0.122,0.17,0.095,-0.231,-0.238,0.284,-0.324,1.011
2024-10-15 13:29:20.447,72911.897,0.262,0.318,-0.911,0.219,-0.146,0.211,0.241,-0.38,-0.327,0.28,-0.323,1.007
2024-10-15 13:29:20.457,72911.907,0.257,0.316,-0.913,0.236,-0.101,0.2,0.419,-0.374,-0.365,0.275,-0.321,1.003
2024-10-15 13:29:20.467,72911.917,0.253,0.313,-0.916,0.157,0.033,0.152,0.448,-0.331,-0.293,0.27,-0.318,0.998
2024-10-15 13:29:20.477,72911.927,0.249,0.309,-0.918,0.046,0.124,0.083,0.621,-0.334,-0.193,0.265,-0.314,0.994
2024-10-15 13:29:20.488,72911.937,0.247,0.301,-0.921,-0.03,0.19,0.063,1.213,-0.058,-0.233,0.262,-0.305,0.99
2024-10-15 13:29:20.497,72911.947,0.247,0.289,-0.925,-0.048,0.33,0.113,1.204,0.041,-0.125,0.26,-0.294,0.984
2024-10-15 13:29:20.507,72911.957,0.245,0.282,-0.928,-0.036,0.247,0.066,0.513,-0.242,-0.051,0.259,-0.285,0.981
2024-10-15 13:29:20.517,72911.967,0.243,0.279,-0.929,-0.022,-0.072,-0.012,0.148,-0.219,-0.037,0.256,-0.283,0.98
2024-10-15 13:29:20.527,72911.977,0.242,0.278,-0.93,-0.137,-0.011,-0.176,0.026,0.023,0.132,0.255,-0.282,0.98
2024-10-15 13:29:20.537,72911.987,0.244,0.278,-0.929,-0.289,0.138,-0.273,-0.069,0.248,0.243,0.257,-0.281,0.982
2024-10-15 13:29:20.547,72911.997,0.247,0.279,-0.928,-0.336,0.047,-0.236,-0.274,0.314,0.307,0.26,-0.282,0.985
2024-10-15 13:29:20.557,72912.007,0.251,0.282,-0.926,-0.237,-0.127,-0.133,-0.563,0.236,0.253,0.264,-0.286,0.989
2024-10-15 13:29:20.567,72912.017,0.253,0.287,-0.924,-0.108,-0.261,-0.064,-0.701,0.196,0.195,0.268,-0.291,0.993
2024-10-15 13:29:20.577,72912.026,0.256,0.293,-0.921,-0.063,-0.293,-0.076,-0.81,0.241,0.168,0.271,-0.298,0.997
2024-10-15 13:29:20.587,72912.036,0.259,0.302,-0.917,-0.068,-0.264,-0.101,-1.232,0.278,0.177,0.275,-0.307,1.002
2024-10-15 13:29:20.597,72912.046,0.261,0.314,-0.913,-0.06,-0.253,-0.128,-1.358,0.082,0.207,0.279,-0.319,1.008
2024-10-15 13:29:20.607,72912.056,0.263,0.324,-0.909,-0.005,-0.174,-0.065,-0.837,0.264,0.068,0.282,-0.33,1.012
2024-10-15 13:29:20.617,72912.066,0.266,0.329,-0.906,-0.007,0.151,-0.097,-0.364,0.213,0.236,0.285,-0.335,1.016
2024-10-15 13:29:20.627,72912.076,0.268,0.331,-0.905,0.038,0.228,-0.07,-0.252,0.17,0.111,0.288,-0.337,1.018
2024-10-15 13:29:20.637,72912.086,0.269,0.333,-0.904,0.116,0.041,0.049,-0.173,-0.006,0.018,0.289,-0.339,1.02
2024-10-15 13:29:20.647,72912.096,0.268,0.333,-0.904,0.135,-0.009,0.118,0.056,-0.079,-0.121,0.289,-0.34,1.019
2024-10-15 13:29:20.657,72912.106,0.267,0.332,-0.905,0.151,0.004,0.168,0.199,-0.208,-0.185,0.287,-0.339,1.017
2024-10-15 13:29:20.667,72912.116,0.263,0.331,-0.906,0.162,-0.04,0.176,0.323,-0.34,-0.312,0.283,-0.337,1.014
2024-10-15 13:29:20.677,72912.126,0.259,0.328,-0.908,0.186,-0.11,0.184,0.447,-0.329,-0.399,0.278,-0.334,1.009
2024-10-15 13:29:20.687,72912.136,0.255,0.325,-0.911,0.163,-0.092,0.172,0.49,-0.27,-0.391,0.273,-0.331,1.004
2024-10-15 13:29:20.696,72912.146,0.252,0.321,-0.913,0.088,-0.047,0.132,0.488,-0.219,-0.306,0.269,-0.327,0.999
2024-10-15 13:29:20.707,72912.156,0.249,0.317,-0.915,0.021,0.02,0.082,0.767,-0.17,-0.357,0.265,-0.322,0.994
2024-10-15 13:29:20.716,72912.166,0.247,0.309,-0.918,-0.031,0.152,0.013,1.03,0.167,-0.375,0.263,-0.314,0.987
2024-10-15 13:29:20.727,72912.176,0.248,0.302,-0.921,-0.086,0.207,-0.046,0.575,0.044,-0.196,0.263,-0.307,0.982
2024-10-15 13:29:20.736,72912.186,0.247,0.3,-0.922,-0.05,-0.084,-0.015,0.119,-0.086,-0.214,0.262,-0.304,0.979
2024-10-15 13:29:20.747,72912.196,0.246,0.3,-0.922,0.002,-0.157,0.017,-0.018,-0.001,-0.152,0.261,-0.304,0.977
2024-10-15 13:29:20.757,72912.206,0.246,0.3,-0.922,-0.051,0.071,0.0,-0.08,0.064,0.033,0.261,-0.305,0.977
2024-10-15 13:29:20.766,72912.216,0.247,0.301,-0.921,-0.103,0.112,-0.016,-0.119,0.127,0.196,0.262,-0.306,0.978
2024-10-15 13:29:20.776,72912.226,0.249,0.301,-0.92,-0.133,0.128,-0.023,-0.048,0.169,0.181,0.264,-0.306,0.981
2024-10-15 13:29:20.786,72912.236,0.251,0.301,-0.92,-0.143,0.132,-0.036,-0.004,0.191,0.185,0.267,-0.306,0.982
2024-10-15 13:29:20.796,72912.246,0.254,0.301,-0.919,-0.126,0.052,-0.058,-0.083,0.21,0.208,0.269,-0.306,0.985
2024-10-15 13:29:20.807,72912.256,0.257,0.302,-0.918,-0.122,-0.063,-0.073,-0.349,0.205,0.217,0.272,-0.307,0.987
2024-10-15 13:29:20.817,72912.266,0.259,0.306,-0.916,-0.124,-0.127,-0.065,-0.455,0.179,0.18,0.275,-0.311,0.99
2024-10-15 13:29:20.827,72912.276,0.261,0.309,-0.914,-0.091,-0.158,-0.083,-0.465,0.237,0.175,0.278,-0.314,0.994
2024-10-15 13:29:20.836,72912.286,0.264,0.314,-0.912,-0.068,-0.136,-0.106,-0.576,0.268,0.111,0.282,-0.319,0.997
2024-10-15 13:29:20.846,72912.296,0.266,0.32,-0.909,-0.052,-0.157,-0.112,-0.803,0.096,0.091,0.285,-0.325,1.0
2024-10-15 13:29:20.857,72912.306,0.266,0.326,-0.907,-0.015,-0.192,-0.126,-0.605,-0.077,0.027,0.286,-0.332,1.003
2024-10-15 13:29:20.868,72912.316,0.266,0.33,-0.906,0.043,-0.083,-0.047,-0.208,0.018,-0.038,0.286,-0.336,1.004
2024-10-15 13:29:20.876,72912.326,0.266,0.331,-0.905,0.036,0.116,-0.009,0.019,0.021,-0.041,0.286,-0.337,1.004
2024-10-15 13:29:20.887,72912.336,0.266,0.331,-0.906,0.076,0.041,0.058,0.036,-0.108,-0.11,0.285,-0.337,1.003
2024-10-15 13:29:20.897,72912.346,0.263,0.331,-0.906,0.154,-0.105,0.096,0.044,-0.267,-0.199,0.283,-0.337,1.001
2024-10-15 13:29:20.907,72912.356,0.26,0.331,-0.907,0.208,-0.102,0.09,0.138,-0.292,-0.292,0.279,-0.337,0.998
2024-10-15 13:29:20.916,72912.366,0.257,0.33,-0.909,0.195,-0.044,0.074,0.212,-0.215,-0.271,0.275,-0.336,0.995
2024-10-15 13:29:20.926,72912.376,0.254,0.328,-0.91,0.144,0.025,0.065,0.235,-0.175,-0.234,0.272,-0.334,0.992
2024-10-15 13:29:20.937,72912.386,0.252,0.326,-0.911,0.107,0.069,0.063,0.35,-0.144,-0.21,0.27,-0.332,0.989
2024-10-15 13:29:20.946,72912.396,0.25,0.323,-0.913,0.079,0.152,0.063,0.567,-0.081,-0.199,0.268,-0.328,0.985
2024-10-15 13:29:20.956,72912.406,0.249,0.317,-0.915,0.043,0.208,0.079,0.748,-0.001,-0.209,0.266,-0.323,0.981
2024-10-15 13:29:20.966,72912.416,0.249,0.311,-0.917,0.001,0.136,0.1,0.748,0.021,-0.193,0.265,-0.316,0.977
2024-10-15 13:29:20.976,72912.426,0.248,0.305,-0.92,-0.023,0.011,0.12,0.571,-0.061,-0.15,0.264,-0.31,0.974
2024-10-15 13:29:20.986,72912.436,0.247,0.301,-0.921,-0.009,-0.103,0.13,0.406,-0.122,-0.152,0.262,-0.306,0.971
2024-10-15 13:29:20.996,72912.446,0.245,0.298,-0.923,-0.032,-0.084,0.094,0.322,-0.069,-0.111,0.26,-0.302,0.968
2024-10-15 13:29:21.006,72912.456,0.245,0.296,-0.923,-0.105,0.013,0.005,0.08,0.041,0.039,0.26,-0.3,0.967
2024-10-15 13:29:21.016,72912.466,0.246,0.296,-0.923,-0.19,0.021,-0.117,-0.144,0.073,0.14,0.26,-0.301,0.968
2024-10-15 13:29:21.027,72912.476,0.248,0.297,-0.922,-0.234,0.013,-0.172,-0.079,0.278,0.144,0.263,-0.301,0.97
2024-10-15 13:29:21.036,72912.486,0.251,0.297,-0.921,-0.231,0.089,-0.154,-0.12,0.308,0.223,0.266,-0.302,0.972
2024-10-15 13:29:21.055,72912.496,0.255,0.298,-0.92,-0.154,0.035,-0.08,-0.283,0.271,0.251,0.27,-0.303,0.975
2024-10-15 13:29:21.059,72912.506,0.258,0.301,-0.918,-0.06,-0.098,-0.017,-0.453,0.214,0.259,0.274,-0.306,0.979
2024-10-15 13:29:21.066,72912.516,0.26,0.305,-0.916,-0.036,-0.093,-0.018,-0.413,0.26,0.249,0.277,-0.309,0.983
2024-10-15 13:29:21.076,72912.526,0.264,0.308,-0.914,-0.044,-0.078,-0.064,-0.416,0.322,0.246,0.281,-0.313,0.986
2024-10-15 13:29:21.086,72912.536,0.267,0.311,-0.912,-0.055,-0.122,-0.096,-0.503,0.267,0.175,0.285,-0.316,0.99
2024-10-15 13:29:21.096,72912.546,0.269,0.316,-0.91,-0.002,-0.207,-0.115,-0.59,-0.002,0.105,0.287,-0.321,0.993
2024-10-15 13:29:21.106,72912.556,0.269,0.32,-0.908,0.066,-0.218,-0.098,-0.394,-0.003,-0.052,0.288,-0.326,0.995
2024-10-15 13:29:21.116,72912.566,0.269,0.323,-0.908,0.096,-0.125,-0.002,-0.136,-0.021,-0.087,0.288,-0.329,0.995
2024-10-15 13:29:21.126,72912.576,0.268,0.324,-0.908,0.088,-0.056,0.059,0.035,-0.134,-0.146,0.287,-0.33,0.994
2024-10-15 13:29:21.136,72912.586,0.265,0.323,-0.908,0.173,-0.098,0.14,0.138,-0.3,-0.236,0.284,-0.329,0.991
2024-10-15 13:29:21.146,72912.596,0.261,0.322,-0.91,0.243,-0.081,0.163,0.235,-0.401,-0.291,0.279,-0.328,0.988
2024-10-15 13:29:21.156,72912.605,0.257,0.321,-0.912,0.236,-0.006,0.144,0.303,-0.312,-0.311,0.274,-0.326,0.984
2024-10-15 13:29:21.166,72912.615,0.254,0.319,-0.913,0.148,0.107,0.078,0.27,-0.168,-0.228,0.271,-0.324,0.981
2024-10-15 13:29:21.176,72912.625,0.252,0.317,-0.914,0.039,0.162,0.006,0.202,-0.087,-0.14,0.269,-0.323,0.978
2024-10-15 13:29:21.186,72912.635,0.251,0.315,-0.915,-0.013,0.16,-0.011,0.29,-0.012,-0.101,0.268,-0.321,0.976
2024-10-15 13:29:21.196,72912.645,0.251,0.312,-0.916,-0.031,0.178,0.028,0.473,0.078,-0.108,0.268,-0.317,0.974
2024-10-15 13:29:21.206,72912.655,0.252,0.308,-0.918,-0.032,0.133,0.085,0.428,0.089,-0.081,0.268,-0.313,0.972
2024-10-15 13:29:21.216,72912.665,0.252,0.305,-0.918,-0.019,-0.02,0.105,0.149,-0.016,-0.069,0.268,-0.31,0.97
2024-10-15 13:29:21.226,72912.675,0.251,0.305,-0.918,-0.012,-0.15,0.088,-0.083,-0.02,-0.076,0.267,-0.31,0.97
2024-10-15 13:29:21.236,72912.685,0.251,0.307,-0.918,-0.071,-0.113,0.011,-0.21,0.05,-0.003,0.267,-0.312,0.97
2024-10-15 13:29:21.246,72912.695,0.252,0.309,-0.917,-0.17,-0.026,-0.099,-0.201,0.141,0.054,0.268,-0.314,0.971
2024-10-15 13:29:21.256,72912.705,0.255,0.31,-0.916,-0.227,0.04,-0.153,-0.14,0.299,0.134,0.271,-0.315,0.972
2024-10-15 13:29:21.266,72912.715,0.258,0.311,-0.915,-0.232,0.101,-0.13,-0.192,0.314,0.175,0.275,-0.316,0.974
2024-10-15 13:29:21.276,72912.725,0.261,0.313,-0.913,-0.172,0.033,-0.06,-0.297,0.246,0.198,0.278,-0.318,0.977
2024-10-15 13:29:21.286,72912.735,0.264,0.315,-0.911,-0.079,-0.046,-0.016,-0.419,0.254,0.212,0.282,-0.321,0.98
2024-10-15 13:29:21.296,72912.745,0.267,0.319,-0.909,-0.048,-0.039,-0.009,-0.467,0.219,0.208,0.285,-0.325,0.983
2024-10-15 13:29:21.306,72912.755,0.27,0.322,-0.907,-0.039,-0.078,-0.039,-0.384,0.269,0.183,0.289,-0.328,0.986
2024-10-15 13:29:21.316,72912.765,0.273,0.326,-0.905,-0.016,-0.088,-0.085,-0.532,0.33,0.13,0.293,-0.332,0.989
2024-10-15 13:29:21.326,72912.775,0.275,0.332,-0.902,0.008,-0.157,-0.117,-0.936,0.182,0.109,0.296,-0.339,0.993
2024-10-15 13:29:21.336,72912.785,0.277,0.34,-0.899,0.029,-0.259,-0.132,-0.886,0.11,0.038,0.299,-0.347,0.996
2024-10-15 13:29:21.346,72912.795,0.278,0.347,-0.896,0.042,-0.175,-0.081,-0.483,0.105,0.032,0.301,-0.354,0.999
2024-10-15 13:29:21.356,72912.805,0.279,0.349,-0.895,0.04,0.062,-0.033,-0.142,0.1,-0.008,0.302,-0.357,1.0
2024-10-15 13:29:21.366,72912.815,0.279,0.35,-0.894,0.095,0.089,0.099,0.009,-0.045,-0.055,0.303,-0.358,1.0
2024-10-15 13:29:21.375,72912.825,0.278,0.349,-0.895,0.169,-0.019,0.177,0.149,-0.22,-0.114,0.301,-0.357,0.999
2024-10-15 13:29:21.386,72912.835,0.275,0.348,-0.896,0.24,-0.029,0.201,0.233,-0.224,-0.194,0.298,-0.356,0.997
2024-10-15 13:29:21.396,72912.845,0.272,0.346,-0.898,0.221,0.029,0.189,0.255,-0.252,-0.184,0.294,-0.354,0.994
2024-10-15 13:29:21.405,72912.855,0.269,0.345,-0.899,0.156,-0.002,0.125,0.303,-0.261,-0.205,0.291,-0.352,0.991
2024-10-15 13:29:21.415,72912.865,0.267,0.342,-0.901,0.102,0.016,0.032,0.347,-0.162,-0.198,0.288,-0.349,0.988
2024-10-15 13:29:21.426,72912.875,0.265,0.34,-0.902,0.019,0.066,-0.042,0.267,-0.146,-0.126,0.285,-0.347,0.985
2024-10-15 13:29:21.436,72912.885,0.264,0.336,-0.904,-0.044,0.048,-0.033,0.609,-0.025,-0.118,0.284,-0.343,0.983
2024-10-15 13:29:21.445,72912.895,0.264,0.33,-0.906,-0.032,0.099,0.082,0.751,0.12,-0.142,0.283,-0.336,0.979
2024-10-15 13:29:21.455,72912.905,0.264,0.325,-0.908,0.015,0.119,0.13,0.347,-0.104,-0.07,0.282,-0.331,0.977
2024-10-15 13:29:21.465,72912.915,0.262,0.323,-0.909,0.058,-0.147,0.111,0.196,-0.222,-0.095,0.28,-0.329,0.975
2024-10-15 13:29:21.475,72912.925,0.26,0.321,-0.911,0.036,-0.123,0.064,0.41,-0.069,-0.085,0.278,-0.327,0.973
2024-10-15 13:29:21.485,72912.935,0.26,0.317,-0.912,-0.047,0.141,0.007,0.474,0.006,-0.009,0.277,-0.322,0.972
2024-10-15 13:29:21.495,72912.945,0.26,0.313,-0.914,-0.086,0.117,-0.019,0.452,-0.009,0.036,0.277,-0.318,0.97
2024-10-15 13:29:21.505,72912.955,0.259,0.309,-0.915,-0.066,0.02,-0.036,0.383,-0.051,0.037,0.276,-0.314,0.97
2024-10-15 13:29:21.516,72912.965,0.259,0.306,-0.916,-0.069,0.069,-0.06,0.266,-0.041,0.045,0.276,-0.311,0.969
2024-10-15 13:29:21.526,72912.975,0.259,0.303,-0.917,-0.117,0.107,-0.08,0.174,0.006,0.135,0.275,-0.308,0.969
2024-10-15 13:29:21.535,72912.985,0.26,0.301,-0.917,-0.178,0.095,-0.104,0.158,0.035,0.239,0.276,-0.306,0.971
2024-10-15 13:29:21.545,72912.995,0.261,0.299,-0.918,-0.199,0.096,-0.104,0.124,0.084,0.302,0.277,-0.304,0.973
2024-10-15 13:29:21.555,72913.005,0.263,0.298,-0.918,-0.182,0.091,-0.078,0.025,0.097,0.332,0.279,-0.303,0.976
2024-10-15 13:29:21.565,72913.015,0.265,0.297,-0.917,-0.147,0.001,-0.073,-0.084,0.105,0.335,0.281,-0.302,0.98
2024-10-15 13:29:21.575,72913.025,0.267,0.298,-0.916,-0.101,-0.137,-0.103,-0.308,0.192,0.266,0.284,-0.303,0.983
2024-10-15 13:29:21.585,72913.035,0.27,0.303,-0.914,-0.071,-0.264,-0.129,-0.973,0.253,0.224,0.287,-0.308,0.987
2024-10-15 13:29:21.595,72913.045,0.272,0.314,-0.91,-0.033,-0.432,-0.116,-1.549,-0.152,0.303,0.29,-0.32,0.994
2024-10-15 13:29:21.605,72913.055,0.27,0.325,-0.906,0.069,-0.545,-0.008,-0.756,-0.188,0.005,0.29,-0.331,0.999
2024-10-15 13:29:21.615,72913.065,0.27,0.328,-0.905,0.146,-0.155,-0.008,-0.072,0.135,-0.07,0.29,-0.335,1.0
2024-10-15 13:29:21.625,72913.075,0.271,0.328,-0.905,0.051,0.23,-0.028,-0.008,0.141,-0.036,0.291,-0.335,0.999
2024-10-15 13:29:21.636,72913.085,0.271,0.329,-0.904,0.078,-0.129,0.083,-0.162,-0.11,-0.109,0.291,-0.336,0.999
2024-10-15 13:29:21.645,72913.095,0.269,0.331,-0.905,0.227,-0.266,0.13,-0.043,-0.23,-0.259,0.289,-0.337,0.997
2024-10-15 13:29:21.654,72913.105,0.266,0.331,-0.905,0.28,-0.024,0.151,0.129,-0.219,-0.286,0.286,-0.338,0.994
2024-10-15 13:29:21.665,72913.115,0.263,0.331,-0.906,0.211,0.092,0.118,0.183,-0.198,-0.235,0.282,-0.337,0.991
2024-10-15 13:29:21.675,72913.125,0.26,0.329,-0.908,0.123,0.095,0.087,0.253,-0.2,-0.23,0.279,-0.335,0.988
2024-10-15 13:29:21.685,72913.135,0.258,0.327,-0.909,0.07,0.139,0.064,0.389,-0.182,-0.21,0.277,-0.333,0.985
2024-10-15 13:29:21.695,72913.145,0.256,0.322,-0.911,0.021,0.194,0.088,0.851,-0.063,-0.193,0.274,-0.328,0.981
2024-10-15 13:29:21.705,72913.155,0.256,0.313,-0.915,-0.013,0.223,0.2,1.152,0.076,-0.199,0.273,-0.318,0.976
2024-10-15 13:29:21.715,72913.165,0.255,0.305,-0.918,0.021,0.175,0.224,0.695,-0.216,-0.129,0.271,-0.309,0.972
2024-10-15 13:29:21.725,72913.175,0.251,0.301,-0.92,0.064,-0.068,0.13,0.332,-0.369,-0.149,0.267,-0.305,0.969
2024-10-15 13:29:21.735,72913.184,0.248,0.297,-0.922,-0.016,-0.062,-0.028,0.438,-0.148,-0.084,0.263,-0.302,0.967
2024-10-15 13:29:21.745,72913.194,0.249,0.293,-0.923,-0.194,0.246,-0.162,0.487,0.119,0.12,0.263,-0.297,0.966
2024-10-15 13:29:21.755,72913.204,0.25,0.289,-0.924,-0.291,0.255,-0.213,0.193,0.154,0.269,0.265,-0.293,0.967
2024-10-15 13:29:21.765,72913.214,0.253,0.288,-0.924,-0.263,0.029,-0.191,-0.087,0.146,0.2,0.267,-0.292,0.969
2024-10-15 13:29:21.775,72913.224,0.254,0.289,-0.923,-0.215,-0.045,-0.151,-0.285,0.156,0.247,0.269,-0.294,0.972
2024-10-15 13:29:21.785,72913.234,0.257,0.292,-0.921,-0.196,-0.077,-0.119,-0.442,0.225,0.319,0.272,-0.296,0.976
2024-10-15 13:29:21.795,72913.244,0.26,0.296,-0.919,-0.2,-0.131,-0.099,-0.587,0.27,0.384,0.276,-0.3,0.981
2024-10-15 13:29:21.805,72913.254,0.264,0.302,-0.916,-0.176,-0.2,-0.097,-1.045,0.352,0.356,0.281,-0.307,0.987
2024-10-15 13:29:21.815,72913.264,0.268,0.315,-0.91,-0.118,-0.245,-0.1,-2.231,0.164,0.542,0.287,-0.321,0.996
2024-10-15 13:29:21.825,72913.274,0.269,0.335,-0.903,-0.077,-0.402,-0.029,-2.007,-0.318,0.48,0.29,-0.342,1.008
2024-10-15 13:29:21.835,72913.284,0.269,0.345,-0.899,0.042,-0.268,0.125,-0.514,-0.025,0.36,0.29,-0.352,1.016
2024-10-15 13:29:21.845,72913.294,0.271,0.345,-0.899,0.041,0.492,-0.049,0.198,0.191,0.279,0.293,-0.352,1.02
2024-10-15 13:29:21.854,72913.304,0.273,0.343,-0.899,0.006,0.462,0.021,0.142,0.109,0.067,0.295,-0.35,1.021
2024-10-15 13:29:21.865,72913.314,0.273,0.342,-0.899,0.1,-0.306,0.108,-0.026,-0.158,-0.047,0.295,-0.349,1.021
2024-10-15 13:29:21.875,72913.324,0.27,0.344,-0.899,0.282,-0.463,0.118,-0.137,-0.216,-0.337,0.292,-0.351,1.019
2024-10-15 13:29:21.885,72913.334,0.268,0.346,-0.899,0.274,-0.357,0.128,-0.271,-0.149,-0.312,0.289,-0.354,1.016
2024-10-15 13:29:21.895,72913.344,0.265,0.35,-0.898,0.159,-0.278,0.084,-0.422,-0.125,-0.268,0.287,-0.358,1.015
2024-10-15 13:29:21.904,72913.354,0.263,0.355,-0.897,0.112,-0.181,0.036,-0.467,-0.109,-0.257,0.286,-0.363,1.013
2024-10-15 13:29:21.915,72913.364,0.262,0.36,-0.896,0.078,-0.036,-0.006,-0.462,-0.102,-0.251,0.284,-0.368,1.012
2024-10-15 13:29:21.925,72913.374,0.259,0.363,-0.895,0.04,0.051,-0.006,-0.075,-0.138,-0.321,0.282,-0.372,1.01
2024-10-15 13:29:21.935,72913.384,0.258,0.361,-0.896,-0.002,0.102,0.033,0.73,0.24,-0.622,0.28,-0.37,1.004
2024-10-15 13:29:21.945,72913.394,0.259,0.356,-0.898,-0.065,0.178,0.059,0.774,0.378,-0.684,0.28,-0.364,0.995
2024-10-15 13:29:21.955,72913.404,0.259,0.353,-0.899,-0.097,-0.173,0.047,0.133,0.144,-0.748,0.28,-0.361,0.986
