Date,TimeStamp,GravityX,GravityY,GravityZ,UserAccelerationX,UserAccelerationY,UserAccelerationZ,RotationRateX,RotationRateY,RotationRateZ,AttitudeRoll,AttitudePitch,AttitudeYaw
2024-10-15 13:57:07.979,74579.418,0.002,-0.445,-0.895,-0.034,0.067,0.003,0.0,0.044,-0.038,0.002,0.462,1.53
2024-10-15 13:57:07.991,74579.428,0.002,-0.445,-0.895,0.017,0.077,0.024,-0.015,-0.035,-0.026,0.002,0.461,1.53
2024-10-15 13:57:07.993,74579.438,0.002,-0.445,-0.895,0.041,0.024,0.039,-0.002,-0.049,-0.034,0.002,0.461,1.53
2024-10-15 13:57:07.995,74579.448,0.001,-0.445,-0.895,0.026,0.001,0.039,0.033,-0.027,-0.022,0.002,0.461,1.529
2024-10-15 13:57:08.004,74579.458,0.001,-0.446,-0.895,-0.002,0.009,0.039,0.05,-0.015,-0.01,0.002,0.462,1.529
2024-10-15 13:57:08.014,74579.468,0.001,-0.446,-0.895,-0.016,0.014,0.041,0.037,-0.027,0.001,0.001,0.462,1.529
2024-10-15 13:57:08.024,74579.478,0.001,-0.446,-0.895,-0.013,0.007,0.039,0.019,-0.044,0.002,0.001,0.463,1.529
2024-10-15 13:57:08.034,74579.488,0.0,-0.446,-0.895,-0.004,0.004,0.041,-0.002,-0.046,0.005,0.0,0.463,1.529
2024-10-15 13:57:08.044,74579.498,-0.0,-0.446,-0.895,-0.001,0.001,0.038,-0.018,-0.03,0.001,-0.0,0.463,1.529
2024-10-15 13:57:08.054,74579.508,0.0,-0.446,-0.895,-0.008,0.0,0.03,-0.034,0.05,-0.027,0.0,0.462,1.529
2024-10-15 13:57:08.064,74579.518,0.001,-0.445,-0.895,-0.023,-0.005,0.021,-0.07,0.013,0.005,0.001,0.462,1.529
2024-10-15 13:57:08.075,74579.528,0.001,-0.445,-0.896,-0.024,-0.023,0.01,-0.065,-0.009,-0.011,0.001,0.461,1.529
2024-10-15 13:57:08.084,74579.538,0.001,-0.444,-0.896,0.002,-0.014,0.005,-0.042,0.005,-0.029,0.001,0.461,1.529
2024-10-15 13:57:08.094,74579.548,0.001,-0.444,-0.896,0.0,-0.006,0.003,-0.016,0.011,-0.024,0.001,0.46,1.528
2024-10-15 13:57:08.104,74579.558,0.001,-0.444,-0.896,-0.005,-0.001,0.001,-0.008,0.009,-0.021,0.001,0.46,1.528
2024-10-15 13:57:08.114,74579.568,0.001,-0.444,-0.896,-0.003,-0.003,0.0,-0.016,-0.001,-0.027,0.001,0.46,1.528
2024-10-15 13:57:08.125,74579.578,0.001,-0.444,-0.896,0.004,-0.009,0.005,-0.026,-0.018,-0.028,0.001,0.46,1.528
2024-10-15 13:57:08.134,74579.588,0.001,-0.444,-0.896,0.01,-0.013,0.009,-0.026,-0.028,-0.029,0.001,0.46,1.527
2024-10-15 13:57:08.146,74579.598,0.001,-0.443,-0.896,0.012,-0.011,0.01,-0.019,-0.025,-0.025,0.001,0.459,1.527
2024-10-15 13:57:08.154,74579.608,0.0,-0.443,-0.896,0.009,-0.002,0.013,-0.013,-0.014,-0.021,0.0,0.459,1.527
2024-10-15 13:57:08.165,74579.618,0.0,-0.443,-0.896,0.002,0.004,0.011,-0.009,-0.013,-0.01,0.0,0.459,1.527
2024-10-15 13:57:08.174,74579.628,0.0,-0.443,-0.896,-0.001,0.008,0.014,0.0,-0.012,-0.001,0.0,0.459,1.527
2024-10-15 13:57:08.184,74579.638,0.0,-0.443,-0.896,0.0,0.011,0.016,0.009,-0.016,0.008,0.0,0.459,1.527
2024-10-15 13:57:08.195,74579.648,-0.0,-0.443,-0.896,0.002,0.014,0.014,0.008,-0.026,0.012,-0.0,0.459,1.527
2024-10-15 13:57:08.204,74579.658,-0.0,-0.443,-0.896,0.002,0.015,0.008,-0.016,-0.023,0.01,-0.0,0.459,1.527
2024-10-15 13:57:08.214,74579.668,-0.001,-0.443,-0.896,-0.0,0.005,0.004,-0.055,-0.015,0.014,-0.001,0.459,1.527
2024-10-15 13:57:08.224,74579.678,-0.001,-0.443,-0.897,-0.007,-0.011,-0.0,-0.083,-0.007,0.014,-0.001,0.458,1.527
2024-10-15 13:57:08.234,74579.688,-0.0,-0.442,-0.897,-0.011,-0.019,-0.005,-0.081,0.01,0.002,-0.001,0.458,1.527
2024-10-15 13:57:08.245,74579.698,-0.0,-0.441,-0.897,-0.016,-0.016,-0.005,-0.058,0.032,-0.014,-0.0,0.457,1.527
2024-10-15 13:57:08.254,74579.708,0.0,-0.441,-0.898,-0.021,-0.006,-0.0,-0.037,0.045,-0.024,0.0,0.456,1.527
2024-10-15 13:57:08.264,74579.718,0.001,-0.441,-0.898,-0.02,0.0,0.003,-0.018,0.053,-0.034,0.001,0.456,1.527
2024-10-15 13:57:08.275,74579.728,0.001,-0.44,-0.898,-0.015,0.001,0.009,-0.01,0.043,-0.04,0.002,0.456,1.526
2024-10-15 13:57:08.284,74579.738,0.002,-0.44,-0.898,-0.011,-0.004,0.012,-0.013,0.041,-0.043,0.002,0.456,1.526
2024-10-15 13:57:08.295,74579.748,0.002,-0.44,-0.898,-0.007,-0.005,0.011,-0.038,0.035,-0.044,0.003,0.456,1.525
2024-10-15 13:57:08.304,74579.758,0.003,-0.44,-0.898,-0.007,-0.012,0.012,-0.065,0.026,-0.041,0.003,0.455,1.525
2024-10-15 13:57:08.314,74579.768,0.003,-0.439,-0.898,-0.01,-0.02,0.008,-0.083,0.035,-0.041,0.003,0.455,1.524
2024-10-15 13:57:08.324,74579.778,0.003,-0.438,-0.899,-0.013,-0.017,0.011,-0.078,0.051,-0.048,0.004,0.454,1.524
2024-10-15 13:57:08.334,74579.788,0.004,-0.438,-0.899,-0.015,-0.009,0.015,-0.067,0.055,-0.063,0.004,0.453,1.524
2024-10-15 13:57:08.345,74579.798,0.005,-0.437,-0.899,-0.017,-0.006,0.014,-0.042,0.061,-0.07,0.005,0.453,1.523
2024-10-15 13:57:08.353,74579.807,0.005,-0.437,-0.899,-0.019,-0.002,0.014,-0.02,0.063,-0.075,0.006,0.452,1.522
2024-10-15 13:57:08.363,74579.817,0.006,-0.437,-0.899,-0.017,0.005,0.016,-0.022,0.058,-0.082,0.007,0.452,1.521
2024-10-15 13:57:08.373,74579.827,0.007,-0.437,-0.9,-0.013,0.005,0.017,-0.044,0.054,-0.09,0.007,0.452,1.521
2024-10-15 13:57:08.383,74579.837,0.007,-0.436,-0.9,-0.01,-0.006,0.02,-0.083,0.041,-0.092,0.008,0.451,1.52
2024-10-15 13:57:08.393,74579.847,0.008,-0.435,-0.9,-0.011,-0.018,0.019,-0.12,0.037,-0.101,0.009,0.45,1.519
2024-10-15 13:57:08.403,74579.857,0.009,-0.434,-0.901,-0.014,-0.028,0.017,-0.141,0.044,-0.109,0.01,0.449,1.518
2024-10-15 13:57:08.413,74579.867,0.01,-0.433,-0.901,-0.025,-0.031,0.012,-0.123,0.066,-0.119,0.011,0.448,1.516
2024-10-15 13:57:08.424,74579.877,0.011,-0.432,-0.902,-0.031,-0.02,0.011,-0.095,0.08,-0.13,0.012,0.447,1.515
2024-10-15 13:57:08.433,74579.887,0.012,-0.431,-0.902,-0.036,-0.006,0.013,-0.073,0.083,-0.14,0.013,0.446,1.514
2024-10-15 13:57:08.443,74579.897,0.013,-0.431,-0.902,-0.037,-0.003,0.014,-0.056,0.076,-0.155,0.014,0.446,1.512
2024-10-15 13:57:08.453,74579.907,0.014,-0.43,-0.903,-0.031,-0.009,0.017,-0.062,0.06,-0.165,0.015,0.445,1.511
2024-10-15 13:57:08.464,74579.917,0.015,-0.43,-0.903,-0.026,-0.017,0.019,-0.077,0.045,-0.173,0.017,0.444,1.509
2024-10-15 13:57:08.474,74579.927,0.016,-0.429,-0.903,-0.024,-0.025,0.02,-0.105,0.032,-0.202,0.018,0.444,1.507
2024-10-15 13:57:08.484,74579.937,0.017,-0.428,-0.904,-0.026,-0.037,0.022,-0.168,0.067,-0.236,0.019,0.442,1.505
2024-10-15 13:57:08.502,74579.947,0.018,-0.426,-0.904,-0.038,-0.062,0.021,-0.259,0.037,-0.235,0.02,0.44,1.502
2024-10-15 13:57:08.508,74579.957,0.019,-0.424,-0.905,-0.045,-0.097,0.017,-0.245,0.04,-0.227,0.021,0.438,1.5
2024-10-15 13:57:08.514,74579.967,0.02,-0.422,-0.906,-0.046,-0.063,0.012,-0.182,0.055,-0.239,0.022,0.436,1.497
2024-10-15 13:57:08.524,74579.977,0.022,-0.421,-0.907,-0.055,-0.022,0.012,-0.114,0.066,-0.268,0.024,0.434,1.495
2024-10-15 13:57:08.534,74579.987,0.023,-0.42,-0.907,-0.058,-0.002,0.008,-0.086,0.063,-0.287,0.026,0.433,1.492
2024-10-15 13:57:08.544,74579.997,0.025,-0.419,-0.908,-0.056,-0.005,0.009,-0.079,0.049,-0.328,0.027,0.432,1.489
2024-10-15 13:57:08.554,74580.007,0.027,-0.418,-0.908,-0.054,-0.014,0.014,-0.114,0.109,-0.35,0.029,0.432,1.485
2024-10-15 13:57:08.563,74580.017,0.029,-0.417,-0.908,-0.066,-0.035,0.02,-0.168,0.117,-0.33,0.032,0.43,1.481
2024-10-15 13:57:08.574,74580.027,0.031,-0.415,-0.909,-0.067,-0.06,0.021,-0.161,0.09,-0.323,0.034,0.428,1.478
2024-10-15 13:57:08.583,74580.037,0.033,-0.414,-0.91,-0.032,-0.035,0.026,-0.127,0.043,-0.342,0.036,0.427,1.474
2024-10-15 13:57:08.594,74580.047,0.035,-0.413,-0.91,-0.003,-0.011,0.028,-0.104,-0.011,-0.341,0.038,0.426,1.471
2024-10-15 13:57:08.603,74580.057,0.036,-0.412,-0.911,0.013,-0.008,0.028,-0.098,-0.047,-0.324,0.039,0.424,1.467
2024-10-15 13:57:08.614,74580.067,0.037,-0.411,-0.911,0.019,-0.006,0.027,-0.09,-0.06,-0.307,0.04,0.423,1.464
2024-10-15 13:57:08.624,74580.077,0.037,-0.41,-0.911,0.015,0.002,0.024,-0.08,-0.069,-0.297,0.041,0.422,1.46
2024-10-15 13:57:08.634,74580.087,0.038,-0.409,-0.912,0.012,0.008,0.022,-0.091,-0.092,-0.294,0.041,0.421,1.457
2024-10-15 13:57:08.644,74580.097,0.038,-0.408,-0.912,0.012,0.003,0.023,-0.127,-0.116,-0.289,0.042,0.42,1.454
2024-10-15 13:57:08.654,74580.107,0.038,-0.407,-0.913,0.015,-0.01,0.023,-0.171,-0.13,-0.296,0.042,0.419,1.451
2024-10-15 13:57:08.663,74580.117,0.038,-0.405,-0.914,0.01,-0.02,0.022,-0.198,-0.121,-0.296,0.042,0.417,1.448
2024-10-15 13:57:08.674,74580.127,0.038,-0.403,-0.915,0.0,-0.026,0.026,-0.211,-0.101,-0.299,0.042,0.414,1.445
2024-10-15 13:57:08.684,74580.137,0.039,-0.401,-0.915,-0.01,-0.023,0.029,-0.205,-0.065,-0.298,0.042,0.412,1.441
2024-10-15 13:57:08.693,74580.147,0.039,-0.399,-0.916,-0.018,-0.01,0.027,-0.164,-0.035,-0.295,0.043,0.41,1.438
2024-10-15 13:57:08.703,74580.157,0.04,-0.397,-0.917,-0.018,0.005,0.025,-0.12,-0.03,-0.291,0.044,0.409,1.435
2024-10-15 13:57:08.713,74580.167,0.041,-0.396,-0.917,-0.004,0.019,0.021,-0.068,-0.055,-0.299,0.045,0.408,1.432
2024-10-15 13:57:08.723,74580.177,0.042,-0.396,-0.917,0.02,0.031,0.017,-0.04,-0.105,-0.311,0.045,0.407,1.429
2024-10-15 13:57:08.733,74580.187,0.042,-0.395,-0.918,0.037,0.029,0.013,-0.06,-0.139,-0.317,0.045,0.406,1.425
2024-10-15 13:57:08.743,74580.197,0.042,-0.394,-0.918,0.039,0.01,0.011,-0.137,-0.147,-0.313,0.045,0.405,1.422
2024-10-15 13:57:08.753,74580.207,0.042,-0.392,-0.919,0.023,-0.015,0.011,-0.239,-0.144,-0.31,0.045,0.403,1.419
2024-10-15 13:57:08.763,74580.217,0.042,-0.39,-0.92,0.004,-0.035,0.011,-0.346,-0.105,-0.32,0.045,0.4,1.415
2024-10-15 13:57:08.773,74580.227,0.042,-0.386,-0.922,-0.017,-0.05,0.015,-0.45,-0.048,-0.336,0.046,0.396,1.412
2024-10-15 13:57:08.783,74580.237,0.043,-0.381,-0.923,-0.036,-0.058,0.016,-0.473,0.0,-0.338,0.047,0.391,1.409
2024-10-15 13:57:08.793,74580.247,0.045,-0.377,-0.925,-0.047,-0.051,0.008,-0.4,0.02,-0.341,0.048,0.387,1.405
2024-10-15 13:57:08.803,74580.257,0.046,-0.374,-0.926,-0.047,-0.025,0.015,-0.275,0.03,-0.362,0.05,0.383,1.402
2024-10-15 13:57:08.813,74580.267,0.048,-0.372,-0.927,-0.044,0.007,0.026,-0.186,0.028,-0.379,0.052,0.381,1.398
2024-10-15 13:57:08.823,74580.277,0.049,-0.37,-0.928,-0.039,0.022,0.037,-0.14,0.019,-0.389,0.053,0.379,1.394
2024-10-15 13:57:08.833,74580.287,0.051,-0.368,-0.928,-0.033,0.019,0.049,-0.139,0.007,-0.398,0.055,0.377,1.39
2024-10-15 13:57:08.843,74580.297,0.052,-0.367,-0.929,-0.027,0.007,0.054,-0.165,-0.038,-0.414,0.056,0.376,1.385
2024-10-15 13:57:08.853,74580.307,0.053,-0.365,-0.93,-0.021,-0.01,0.056,-0.237,-0.089,-0.436,0.057,0.373,1.381
2024-10-15 13:57:08.863,74580.317,0.054,-0.362,-0.931,-0.021,-0.036,0.061,-0.32,-0.114,-0.45,0.058,0.37,1.376
2024-10-15 13:57:08.873,74580.327,0.055,-0.358,-0.932,-0.028,-0.056,0.069,-0.419,-0.122,-0.464,0.058,0.366,1.372
2024-10-15 13:57:08.883,74580.337,0.055,-0.354,-0.934,-0.046,-0.065,0.071,-0.534,-0.119,-0.485,0.059,0.361,1.367
2024-10-15 13:57:08.893,74580.347,0.056,-0.348,-0.936,-0.064,-0.073,0.078,-0.692,-0.118,-0.502,0.059,0.355,1.362
2024-10-15 13:57:08.903,74580.357,0.056,-0.34,-0.939,-0.077,-0.096,0.088,-0.845,-0.101,-0.518,0.06,0.347,1.357
2024-10-15 13:57:08.913,74580.367,0.057,-0.331,-0.942,-0.089,-0.115,0.095,-0.936,-0.064,-0.546,0.061,0.338,1.352
2024-10-15 13:57:08.923,74580.377,0.059,-0.322,-0.945,-0.098,-0.11,0.088,-0.894,-0.027,-0.601,0.062,0.328,1.347
2024-10-15 13:57:08.934,74580.387,0.061,-0.314,-0.948,-0.108,-0.074,0.084,-0.814,-0.013,-0.634,0.064,0.319,1.341
2024-10-15 13:57:08.943,74580.396,0.062,-0.306,-0.95,-0.108,-0.047,0.088,-0.657,-0.07,-0.658,0.066,0.311,1.335
2024-10-15 13:57:08.953,74580.406,0.064,-0.3,-0.952,-0.097,-0.019,0.087,-0.53,-0.12,-0.739,0.067,0.305,1.328
2024-10-15 13:57:08.963,74580.416,0.064,-0.295,-0.953,-0.078,-0.019,0.109,-0.56,-0.168,-0.794,0.068,0.299,1.32
2024-10-15 13:57:08.973,74580.426,0.065,-0.288,-0.955,-0.082,-0.072,0.117,-0.699,-0.222,-0.822,0.068,0.293,1.312
2024-10-15 13:57:08.983,74580.436,0.065,-0.28,-0.958,-0.092,-0.126,0.131,-0.879,-0.229,-0.872,0.068,0.284,1.304
2024-10-15 13:57:08.993,74580.446,0.066,-0.27,-0.961,-0.109,-0.176,0.136,-1.153,-0.204,-0.955,0.068,0.273,1.295
2024-10-15 13:57:09.003,74580.456,0.066,-0.256,-0.964,-0.138,-0.212,0.129,-1.605,-0.156,-1.03,0.069,0.259,1.286
2024-10-15 13:57:09.013,74580.466,0.068,-0.237,-0.969,-0.164,-0.261,0.13,-2.202,-0.103,-1.087,0.07,0.24,1.276
2024-10-15 13:57:09.023,74580.476,0.07,-0.212,-0.975,-0.176,-0.302,0.149,-2.781,-0.053,-1.157,0.071,0.214,1.267
2024-10-15 13:57:09.033,74580.486,0.072,-0.182,-0.981,-0.183,-0.302,0.173,-3.162,0.059,-1.218,0.073,0.183,1.257
2024-10-15 13:57:09.043,74580.496,0.075,-0.149,-0.986,-0.196,-0.271,0.197,-3.301,0.203,-1.274,0.076,0.15,1.247
2024-10-15 13:57:09.053,74580.506,0.08,-0.116,-0.99,-0.204,-0.21,0.205,-3.253,0.31,-1.292,0.08,0.116,1.236
2024-10-15 13:57:09.063,74580.516,0.084,-0.083,-0.993,-0.19,-0.135,0.19,-3.155,0.345,-1.272,0.084,0.083,1.226
2024-10-15 13:57:09.073,74580.526,0.088,-0.052,-0.995,-0.148,-0.058,0.179,-3.033,0.339,-1.245,0.089,0.052,1.216
2024-10-15 13:57:09.083,74580.536,0.092,-0.021,-0.996,-0.099,0.025,0.146,-2.801,0.282,-1.218,0.092,0.021,1.207
2024-10-15 13:57:09.093,74580.546,0.095,0.006,-0.996,-0.058,0.089,0.111,-2.528,0.228,-1.213,0.095,-0.006,1.197
2024-10-15 13:57:09.103,74580.556,0.096,0.031,-0.995,-0.026,0.143,0.088,-2.261,0.193,-1.218,0.097,-0.031,1.187
2024-10-15 13:57:09.113,74580.566,0.098,0.054,-0.994,-0.012,0.19,0.053,-2.104,0.192,-1.187,0.098,-0.054,1.177
2024-10-15 13:57:09.123,74580.576,0.099,0.076,-0.992,-0.001,0.183,0.033,-2.064,0.221,-1.123,0.099,-0.076,1.168
2024-10-15 13:57:09.133,74580.586,0.101,0.097,-0.99,0.011,0.17,0.021,-2.086,0.291,-1.027,0.101,-0.097,1.159
2024-10-15 13:57:09.143,74580.596,0.103,0.119,-0.988,0.031,0.168,0.026,-2.083,0.366,-0.927,0.104,-0.119,1.152
2024-10-15 13:57:09.153,74580.606,0.105,0.14,-0.985,0.064,0.182,0.011,-1.968,0.361,-0.824,0.107,-0.14,1.145
2024-10-15 13:57:09.163,74580.616,0.108,0.159,-0.981,0.108,0.212,-0.015,-1.797,0.333,-0.719,0.109,-0.16,1.139
2024-10-15 13:57:09.172,74580.626,0.109,0.177,-0.978,0.157,0.246,-0.024,-1.62,0.27,-0.643,0.111,-0.178,1.134
2024-10-15 13:57:09.182,74580.636,0.111,0.192,-0.975,0.2,0.267,-0.026,-1.485,0.204,-0.532,0.113,-0.194,1.13
2024-10-15 13:57:09.192,74580.646,0.111,0.207,-0.972,0.225,0.248,-0.046,-1.429,0.167,-0.404,0.114,-0.209,1.127
2024-10-15 13:57:09.202,74580.656,0.112,0.221,-0.969,0.238,0.245,-0.081,-1.415,0.093,-0.311,0.115,-0.223,1.125
2024-10-15 13:57:09.213,74580.666,0.113,0.236,-0.965,0.235,0.245,-0.112,-1.717,0.116,-0.194,0.116,-0.238,1.124
2024-10-15 13:57:09.223,74580.676,0.113,0.255,-0.96,0.232,0.172,-0.067,-2.21,0.015,-0.032,0.117,-0.258,1.126
2024-10-15 13:57:09.233,74580.686,0.113,0.276,-0.955,0.234,0.057,-0.081,-2.015,0.095,0.08,0.118,-0.279,1.128
2024-10-15 13:57:09.243,74580.696,0.116,0.294,-0.949,0.211,0.055,-0.089,-1.778,0.451,0.08,0.122,-0.298,1.132
2024-10-15 13:57:09.252,74580.706,0.121,0.309,-0.943,0.154,0.196,-0.01,-1.608,0.586,0.168,0.128,-0.315,1.135
2024-10-15 13:57:09.262,74580.716,0.127,0.324,-0.937,0.102,0.252,-0.187,-1.66,0.427,0.313,0.135,-0.33,1.14
2024-10-15 13:57:09.273,74580.726,0.131,0.339,-0.932,0.137,0.123,-0.259,-1.553,0.25,0.334,0.14,-0.346,1.146
2024-10-15 13:57:09.283,74580.736,0.134,0.353,-0.926,0.17,0.101,-0.149,-1.474,0.227,0.274,0.144,-0.36,1.151
2024-10-15 13:57:09.293,74580.746,0.137,0.366,-0.92,0.151,0.08,-0.068,-1.491,0.265,0.237,0.148,-0.375,1.156
2024-10-15 13:57:09.302,74580.756,0.141,0.38,-0.914,0.114,0.043,-0.01,-1.583,0.28,0.293,0.153,-0.389,1.161
2024-10-15 13:57:09.313,74580.766,0.145,0.393,-0.908,0.083,-0.021,0.017,-1.506,0.24,0.39,0.158,-0.404,1.168
2024-10-15 13:57:09.322,74580.776,0.148,0.406,-0.902,0.06,-0.033,0.003,-1.415,0.232,0.421,0.163,-0.418,1.175
2024-10-15 13:57:09.332,74580.786,0.152,0.418,-0.896,0.05,0.008,0.017,-1.403,0.17,0.388,0.168,-0.431,1.182
2024-10-15 13:57:09.342,74580.796,0.154,0.43,-0.89,0.04,0.029,0.03,-1.416,0.051,0.342,0.172,-0.444,1.188
2024-10-15 13:57:09.352,74580.806,0.156,0.442,-0.884,0.039,0.008,0.024,-1.372,-0.066,0.324,0.175,-0.458,1.194
2024-10-15 13:57:09.362,74580.816,0.156,0.453,-0.878,0.033,-0.005,0.014,-1.319,-0.136,0.328,0.176,-0.47,1.201
2024-10-15 13:57:09.372,74580.826,0.156,0.464,-0.872,0.013,0.009,0.0,-1.279,-0.201,0.339,0.178,-0.482,1.207
2024-10-15 13:57:09.383,74580.836,0.156,0.474,-0.866,-0.01,0.025,-0.016,-1.247,-0.23,0.332,0.178,-0.494,1.213
2024-10-15 13:57:09.392,74580.846,0.156,0.484,-0.861,-0.029,0.006,-0.015,-1.12,-0.245,0.316,0.179,-0.505,1.219
2024-10-15 13:57:09.402,74580.856,0.155,0.493,-0.856,-0.045,-0.016,-0.01,-0.992,-0.302,0.282,0.179,-0.515,1.225
2024-10-15 13:57:09.412,74580.866,0.153,0.501,-0.852,-0.047,-0.03,-0.014,-1.078,-0.299,0.248,0.178,-0.525,1.23
2024-10-15 13:57:09.422,74580.876,0.152,0.51,-0.847,-0.03,-0.044,0.042,-1.169,-0.307,0.165,0.178,-0.535,1.234
2024-10-15 13:57:09.432,74580.886,0.15,0.519,-0.841,-0.024,-0.06,0.085,-1.071,-0.26,0.124,0.177,-0.546,1.238
2024-10-15 13:57:09.442,74580.896,0.149,0.528,-0.836,-0.05,-0.129,0.01,-0.908,-0.254,0.15,0.176,-0.556,1.242
2024-10-15 13:57:09.452,74580.906,0.148,0.534,-0.833,-0.056,-0.122,-0.019,-0.616,-0.215,0.144,0.176,-0.563,1.245
2024-10-15 13:57:09.461,74580.916,0.147,0.538,-0.83,-0.048,-0.025,-0.035,-0.412,-0.166,0.062,0.175,-0.568,1.248
2024-10-15 13:57:09.471,74580.926,0.145,0.541,-0.829,-0.038,0.034,-0.039,-0.303,-0.164,-0.032,0.174,-0.571,1.248
2024-10-15 13:57:09.481,74580.936,0.143,0.543,-0.827,-0.026,0.044,-0.023,-0.263,-0.222,-0.114,0.172,-0.574,1.248
2024-10-15 13:57:09.491,74580.946,0.141,0.545,-0.826,-0.004,0.002,-0.014,-0.21,-0.287,-0.166,0.168,-0.577,1.247
2024-10-15 13:57:09.502,74580.956,0.137,0.547,-0.826,0.009,-0.044,-0.011,-0.07,-0.31,-0.189,0.164,-0.578,1.245
2024-10-15 13:57:09.512,74580.966,0.134,0.547,-0.826,0.003,-0.041,-0.0,0.075,-0.277,-0.204,0.16,-0.579,1.243
2024-10-15 13:57:09.522,74580.976,0.13,0.546,-0.827,-0.016,0.009,0.005,0.158,-0.235,-0.237,0.156,-0.578,1.24
2024-10-15 13:57:09.532,74580.985,0.127,0.545,-0.828,-0.033,0.021,0.008,0.096,-0.184,-0.228,0.152,-0.577,1.237
2024-10-15 13:57:09.542,74580.995,0.125,0.546,-0.829,-0.04,-0.022,0.007,-0.102,-0.117,-0.199,0.15,-0.577,1.234
2024-10-15 13:57:09.552,74581.005,0.123,0.547,-0.828,-0.039,-0.048,-0.009,-0.292,-0.073,-0.195,0.148,-0.579,1.233
2024-10-15 13:57:09.562,74581.015,0.122,0.551,-0.825,-0.037,-0.061,-0.039,-0.568,-0.031,-0.183,0.146,-0.584,1.231
2024-10-15 13:57:09.573,74581.025,0.121,0.558,-0.821,-0.032,-0.074,-0.051,-0.929,-0.013,-0.123,0.146,-0.591,1.23
2024-10-15 13:57:09.582,74581.035,0.12,0.567,-0.815,-0.02,-0.08,-0.04,-1.252,-0.006,-0.075,0.146,-0.602,1.231
2024-10-15 13:57:09.592,74581.045,0.12,0.578,-0.808,-0.006,-0.079,-0.053,-1.421,0.009,-0.039,0.147,-0.616,1.233
2024-10-15 13:57:09.602,74581.055,0.12,0.589,-0.799,-0.008,-0.072,-0.066,-1.468,0.018,-0.025,0.148,-0.63,1.235
2024-10-15 13:57:09.612,74581.065,0.12,0.601,-0.79,-0.012,-0.043,-0.084,-1.431,0.043,-0.035,0.15,-0.645,1.237
2024-10-15 13:57:09.622,74581.075,0.12,0.612,-0.782,-0.012,-0.003,-0.078,-1.389,0.05,-0.047,0.152,-0.658,1.24
2024-10-15 13:57:09.632,74581.085,0.12,0.623,-0.773,-0.015,0.01,-0.072,-1.418,0.035,-0.045,0.154,-0.672,1.242
2024-10-15 13:57:09.642,74581.095,0.12,0.634,-0.764,-0.012,-0.014,-0.053,-1.5,0.029,-0.041,0.155,-0.687,1.244
2024-10-15 13:57:09.652,74581.105,0.12,0.646,-0.754,-0.015,-0.033,-0.024,-1.547,0.062,-0.026,0.158,-0.702,1.247
2024-10-15 13:57:09.662,74581.115,0.12,0.657,-0.744,-0.023,-0.034,0.009,-1.523,0.122,-0.002,0.16,-0.717,1.25
2024-10-15 13:57:09.672,74581.125,0.122,0.668,-0.734,-0.028,-0.031,0.028,-1.466,0.178,0.039,0.164,-0.732,1.253
2024-10-15 13:57:09.682,74581.135,0.123,0.678,-0.724,-0.03,-0.006,0.021,-1.36,0.226,0.07,0.169,-0.746,1.257
2024-10-15 13:57:09.692,74581.145,0.126,0.688,-0.715,-0.025,0.059,0.006,-1.215,0.268,0.074,0.174,-0.758,1.261
2024-10-15 13:57:09.703,74581.155,0.128,0.696,-0.707,-0.018,0.126,-0.001,-1.06,0.288,0.055,0.179,-0.769,1.265
2024-10-15 13:57:09.712,74581.165,0.13,0.703,-0.7,-0.008,0.169,-0.007,-0.927,0.267,0.048,0.184,-0.779,1.268
2024-10-15 13:57:09.721,74581.175,0.133,0.709,-0.693,0.004,0.176,0.003,-0.867,0.233,0.079,0.189,-0.788,1.271
2024-10-15 13:57:09.732,74581.185,0.135,0.714,-0.687,0.014,0.155,0.028,-0.823,0.186,0.129,0.194,-0.796,1.275
2024-10-15 13:57:09.742,74581.195,0.137,0.72,-0.681,0.022,0.136,0.066,-0.827,0.157,0.197,0.199,-0.803,1.279
2024-10-15 13:57:09.751,74581.205,0.14,0.725,-0.674,0.024,0.106,0.104,-0.904,0.14,0.252,0.204,-0.811,1.285
2024-10-15 13:57:09.761,74581.215,0.143,0.731,-0.667,0.02,0.099,0.129,-0.887,0.134,0.277,0.211,-0.82,1.292
2024-10-15 13:57:09.771,74581.225,0.146,0.736,-0.661,0.005,0.091,0.141,-0.788,0.12,0.287,0.217,-0.827,1.298
2024-10-15 13:57:09.782,74581.235,0.148,0.74,-0.656,-0.001,0.084,0.122,-0.689,0.088,0.286,0.223,-0.834,1.305
2024-10-15 13:57:09.792,74581.245,0.151,0.744,-0.651,0.004,0.109,0.09,-0.574,0.009,0.285,0.228,-0.839,1.311
2024-10-15 13:57:09.802,74581.255,0.153,0.747,-0.647,0.014,0.109,0.073,-0.453,-0.083,0.288,0.232,-0.844,1.317
2024-10-15 13:57:09.812,74581.265,0.154,0.749,-0.644,0.025,0.064,0.066,-0.296,-0.137,0.274,0.235,-0.847,1.322
2024-10-15 13:57:09.822,74581.275,0.155,0.75,-0.643,0.031,0.037,0.075,-0.123,-0.176,0.233,0.236,-0.848,1.327
2024-10-15 13:57:09.832,74581.285,0.155,0.75,-0.643,0.023,0.038,0.086,0.062,-0.189,0.188,0.237,-0.848,1.33
2024-10-15 13:57:09.841,74581.295,0.155,0.749,-0.645,0.012,0.03,0.09,0.266,-0.191,0.156,0.237,-0.846,1.332
2024-10-15 13:57:09.852,74581.305,0.155,0.746,-0.648,0.004,0.006,0.069,0.483,-0.185,0.151,0.235,-0.842,1.333
2024-10-15 13:57:09.861,74581.315,0.155,0.742,-0.652,0.005,-0.018,0.041,0.679,-0.179,0.158,0.234,-0.836,1.333
2024-10-15 13:57:09.872,74581.325,0.155,0.737,-0.658,0.009,-0.034,0.003,0.872,-0.186,0.134,0.232,-0.828,1.333
2024-10-15 13:57:09.881,74581.335,0.155,0.73,-0.666,0.02,-0.04,-0.034,1.051,-0.19,0.089,0.229,-0.818,1.331
2024-10-15 13:57:09.892,74581.345,0.154,0.722,-0.674,0.037,-0.04,-0.048,1.197,-0.199,0.043,0.225,-0.807,1.328
2024-10-15 13:57:09.902,74581.355,0.153,0.714,-0.683,0.057,-0.036,-0.041,1.278,-0.208,0.0,0.22,-0.795,1.325
2024-10-15 13:57:09.911,74581.365,0.151,0.705,-0.693,0.073,-0.04,-0.025,1.298,-0.201,-0.034,0.215,-0.783,1.321
2024-10-15 13:57:09.922,74581.375,0.15,0.696,-0.702,0.081,-0.055,-0.007,1.261,-0.199,-0.058,0.21,-0.77,1.316
2024-10-15 13:57:09.931,74581.385,0.148,0.688,-0.711,0.086,-0.062,-0.006,1.224,-0.234,-0.082,0.205,-0.758,1.312
2024-10-15 13:57:09.941,74581.395,0.145,0.679,-0.72,0.09,-0.061,-0.014,1.204,-0.273,-0.078,0.199,-0.747,1.307
2024-10-15 13:57:09.951,74581.405,0.143,0.67,-0.728,0.094,-0.065,-0.008,1.217,-0.275,-0.057,0.194,-0.735,1.303
2024-10-15 13:57:09.962,74581.415,0.141,0.661,-0.737,0.094,-0.059,-0.014,1.235,-0.245,-0.026,0.189,-0.723,1.3
2024-10-15 13:57:09.971,74581.425,0.139,0.653,-0.745,0.083,-0.042,-0.044,1.105,-0.212,0.024,0.185,-0.711,1.297
2024-10-15 13:57:09.981,74581.435,0.137,0.645,-0.752,0.069,-0.012,-0.079,1.048,-0.248,0.016,0.181,-0.701,1.294
2024-10-15 13:57:09.991,74581.445,0.136,0.637,-0.759,0.062,-0.009,-0.106,0.96,-0.276,0.025,0.177,-0.691,1.292
2024-10-15 13:57:10.001,74581.455,0.134,0.63,-0.765,0.058,-0.057,-0.098,0.832,-0.267,0.039,0.173,-0.682,1.291
2024-10-15 13:57:10.011,74581.465,0.132,0.625,-0.77,0.056,-0.049,-0.038,0.606,-0.188,0.036,0.17,-0.675,1.29
2024-10-15 13:57:10.022,74581.475,0.131,0.621,-0.773,0.048,-0.06,0.04,0.294,-0.082,0.025,0.168,-0.67,1.289
2024-10-15 13:57:10.031,74581.485,0.131,0.62,-0.774,0.036,-0.091,0.075,0.086,-0.01,-0.012,0.168,-0.668,1.289
2024-10-15 13:57:10.041,74581.495,0.131,0.62,-0.774,0.029,-0.097,0.062,-0.037,0.017,-0.02,0.168,-0.668,1.288
2024-10-15 13:57:10.051,74581.505,0.131,0.62,-0.773,0.028,-0.089,0.017,-0.145,0.025,0.008,0.168,-0.669,1.289
2024-10-15 13:57:10.061,74581.515,0.131,0.622,-0.772,0.035,-0.057,-0.014,-0.15,0.006,0.012,0.168,-0.671,1.289
2024-10-15 13:57:10.071,74581.525,0.131,0.622,-0.772,0.039,-0.017,-0.028,0.053,-0.027,-0.005,0.168,-0.671,1.289
2024-10-15 13:57:10.081,74581.535,0.131,0.621,-0.773,0.028,0.026,-0.034,0.323,-0.017,-0.003,0.168,-0.669,1.289
2024-10-15 13:57:10.092,74581.545,0.131,0.617,-0.776,0.015,0.094,-0.03,0.568,-0.013,-0.012,0.167,-0.665,1.288
2024-10-15 13:57:10.101,74581.555,0.131,0.612,-0.78,0.009,0.149,-0.016,0.653,0.039,0.021,0.166,-0.659,1.286
2024-10-15 13:57:10.111,74581.565,0.131,0.607,-0.784,0.002,0.13,-0.024,0.779,0.01,0.01,0.166,-0.652,1.285
2024-10-15 13:57:10.121,74581.575,0.131,0.6,-0.789,0.014,0.065,0.007,0.963,0.015,-0.044,0.165,-0.643,1.283
2024-10-15 13:57:10.132,74581.584,0.131,0.592,-0.795,0.041,0.059,0.019,1.14,-0.046,-0.07,0.163,-0.633,1.28
2024-10-15 13:57:10.141,74581.594,0.13,0.582,-0.802,0.066,0.076,0.038,1.196,-0.089,-0.049,0.161,-0.622,1.277
2024-10-15 13:57:10.150,74581.604,0.129,0.573,-0.81,0.085,0.058,0.052,1.261,-0.142,-0.087,0.158,-0.61,1.274
2024-10-15 13:57:10.161,74581.614,0.127,0.562,-0.817,0.083,0.034,0.048,1.308,-0.162,-0.166,0.154,-0.597,1.27
2024-10-15 13:57:10.171,74581.624,0.124,0.552,-0.825,0.058,0.003,0.057,1.316,-0.142,-0.225,0.15,-0.584,1.265
2024-10-15 13:57:10.181,74581.634,0.122,0.542,-0.832,0.032,-0.021,0.088,1.162,-0.043,-0.203,0.146,-0.572,1.261
2024-10-15 13:57:10.191,74581.644,0.121,0.533,-0.837,0.014,-0.058,0.109,0.914,0.063,-0.163,0.144,-0.562,1.257
2024-10-15 13:57:10.201,74581.654,0.121,0.527,-0.841,0.012,-0.091,0.11,0.615,0.089,-0.131,0.143,-0.555,1.254
2024-10-15 13:57:10.211,74581.664,0.121,0.523,-0.843,0.02,-0.129,0.074,0.258,0.029,-0.099,0.143,-0.551,1.252
2024-10-15 13:57:10.221,74581.674,0.121,0.523,-0.844,0.036,-0.153,0.052,-0.041,-0.065,-0.089,0.142,-0.55,1.25
2024-10-15 13:57:10.230,74581.684,0.119,0.524,-0.843,0.044,-0.136,0.022,-0.198,-0.145,-0.081,0.14,-0.551,1.25
2024-10-15 13:57:10.241,74581.694,0.118,0.526,-0.842,0.028,-0.091,0.014,-0.229,-0.181,-0.058,0.139,-0.554,1.249
2024-10-15 13:57:10.251,74581.704,0.116,0.527,-0.842,-0.005,-0.035,0.019,-0.091,-0.184,-0.052,0.137,-0.555,1.249
2024-10-15 13:57:10.261,74581.714,0.114,0.527,-0.842,-0.041,0.01,0.026,0.246,-0.165,-0.072,0.134,-0.555,1.248
2024-10-15 13:57:10.271,74581.724,0.112,0.523,-0.845,-0.064,0.049,0.021,0.73,-0.149,-0.111,0.132,-0.55,1.246
2024-10-15 13:57:10.281,74581.734,0.11,0.515,-0.85,-0.074,0.109,0.016,1.287,-0.179,-0.183,0.129,-0.54,1.243
2024-10-15 13:57:10.291,74581.744,0.107,0.502,-0.858,-0.07,0.176,0.019,1.711,-0.258,-0.273,0.124,-0.526,1.238
2024-10-15 13:57:10.301,74581.754,0.103,0.487,-0.867,-0.058,0.185,0.033,1.858,-0.327,-0.321,0.118,-0.508,1.232
2024-10-15 13:57:10.311,74581.764,0.098,0.472,-0.876,-0.048,0.108,0.057,1.539,-0.421,-0.277,0.112,-0.492,1.227
2024-10-15 13:57:10.321,74581.774,0.094,0.462,-0.882,-0.048,-0.004,0.096,0.624,-0.304,-0.098,0.106,-0.481,1.223
2024-10-15 13:57:10.331,74581.784,0.092,0.461,-0.883,-0.067,-0.115,0.125,-0.167,-0.183,0.056,0.104,-0.479,1.223
2024-10-15 13:57:10.342,74581.794,0.091,0.463,-0.882,-0.122,-0.191,-0.013,-0.223,0.004,0.06,0.103,-0.481,1.224
2024-10-15 13:57:10.351,74581.804,0.092,0.463,-0.882,-0.175,-0.129,-0.15,0.247,0.132,-0.02,0.104,-0.481,1.224
2024-10-15 13:57:10.361,74581.814,0.093,0.459,-0.884,-0.174,0.063,-0.122,0.612,0.15,-0.071,0.105,-0.477,1.223
2024-10-15 13:57:10.371,74581.824,0.094,0.453,-0.887,-0.112,0.176,-0.102,0.724,0.044,-0.074,0.105,-0.47,1.221
2024-10-15 13:57:10.380,74581.834,0.093,0.447,-0.89,-0.034,0.138,-0.095,0.62,-0.053,-0.029,0.105,-0.463,1.22
2024-10-15 13:57:10.391,74581.844,0.093,0.442,-0.892,0.008,0.038,-0.077,0.433,-0.042,0.042,0.104,-0.458,1.219
2024-10-15 13:57:10.401,74581.854,0.093,0.439,-0.894,0.006,0.004,-0.039,0.317,0.014,0.082,0.104,-0.454,1.22
2024-10-15 13:57:10.411,74581.864,0.094,0.436,-0.895,-0.013,0.015,0.004,0.286,0.034,0.083,0.104,-0.451,1.22
2024-10-15 13:57:10.421,74581.874,0.094,0.434,-0.896,-0.01,-0.013,0.057,0.222,-0.035,0.056,0.105,-0.449,1.221
2024-10-15 13:57:10.431,74581.884,0.093,0.432,-0.897,0.021,-0.048,0.1,0.145,-0.16,0.019,0.104,-0.447,1.221
2024-10-15 13:57:10.441,74581.894,0.092,0.431,-0.898,0.051,-0.063,0.101,0.08,-0.251,-0.016,0.102,-0.446,1.221
2024-10-15 13:57:10.450,74581.904,0.089,0.431,-0.898,0.059,-0.071,0.071,0.029,-0.274,-0.049,0.099,-0.445,1.22
2024-10-15 13:57:10.461,74581.914,0.086,0.431,-0.898,0.034,-0.06,0.022,-0.001,-0.259,-0.07,0.096,-0.445,1.22
2024-10-15 13:57:10.471,74581.924,0.084,0.431,-0.899,-0.008,-0.04,-0.036,-0.042,-0.205,-0.052,0.093,-0.445,1.219
2024-10-15 13:57:10.481,74581.934,0.082,0.432,-0.898,-0.037,-0.053,-0.085,-0.108,-0.13,0.01,0.091,-0.446,1.219
2024-10-15 13:57:10.491,74581.944,0.082,0.433,-0.898,-0.046,-0.06,-0.112,-0.129,-0.026,0.062,0.091,-0.447,1.219
2024-10-15 13:57:10.501,74581.954,0.082,0.434,-0.897,-0.037,-0.021,-0.087,-0.131,-0.039,0.036,0.091,-0.449,1.22
2024-10-15 13:57:10.510,74581.964,0.081,0.435,-0.897,-0.019,0.007,-0.05,-0.102,-0.143,0.005,0.09,-0.45,1.22
2024-10-15 13:57:10.520,74581.974,0.079,0.435,-0.897,-0.004,0.017,-0.008,0.027,-0.228,0.024,0.088,-0.45,1.221
2024-10-15 13:57:10.530,74581.984,0.077,0.435,-0.897,0.006,0.025,0.031,0.075,-0.266,0.041,0.086,-0.45,1.221
2024-10-15 13:57:10.540,74581.994,0.075,0.434,-0.898,0.004,0.045,0.04,0.1,-0.284,0.038,0.083,-0.449,1.221
2024-10-15 13:57:10.550,74582.004,0.073,0.433,-0.899,-0.021,0.058,0.007,0.171,-0.264,0.025,0.081,-0.447,1.222
2024-10-15 13:57:10.560,74582.014,0.07,0.431,-0.9,-0.047,0.03,-0.015,0.193,-0.261,0.042,0.078,-0.445,1.222
2024-10-15 13:57:10.570,74582.024,0.068,0.429,-0.901,-0.063,0.018,-0.024,0.131,-0.28,0.078,0.076,-0.444,1.222
2024-10-15 13:57:10.580,74582.034,0.066,0.428,-0.901,-0.072,0.042,-0.026,0.017,-0.352,0.148,0.073,-0.443,1.223
2024-10-15 13:57:10.591,74582.044,0.063,0.429,-0.901,-0.082,0.034,-0.041,-0.139,-0.425,0.203,0.07,-0.443,1.225
2024-10-15 13:57:10.601,74582.054,0.06,0.43,-0.901,-0.108,0.039,-0.054,-0.213,-0.398,0.219,0.067,-0.445,1.228
2024-10-15 13:57:10.610,74582.064,0.058,0.432,-0.9,-0.152,0.074,-0.075,-0.278,-0.31,0.254,0.064,-0.447,1.231
2024-10-15 13:57:10.620,74582.074,0.057,0.435,-0.899,-0.197,0.061,-0.087,-0.365,-0.152,0.328,0.064,-0.45,1.234
2024-10-15 13:57:10.630,74582.084,0.058,0.439,-0.897,-0.214,0.01,-0.074,-0.513,0.027,0.4,0.065,-0.454,1.238
2024-10-15 13:57:10.640,74582.094,0.061,0.444,-0.894,-0.202,-0.041,-0.033,-0.666,0.181,0.381,0.068,-0.46,1.243
2024-10-15 13:57:10.650,74582.104,0.064,0.45,-0.891,-0.148,-0.052,0.035,-0.63,0.275,0.303,0.072,-0.466,1.248
2024-10-15 13:57:10.660,74582.114,0.068,0.454,-0.888,-0.058,-0.077,0.088,-0.446,0.291,0.249,0.077,-0.471,1.251
2024-10-15 13:57:10.670,74582.124,0.072,0.457,-0.887,0.053,-0.144,0.075,-0.159,0.31,0.217,0.081,-0.474,1.254
2024-10-15 13:57:10.680,74582.134,0.075,0.456,-0.887,0.168,-0.138,0.047,0.216,0.239,0.152,0.085,-0.474,1.256
2024-10-15 13:57:10.690,74582.144,0.077,0.453,-0.888,0.268,-0.065,0.018,0.429,0.093,0.068,0.087,-0.47,1.257
2024-10-15 13:57:10.700,74582.154,0.077,0.45,-0.89,0.352,-0.037,0.029,0.334,-0.137,0.019,0.087,-0.466,1.257
2024-10-15 13:57:10.710,74582.164,0.075,0.448,-0.891,0.417,-0.08,0.049,0.146,-0.319,-0.0,0.084,-0.464,1.257
2024-10-15 13:57:10.720,74582.173,0.072,0.447,-0.892,0.433,-0.137,0.036,0.082,-0.303,-0.061,0.081,-0.463,1.256
2024-10-15 13:57:10.731,74582.183,0.069,0.446,-0.892,0.379,-0.174,0.078,0.017,-0.225,-0.123,0.078,-0.463,1.255
2024-10-15 13:57:10.740,74582.193,0.067,0.447,-0.892,0.297,-0.164,0.103,-0.243,-0.263,-0.157,0.075,-0.464,1.254
2024-10-15 13:57:10.750,74582.203,0.063,0.451,-0.89,0.249,-0.144,0.071,-0.495,-0.397,-0.202,0.071,-0.468,1.252
2024-10-15 13:57:10.760,74582.213,0.058,0.456,-0.888,0.2,-0.079,0.036,-0.537,-0.497,-0.208,0.065,-0.473,1.25
2024-10-15 13:57:10.770,74582.223,0.053,0.459,-0.887,0.11,0.009,0.011,-0.232,-0.438,-0.219,0.059,-0.477,1.248
2024-10-15 13:57:10.780,74582.233,0.049,0.459,-0.887,0.003,0.106,0.039,0.343,-0.152,-0.237,0.055,-0.477,1.246
2024-10-15 13:57:10.790,74582.243,0.048,0.455,-0.889,-0.075,0.198,0.144,0.469,-0.062,-0.144,0.053,-0.472,1.243
2024-10-15 13:57:10.800,74582.253,0.045,0.452,-0.891,-0.077,0.218,0.106,0.247,-0.378,-0.114,0.051,-0.469,1.242
2024-10-15 13:57:10.810,74582.263,0.04,0.45,-0.892,-0.039,0.15,0.068,0.158,-0.687,-0.138,0.045,-0.467,1.24
2024-10-15 13:57:10.820,74582.273,0.033,0.449,-0.893,-0.075,0.162,0.047,0.133,-0.777,-0.094,0.036,-0.466,1.239
2024-10-15 13:57:10.830,74582.283,0.026,0.447,-0.894,-0.2,0.224,0.006,0.228,-0.641,-0.014,0.029,-0.464,1.238
2024-10-15 13:57:10.840,74582.293,0.021,0.445,-0.895,-0.337,0.222,-0.013,0.413,-0.391,0.027,0.024,-0.461,1.238
2024-10-15 13:57:10.850,74582.303,0.019,0.44,-0.898,-0.453,0.165,-0.017,0.513,-0.133,0.008,0.021,-0.456,1.238
2024-10-15 13:57:10.860,74582.313,0.019,0.436,-0.9,-0.515,0.107,-0.005,0.585,0.066,0.011,0.021,-0.451,1.238
2024-10-15 13:57:10.870,74582.323,0.02,0.43,-0.902,-0.495,0.045,0.008,0.518,0.129,0.065,0.022,-0.445,1.238
2024-10-15 13:57:10.880,74582.333,0.021,0.426,-0.904,-0.382,-0.028,-0.005,0.421,0.098,0.106,0.024,-0.44,1.239
2024-10-15 13:57:10.890,74582.343,0.022,0.423,-0.906,-0.235,-0.076,-0.029,0.303,0.075,0.074,0.025,-0.437,1.24
2024-10-15 13:57:10.900,74582.353,0.024,0.421,-0.907,-0.118,-0.12,-0.06,0.082,0.131,0.053,0.026,-0.434,1.241
2024-10-15 13:57:10.910,74582.363,0.025,0.422,-0.906,-0.039,-0.17,-0.082,-0.374,0.058,0.187,0.027,-0.436,1.242
2024-10-15 13:57:10.920,74582.373,0.026,0.426,-0.904,0.03,-0.197,-0.133,-0.39,-0.063,0.186,0.028,-0.44,1.244
2024-10-15 13:57:10.930,74582.383,0.026,0.427,-0.904,0.085,-0.124,-0.131,0.184,0.089,0.104,0.029,-0.441,1.246
2024-10-15 13:57:10.940,74582.393,0.029,0.424,-0.905,0.074,0.014,-0.137,0.516,0.347,0.067,0.032,-0.437,1.247
2024-10-15 13:57:10.950,74582.403,0.033,0.418,-0.908,0.077,0.092,-0.072,0.75,0.467,0.026,0.036,-0.431,1.247
2024-10-15 13:57:10.960,74582.413,0.037,0.411,-0.911,0.173,0.018,0.038,0.816,0.409,0.031,0.04,-0.423,1.247
2024-10-15 13:57:10.970,74582.423,0.04,0.404,-0.914,0.327,-0.174,0.084,0.689,0.179,0.015,0.043,-0.416,1.247
2024-10-15 13:57:10.980,74582.433,0.04,0.398,-0.916,0.479,-0.244,0.129,0.519,-0.115,-0.091,0.043,-0.41,1.246
2024-10-15 13:57:10.989,74582.443,0.037,0.394,-0.918,0.556,-0.224,0.129,0.321,-0.304,-0.254,0.04,-0.405,1.244
2024-10-15 13:57:10.999,74582.453,0.033,0.392,-0.919,0.521,-0.19,0.072,0.154,-0.255,-0.341,0.036,-0.403,1.241
2024-10-15 13:57:11.010,74582.463,0.03,0.392,-0.92,0.373,-0.082,0.005,-0.012,-0.129,-0.252,0.033,-0.403,1.237
2024-10-15 13:57:11.020,74582.473,0.029,0.392,-0.92,0.211,0.04,-0.009,0.044,-0.041,-0.113,0.031,-0.403,1.235
2024-10-15 13:57:11.029,74582.483,0.029,0.389,-0.921,0.097,0.196,0.021,0.612,0.096,-0.129,0.031,-0.4,1.234
2024-10-15 13:57:11.040,74582.493,0.03,0.382,-0.924,0.026,0.335,0.114,0.922,0.149,-0.062,0.032,-0.391,1.233
2024-10-15 13:57:11.050,74582.503,0.029,0.376,-0.926,0.021,0.325,0.165,0.169,-0.322,0.066,0.031,-0.386,1.233
2024-10-15 13:57:11.060,74582.513,0.024,0.377,-0.926,0.111,0.068,0.164,-0.253,-0.8,-0.054,0.026,-0.387,1.233
2024-10-15 13:57:11.070,74582.523,0.015,0.379,-0.925,0.109,-0.068,0.151,-0.16,-0.913,-0.08,0.016,-0.389,1.232
2024-10-15 13:57:11.080,74582.533,0.008,0.38,-0.925,-0.127,0.074,0.039,-0.086,-0.664,0.042,0.008,-0.39,1.232
2024-10-15 13:57:11.090,74582.543,0.003,0.381,-0.925,-0.372,0.215,-0.026,-0.005,-0.318,0.11,0.004,-0.391,1.233
2024-10-15 13:57:11.100,74582.553,0.002,0.38,-0.925,-0.547,0.195,-0.066,0.106,-0.079,0.111,0.002,-0.39,1.234
2024-10-15 13:57:11.110,74582.563,0.003,0.378,-0.926,-0.648,0.081,-0.107,0.261,0.099,0.103,0.003,-0.388,1.235
2024-10-15 13:57:11.120,74582.573,0.004,0.375,-0.927,-0.622,0.035,-0.072,0.401,0.147,0.122,0.005,-0.385,1.236
2024-10-15 13:57:11.129,74582.583,0.006,0.371,-0.929,-0.481,0.035,-0.041,0.48,0.145,0.08,0.007,-0.38,1.237
2024-10-15 13:57:11.139,74582.593,0.008,0.367,-0.93,-0.313,-0.002,-0.031,0.473,0.14,0.03,0.008,-0.376,1.238
2024-10-15 13:57:11.149,74582.603,0.009,0.363,-0.932,-0.177,-0.063,-0.01,0.276,0.15,0.104,0.01,-0.372,1.238
2024-10-15 13:57:11.159,74582.613,0.011,0.362,-0.932,-0.068,-0.115,-0.022,-0.07,0.089,0.295,0.012,-0.371,1.241
2024-10-15 13:57:11.169,74582.623,0.012,0.363,-0.932,0.041,-0.074,-0.074,0.014,0.016,0.273,0.013,-0.371,1.244
2024-10-15 13:57:11.179,74582.633,0.014,0.36,-0.933,0.124,0.021,-0.049,0.494,0.151,0.162,0.015,-0.369,1.246
2024-10-15 13:57:11.190,74582.643,0.016,0.355,-0.935,0.143,0.066,-0.088,0.64,0.251,0.075,0.017,-0.363,1.247
2024-10-15 13:57:11.199,74582.653,0.019,0.35,-0.937,0.197,-0.065,-0.102,0.439,0.183,0.039,0.02,-0.357,1.248
2024-10-15 13:57:11.209,74582.663,0.02,0.347,-0.938,0.323,-0.269,-0.102,0.122,0.042,0.026,0.021,-0.354,1.248
2024-10-15 13:57:11.219,74582.673,0.02,0.346,-0.938,0.432,-0.404,-0.122,0.117,-0.036,-0.086,0.021,-0.353,1.248
2024-10-15 13:57:11.229,74582.683,0.019,0.344,-0.939,0.46,-0.362,-0.091,0.214,-0.052,-0.173,0.02,-0.352,1.246
2024-10-15 13:57:11.239,74582.693,0.017,0.343,-0.939,0.412,-0.229,-0.005,0.121,-0.136,-0.196,0.018,-0.35,1.244
2024-10-15 13:57:11.249,74582.703,0.015,0.342,-0.939,0.376,-0.147,0.076,-0.034,-0.219,-0.199,0.016,-0.35,1.242
2024-10-15 13:57:11.259,74582.713,0.012,0.343,-0.939,0.339,-0.093,0.113,-0.089,-0.262,-0.192,0.013,-0.35,1.24
2024-10-15 13:57:11.269,74582.723,0.009,0.344,-0.939,0.241,0.017,0.122,0.026,-0.309,-0.18,0.009,-0.351,1.238
2024-10-15 13:57:11.279,74582.733,0.006,0.341,-0.94,0.124,0.119,0.152,0.671,-0.095,-0.321,0.006,-0.348,1.235
2024-10-15 13:57:11.289,74582.743,0.004,0.333,-0.943,0.027,0.149,0.223,0.808,0.025,-0.264,0.005,-0.339,1.232
2024-10-15 13:57:11.299,74582.753,0.002,0.33,-0.944,-0.011,0.057,0.222,-0.144,-0.463,-0.2,0.002,-0.336,1.23
2024-10-15 13:57:11.309,74582.763,-0.005,0.333,-0.943,0.059,-0.099,0.117,-0.468,-0.857,-0.295,-0.006,-0.34,1.227
2024-10-15 13:57:11.319,74582.772,-0.014,0.338,-0.941,-0.008,-0.006,0.035,-0.525,-0.782,-0.124,-0.015,-0.345,1.225
2024-10-15 13:57:11.329,74582.782,-0.02,0.342,-0.94,-0.286,0.25,-0.036,-0.295,-0.394,0.028,-0.021,-0.349,1.224
2024-10-15 13:57:11.339,74582.792,-0.021,0.343,-0.939,-0.514,0.42,0.015,0.04,0.001,0.108,-0.023,-0.35,1.225
2024-10-15 13:57:11.349,74582.802,-0.02,0.342,-0.939,-0.643,0.356,0.027,0.06,0.163,0.187,-0.021,-0.349,1.227
2024-10-15 13:57:11.359,74582.812,-0.018,0.342,-0.94,-0.63,0.239,-0.032,0.086,0.139,0.153,-0.019,-0.349,1.228
2024-10-15 13:57:11.369,74582.822,-0.016,0.341,-0.94,-0.503,0.128,-0.076,0.01,0.155,0.137,-0.017,-0.348,1.23
2024-10-15 13:57:11.379,74582.832,-0.014,0.342,-0.94,-0.38,-0.064,-0.101,-0.067,0.218,0.102,-0.015,-0.349,1.231
2024-10-15 13:57:11.389,74582.842,-0.011,0.343,-0.939,-0.277,-0.226,-0.09,-0.278,0.311,0.096,-0.012,-0.35,1.232
2024-10-15 13:57:11.399,74582.852,-0.008,0.348,-0.937,-0.174,-0.337,-0.109,-0.862,0.176,0.253,-0.009,-0.355,1.234
2024-10-15 13:57:11.409,74582.862,-0.007,0.356,-0.934,-0.054,-0.276,-0.149,-0.715,-0.115,0.196,-0.008,-0.364,1.236
2024-10-15 13:57:11.419,74582.872,-0.008,0.359,-0.933,0.05,-0.005,-0.077,0.137,-0.082,0.184,-0.008,-0.367,1.238
2024-10-15 13:57:11.429,74582.882,-0.007,0.356,-0.935,0.036,0.299,-0.089,0.431,0.112,0.292,-0.007,-0.364,1.241
2024-10-15 13:57:11.439,74582.892,-0.004,0.351,-0.936,0.005,0.412,-0.03,0.524,0.36,0.258,-0.004,-0.359,1.244
2024-10-15 13:57:11.449,74582.902,0.002,0.347,-0.938,0.067,0.146,0.046,0.32,0.576,0.257,0.002,-0.355,1.247
2024-10-15 13:57:11.459,74582.912,0.008,0.346,-0.938,0.213,-0.324,0.042,-0.023,0.563,0.29,0.009,-0.353,1.25
2024-10-15 13:57:11.469,74582.922,0.013,0.347,-0.938,0.454,-0.568,0.049,-0.301,0.259,0.139,0.014,-0.355,1.252
2024-10-15 13:57:11.479,74582.932,0.014,0.351,-0.936,0.673,-0.555,0.038,-0.384,-0.111,-0.137,0.015,-0.358,1.252
2024-10-15 13:57:11.489,74582.942,0.011,0.354,-0.935,0.737,-0.436,0.049,-0.334,-0.306,-0.295,0.011,-0.362,1.25
2024-10-15 13:57:11.499,74582.952,0.007,0.357,-0.934,0.641,-0.255,0.084,-0.191,-0.292,-0.269,0.007,-0.365,1.247
2024-10-15 13:57:11.509,74582.962,0.003,0.358,-0.934,0.47,-0.028,0.08,0.036,-0.292,-0.167,0.004,-0.366,1.244
2024-10-15 13:57:11.519,74582.972,0.0,0.356,-0.934,0.3,0.196,0.049,0.215,-0.367,-0.018,0.0,-0.364,1.243
2024-10-15 13:57:11.529,74582.982,-0.004,0.352,-0.936,0.175,0.37,0.014,0.717,-0.379,-0.029,-0.004,-0.36,1.243
2024-10-15 13:57:11.539,74582.992,-0.006,0.343,-0.939,0.082,0.468,0.04,1.252,-0.157,-0.131,-0.007,-0.35,1.242
2024-10-15 13:57:11.549,74583.002,-0.008,0.334,-0.943,0.006,0.39,0.135,0.541,-0.307,-0.007,-0.009,-0.34,1.242
2024-10-15 13:57:11.559,74583.012,-0.014,0.332,-0.943,0.023,0.078,0.129,0.012,-0.769,-0.161,-0.015,-0.338,1.241
2024-10-15 13:57:11.569,74583.022,-0.023,0.332,-0.943,0.052,-0.181,0.147,-0.017,-0.984,-0.218,-0.024,-0.338,1.239
2024-10-15 13:57:11.579,74583.032,-0.032,0.332,-0.943,-0.164,-0.078,0.084,-0.033,-0.815,-0.108,-0.034,-0.338,1.237
2024-10-15 13:57:11.589,74583.042,-0.038,0.332,-0.943,-0.442,0.175,0.048,0.006,-0.46,-0.023,-0.041,-0.338,1.236
2024-10-15 13:57:11.599,74583.052,-0.041,0.331,-0.943,-0.686,0.232,0.009,0.161,-0.102,0.001,-0.044,-0.337,1.236
2024-10-15 13:57:11.608,74583.062,-0.04,0.33,-0.943,-0.864,0.141,-0.012,0.104,0.176,0.08,-0.043,-0.336,1.237
2024-10-15 13:57:11.619,74583.072,-0.038,0.329,-0.944,-0.845,0.105,-0.038,0.033,0.278,0.077,-0.04,-0.335,1.238
2024-10-15 13:57:11.628,74583.082,-0.035,0.329,-0.944,-0.621,0.066,-0.052,-0.107,0.318,0.099,-0.037,-0.336,1.238
2024-10-15 13:57:11.638,74583.092,-0.031,0.331,-0.943,-0.364,-0.075,-0.042,-0.156,0.35,0.118,-0.033,-0.337,1.24
2024-10-15 13:57:11.648,74583.102,-0.027,0.332,-0.943,-0.161,-0.143,-0.049,-0.128,0.417,0.119,-0.029,-0.338,1.241
2024-10-15 13:57:11.658,74583.112,-0.023,0.335,-0.942,-0.003,-0.11,-0.091,-0.464,0.338,0.242,-0.024,-0.341,1.243
2024-10-15 13:57:11.668,74583.122,-0.02,0.34,-0.94,0.12,-0.036,-0.147,-0.642,0.073,0.305,-0.021,-0.347,1.246
2024-10-15 13:57:11.679,74583.132,-0.019,0.344,-0.939,0.218,0.086,-0.134,0.02,0.027,0.23,-0.02,-0.351,1.248
2024-10-15 13:57:11.689,74583.142,-0.016,0.342,-0.94,0.2,0.254,-0.071,0.322,0.286,0.299,-0.017,-0.349,1.251
2024-10-15 13:57:11.698,74583.152,-0.012,0.339,-0.941,0.125,0.3,-0.007,0.305,0.491,0.305,-0.012,-0.345,1.254
2024-10-15 13:57:11.709,74583.162,-0.006,0.336,-0.942,0.193,0.074,0.079,0.176,0.509,0.256,-0.006,-0.343,1.257
2024-10-15 13:57:11.719,74583.172,-0.001,0.335,-0.942,0.346,-0.317,0.078,0.057,0.393,0.14,-0.001,-0.342,1.26
2024-10-15 13:57:11.729,74583.182,0.002,0.335,-0.942,0.509,-0.525,0.085,-0.072,0.131,-0.089,0.002,-0.342,1.26
2024-10-15 13:57:11.738,74583.192,0.001,0.337,-0.941,0.61,-0.548,0.08,-0.296,-0.195,-0.345,0.001,-0.344,1.258
2024-10-15 13:57:11.750,74583.202,-0.003,0.34,-0.94,0.601,-0.532,0.077,-0.235,-0.301,-0.506,-0.003,-0.347,1.253
2024-10-15 13:57:11.758,74583.212,-0.007,0.341,-0.94,0.453,-0.351,0.075,0.018,-0.22,-0.444,-0.008,-0.348,1.248
2024-10-15 13:57:11.768,74583.222,-0.01,0.34,-0.94,0.226,-0.038,0.05,0.214,-0.106,-0.232,-0.011,-0.347,1.244
2024-10-15 13:57:11.778,74583.232,-0.011,0.337,-0.941,0.077,0.229,0.026,0.408,-0.105,-0.064,-0.012,-0.344,1.243
2024-10-15 13:57:11.788,74583.242,-0.012,0.33,-0.944,0.015,0.411,-0.008,1.01,0.064,-0.161,-0.013,-0.337,1.242
2024-10-15 13:57:11.798,74583.252,-0.012,0.32,-0.947,-0.016,0.498,0.036,1.103,0.092,-0.119,-0.012,-0.325,1.24
2024-10-15 13:57:11.808,74583.262,-0.013,0.313,-0.95,-0.005,0.394,0.115,0.316,-0.433,-0.107,-0.014,-0.318,1.239
2024-10-15 13:57:11.818,74583.272,-0.02,0.311,-0.95,0.081,0.111,0.092,0.18,-0.833,-0.289,-0.021,-0.316,1.237
2024-10-15 13:57:11.828,74583.282,-0.029,0.309,-0.951,-0.005,-0.036,0.086,0.164,-0.694,-0.206,-0.03,-0.314,1.234
2024-10-15 13:57:11.838,74583.292,-0.034,0.308,-0.951,-0.306,0.071,0.04,-0.014,-0.271,-0.052,-0.035,-0.313,1.233
2024-10-15 13:57:11.848,74583.302,-0.035,0.31,-0.95,-0.547,0.128,0.049,-0.264,-0.014,0.013,-0.037,-0.315,1.233
2024-10-15 13:57:11.858,74583.312,-0.034,0.313,-0.949,-0.704,-0.008,0.008,-0.354,0.113,0.044,-0.036,-0.318,1.233
2024-10-15 13:57:11.867,74583.322,-0.032,0.316,-0.948,-0.718,-0.084,-0.054,-0.32,0.251,0.082,-0.034,-0.321,1.234
2024-10-15 13:57:11.878,74583.332,-0.029,0.319,-0.947,-0.59,-0.015,-0.052,-0.368,0.387,0.105,-0.031,-0.325,1.235
2024-10-15 13:57:11.888,74583.342,-0.025,0.323,-0.946,-0.417,-0.004,-0.041,-0.362,0.432,0.134,-0.026,-0.329,1.236
2024-10-15 13:57:11.898,74583.352,-0.02,0.326,-0.945,-0.245,-0.058,-0.048,-0.271,0.504,0.169,-0.021,-0.332,1.237
2024-10-15 13:57:11.908,74583.361,-0.014,0.328,-0.945,-0.09,-0.04,-0.084,-0.264,0.591,0.219,-0.015,-0.334,1.239
2024-10-15 13:57:11.918,74583.371,-0.008,0.332,-0.943,0.044,0.02,-0.108,-0.51,0.463,0.39,-0.009,-0.338,1.242
2024-10-15 13:57:11.928,74583.381,-0.004,0.336,-0.942,0.18,0.06,-0.126,-0.222,0.195,0.342,-0.004,-0.343,1.246
2024-10-15 13:57:11.938,74583.391,-0.001,0.335,-0.942,0.294,0.133,-0.013,0.41,0.223,0.258,-0.001,-0.341,1.25
2024-10-15 13:57:11.948,74583.401,0.002,0.33,-0.944,0.302,0.151,-0.022,0.534,0.227,0.181,0.002,-0.336,1.252
2024-10-15 13:57:11.958,74583.411,0.004,0.326,-0.945,0.35,-0.061,0.021,0.212,0.1,0.07,0.004,-0.332,1.253
2024-10-15 13:57:11.968,74583.421,0.004,0.326,-0.945,0.459,-0.364,-0.005,-0.145,-0.086,-0.083,0.004,-0.332,1.253
2024-10-15 13:57:11.978,74583.431,0.002,0.327,-0.945,0.504,-0.515,-0.044,-0.097,-0.122,-0.241,0.003,-0.334,1.251
2024-10-15 13:57:11.988,74583.441,0.0,0.328,-0.945,0.444,-0.465,-0.019,0.008,-0.132,-0.305,0.0,-0.334,1.249
2024-10-15 13:57:11.998,74583.451,-0.002,0.328,-0.945,0.334,-0.325,0.015,0.046,-0.208,-0.34,-0.002,-0.334,1.245
2024-10-15 13:57:12.008,74583.461,-0.006,0.327,-0.945,0.252,-0.152,0.049,0.046,-0.307,-0.32,-0.006,-0.333,1.242
2024-10-15 13:57:12.018,74583.471,-0.01,0.326,-0.945,0.16,0.021,0.077,0.088,-0.384,-0.217,-0.011,-0.333,1.239
2024-10-15 13:57:12.028,74583.481,-0.014,0.325,-0.946,0.056,0.18,0.097,0.217,-0.415,-0.134,-0.015,-0.331,1.237
2024-10-15 13:57:12.038,74583.491,-0.018,0.322,-0.947,-0.043,0.285,0.097,0.551,-0.254,-0.182,-0.019,-0.327,1.235
2024-10-15 13:57:12.047,74583.501,-0.02,0.316,-0.949,-0.141,0.307,0.106,0.536,-0.072,-0.137,-0.021,-0.321,1.234
2024-10-15 13:57:12.057,74583.511,-0.022,0.314,-0.949,-0.198,0.195,0.101,-0.054,-0.285,-0.087,-0.023,-0.319,1.233
2024-10-15 13:57:12.068,74583.521,-0.026,0.315,-0.949,-0.179,0.029,0.044,-0.299,-0.468,-0.126,-0.027,-0.321,1.231
2024-10-15 13:57:12.078,74583.531,-0.03,0.319,-0.947,-0.211,-0.013,0.02,-0.361,-0.408,-0.069,-0.032,-0.324,1.23
2024-10-15 13:57:12.088,74583.541,-0.033,0.321,-0.946,-0.36,0.068,-0.005,-0.183,-0.164,-0.08,-0.035,-0.327,1.229
2024-10-15 13:57:12.098,74583.551,-0.034,0.323,-0.946,-0.497,0.14,0.026,-0.1,0.119,-0.05,-0.036,-0.328,1.229
2024-10-15 13:57:12.108,74583.561,-0.032,0.324,-0.946,-0.561,0.075,0.033,-0.156,0.299,0.014,-0.034,-0.33,1.228
2024-10-15 13:57:12.118,74583.571,-0.029,0.326,-0.945,-0.505,0.031,0.018,-0.256,0.327,0.033,-0.03,-0.332,1.229
2024-10-15 13:57:12.128,74583.581,-0.026,0.328,-0.944,-0.345,0.005,-0.002,-0.254,0.349,0.039,-0.027,-0.334,1.229
2024-10-15 13:57:12.138,74583.591,-0.022,0.33,-0.944,-0.18,-0.019,-0.038,-0.137,0.406,0.057,-0.023,-0.336,1.229
2024-10-15 13:57:12.148,74583.601,-0.018,0.331,-0.944,-0.058,-0.006,-0.07,-0.055,0.452,0.089,-0.019,-0.337,1.23
2024-10-15 13:57:12.158,74583.611,-0.013,0.332,-0.943,0.043,0.026,-0.1,-0.187,0.278,0.129,-0.014,-0.338,1.231
2024-10-15 13:57:12.168,74583.621,-0.011,0.334,-0.942,0.135,0.055,-0.14,-0.286,0.038,0.097,-0.012,-0.341,1.233
2024-10-15 13:57:12.178,74583.631,-0.011,0.336,-0.942,0.189,0.05,-0.127,0.024,0.126,0.02,-0.011,-0.342,1.233
2024-10-15 13:57:12.188,74583.641,-0.008,0.335,-0.942,0.156,0.008,-0.001,0.115,0.331,0.003,-0.009,-0.341,1.233
2024-10-15 13:57:12.198,74583.651,-0.005,0.334,-0.942,0.133,-0.147,0.086,-0.061,0.346,-0.035,-0.005,-0.341,1.233
2024-10-15 13:57:12.208,74583.661,-0.003,0.336,-0.942,0.239,-0.318,0.094,-0.347,0.169,-0.075,-0.003,-0.343,1.232
2024-10-15 13:57:12.218,74583.671,-0.002,0.341,-0.94,0.381,-0.409,0.037,-0.527,-0.019,-0.154,-0.003,-0.347,1.231
2024-10-15 13:57:12.228,74583.681,-0.004,0.346,-0.938,0.444,-0.336,-0.029,-0.558,-0.113,-0.265,-0.004,-0.353,1.229
2024-10-15 13:57:12.238,74583.691,-0.006,0.351,-0.936,0.38,-0.145,-0.074,-0.542,-0.075,-0.288,-0.006,-0.358,1.226
2024-10-15 13:57:12.248,74583.701,-0.007,0.356,-0.935,0.242,0.013,-0.123,-0.561,0.053,-0.203,-0.007,-0.364,1.223
2024-10-15 13:57:12.257,74583.711,-0.006,0.361,-0.932,0.099,0.127,-0.147,-0.627,0.204,-0.1,-0.007,-0.37,1.222
2024-10-15 13:57:12.268,74583.721,-0.004,0.368,-0.93,-0.015,0.216,-0.137,-0.78,0.357,-0.021,-0.004,-0.377,1.221
2024-10-15 13:57:12.278,74583.731,0.0,0.376,-0.927,-0.093,0.23,-0.083,-0.922,0.509,0.011,0.0,-0.385,1.221
2024-10-15 13:57:12.288,74583.741,0.006,0.384,-0.923,-0.145,0.118,0.01,-0.937,0.619,0.004,0.006,-0.395,1.221
2024-10-15 13:57:12.297,74583.751,0.012,0.392,-0.92,-0.169,-0.047,0.096,-0.664,0.715,-0.09,0.013,-0.403,1.221
2024-10-15 13:57:12.307,74583.761,0.018,0.397,-0.918,-0.171,-0.145,0.154,-0.496,0.837,-0.225,0.02,-0.408,1.219
2024-10-15 13:57:12.317,74583.771,0.025,0.403,-0.915,-0.167,-0.183,0.169,-0.993,0.826,-0.25,0.027,-0.415,1.217
2024-10-15 13:57:12.327,74583.781,0.031,0.416,-0.909,-0.162,-0.215,0.183,-1.748,0.776,-0.155,0.034,-0.429,1.215
2024-10-15 13:57:12.337,74583.791,0.038,0.433,-0.9,-0.155,-0.253,0.231,-1.953,0.791,-0.042,0.042,-0.448,1.215
2024-10-15 13:57:12.347,74583.801,0.045,0.449,-0.892,-0.189,-0.215,0.115,-1.463,0.905,-0.065,0.05,-0.466,1.215
2024-10-15 13:57:12.357,74583.811,0.053,0.459,-0.887,-0.244,0.02,0.006,-0.916,1.061,-0.175,0.06,-0.477,1.214
2024-10-15 13:57:12.367,74583.821,0.062,0.466,-0.883,-0.262,0.238,-0.004,-0.643,1.086,-0.264,0.07,-0.485,1.212
2024-10-15 13:57:12.377,74583.831,0.07,0.472,-0.879,-0.221,0.242,0.014,-0.574,0.945,-0.246,0.079,-0.491,1.21
2024-10-15 13:57:12.387,74583.841,0.076,0.477,-0.876,-0.126,0.103,0.03,-0.526,0.76,-0.217,0.087,-0.497,1.208
2024-10-15 13:57:12.397,74583.851,0.081,0.481,-0.873,-0.031,0.036,0.03,-0.413,0.609,-0.25,0.092,-0.502,1.206
2024-10-15 13:57:12.407,74583.861,0.085,0.484,-0.871,0.013,0.063,0.027,-0.31,0.554,-0.278,0.097,-0.506,1.203
2024-10-15 13:57:12.417,74583.871,0.088,0.487,-0.869,0.006,0.091,0.011,-0.223,0.553,-0.263,0.101,-0.509,1.2
2024-10-15 13:57:12.427,74583.881,0.092,0.489,-0.867,-0.013,0.095,-0.004,-0.21,0.586,-0.225,0.105,-0.511,1.198
2024-10-15 13:57:12.437,74583.891,0.096,0.491,-0.866,-0.022,0.055,0.008,-0.256,0.637,-0.171,0.11,-0.513,1.196
2024-10-15 13:57:12.447,74583.901,0.101,0.494,-0.864,-0.019,0.018,0.012,-0.302,0.682,-0.123,0.116,-0.516,1.195
2024-10-15 13:57:12.457,74583.911,0.106,0.496,-0.862,0.002,0.017,-0.016,-0.272,0.679,-0.121,0.123,-0.519,1.194
2024-10-15 13:57:12.467,74583.921,0.111,0.499,-0.86,0.028,0.047,-0.054,-0.29,0.632,-0.117,0.129,-0.522,1.193
2024-10-15 13:57:12.477,74583.931,0.116,0.502,-0.857,0.05,0.064,-0.06,-0.343,0.63,-0.049,0.135,-0.526,1.192
2024-10-15 13:57:12.487,74583.941,0.122,0.504,-0.855,0.076,0.04,-0.046,-0.27,0.621,0.017,0.141,-0.529,1.193
2024-10-15 13:57:12.497,74583.951,0.127,0.506,-0.853,0.102,0.023,-0.025,-0.189,0.574,0.008,0.148,-0.531,1.193
2024-10-15 13:57:12.507,74583.96,0.131,0.508,-0.851,0.105,0.056,-0.019,-0.152,0.501,-0.039,0.153,-0.533,1.193
2024-10-15 13:57:12.518,74583.97,0.135,0.509,-0.85,0.105,0.056,0.008,-0.191,0.428,-0.051,0.158,-0.534,1.193
2024-10-15 13:57:12.527,74583.98,0.138,0.511,-0.848,0.109,0.026,0.031,-0.247,0.354,-0.024,0.162,-0.537,1.193
2024-10-15 13:57:12.537,74583.99,0.141,0.513,-0.846,0.103,-0.006,0.032,-0.294,0.328,0.038,0.165,-0.539,1.194
2024-10-15 13:57:12.547,74584.0,0.144,0.516,-0.844,0.085,-0.036,0.027,-0.296,0.326,0.078,0.169,-0.542,1.195
2024-10-15 13:57:12.557,74584.01,0.147,0.518,-0.843,0.068,-0.024,0.044,-0.223,0.311,0.078,0.173,-0.545,1.196
2024-10-15 13:57:12.567,74584.02,0.15,0.519,-0.841,0.072,-0.025,0.045,-0.07,0.21,0.076,0.176,-0.546,1.198
2024-10-15 13:57:12.577,74584.03,0.151,0.519,-0.841,0.087,0.007,0.017,0.157,0.068,-0.007,0.178,-0.545,1.198
2024-10-15 13:57:12.587,74584.04,0.151,0.517,-0.843,0.1,0.039,-0.004,0.291,-0.038,-0.083,0.178,-0.543,1.197
2024-10-15 13:57:12.597,74584.05,0.15,0.514,-0.844,0.101,0.028,0.016,0.359,-0.128,-0.141,0.176,-0.54,1.195
2024-10-15 13:57:12.607,74584.06,0.148,0.511,-0.847,0.093,-0.006,0.016,0.426,-0.203,-0.131,0.173,-0.537,1.193
2024-10-15 13:57:12.617,74584.07,0.146,0.509,-0.848,0.077,-0.068,0.027,0.073,-0.048,-0.073,0.171,-0.534,1.191
2024-10-15 13:57:12.627,74584.08,0.146,0.51,-0.848,0.051,-0.101,0.066,-0.172,0.103,0.032,0.171,-0.535,1.191
2024-10-15 13:57:12.637,74584.09,0.148,0.51,-0.847,0.003,-0.131,-0.053,0.04,0.222,0.142,0.173,-0.536,1.192
2024-10-15 13:57:12.648,74584.1,0.151,0.507,-0.848,-0.026,-0.088,-0.17,0.668,0.276,0.012,0.176,-0.532,1.192
2024-10-15 13:57:12.657,74584.11,0.153,0.5,-0.853,-0.032,0.144,-0.13,1.104,0.243,-0.125,0.177,-0.523,1.19
2024-10-15 13:57:12.667,74584.12,0.154,0.49,-0.858,-0.0,0.22,-0.086,1.216,0.073,-0.087,0.177,-0.512,1.186
2024-10-15 13:57:12.677,74584.13,0.154,0.48,-0.864,0.085,0.17,0.012,0.965,-0.055,0.123,0.176,-0.501,1.184
2024-10-15 13:57:12.687,74584.14,0.153,0.473,-0.868,0.146,0.087,0.092,0.665,-0.182,0.231,0.175,-0.493,1.184
2024-10-15 13:57:12.697,74584.15,0.153,0.468,-0.87,0.156,0.04,0.118,0.424,-0.272,0.3,0.174,-0.487,1.186
2024-10-15 13:57:12.706,74584.16,0.152,0.464,-0.873,0.118,0.022,0.102,0.253,-0.374,0.38,0.172,-0.483,1.189
2024-10-15 13:57:12.716,74584.17,0.15,0.462,-0.874,0.085,0.016,0.091,0.273,-0.422,0.389,0.17,-0.48,1.193
2024-10-15 13:57:12.726,74584.18,0.148,0.458,-0.877,0.067,0.01,0.064,0.426,-0.456,0.339,0.167,-0.476,1.197
2024-10-15 13:57:12.736,74584.19,0.145,0.453,-0.879,0.027,0.033,0.017,0.529,-0.502,0.248,0.163,-0.471,1.199
2024-10-15 13:57:12.746,74584.2,0.141,0.449,-0.883,-0.013,0.071,-0.033,0.478,-0.539,0.212,0.159,-0.465,1.2
2024-10-15 13:57:12.756,74584.21,0.138,0.445,-0.885,-0.048,0.041,-0.041,0.252,-0.572,0.276,0.154,-0.461,1.203
2024-10-15 13:57:12.767,74584.22,0.134,0.443,-0.886,-0.069,-0.045,-0.004,0.121,-0.62,0.336,0.15,-0.459,1.206
2024-10-15 13:57:12.777,74584.23,0.129,0.441,-0.888,-0.089,-0.077,0.047,0.174,-0.647,0.322,0.145,-0.457,1.209
2024-10-15 13:57:12.787,74584.24,0.125,0.44,-0.889,-0.124,-0.056,0.046,0.071,-0.738,0.289,0.139,-0.455,1.212
2024-10-15 13:57:12.796,74584.25,0.119,0.44,-0.89,-0.158,-0.003,0.02,-0.317,-0.835,0.387,0.133,-0.456,1.216
2024-10-15 13:57:12.806,74584.26,0.114,0.444,-0.889,-0.172,0.002,0.044,-0.67,-0.84,0.497,0.127,-0.46,1.222
2024-10-15 13:57:12.816,74584.27,0.109,0.449,-0.887,-0.169,-0.038,0.098,-0.41,-0.715,0.533,0.122,-0.465,1.228
2024-10-15 13:57:12.826,74584.28,0.106,0.45,-0.887,-0.19,0.056,0.058,-0.085,-0.571,0.519,0.119,-0.467,1.234
2024-10-15 13:57:12.837,74584.29,0.103,0.45,-0.887,-0.202,0.175,-0.003,-0.131,-0.501,0.516,0.116,-0.467,1.24
2024-10-15 13:57:12.846,74584.3,0.101,0.453,-0.886,-0.162,0.149,-0.023,-0.521,-0.451,0.541,0.114,-0.47,1.246
2024-10-15 13:57:12.856,74584.31,0.1,0.458,-0.883,-0.081,-0.047,-0.015,-0.725,-0.365,0.536,0.113,-0.476,1.253
2024-10-15 13:57:12.867,74584.32,0.1,0.463,-0.881,0.013,-0.193,-0.002,-0.439,-0.245,0.454,0.113,-0.481,1.26
2024-10-15 13:57:12.877,74584.33,0.1,0.464,-0.88,0.083,-0.19,-0.028,0.013,-0.195,0.274,0.113,-0.483,1.264
2024-10-15 13:57:12.887,74584.34,0.098,0.463,-0.881,0.128,-0.134,-0.1,0.205,-0.277,0.059,0.111,-0.481,1.266
2024-10-15 13:57:12.897,74584.35,0.096,0.462,-0.882,0.176,-0.198,-0.132,-0.009,-0.304,-0.047,0.108,-0.48,1.266
2024-10-15 13:57:12.907,74584.36,0.093,0.464,-0.881,0.233,-0.392,-0.128,-0.349,-0.25,-0.088,0.105,-0.482,1.265
2024-10-15 13:57:12.917,74584.37,0.091,0.468,-0.879,0.262,-0.51,-0.06,-0.71,-0.17,-0.097,0.103,-0.487,1.265
2024-10-15 13:57:12.927,74584.38,0.089,0.476,-0.875,0.253,-0.528,-0.002,-0.954,-0.16,-0.128,0.101,-0.496,1.264
2024-10-15 13:57:12.936,74584.39,0.087,0.484,-0.871,0.231,-0.408,0.031,-0.81,-0.189,-0.207,0.099,-0.505,1.264
2024-10-15 13:57:12.946,74584.4,0.084,0.49,-0.868,0.179,-0.156,0.009,-0.51,-0.158,-0.245,0.096,-0.512,1.262
2024-10-15 13:57:12.956,74584.41,0.082,0.492,-0.867,0.106,0.091,0.003,-0.001,-0.025,-0.268,0.094,-0.515,1.259
2024-10-15 13:57:12.966,74584.42,0.081,0.488,-0.869,0.053,0.279,0.103,1.109,0.344,-0.501,0.093,-0.51,1.254
2024-10-15 13:57:12.976,74584.43,0.082,0.475,-0.876,0.03,0.363,0.24,1.734,0.328,-0.625,0.093,-0.495,1.246
2024-10-15 13:57:12.986,74584.44,0.079,0.466,-0.881,0.083,0.201,0.153,0.425,-0.326,-0.547,0.089,-0.484,1.238
2024-10-15 13:57:12.996,74584.45,0.072,0.469,-0.88,0.245,-0.248,0.019,-0.873,-0.774,-0.512,0.081,-0.488,1.233
2024-10-15 13:57:13.007,74584.46,0.062,0.477,-0.877,0.233,-0.308,0.133,-0.796,-0.78,-0.49,0.071,-0.497,1.228
2024-10-15 13:57:13.016,74584.47,0.055,0.482,-0.875,-0.068,0.12,0.158,-0.277,-0.489,-0.278,0.062,-0.503,1.223
2024-10-15 13:57:13.026,74584.48,0.051,0.483,-0.874,-0.341,0.603,0.107,0.04,-0.29,-0.007,0.058,-0.504,1.222
2024-10-15 13:57:13.036,74584.49,0.049,0.481,-0.875,-0.454,0.811,0.119,0.414,-0.195,0.091,0.056,-0.502,1.222
2024-10-15 13:57:13.046,74584.5,0.048,0.476,-0.878,-0.488,0.701,0.142,0.757,0.023,0.13,0.055,-0.496,1.223
2024-10-15 13:57:13.056,74584.51,0.051,0.469,-0.882,-0.48,0.449,0.072,0.71,0.213,0.205,0.057,-0.488,1.225
2024-10-15 13:57:13.066,74584.52,0.053,0.464,-0.884,-0.408,0.118,-0.033,0.301,0.135,0.213,0.06,-0.483,1.227
2024-10-15 13:57:13.076,74584.53,0.054,0.463,-0.884,-0.284,-0.214,-0.088,-0.202,-0.036,0.202,0.062,-0.482,1.229
2024-10-15 13:57:13.086,74584.54,0.055,0.469,-0.882,-0.169,-0.368,-0.133,-1.068,-0.171,0.449,0.062,-0.488,1.233
2024-10-15 13:57:13.096,74584.549,0.055,0.481,-0.875,-0.101,-0.355,-0.164,-1.526,-0.363,0.614,0.063,-0.501,1.24
2024-10-15 13:57:13.106,74584.559,0.055,0.489,-0.87,-0.07,-0.187,-0.04,-0.41,-0.213,0.538,0.063,-0.511,1.247
2024-10-15 13:57:13.117,74584.569,0.058,0.488,-0.871,-0.097,0.192,-0.043,0.445,0.187,0.58,0.066,-0.51,1.254
2024-10-15 13:57:13.126,74584.579,0.063,0.482,-0.874,-0.117,0.509,-0.206,0.766,0.302,0.569,0.072,-0.503,1.26
2024-10-15 13:57:13.136,74584.589,0.068,0.476,-0.877,-0.002,0.458,-0.155,0.587,0.148,0.57,0.077,-0.496,1.266
2024-10-15 13:57:13.145,74584.599,0.071,0.472,-0.879,0.203,-0.05,-0.1,0.314,-0.145,0.513,0.08,-0.491,1.272
2024-10-15 13:57:13.155,74584.609,0.07,0.468,-0.881,0.4,-0.441,-0.047,0.619,-0.343,0.15,0.079,-0.487,1.275
2024-10-15 13:57:13.166,74584.619,0.066,0.461,-0.885,0.472,-0.515,-0.027,0.914,-0.391,-0.276,0.075,-0.479,1.274
2024-10-15 13:57:13.175,74584.629,0.061,0.454,-0.889,0.406,-0.526,-0.106,0.538,-0.423,-0.38,0.069,-0.471,1.269
2024-10-15 13:57:13.186,74584.639,0.056,0.452,-0.89,0.341,-0.62,-0.103,-0.075,-0.418,-0.383,0.062,-0.469,1.265
2024-10-15 13:57:13.196,74584.649,0.051,0.454,-0.89,0.301,-0.614,-0.013,-0.143,-0.23,-0.42,0.057,-0.471,1.26
2024-10-15 13:57:13.206,74584.659,0.048,0.455,-0.889,0.177,-0.278,0.03,-0.071,-0.005,-0.326,0.054,-0.472,1.256
2024-10-15 13:57:13.216,74584.669,0.048,0.455,-0.889,0.055,0.104,-0.01,0.116,0.11,-0.148,0.054,-0.472,1.254
2024-10-15 13:57:13.226,74584.679,0.048,0.451,-0.891,0.032,0.337,0.068,0.95,0.144,-0.27,0.054,-0.468,1.251
2024-10-15 13:57:13.236,74584.689,0.048,0.438,-0.898,0.065,0.388,0.156,1.753,0.245,-0.41,0.054,-0.454,1.246
2024-10-15 13:57:13.246,74584.699,0.047,0.426,-0.904,0.09,0.281,0.136,0.976,-0.094,-0.483,0.052,-0.44,1.241
2024-10-15 13:57:13.256,74584.709,0.042,0.422,-0.906,0.174,-0.087,0.077,-0.101,-0.463,-0.624,0.046,-0.436,1.234
2024-10-15 13:57:13.266,74584.719,0.036,0.426,-0.904,0.168,-0.431,0.151,-0.708,-0.381,-0.513,0.039,-0.44,1.228
2024-10-15 13:57:13.276,74584.729,0.032,0.434,-0.9,-0.059,-0.336,0.158,-0.951,-0.043,-0.197,0.036,-0.449,1.224
2024-10-15 13:57:13.286,74584.739,0.032,0.443,-0.896,-0.311,0.097,0.135,-0.942,0.077,0.065,0.036,-0.459,1.224
2024-10-15 13:57:13.296,74584.749,0.033,0.449,-0.893,-0.427,0.345,0.129,-0.479,0.051,0.172,0.037,-0.466,1.226
2024-10-15 13:57:13.306,74584.759,0.035,0.45,-0.892,-0.431,0.512,0.139,0.194,0.167,0.174,0.039,-0.467,1.228
2024-10-15 13:57:13.316,74584.769,0.038,0.448,-0.893,-0.387,0.688,0.108,0.354,0.242,0.243,0.042,-0.464,1.23
2024-10-15 13:57:13.325,74584.779,0.041,0.445,-0.895,-0.333,0.584,0.005,0.22,0.153,0.283,0.046,-0.461,1.233
2024-10-15 13:57:13.335,74584.789,0.043,0.443,-0.895,-0.253,0.194,-0.059,0.143,0.074,0.318,0.048,-0.459,1.236
2024-10-15 13:57:13.346,74584.799,0.046,0.442,-0.896,-0.167,-0.074,-0.128,0.049,0.139,0.33,0.051,-0.458,1.24
2024-10-15 13:57:13.356,74584.809,0.048,0.444,-0.894,-0.117,-0.089,-0.174,-0.769,0.058,0.587,0.054,-0.461,1.245
2024-10-15 13:57:13.366,74584.819,0.05,0.454,-0.89,-0.071,-0.087,-0.165,-1.129,-0.291,0.645,0.057,-0.471,1.253
2024-10-15 13:57:13.376,74584.829,0.051,0.457,-0.888,0.008,-0.035,0.019,0.351,-0.122,0.491,0.057,-0.475,1.259
2024-10-15 13:57:13.386,74584.839,0.054,0.45,-0.891,0.008,0.268,0.068,0.934,0.159,0.627,0.06,-0.467,1.265
2024-10-15 13:57:13.395,74584.849,0.057,0.443,-0.895,-0.001,0.48,-0.086,0.677,-0.096,0.484,0.063,-0.459,1.271
2024-10-15 13:57:13.406,74584.859,0.056,0.437,-0.898,0.177,0.076,-0.055,0.575,-0.332,0.249,0.063,-0.453,1.274
2024-10-15 13:57:13.416,74584.869,0.054,0.431,-0.901,0.339,-0.578,-0.037,0.893,-0.301,-0.022,0.06,-0.445,1.275
2024-10-15 13:57:13.426,74584.879,0.051,0.422,-0.905,0.349,-0.638,-0.11,0.905,-0.225,-0.331,0.056,-0.436,1.273
2024-10-15 13:57:13.436,74584.889,0.047,0.418,-0.907,0.28,-0.557,-0.159,0.087,-0.235,-0.361,0.052,-0.431,1.268
2024-10-15 13:57:13.445,74584.899,0.044,0.419,-0.907,0.253,-0.682,-0.101,-0.334,-0.142,-0.366,0.048,-0.433,1.264
2024-10-15 13:57:13.455,74584.909,0.042,0.423,-0.905,0.228,-0.579,-0.006,-0.306,0.067,-0.297,0.047,-0.436,1.261
2024-10-15 13:57:13.466,74584.919,0.042,0.425,-0.904,0.119,-0.177,-0.052,-0.166,0.197,-0.223,0.047,-0.439,1.258
2024-10-15 13:57:13.476,74584.929,0.043,0.424,-0.905,0.057,0.21,-0.061,0.606,0.268,-0.357,0.048,-0.437,1.255
2024-10-15 13:57:13.486,74584.939,0.045,0.413,-0.91,0.069,0.334,0.055,1.561,0.423,-0.39,0.049,-0.426,1.25
2024-10-15 13:57:13.495,74584.949,0.045,0.403,-0.914,0.112,0.25,0.141,0.521,-0.103,-0.297,0.05,-0.415,1.246
2024-10-15 13:57:13.505,74584.959,0.04,0.403,-0.914,0.248,-0.028,0.084,-0.4,-0.553,-0.546,0.044,-0.415,1.241
2024-10-15 13:57:13.516,74584.969,0.034,0.408,-0.912,0.277,-0.311,0.185,-0.514,-0.353,-0.434,0.037,-0.42,1.236
2024-10-15 13:57:13.526,74584.979,0.031,0.413,-0.91,-0.035,-0.125,0.149,-0.545,-0.016,-0.106,0.034,-0.425,1.233
2024-10-15 13:57:13.535,74584.989,0.031,0.418,-0.908,-0.31,0.292,0.045,-0.576,0.039,0.052,0.034,-0.431,1.233
2024-10-15 13:57:13.546,74584.999,0.032,0.422,-0.906,-0.409,0.375,0.1,-0.328,0.015,0.129,0.035,-0.436,1.234
2024-10-15 13:57:13.555,74585.009,0.033,0.423,-0.906,-0.43,0.421,0.174,0.154,0.101,0.113,0.036,-0.437,1.236
2024-10-15 13:57:13.565,74585.019,0.035,0.421,-0.907,-0.4,0.52,0.16,0.218,0.128,0.137,0.038,-0.434,1.237
2024-10-15 13:57:13.575,74585.029,0.036,0.419,-0.907,-0.341,0.367,0.081,0.051,-0.005,0.187,0.04,-0.433,1.239
2024-10-15 13:57:13.585,74585.039,0.036,0.42,-0.907,-0.255,0.07,0.014,-0.119,-0.115,0.197,0.04,-0.433,1.241
2024-10-15 13:57:13.595,74585.049,0.036,0.421,-0.906,-0.177,-0.121,-0.059,-0.131,-0.048,0.189,0.04,-0.434,1.243
2024-10-15 13:57:13.605,74585.059,0.037,0.423,-0.906,-0.16,-0.136,-0.145,-0.351,0.127,0.26,0.041,-0.436,1.246
2024-10-15 13:57:13.615,74585.069,0.04,0.43,-0.902,-0.163,-0.107,-0.182,-1.297,0.093,0.61,0.045,-0.444,1.251
2024-10-15 13:57:13.625,74585.079,0.043,0.441,-0.896,-0.103,-0.058,-0.137,-1.072,-0.111,0.6,0.048,-0.457,1.258
2024-10-15 13:57:13.635,74585.089,0.045,0.444,-0.895,0.011,0.047,0.055,0.394,0.175,0.492,0.051,-0.46,1.265
2024-10-15 13:57:13.645,74585.099,0.05,0.436,-0.898,0.048,0.333,0.052,1.169,0.298,0.431,0.055,-0.451,1.269
2024-10-15 13:57:13.655,74585.109,0.052,0.425,-0.904,0.126,0.449,-0.021,1.187,-0.065,0.199,0.058,-0.439,1.272
2024-10-15 13:57:13.665,74585.119,0.051,0.416,-0.908,0.368,-0.095,-0.047,0.73,-0.382,-0.021,0.056,-0.429,1.273
2024-10-15 13:57:13.675,74585.129,0.046,0.411,-0.91,0.569,-0.772,-0.096,0.446,-0.389,-0.289,0.051,-0.424,1.27
2024-10-15 13:57:13.685,74585.139,0.041,0.409,-0.912,0.528,-0.826,-0.141,0.087,-0.323,-0.487,0.045,-0.421,1.266
2024-10-15 13:57:13.695,74585.148,0.037,0.409,-0.912,0.349,-0.688,-0.105,-0.148,-0.117,-0.493,0.041,-0.422,1.261
2024-10-15 13:57:13.705,74585.158,0.035,0.412,-0.91,0.2,-0.466,-0.04,-0.396,0.059,-0.364,0.039,-0.425,1.256
2024-10-15 13:57:13.715,74585.168,0.035,0.416,-0.909,0.09,-0.139,-0.039,-0.35,0.107,-0.3,0.038,-0.429,1.253
2024-10-15 13:57:13.725,74585.178,0.035,0.414,-0.909,0.034,0.128,-0.001,0.947,0.373,-0.56,0.039,-0.427,1.248
2024-10-15 13:57:13.735,74585.188,0.037,0.403,-0.915,0.01,0.294,0.127,1.292,0.415,-0.289,0.041,-0.414,1.242
2024-10-15 13:57:13.745,74585.198,0.037,0.397,-0.917,0.06,0.25,0.111,-0.102,-0.269,-0.238,0.041,-0.408,1.24
2024-10-15 13:57:13.755,74585.208,0.032,0.401,-0.915,0.272,-0.063,0.044,-0.653,-0.573,-0.434,0.034,-0.413,1.236
2024-10-15 13:57:13.765,74585.218,0.026,0.406,-0.913,0.222,-0.249,0.159,-0.341,-0.311,-0.301,0.028,-0.418,1.232
2024-10-15 13:57:13.775,74585.228,0.023,0.409,-0.912,-0.135,0.102,0.086,-0.222,-0.058,-0.063,0.026,-0.421,1.23
2024-10-15 13:57:13.785,74585.238,0.023,0.411,-0.911,-0.346,0.433,0.076,-0.357,-0.065,0.06,0.025,-0.424,1.23
2024-10-15 13:57:13.795,74585.248,0.023,0.413,-0.91,-0.422,0.409,0.137,-0.084,-0.044,0.043,0.025,-0.426,1.231
2024-10-15 13:57:13.805,74585.258,0.023,0.414,-0.91,-0.451,0.341,0.193,-0.043,0.09,0.146,0.026,-0.426,1.232
2024-10-15 13:57:13.814,74585.268,0.025,0.414,-0.91,-0.43,0.311,0.173,-0.095,0.021,0.14,0.027,-0.427,1.234
2024-10-15 13:57:13.825,74585.278,0.025,0.415,-0.91,-0.374,0.212,0.037,0.01,-0.04,0.133,0.027,-0.428,1.235
2024-10-15 13:57:13.835,74585.288,0.026,0.415,-0.91,-0.324,0.057,-0.071,-0.018,0.023,0.191,0.028,-0.428,1.237
2024-10-15 13:57:13.845,74585.298,0.027,0.415,-0.91,-0.294,0.006,-0.135,0.054,0.111,0.186,0.03,-0.427,1.239
2024-10-15 13:57:13.855,74585.308,0.029,0.415,-0.909,-0.251,-0.012,-0.128,-0.266,0.197,0.319,0.032,-0.428,1.241
2024-10-15 13:57:13.865,74585.318,0.032,0.421,-0.906,-0.172,-0.03,-0.154,-1.065,0.003,0.593,0.036,-0.435,1.247
2024-10-15 13:57:13.875,74585.328,0.033,0.429,-0.903,-0.061,0.057,-0.153,-0.416,-0.178,0.425,0.037,-0.443,1.253
2024-10-15 13:57:13.885,74585.338,0.035,0.428,-0.903,0.013,0.149,0.016,0.491,0.163,0.408,0.039,-0.442,1.258
2024-10-15 13:57:13.895,74585.348,0.039,0.422,-0.906,-0.017,0.266,0.038,0.73,0.261,0.316,0.043,-0.435,1.261
2024-10-15 13:57:13.905,74585.358,0.041,0.415,-0.909,0.08,0.13,0.034,0.649,0.099,0.126,0.045,-0.428,1.263
2024-10-15 13:57:13.915,74585.368,0.042,0.411,-0.911,0.291,-0.443,-0.005,0.345,-0.072,0.036,0.046,-0.423,1.264
2024-10-15 13:57:13.925,74585.378,0.04,0.408,-0.912,0.466,-0.78,-0.108,0.205,-0.13,-0.209,0.044,-0.421,1.263
2024-10-15 13:57:13.934,74585.388,0.038,0.408,-0.912,0.517,-0.721,-0.136,-0.031,-0.116,-0.344,0.042,-0.42,1.26
2024-10-15 13:57:13.944,74585.398,0.036,0.409,-0.912,0.458,-0.603,-0.103,-0.216,-0.086,-0.383,0.039,-0.421,1.256
2024-10-15 13:57:13.955,74585.408,0.034,0.411,-0.911,0.381,-0.332,-0.07,-0.202,-0.007,-0.366,0.037,-0.424,1.252
2024-10-15 13:57:13.965,74585.418,0.033,0.413,-0.91,0.274,-0.016,-0.052,-0.064,0.083,-0.28,0.036,-0.425,1.248
2024-10-15 13:57:13.975,74585.428,0.032,0.409,-0.912,0.168,0.244,-0.034,0.965,0.182,-0.516,0.035,-0.422,1.244
2024-10-15 13:57:13.984,74585.438,0.032,0.395,-0.918,0.116,0.369,0.074,1.954,0.316,-0.598,0.035,-0.406,1.237
2024-10-15 13:57:13.995,74585.448,0.031,0.383,-0.923,0.085,0.267,0.062,0.585,-0.145,-0.462,0.034,-0.393,1.231
2024-10-15 13:57:14.005,74585.458,0.026,0.383,-0.923,0.19,-0.157,0.018,-0.446,-0.485,-0.6,0.028,-0.393,1.225
2024-10-15 13:57:14.015,74585.468,0.02,0.388,-0.921,0.206,-0.458,0.192,-0.558,-0.368,-0.432,0.022,-0.399,1.22
2024-10-15 13:57:14.024,74585.478,0.017,0.393,-0.919,-0.099,-0.181,0.185,-0.495,-0.153,-0.104,0.018,-0.404,1.217
2024-10-15 13:57:14.034,74585.488,0.015,0.397,-0.918,-0.355,0.359,0.109,-0.378,-0.111,0.023,0.017,-0.409,1.217
2024-10-15 13:57:14.045,74585.498,0.015,0.399,-0.917,-0.461,0.518,0.151,-0.029,0.055,0.07,0.016,-0.411,1.217
2024-10-15 13:57:14.055,74585.508,0.017,0.399,-0.917,-0.504,0.509,0.209,-0.016,0.249,0.19,0.019,-0.411,1.219
2024-10-15 13:57:14.065,74585.518,0.02,0.399,-0.917,-0.47,0.472,0.138,-0.02,0.213,0.154,0.022,-0.411,1.221
2024-10-15 13:57:14.074,74585.528,0.022,0.4,-0.916,-0.365,0.241,0.05,-0.145,0.155,0.154,0.024,-0.411,1.222
2024-10-15 13:57:14.085,74585.538,0.024,0.402,-0.915,-0.248,-0.013,-0.017,-0.303,0.133,0.154,0.026,-0.414,1.224
2024-10-15 13:57:14.095,74585.548,0.026,0.405,-0.914,-0.168,-0.101,-0.071,-0.374,0.143,0.112,0.028,-0.417,1.226
2024-10-15 13:57:14.105,74585.558,0.028,0.409,-0.912,-0.131,-0.159,-0.094,-0.47,0.214,0.14,0.031,-0.421,1.227
2024-10-15 13:57:14.115,74585.568,0.031,0.415,-0.909,-0.106,-0.132,-0.129,-0.989,0.176,0.368,0.034,-0.428,1.23
2024-10-15 13:57:14.124,74585.578,0.033,0.424,-0.905,-0.061,-0.034,-0.153,-0.755,-0.015,0.348,0.037,-0.437,1.235
2024-10-15 13:57:14.135,74585.588,0.035,0.426,-0.904,-0.023,0.092,-0.11,0.159,0.202,0.336,0.039,-0.44,1.238
2024-10-15 13:57:14.144,74585.598,0.04,0.422,-0.906,-0.04,0.285,-0.078,0.565,0.41,0.411,0.044,-0.436,1.242
2024-10-15 13:57:14.154,74585.608,0.044,0.417,-0.908,0.021,0.376,-0.021,0.598,0.251,0.332,0.049,-0.43,1.246
2024-10-15 13:57:14.164,74585.618,0.047,0.412,-0.91,0.228,0.009,0.031,0.406,-0.025,0.237,0.051,-0.425,1.249
2024-10-15 13:57:14.174,74585.628,0.046,0.409,-0.912,0.429,-0.417,-0.006,0.376,-0.221,-0.011,0.05,-0.421,1.25
2024-10-15 13:57:14.185,74585.638,0.043,0.406,-0.913,0.507,-0.53,-0.05,0.234,-0.258,-0.239,0.047,-0.418,1.248
2024-10-15 13:57:14.194,74585.648,0.04,0.405,-0.913,0.437,-0.588,-0.078,-0.109,-0.251,-0.275,0.043,-0.417,1.246
2024-10-15 13:57:14.204,74585.658,0.036,0.407,-0.913,0.338,-0.612,-0.074,-0.11,-0.159,-0.357,0.04,-0.419,1.242
2024-10-15 13:57:14.214,74585.668,0.034,0.408,-0.913,0.233,-0.442,-0.052,-0.125,-0.033,-0.367,0.037,-0.42,1.238
2024-10-15 13:57:14.224,74585.678,0.033,0.41,-0.912,0.115,-0.127,-0.035,-0.332,0.009,-0.3,0.036,-0.422,1.235
2024-10-15 13:57:14.234,74585.688,0.031,0.411,-0.911,0.062,0.11,0.003,0.154,-0.008,-0.389,0.034,-0.424,1.231
2024-10-15 13:57:14.244,74585.698,0.03,0.403,-0.914,0.042,0.224,0.131,1.551,0.257,-0.55,0.033,-0.415,1.225
2024-10-15 13:57:14.254,74585.708,0.03,0.391,-0.92,0.004,0.309,0.221,0.777,-0.023,-0.251,0.033,-0.402,1.221
2024-10-15 13:57:14.264,74585.718,0.026,0.391,-0.92,0.067,0.167,0.082,-0.565,-0.602,-0.32,0.029,-0.402,1.218
2024-10-15 13:57:14.274,74585.728,0.019,0.397,-0.918,0.17,-0.153,0.058,-0.545,-0.635,-0.315,0.021,-0.408,1.214
2024-10-15 13:57:14.284,74585.737,0.014,0.399,-0.917,-0.098,-0.018,0.078,-0.01,-0.164,-0.083,0.016,-0.411,1.212
2024-10-15 13:57:14.294,74585.747,0.015,0.399,-0.917,-0.434,0.493,0.066,0.054,0.135,0.097,0.016,-0.41,1.212
2024-10-15 13:57:14.304,74585.757,0.016,0.399,-0.917,-0.535,0.577,0.13,-0.026,0.139,0.169,0.018,-0.41,1.214
2024-10-15 13:57:14.314,74585.767,0.018,0.399,-0.917,-0.505,0.339,0.096,0.059,0.071,0.17,0.02,-0.41,1.216
2024-10-15 13:57:14.324,74585.777,0.02,0.398,-0.917,-0.399,0.201,0.037,0.096,0.115,0.188,0.021,-0.409,1.218
2024-10-15 13:57:14.334,74585.787,0.021,0.398,-0.917,-0.299,0.123,0.015,-0.006,0.108,0.187,0.023,-0.409,1.22
2024-10-15 13:57:14.346,74585.797,0.023,0.398,-0.917,-0.229,-0.024,-0.02,-0.033,0.134,0.181,0.025,-0.409,1.222
2024-10-15 13:57:14.354,74585.807,0.026,0.399,-0.917,-0.164,-0.118,-0.064,-0.388,0.2,0.321,0.028,-0.411,1.224
2024-10-15 13:57:14.364,74585.817,0.029,0.406,-0.914,-0.107,-0.08,-0.139,-0.925,0.03,0.447,0.031,-0.418,1.229
2024-10-15 13:57:14.374,74585.827,0.03,0.412,-0.911,-0.036,0.006,-0.115,-0.329,-0.015,0.374,0.033,-0.424,1.234
2024-10-15 13:57:14.384,74585.837,0.033,0.411,-0.911,-0.011,0.145,-0.046,0.294,0.195,0.418,0.036,-0.424,1.238
2024-10-15 13:57:14.394,74585.847,0.036,0.407,-0.913,-0.054,0.329,-0.086,0.535,0.271,0.326,0.04,-0.419,1.242
2024-10-15 13:57:14.404,74585.857,0.04,0.402,-0.915,0.036,0.187,0.022,0.454,0.187,0.223,0.043,-0.414,1.245
2024-10-15 13:57:14.414,74585.867,0.041,0.399,-0.916,0.222,-0.288,0.073,0.384,0.037,0.093,0.045,-0.41,1.246
2024-10-15 13:57:14.424,74585.877,0.041,0.396,-0.918,0.394,-0.561,0.037,0.248,-0.101,-0.114,0.045,-0.407,1.246
2024-10-15 13:57:14.434,74585.887,0.039,0.394,-0.918,0.481,-0.652,-0.037,0.047,-0.193,-0.28,0.042,-0.405,1.244
2024-10-15 13:57:14.444,74585.897,0.036,0.395,-0.918,0.472,-0.639,-0.089,-0.066,-0.192,-0.351,0.039,-0.406,1.24
2024-10-15 13:57:14.454,74585.907,0.033,0.396,-0.918,0.399,-0.477,-0.088,-0.131,-0.116,-0.343,0.036,-0.407,1.236
2024-10-15 13:57:14.464,74585.917,0.031,0.397,-0.917,0.284,-0.189,-0.092,-0.24,-0.049,-0.287,0.034,-0.409,1.233
2024-10-15 13:57:14.474,74585.927,0.03,0.4,-0.916,0.175,0.095,-0.088,-0.275,0.012,-0.173,0.032,-0.411,1.231
2024-10-15 13:57:14.484,74585.937,0.029,0.401,-0.915,0.096,0.262,-0.024,0.112,0.004,-0.13,0.032,-0.413,1.229
2024-10-15 13:57:14.494,74585.947,0.029,0.394,-0.918,0.057,0.322,0.106,1.43,0.173,-0.442,0.032,-0.405,1.226
2024-10-15 13:57:14.504,74585.957,0.029,0.381,-0.924,0.032,0.325,0.234,1.06,0.031,-0.242,0.031,-0.391,1.221
2024-10-15 13:57:14.514,74585.967,0.026,0.379,-0.925,0.064,0.107,0.185,-0.423,-0.518,-0.256,0.028,-0.389,1.219
2024-10-15 13:57:14.524,74585.977,0.019,0.384,-0.923,0.193,-0.275,0.123,-0.436,-0.614,-0.407,0.021,-0.394,1.215
2024-10-15 13:57:14.534,74585.987,0.014,0.386,-0.922,-0.013,-0.248,0.143,-0.018,-0.154,-0.188,0.015,-0.396,1.212
2024-10-15 13:57:14.544,74585.997,0.014,0.386,-0.923,-0.38,0.241,0.052,0.037,0.177,-0.038,0.015,-0.396,1.211
2024-10-15 13:57:14.554,74586.007,0.016,0.386,-0.923,-0.518,0.477,0.086,-0.05,0.225,-0.014,0.017,-0.396,1.21
2024-10-15 13:57:14.565,74586.017,0.018,0.386,-0.922,-0.533,0.305,0.115,-0.008,0.202,0.076,0.019,-0.396,1.211
2024-10-15 13:57:14.574,74586.027,0.02,0.386,-0.922,-0.456,0.226,0.089,0.101,0.187,0.066,0.022,-0.396,1.212
2024-10-15 13:57:14.583,74586.037,0.022,0.384,-0.923,-0.353,0.237,0.033,0.136,0.208,0.009,0.024,-0.395,1.212
2024-10-15 13:57:14.593,74586.047,0.024,0.384,-0.923,-0.308,0.105,0.006,0.008,0.258,0.036,0.026,-0.394,1.212
2024-10-15 13:57:14.604,74586.057,0.027,0.384,-0.923,-0.265,-0.092,-0.015,-0.045,0.317,0.038,0.029,-0.394,1.213
2024-10-15 13:57:14.614,74586.067,0.03,0.385,-0.922,-0.186,-0.206,-0.078,-0.336,0.376,0.044,0.033,-0.396,1.213
2024-10-15 13:57:14.624,74586.077,0.034,0.391,-0.92,-0.101,-0.209,-0.142,-0.814,0.259,0.14,0.037,-0.401,1.214
2024-10-15 13:57:14.634,74586.087,0.036,0.398,-0.917,-0.019,-0.089,-0.18,-0.74,0.108,0.124,0.039,-0.41,1.216
2024-10-15 13:57:14.643,74586.097,0.038,0.402,-0.915,0.038,0.022,-0.111,-0.211,0.284,0.149,0.041,-0.414,1.218
2024-10-15 13:57:14.653,74586.107,0.042,0.403,-0.914,0.006,0.226,-0.081,-0.024,0.384,0.209,0.046,-0.415,1.22
2024-10-15 13:57:14.663,74586.117,0.046,0.403,-0.914,0.016,0.271,-0.083,0.057,0.341,0.153,0.05,-0.415,1.222
2024-10-15 13:57:14.673,74586.127,0.049,0.402,-0.914,0.13,0.06,-0.067,0.068,0.26,0.121,0.054,-0.414,1.223
2024-10-15 13:57:14.683,74586.137,0.051,0.402,-0.914,0.228,-0.091,-0.093,0.048,0.142,0.057,0.056,-0.414,1.224
2024-10-15 13:57:14.694,74586.147,0.053,0.401,-0.914,0.277,-0.134,-0.087,0.028,0.102,-0.027,0.057,-0.413,1.224
2024-10-15 13:57:14.704,74586.157,0.053,0.401,-0.914,0.262,-0.184,-0.067,0.018,0.159,-0.1,0.058,-0.413,1.224
2024-10-15 13:57:14.713,74586.167,0.055,0.401,-0.914,0.2,-0.215,-0.05,0.004,0.23,-0.175,0.06,-0.413,1.222
2024-10-15 13:57:14.723,74586.177,0.056,0.402,-0.914,0.143,-0.238,-0.031,-0.073,0.223,-0.262,0.061,-0.413,1.22
2024-10-15 13:57:14.733,74586.187,0.057,0.403,-0.913,0.108,-0.268,-0.007,-0.25,0.194,-0.299,0.062,-0.415,1.217
2024-10-15 13:57:14.743,74586.197,0.057,0.407,-0.912,0.075,-0.279,0.018,-0.483,0.2,-0.287,0.063,-0.419,1.214
2024-10-15 13:57:14.753,74586.207,0.058,0.412,-0.909,0.019,-0.233,0.049,-0.636,0.262,-0.276,0.064,-0.425,1.211
2024-10-15 13:57:14.763,74586.217,0.06,0.418,-0.906,-0.057,-0.177,0.091,-0.738,0.402,-0.214,0.066,-0.432,1.209
2024-10-15 13:57:14.773,74586.227,0.064,0.426,-0.903,-0.124,-0.122,0.114,-0.838,0.568,-0.157,0.071,-0.44,1.208
2024-10-15 13:57:14.783,74586.237,0.069,0.433,-0.899,-0.154,-0.037,0.146,-0.882,0.782,-0.168,0.077,-0.448,1.207
2024-10-15 13:57:14.793,74586.247,0.077,0.443,-0.893,-0.142,0.012,0.184,-1.169,1.13,-0.123,0.086,-0.458,1.206
2024-10-15 13:57:14.803,74586.257,0.088,0.455,-0.886,-0.112,0.055,0.16,-1.545,1.306,0.013,0.099,-0.472,1.206
2024-10-15 13:57:14.813,74586.267,0.1,0.469,-0.878,-0.08,0.065,-0.001,-1.522,1.397,0.078,0.113,-0.488,1.209
2024-10-15 13:57:14.823,74586.277,0.113,0.48,-0.87,-0.046,0.067,-0.14,-1.174,1.45,0.043,0.129,-0.501,1.212
2024-10-15 13:57:14.833,74586.287,0.125,0.489,-0.863,-0.047,0.17,-0.14,-0.788,1.439,-0.051,0.144,-0.511,1.213
2024-10-15 13:57:14.843,74586.297,0.137,0.495,-0.858,-0.053,0.256,-0.092,-0.553,1.358,-0.103,0.158,-0.517,1.213
2024-10-15 13:57:14.853,74586.307,0.147,0.499,-0.854,-0.038,0.21,-0.022,-0.426,1.244,-0.103,0.171,-0.522,1.213
2024-10-15 13:57:14.863,74586.317,0.157,0.502,-0.85,-0.015,0.107,0.04,-0.371,1.111,-0.119,0.182,-0.526,1.212
2024-10-15 13:57:14.873,74586.327,0.165,0.506,-0.847,0.008,0.033,0.094,-0.322,0.951,-0.175,0.192,-0.53,1.212
2024-10-15 13:57:14.883,74586.336,0.171,0.508,-0.844,0.018,-0.023,0.1,-0.284,0.794,-0.198,0.2,-0.533,1.21
2024-10-15 13:57:14.893,74586.346,0.176,0.511,-0.841,0.027,-0.067,0.109,-0.217,0.633,-0.208,0.207,-0.536,1.208
2024-10-15 13:57:14.903,74586.356,0.18,0.513,-0.839,0.039,-0.088,0.102,-0.167,0.488,-0.229,0.211,-0.539,1.206
2024-10-15 13:57:14.913,74586.366,0.182,0.515,-0.838,0.042,-0.094,0.093,-0.162,0.331,-0.24,0.214,-0.541,1.204
2024-10-15 13:57:14.923,74586.376,0.183,0.516,-0.837,0.038,-0.084,0.084,-0.053,0.199,-0.258,0.215,-0.542,1.202
2024-10-15 13:57:14.933,74586.386,0.183,0.516,-0.837,0.027,-0.068,0.065,0.097,0.137,-0.292,0.215,-0.543,1.198
2024-10-15 13:57:14.943,74586.396,0.182,0.516,-0.837,0.008,-0.038,0.081,0.123,0.136,-0.328,0.215,-0.542,1.195
2024-10-15 13:57:14.953,74586.406,0.182,0.516,-0.837,-0.008,0.001,0.079,0.08,0.102,-0.315,0.214,-0.542,1.191
2024-10-15 13:57:14.963,74586.416,0.181,0.516,-0.838,-0.005,-0.004,0.059,0.073,0.047,-0.262,0.213,-0.542,1.187
2024-10-15 13:57:14.973,74586.426,0.18,0.515,-0.838,0.012,0.002,0.046,0.113,-0.005,-0.244,0.211,-0.541,1.184
2024-10-15 13:57:14.983,74586.436,0.178,0.515,-0.839,0.019,0.061,0.035,0.148,-0.031,-0.243,0.21,-0.541,1.181
2024-10-15 13:57:14.993,74586.446,0.177,0.514,-0.839,0.012,0.074,0.021,0.09,-0.006,-0.181,0.208,-0.54,1.178
2024-10-15 13:57:15.003,74586.456,0.177,0.514,-0.84,0.005,0.065,0.025,-0.019,0.041,-0.105,0.207,-0.54,1.176
2024-10-15 13:57:15.013,74586.466,0.177,0.515,-0.839,0.004,0.067,0.036,-0.105,0.076,-0.068,0.208,-0.54,1.176
2024-10-15 13:57:15.022,74586.476,0.177,0.516,-0.838,0.004,0.055,0.024,-0.11,0.081,-0.039,0.208,-0.542,1.175
2024-10-15 13:57:15.032,74586.486,0.178,0.516,-0.838,0.011,0.06,0.006,-0.045,0.087,-0.014,0.209,-0.543,1.175
2024-10-15 13:57:15.043,74586.496,0.178,0.516,-0.838,0.02,0.076,-0.013,0.025,0.078,-0.008,0.21,-0.543,1.175
2024-10-15 13:57:15.053,74586.506,0.179,0.516,-0.838,0.026,0.086,-0.027,0.064,0.061,-0.002,0.21,-0.542,1.175
2024-10-15 13:57:15.063,74586.516,0.179,0.515,-0.838,0.032,0.065,-0.017,0.052,0.051,0.009,0.211,-0.542,1.175
2024-10-15 13:57:15.073,74586.526,0.18,0.515,-0.838,0.036,0.036,0.005,0.048,0.045,0.02,0.212,-0.541,1.175
2024-10-15 13:57:15.083,74586.536,0.181,0.515,-0.838,0.035,0.018,0.012,0.084,0.047,0.035,0.212,-0.541,1.175
2024-10-15 13:57:15.093,74586.546,0.181,0.514,-0.839,0.03,0.007,0.001,0.128,0.055,0.046,0.213,-0.54,1.175
2024-10-15 13:57:15.103,74586.556,0.182,0.513,-0.839,0.026,0.006,-0.01,0.17,0.05,0.046,0.214,-0.538,1.176
2024-10-15 13:57:15.112,74586.566,0.183,0.511,-0.84,0.028,0.003,-0.019,0.206,0.042,0.046,0.214,-0.536,1.176
2024-10-15 13:57:15.122,74586.576,0.183,0.509,-0.841,0.03,-0.014,-0.013,0.213,0.064,0.051,0.215,-0.534,1.176
2024-10-15 13:57:15.133,74586.586,0.184,0.508,-0.842,0.033,-0.026,-0.009,0.153,0.086,0.053,0.216,-0.533,1.176
2024-10-15 13:57:15.143,74586.596,0.185,0.506,-0.842,0.035,-0.021,-0.014,0.135,0.061,0.041,0.217,-0.531,1.176
2024-10-15 13:57:15.153,74586.606,0.186,0.505,-0.843,0.04,-0.021,-0.02,0.141,0.014,0.047,0.217,-0.53,1.177
2024-10-15 13:57:15.162,74586.616,0.187,0.504,-0.843,0.046,-0.024,-0.017,0.154,-0.01,0.074,0.218,-0.528,1.177
2024-10-15 13:57:15.172,74586.626,0.187,0.503,-0.844,0.045,-0.007,-0.004,0.164,-0.023,0.08,0.218,-0.527,1.177
2024-10-15 13:57:15.182,74586.636,0.187,0.501,-0.845,0.037,0.005,0.003,0.175,-0.072,0.067,0.218,-0.525,1.178
2024-10-15 13:57:15.192,74586.646,0.186,0.499,-0.846,0.035,0.008,0.011,0.177,-0.133,0.078,0.217,-0.523,1.178
2024-10-15 13:57:15.202,74586.656,0.186,0.498,-0.847,0.041,0.004,0.026,0.21,-0.17,0.106,0.216,-0.521,1.179
2024-10-15 13:57:15.212,74586.666,0.185,0.495,-0.849,0.047,0.002,0.048,0.299,-0.204,0.118,0.215,-0.518,1.18
2024-10-15 13:57:15.223,74586.676,0.184,0.492,-0.851,0.05,0.019,0.065,0.457,-0.254,0.097,0.213,-0.514,1.18
2024-10-15 13:57:15.232,74586.686,0.183,0.487,-0.854,0.049,0.035,0.08,0.587,-0.302,0.084,0.211,-0.509,1.18
2024-10-15 13:57:15.241,74586.696,0.181,0.481,-0.858,0.049,0.033,0.083,0.71,-0.351,0.1,0.208,-0.502,1.18
2024-10-15 13:57:15.251,74586.706,0.178,0.475,-0.862,0.05,0.036,0.08,0.87,-0.403,0.119,0.203,-0.494,1.179
2024-10-15 13:57:15.261,74586.716,0.175,0.467,-0.867,0.043,0.043,0.08,0.843,-0.353,0.114,0.199,-0.486,1.179
2024-10-15 13:57:15.272,74586.726,0.173,0.459,-0.871,0.015,0.079,0.03,0.875,-0.284,0.038,0.196,-0.477,1.178
2024-10-15 13:57:15.282,74586.736,0.171,0.451,-0.876,-0.041,0.127,-0.085,0.925,-0.26,0.036,0.192,-0.468,1.176
2024-10-15 13:57:15.292,74586.746,0.168,0.443,-0.881,-0.075,0.089,-0.122,0.963,-0.305,0.062,0.189,-0.459,1.175
2024-10-15 13:57:15.302,74586.756,0.166,0.435,-0.885,-0.068,0.109,-0.063,0.844,-0.33,0.124,0.185,-0.45,1.174
2024-10-15 13:57:15.312,74586.766,0.163,0.428,-0.889,-0.056,0.079,-0.029,0.722,-0.385,0.174,0.182,-0.442,1.174
2024-10-15 13:57:15.322,74586.776,0.16,0.421,-0.893,-0.048,0.02,0.004,0.63,-0.478,0.167,0.178,-0.435,1.174
2024-10-15 13:57:15.333,74586.786,0.156,0.416,-0.896,-0.055,-0.01,0.057,0.57,-0.575,0.173,0.173,-0.429,1.175
2024-10-15 13:57:15.342,74586.796,0.152,0.411,-0.899,-0.078,0.012,0.097,0.397,-0.652,0.231,0.167,-0.424,1.176
2024-10-15 13:57:15.352,74586.806,0.147,0.408,-0.901,-0.104,0.032,0.094,0.163,-0.696,0.295,0.161,-0.42,1.179
2024-10-15 13:57:15.362,74586.816,0.142,0.407,-0.903,-0.132,0.024,0.053,0.086,-0.674,0.276,0.156,-0.419,1.182
2024-10-15 13:57:15.372,74586.826,0.137,0.405,-0.904,-0.174,-0.01,0.005,0.154,-0.521,0.229,0.151,-0.417,1.184
2024-10-15 13:57:15.382,74586.836,0.134,0.403,-0.905,-0.223,-0.01,-0.085,0.238,-0.31,0.24,0.147,-0.415,1.186
2024-10-15 13:57:15.392,74586.846,0.134,0.401,-0.906,-0.243,-0.008,-0.167,0.171,-0.08,0.283,0.146,-0.413,1.189
2024-10-15 13:57:15.402,74586.856,0.135,0.4,-0.907,-0.215,-0.058,-0.22,0.002,0.124,0.259,0.148,-0.411,1.192
2024-10-15 13:57:15.412,74586.866,0.138,0.4,-0.906,-0.143,-0.111,-0.222,-0.081,0.256,0.2,0.151,-0.411,1.194
2024-10-15 13:57:15.422,74586.876,0.141,0.4,-0.906,-0.043,-0.123,-0.173,-0.05,0.267,0.149,0.154,-0.412,1.196
2024-10-15 13:57:15.432,74586.886,0.144,0.4,-0.905,0.071,-0.143,-0.084,0.067,0.211,0.144,0.157,-0.412,1.198
2024-10-15 13:57:15.443,74586.896,0.146,0.398,-0.906,0.176,-0.162,-0.022,0.299,0.155,0.117,0.16,-0.41,1.199
2024-10-15 13:57:15.451,74586.906,0.147,0.394,-0.907,0.252,-0.118,0.039,0.563,0.106,0.05,0.161,-0.405,1.199
2024-10-15 13:57:15.462,74586.916,0.148,0.388,-0.909,0.295,-0.087,0.087,0.677,0.055,0.006,0.161,-0.399,1.198
2024-10-15 13:57:15.472,74586.925,0.148,0.383,-0.912,0.339,-0.145,0.15,0.531,-0.077,-0.031,0.161,-0.393,1.197
2024-10-15 13:57:15.497,74586.935,0.146,0.379,-0.914,0.403,-0.232,0.215,0.278,-0.285,-0.096,0.159,-0.389,1.196
2024-10-15 13:57:15.501,74586.945,0.142,0.378,-0.915,0.454,-0.286,0.195,0.196,-0.457,-0.188,0.154,-0.387,1.194
2024-10-15 13:57:15.506,74586.955,0.137,0.376,-0.917,0.419,-0.257,0.093,0.23,-0.526,-0.243,0.148,-0.385,1.191
2024-10-15 13:57:15.512,74586.965,0.131,0.374,-0.918,0.265,-0.122,-0.055,0.195,-0.476,-0.243,0.142,-0.384,1.188
2024-10-15 13:57:15.522,74586.975,0.127,0.372,-0.92,0.085,0.053,-0.128,0.454,-0.141,-0.241,0.137,-0.381,1.185
2024-10-15 13:57:15.532,74586.985,0.127,0.365,-0.922,-0.042,0.167,-0.078,1.039,0.237,-0.261,0.136,-0.374,1.181
2024-10-15 13:57:15.542,74586.995,0.128,0.356,-0.926,-0.088,0.211,0.08,0.839,0.059,-0.138,0.137,-0.364,1.178
2024-10-15 13:57:15.552,74587.005,0.125,0.352,-0.928,0.015,0.116,0.079,0.247,-0.456,-0.127,0.134,-0.359,1.176
2024-10-15 13:57:15.562,74587.015,0.119,0.35,-0.929,0.196,-0.068,0.083,0.276,-0.726,-0.241,0.128,-0.357,1.173
2024-10-15 13:57:15.572,74587.025,0.111,0.346,-0.932,0.142,-0.006,0.118,0.512,-0.772,-0.294,0.119,-0.354,1.17
2024-10-15 13:57:15.582,74587.035,0.103,0.342,-0.934,-0.112,0.208,0.106,0.419,-0.71,-0.225,0.11,-0.349,1.167
2024-10-15 13:57:15.592,74587.045,0.097,0.34,-0.935,-0.293,0.287,0.106,-0.029,-0.61,-0.085,0.103,-0.347,1.165
2024-10-15 13:57:15.602,74587.055,0.091,0.342,-0.935,-0.397,0.198,0.069,-0.403,-0.543,0.036,0.097,-0.349,1.165
2024-10-15 13:57:15.612,74587.065,0.087,0.346,-0.934,-0.479,0.107,-0.006,-0.317,-0.431,0.046,0.093,-0.353,1.166
2024-10-15 13:57:15.622,74587.075,0.084,0.348,-0.934,-0.544,0.124,-0.025,-0.081,-0.19,0.041,0.09,-0.355,1.166
2024-10-15 13:57:15.632,74587.085,0.084,0.348,-0.934,-0.577,0.138,-0.013,0.015,0.064,0.087,0.089,-0.355,1.167
2024-10-15 13:57:15.642,74587.095,0.085,0.348,-0.934,-0.548,0.06,-0.018,-0.002,0.174,0.122,0.091,-0.355,1.168
2024-10-15 13:57:15.652,74587.105,0.087,0.348,-0.933,-0.439,-0.041,-0.053,-0.093,0.213,0.121,0.093,-0.355,1.169
2024-10-15 13:57:15.662,74587.115,0.09,0.35,-0.932,-0.288,-0.06,-0.087,-0.417,0.202,0.195,0.096,-0.358,1.171
2024-10-15 13:57:15.672,74587.125,0.092,0.356,-0.93,-0.154,-0.02,-0.127,-0.807,0.088,0.346,0.099,-0.364,1.175
2024-10-15 13:57:15.682,74587.135,0.094,0.363,-0.927,-0.045,0.033,-0.214,-0.665,0.046,0.39,0.101,-0.371,1.18
2024-10-15 13:57:15.691,74587.145,0.097,0.366,-0.925,0.014,0.109,-0.177,-0.178,0.173,0.411,0.104,-0.375,1.184
2024-10-15 13:57:15.702,74587.155,0.101,0.365,-0.925,0.011,0.215,-0.17,0.325,0.355,0.388,0.108,-0.374,1.189
2024-10-15 13:57:15.712,74587.165,0.106,0.36,-0.927,0.049,0.221,-0.064,0.665,0.416,0.319,0.113,-0.368,1.192
2024-10-15 13:57:15.722,74587.175,0.11,0.353,-0.929,0.169,0.048,0.077,0.715,0.311,0.302,0.118,-0.361,1.194
2024-10-15 13:57:15.732,74587.185,0.113,0.347,-0.931,0.344,-0.233,0.117,0.677,0.078,0.266,0.121,-0.354,1.196
2024-10-15 13:57:15.742,74587.195,0.113,0.341,-0.933,0.528,-0.451,0.158,0.531,-0.143,0.083,0.121,-0.348,1.197
2024-10-15 13:57:15.752,74587.205,0.111,0.337,-0.935,0.626,-0.558,0.14,0.28,-0.325,-0.138,0.118,-0.344,1.197
2024-10-15 13:57:15.761,74587.215,0.107,0.335,-0.936,0.608,-0.567,0.077,0.16,-0.375,-0.268,0.114,-0.342,1.194
2024-10-15 13:57:15.771,74587.225,0.102,0.334,-0.937,0.507,-0.449,-0.009,0.179,-0.337,-0.293,0.109,-0.34,1.191
2024-10-15 13:57:15.781,74587.235,0.099,0.333,-0.938,0.329,-0.199,-0.092,0.155,-0.265,-0.234,0.105,-0.339,1.188
2024-10-15 13:57:15.791,74587.245,0.096,0.331,-0.939,0.161,0.054,-0.124,0.181,-0.154,-0.132,0.102,-0.338,1.186
2024-10-15 13:57:15.802,74587.255,0.095,0.327,-0.94,0.066,0.214,-0.048,0.755,0.117,-0.115,0.101,-0.334,1.184
2024-10-15 13:57:15.811,74587.265,0.097,0.316,-0.944,0.027,0.273,0.126,1.541,0.322,-0.148,0.103,-0.322,1.181
2024-10-15 13:57:15.821,74587.275,0.098,0.305,-0.947,0.069,0.183,0.354,0.651,-0.149,-0.049,0.103,-0.31,1.179
2024-10-15 13:57:15.831,74587.285,0.094,0.303,-0.948,0.277,-0.095,0.234,-0.127,-0.626,-0.244,0.099,-0.308,1.178
2024-10-15 13:57:15.841,74587.295,0.087,0.305,-0.948,0.432,-0.29,0.108,-0.07,-0.626,-0.42,0.091,-0.31,1.174
2024-10-15 13:57:15.852,74587.305,0.08,0.306,-0.949,0.162,-0.129,0.055,-0.192,-0.476,-0.327,0.084,-0.311,1.17
2024-10-15 13:57:15.861,74587.315,0.075,0.309,-0.948,-0.183,0.166,0.006,-0.415,-0.436,-0.187,0.079,-0.314,1.168
2024-10-15 13:57:15.871,74587.325,0.071,0.314,-0.947,-0.341,0.288,0.02,-0.491,-0.458,-0.022,0.075,-0.319,1.167
2024-10-15 13:57:15.881,74587.335,0.067,0.318,-0.946,-0.449,0.298,0.007,-0.398,-0.441,0.129,0.07,-0.324,1.168
2024-10-15 13:57:15.891,74587.345,0.064,0.321,-0.945,-0.537,0.377,-0.015,-0.132,-0.247,0.145,0.067,-0.326,1.17
2024-10-15 13:57:15.901,74587.355,0.064,0.321,-0.945,-0.616,0.39,-0.017,-0.018,0.113,0.145,0.067,-0.327,1.171
2024-10-15 13:57:15.911,74587.365,0.066,0.322,-0.944,-0.666,0.203,-0.023,-0.167,0.273,0.189,0.07,-0.328,1.173
2024-10-15 13:57:15.921,74587.375,0.069,0.324,-0.944,-0.61,-0.027,-0.087,-0.285,0.25,0.17,0.073,-0.33,1.175
2024-10-15 13:57:15.931,74587.385,0.072,0.327,-0.942,-0.454,-0.187,-0.132,-0.414,0.23,0.116,0.076,-0.333,1.177
2024-10-15 13:57:15.941,74587.395,0.075,0.331,-0.941,-0.29,-0.244,-0.121,-0.473,0.303,0.075,0.079,-0.338,1.178
2024-10-15 13:57:15.951,74587.405,0.078,0.337,-0.938,-0.169,-0.19,-0.116,-0.852,0.292,0.175,0.083,-0.344,1.18
2024-10-15 13:57:15.961,74587.415,0.081,0.346,-0.935,-0.069,-0.109,-0.154,-1.051,0.133,0.383,0.086,-0.354,1.184
2024-10-15 13:57:15.971,74587.425,0.083,0.353,-0.932,0.034,0.047,-0.161,-0.395,-0.001,0.48,0.089,-0.361,1.189
2024-10-15 13:57:15.982,74587.435,0.085,0.353,-0.932,0.082,0.332,-0.133,0.183,0.022,0.601,0.091,-0.361,1.195
2024-10-15 13:57:15.991,74587.445,0.088,0.35,-0.933,0.051,0.556,-0.094,0.304,0.096,0.665,0.094,-0.358,1.202
2024-10-15 13:57:16.001,74587.455,0.091,0.346,-0.934,0.082,0.5,0.052,0.469,0.181,0.621,0.097,-0.353,1.208
2024-10-15 13:57:16.011,74587.465,0.095,0.34,-0.935,0.167,0.151,0.124,0.631,0.217,0.503,0.101,-0.347,1.214
2024-10-15 13:57:16.021,74587.475,0.098,0.333,-0.938,0.269,-0.273,0.128,0.872,0.163,0.313,0.105,-0.34,1.217
2024-10-15 13:57:16.031,74587.485,0.1,0.324,-0.941,0.398,-0.501,0.133,0.901,-0.028,0.052,0.106,-0.33,1.218
2024-10-15 13:57:16.041,74587.495,0.098,0.318,-0.943,0.509,-0.682,0.093,0.33,-0.227,-0.228,0.104,-0.324,1.216
2024-10-15 13:57:16.051,74587.505,0.095,0.318,-0.943,0.56,-0.878,0.024,-0.152,-0.28,-0.409,0.1,-0.324,1.213
2024-10-15 13:57:16.061,74587.515,0.091,0.32,-0.943,0.513,-0.837,-0.006,-0.131,-0.26,-0.491,0.096,-0.326,1.208
2024-10-15 13:57:16.071,74587.524,0.087,0.321,-0.943,0.331,-0.459,-0.063,-0.083,-0.239,-0.413,0.092,-0.327,1.203
2024-10-15 13:57:16.081,74587.534,0.084,0.323,-0.943,0.129,-0.016,-0.113,-0.122,-0.192,-0.226,0.089,-0.329,1.2
2024-10-15 13:57:16.091,74587.544,0.083,0.321,-0.943,0.029,0.289,-0.055,0.567,0.178,-0.129,0.088,-0.327,1.198
2024-10-15 13:57:16.102,74587.554,0.085,0.313,-0.946,-0.004,0.439,0.137,1.037,0.239,0.001,0.09,-0.318,1.197
2024-10-15 13:57:16.111,74587.564,0.085,0.306,-0.948,0.059,0.394,0.284,0.432,-0.308,0.023,0.089,-0.311,1.196
2024-10-15 13:57:16.121,74587.574,0.079,0.304,-0.949,0.257,0.216,0.174,0.138,-0.768,-0.16,0.084,-0.308,1.195
2024-10-15 13:57:16.131,74587.584,0.071,0.303,-0.95,0.309,0.048,0.144,-0.011,-0.804,-0.194,0.075,-0.308,1.193
2024-10-15 13:57:16.141,74587.594,0.064,0.304,-0.95,0.033,0.049,0.049,-0.243,-0.647,-0.124,0.067,-0.309,1.192
2024-10-15 13:57:16.151,74587.604,0.058,0.308,-0.95,-0.259,0.151,0.032,-0.484,-0.482,-0.059,0.061,-0.313,1.191
2024-10-15 13:57:16.161,74587.614,0.054,0.313,-0.948,-0.443,0.159,0.024,-0.584,-0.417,-0.003,0.057,-0.318,1.191
2024-10-15 13:57:16.171,74587.624,0.051,0.318,-0.947,-0.567,0.137,-0.001,-0.483,-0.29,0.03,0.053,-0.324,1.192
2024-10-15 13:57:16.181,74587.634,0.049,0.322,-0.946,-0.645,0.196,-0.003,-0.251,0.012,0.035,0.052,-0.327,1.192
2024-10-15 13:57:16.191,74587.644,0.051,0.323,-0.945,-0.684,0.203,0.003,-0.147,0.289,0.083,0.054,-0.329,1.193
2024-10-15 13:57:16.201,74587.654,0.055,0.325,-0.944,-0.648,0.092,-0.017,-0.171,0.387,0.132,0.058,-0.331,1.194
2024-10-15 13:57:16.211,74587.664,0.059,0.327,-0.943,-0.494,-0.018,-0.071,-0.219,0.403,0.151,0.062,-0.333,1.196
2024-10-15 13:57:16.221,74587.674,0.063,0.329,-0.942,-0.293,-0.046,-0.118,-0.32,0.504,0.186,0.067,-0.335,1.198
2024-10-15 13:57:16.231,74587.684,0.069,0.334,-0.94,-0.135,-0.016,-0.14,-0.875,0.373,0.375,0.073,-0.341,1.201
2024-10-15 13:57:16.241,74587.694,0.073,0.343,-0.937,-0.002,0.032,-0.165,-0.962,0.09,0.502,0.077,-0.35,1.206
2024-10-15 13:57:16.251,74587.704,0.075,0.348,-0.935,0.128,0.127,-0.105,-0.108,0.011,0.491,0.08,-0.355,1.212
2024-10-15 13:57:16.261,74587.714,0.077,0.345,-0.935,0.156,0.291,-0.041,0.525,0.114,0.451,0.082,-0.352,1.217
2024-10-15 13:57:16.271,74587.724,0.08,0.339,-0.937,0.122,0.303,0.052,0.756,0.248,0.305,0.085,-0.346,1.221
2024-10-15 13:57:16.281,74587.734,0.083,0.331,-0.94,0.187,0.028,0.128,0.931,0.321,0.112,0.088,-0.337,1.222
2024-10-15 13:57:16.291,74587.744,0.086,0.322,-0.943,0.322,-0.388,0.095,0.811,0.198,-0.041,0.091,-0.328,1.221
2024-10-15 13:57:16.301,74587.754,0.086,0.316,-0.945,0.489,-0.682,0.038,0.409,-0.046,-0.177,0.091,-0.322,1.22
2024-10-15 13:57:16.311,74587.764,0.084,0.315,-0.945,0.628,-0.724,-0.016,0.039,-0.25,-0.315,0.089,-0.32,1.217
2024-10-15 13:57:16.320,74587.774,0.08,0.315,-0.946,0.636,-0.621,-0.041,0.044,-0.29,-0.398,0.085,-0.32,1.213
2024-10-15 13:57:16.330,74587.784,0.077,0.314,-0.946,0.46,-0.341,-0.066,0.092,-0.246,-0.341,0.081,-0.32,1.209
2024-10-15 13:57:16.340,74587.794,0.074,0.314,-0.946,0.22,0.009,-0.076,-0.023,-0.172,-0.182,0.078,-0.32,1.206
2024-10-15 13:57:16.350,74587.804,0.072,0.314,-0.947,0.078,0.254,-0.017,0.151,-0.066,-0.056,0.076,-0.319,1.205
2024-10-15 13:57:16.361,74587.814,0.073,0.309,-0.948,0.016,0.343,0.086,0.918,0.226,-0.097,0.077,-0.314,1.204
2024-10-15 13:57:16.370,74587.824,0.075,0.301,-0.951,0.002,0.283,0.261,0.521,0.1,-0.021,0.078,-0.306,1.203
2024-10-15 13:57:16.380,74587.834,0.073,0.3,-0.951,0.105,0.065,0.209,-0.209,-0.316,-0.134,0.077,-0.305,1.202
2024-10-15 13:57:16.390,74587.844,0.069,0.303,-0.951,0.279,-0.162,0.108,-0.213,-0.476,-0.313,0.072,-0.307,1.2
2024-10-15 13:57:16.400,74587.854,0.064,0.304,-0.95,0.191,-0.188,0.074,-0.12,-0.409,-0.316,0.067,-0.309,1.196
2024-10-15 13:57:16.411,74587.864,0.059,0.306,-0.95,-0.085,-0.013,0.014,-0.2,-0.345,-0.254,0.062,-0.311,1.193
2024-10-15 13:57:16.421,74587.874,0.055,0.308,-0.95,-0.258,0.148,0.044,-0.277,-0.33,-0.153,0.058,-0.314,1.191
2024-10-15 13:57:16.430,74587.884,0.052,0.311,-0.949,-0.361,0.19,0.03,-0.249,-0.352,-0.066,0.054,-0.316,1.19
2024-10-15 13:57:16.440,74587.894,0.049,0.313,-0.949,-0.44,0.249,0.024,-0.131,-0.25,0.014,0.051,-0.318,1.19
2024-10-15 13:57:16.450,74587.904,0.048,0.314,-0.948,-0.507,0.327,0.023,-0.112,-0.027,0.08,0.05,-0.319,1.191
2024-10-15 13:57:16.460,74587.914,0.048,0.315,-0.948,-0.552,0.29,-0.03,-0.112,0.119,0.096,0.051,-0.32,1.192
2024-10-15 13:57:16.470,74587.924,0.05,0.316,-0.947,-0.552,0.154,-0.088,-0.118,0.218,0.131,0.053,-0.322,1.193
2024-10-15 13:57:16.480,74587.934,0.053,0.317,-0.947,-0.488,-0.002,-0.095,-0.17,0.31,0.17,0.056,-0.323,1.195
2024-10-15 13:57:16.491,74587.944,0.057,0.319,-0.946,-0.358,-0.116,-0.065,-0.19,0.382,0.17,0.06,-0.325,1.197
2024-10-15 13:57:16.500,74587.954,0.062,0.321,-0.945,-0.21,-0.135,-0.085,-0.347,0.43,0.201,0.065,-0.327,1.199
2024-10-15 13:57:16.511,74587.964,0.066,0.326,-0.943,-0.075,-0.117,-0.129,-0.767,0.277,0.371,0.07,-0.332,1.202
2024-10-15 13:57:16.520,74587.974,0.069,0.333,-0.94,0.059,-0.056,-0.178,-0.592,0.082,0.44,0.073,-0.339,1.207
2024-10-15 13:57:16.530,74587.984,0.071,0.334,-0.94,0.171,0.109,-0.129,0.197,0.101,0.44,0.076,-0.341,1.212
2024-10-15 13:57:16.541,74587.994,0.074,0.33,-0.941,0.182,0.297,-0.067,0.632,0.164,0.417,0.078,-0.336,1.216
2024-10-15 13:57:16.550,74588.004,0.077,0.323,-0.943,0.193,0.274,0.032,0.664,0.171,0.322,0.081,-0.329,1.219
2024-10-15 13:57:16.560,74588.014,0.079,0.317,-0.945,0.31,-0.046,0.104,0.579,0.103,0.19,0.083,-0.323,1.222
2024-10-15 13:57:16.570,74588.024,0.079,0.313,-0.947,0.451,-0.415,0.057,0.357,-0.06,0.013,0.084,-0.318,1.222
2024-10-15 13:57:16.580,74588.034,0.078,0.311,-0.947,0.547,-0.6,0.036,0.013,-0.251,-0.185,0.082,-0.316,1.221
2024-10-15 13:57:16.590,74588.044,0.074,0.312,-0.947,0.562,-0.642,0.041,-0.156,-0.342,-0.338,0.078,-0.317,1.219
2024-10-15 13:57:16.600,74588.054,0.069,0.314,-0.947,0.46,-0.558,0.023,-0.104,-0.344,-0.395,0.073,-0.319,1.215
2024-10-15 13:57:16.610,74588.064,0.065,0.315,-0.947,0.251,-0.289,-0.026,-0.039,-0.325,-0.344,0.069,-0.32,1.211
2024-10-15 13:57:16.620,74588.074,0.061,0.314,-0.948,0.062,0.018,-0.056,0.321,-0.168,-0.293,0.065,-0.319,1.208
2024-10-15 13:57:16.630,74588.084,0.061,0.307,-0.95,-0.047,0.243,0.048,1.142,0.226,-0.269,0.064,-0.312,1.204
2024-10-15 13:57:16.639,74588.094,0.063,0.297,-0.953,-0.08,0.329,0.295,0.761,0.131,-0.072,0.066,-0.302,1.202
2024-10-15 13:57:16.649,74588.104,0.061,0.293,-0.954,0.043,0.223,0.214,0.177,-0.407,-0.172,0.064,-0.297,1.2
2024-10-15 13:57:16.659,74588.113,0.055,0.292,-0.955,0.242,0.058,0.069,0.107,-0.659,-0.316,0.057,-0.296,1.197
2024-10-15 13:57:16.670,74588.123,0.048,0.292,-0.955,0.153,0.039,0.015,-0.032,-0.578,-0.212,0.05,-0.296,1.194
2024-10-15 13:57:16.680,74588.133,0.043,0.293,-0.955,-0.145,0.218,-0.026,-0.362,-0.458,-0.075,0.045,-0.298,1.193
2024-10-15 13:57:16.690,74588.143,0.039,0.298,-0.954,-0.361,0.296,0.01,-0.589,-0.412,0.006,0.04,-0.303,1.193
2024-10-15 13:57:16.700,74588.153,0.035,0.303,-0.952,-0.517,0.214,0.023,-0.411,-0.277,0.046,0.037,-0.308,1.194
2024-10-15 13:57:16.710,74588.163,0.035,0.305,-0.952,-0.633,0.209,0.046,-0.1,0.084,0.071,0.036,-0.31,1.194
2024-10-15 13:57:16.720,74588.173,0.037,0.306,-0.951,-0.688,0.213,0.068,-0.073,0.42,0.105,0.039,-0.311,1.195
2024-10-15 13:57:16.730,74588.183,0.042,0.308,-0.951,-0.654,0.078,0.053,-0.271,0.495,0.092,0.044,-0.313,1.196
2024-10-15 13:57:16.741,74588.193,0.047,0.311,-0.949,-0.495,-0.123,-0.006,-0.449,0.456,0.071,0.049,-0.316,1.197
2024-10-15 13:57:16.750,74588.203,0.051,0.316,-0.948,-0.273,-0.203,-0.068,-0.505,0.465,0.103,0.054,-0.321,1.198
2024-10-15 13:57:16.760,74588.213,0.057,0.321,-0.946,-0.101,-0.133,-0.127,-0.64,0.486,0.204,0.06,-0.326,1.2
2024-10-15 13:57:16.770,74588.223,0.061,0.327,-0.943,0.018,-0.001,-0.159,-0.774,0.298,0.373,0.065,-0.334,1.204
2024-10-15 13:57:16.780,74588.233,0.064,0.332,-0.941,0.112,0.153,-0.167,-0.225,0.048,0.382,0.068,-0.339,1.208
2024-10-15 13:57:16.790,74588.243,0.066,0.331,-0.941,0.155,0.329,-0.072,0.465,0.117,0.363,0.07,-0.337,1.212
2024-10-15 13:57:16.800,74588.253,0.069,0.325,-0.943,0.112,0.388,0.017,0.668,0.269,0.304,0.073,-0.331,1.215
2024-10-15 13:57:16.810,74588.263,0.072,0.318,-0.945,0.134,0.161,0.094,0.656,0.314,0.133,0.076,-0.324,1.217
2024-10-15 13:57:16.820,74588.273,0.075,0.313,-0.947,0.252,-0.259,0.107,0.573,0.239,-0.045,0.079,-0.318,1.217
2024-10-15 13:57:16.829,74588.283,0.076,0.308,-0.948,0.395,-0.626,0.067,0.324,0.088,-0.209,0.08,-0.313,1.215
2024-10-15 13:57:16.840,74588.293,0.075,0.307,-0.949,0.515,-0.768,0.035,-0.008,-0.117,-0.361,0.079,-0.312,1.212
2024-10-15 13:57:16.849,74588.303,0.072,0.308,-0.949,0.565,-0.715,-0.003,-0.084,-0.278,-0.488,0.076,-0.313,1.208
2024-10-15 13:57:16.859,74588.313,0.067,0.309,-0.949,0.477,-0.482,-0.061,-0.061,-0.314,-0.484,0.071,-0.314,1.203
2024-10-15 13:57:16.870,74588.323,0.064,0.31,-0.948,0.26,-0.118,-0.137,-0.18,-0.194,-0.356,0.067,-0.316,1.198
2024-10-15 13:57:16.880,74588.333,0.062,0.312,-0.948,0.067,0.168,-0.148,0.018,0.003,-0.239,0.065,-0.317,1.195
2024-10-15 13:57:16.889,74588.343,0.063,0.308,-0.949,-0.037,0.297,-0.039,0.877,0.388,-0.284,0.066,-0.313,1.192
2024-10-15 13:57:16.899,74588.353,0.066,0.299,-0.952,-0.067,0.314,0.155,0.746,0.263,-0.197,0.069,-0.304,1.189
2024-10-15 13:57:16.910,74588.363,0.065,0.297,-0.953,0.035,0.15,0.165,-0.14,-0.302,-0.212,0.068,-0.301,1.187
2024-10-15 13:57:16.920,74588.373,0.06,0.299,-0.952,0.239,-0.114,0.092,-0.26,-0.57,-0.326,0.063,-0.304,1.184
2024-10-15 13:57:16.930,74588.383,0.054,0.301,-0.952,0.184,-0.096,0.081,-0.201,-0.522,-0.215,0.056,-0.306,1.181
2024-10-15 13:57:16.940,74588.393,0.049,0.304,-0.952,-0.135,0.174,0.016,-0.296,-0.437,-0.043,0.051,-0.309,1.18
2024-10-15 13:57:16.950,74588.403,0.045,0.307,-0.951,-0.345,0.365,0.066,-0.374,-0.37,0.09,0.047,-0.312,1.181
2024-10-15 13:57:16.960,74588.413,0.043,0.31,-0.95,-0.468,0.365,0.083,-0.278,-0.22,0.158,0.045,-0.315,1.182
2024-10-15 13:57:16.969,74588.423,0.042,0.311,-0.949,-0.56,0.35,0.091,-0.042,0.12,0.15,0.045,-0.317,1.184
2024-10-15 13:57:16.979,74588.433,0.046,0.312,-0.949,-0.604,0.306,0.076,-0.054,0.405,0.183,0.048,-0.317,1.186
2024-10-15 13:57:16.989,74588.443,0.05,0.313,-0.948,-0.57,0.115,0.004,-0.196,0.487,0.2,0.053,-0.318,1.188
2024-10-15 13:57:17.000,74588.453,0.056,0.315,-0.947,-0.423,-0.109,-0.064,-0.308,0.447,0.177,0.059,-0.321,1.19
2024-10-15 13:57:17.010,74588.463,0.06,0.319,-0.946,-0.233,-0.23,-0.122,-0.622,0.433,0.185,0.064,-0.325,1.192
2024-10-15 13:57:17.019,74588.473,0.064,0.327,-0.943,-0.081,-0.215,-0.162,-0.95,0.187,0.317,0.067,-0.333,1.195
2024-10-15 13:57:17.030,74588.483,0.065,0.334,-0.94,0.03,-0.105,-0.174,-0.581,-0.129,0.343,0.069,-0.341,1.199
2024-10-15 13:57:17.039,74588.493,0.065,0.335,-0.94,0.078,0.099,-0.087,0.299,-0.045,0.35,0.069,-0.342,1.203
2024-10-15 13:57:17.050,74588.503,0.067,0.33,-0.942,0.013,0.392,-0.037,0.703,0.148,0.367,0.071,-0.336,1.207
2024-10-15 13:57:17.060,74588.513,0.07,0.323,-0.944,-0.023,0.432,0.035,0.713,0.256,0.285,0.074,-0.329,1.209
2024-10-15 13:57:17.069,74588.523,0.073,0.316,-0.946,0.068,0.082,0.074,0.645,0.29,0.171,0.077,-0.322,1.211
2024-10-15 13:57:17.079,74588.533,0.076,0.31,-0.948,0.225,-0.369,0.071,0.605,0.232,0.036,0.08,-0.315,1.212
2024-10-15 13:57:17.089,74588.543,0.077,0.305,-0.949,0.402,-0.6,0.071,0.376,0.035,-0.145,0.081,-0.31,1.211
2024-10-15 13:57:17.099,74588.553,0.076,0.304,-0.95,0.549,-0.678,0.036,0.016,-0.223,-0.325,0.08,-0.309,1.208
2024-10-15 13:57:17.110,74588.563,0.072,0.304,-0.95,0.617,-0.667,0.005,-0.049,-0.343,-0.447,0.076,-0.309,1.204
2024-10-15 13:57:17.119,74588.573,0.067,0.305,-0.95,0.523,-0.446,-0.049,0.051,-0.329,-0.455,0.071,-0.31,1.199
2024-10-15 13:57:17.130,74588.583,0.063,0.305,-0.95,0.292,-0.062,-0.101,-0.043,-0.228,-0.311,0.066,-0.31,1.195
2024-10-15 13:57:17.139,74588.593,0.061,0.306,-0.95,0.109,0.214,-0.095,-0.108,-0.151,-0.094,0.064,-0.311,1.193
2024-10-15 13:57:17.149,74588.603,0.06,0.304,-0.951,0.023,0.336,-0.011,0.506,0.061,-0.045,0.063,-0.309,1.193
2024-10-15 13:57:17.159,74588.613,0.061,0.296,-0.953,-0.019,0.408,0.132,1.04,0.151,-0.121,0.064,-0.301,1.191
2024-10-15 13:57:17.169,74588.623,0.061,0.29,-0.955,-0.019,0.324,0.212,0.102,-0.197,-0.081,0.063,-0.295,1.19
2024-10-15 13:57:17.179,74588.633,0.057,0.293,-0.954,0.082,-0.001,0.138,-0.495,-0.508,-0.166,0.059,-0.297,1.189
2024-10-15 13:57:17.189,74588.643,0.051,0.298,-0.953,0.136,-0.193,0.154,-0.425,-0.56,-0.172,0.053,-0.302,1.187
2024-10-15 13:57:17.199,74588.653,0.046,0.302,-0.952,-0.096,-0.02,0.083,-0.403,-0.453,-0.054,0.048,-0.306,1.186
2024-10-15 13:57:17.209,74588.663,0.042,0.305,-0.951,-0.341,0.243,0.059,-0.387,-0.318,0.052,0.044,-0.31,1.186
2024-10-15 13:57:17.220,74588.673,0.04,0.308,-0.95,-0.482,0.315,0.078,-0.214,-0.132,0.092,0.042,-0.313,1.187
2024-10-15 13:57:17.229,74588.683,0.041,0.309,-0.95,-0.583,0.273,0.068,-0.004,0.185,0.117,0.043,-0.314,1.188
2024-10-15 13:57:17.239,74588.693,0.044,0.309,-0.95,-0.621,0.233,0.044,0.047,0.471,0.163,0.047,-0.314,1.19
2024-10-15 13:57:17.249,74588.703,0.05,0.309,-0.95,-0.563,0.141,-0.009,-0.04,0.596,0.176,0.053,-0.314,1.191
2024-10-15 13:57:17.259,74588.712,0.056,0.31,-0.949,-0.4,-0.026,-0.075,-0.182,0.609,0.157,0.059,-0.315,1.193
2024-10-15 13:57:17.269,74588.722,0.062,0.313,-0.948,-0.196,-0.165,-0.122,-0.509,0.555,0.19,0.066,-0.318,1.195
2024-10-15 13:57:17.279,74588.732,0.067,0.319,-0.945,-0.014,-0.191,-0.144,-0.778,0.287,0.297,0.071,-0.324,1.198
2024-10-15 13:57:17.289,74588.742,0.069,0.324,-0.944,0.137,-0.076,-0.152,-0.276,-0.015,0.256,0.073,-0.33,1.202
2024-10-15 13:57:17.299,74588.752,0.07,0.323,-0.944,0.203,0.137,-0.039,0.467,0.065,0.219,0.074,-0.329,1.204
2024-10-15 13:57:17.309,74588.762,0.072,0.317,-0.946,0.138,0.253,0.01,0.676,0.229,0.142,0.076,-0.322,1.206
2024-10-15 13:57:17.319,74588.772,0.075,0.311,-0.948,0.142,0.077,0.073,0.576,0.301,-0.005,0.079,-0.316,1.206
2024-10-15 13:57:17.329,74588.782,0.077,0.307,-0.949,0.276,-0.328,0.083,0.239,0.172,-0.116,0.081,-0.312,1.205
2024-10-15 13:57:17.339,74588.792,0.076,0.307,-0.949,0.456,-0.683,0.04,-0.124,-0.15,-0.246,0.08,-0.312,1.203
2024-10-15 13:57:17.349,74588.802,0.073,0.309,-0.948,0.601,-0.715,-0.0,-0.181,-0.424,-0.465,0.076,-0.314,1.199
2024-10-15 13:57:17.359,74588.812,0.067,0.31,-0.948,0.562,-0.489,-0.056,-0.124,-0.482,-0.556,0.07,-0.315,1.194
2024-10-15 13:57:17.369,74588.822,0.061,0.312,-0.948,0.324,-0.187,-0.101,-0.303,-0.355,-0.43,0.064,-0.318,1.189
2024-10-15 13:57:17.379,74588.832,0.057,0.316,-0.947,0.096,0.025,-0.088,-0.383,-0.169,-0.288,0.061,-0.322,1.185
2024-10-15 13:57:17.389,74588.842,0.056,0.318,-0.946,-0.026,0.109,-0.046,0.126,0.099,-0.361,0.059,-0.324,1.182
2024-10-15 13:57:17.398,74588.852,0.057,0.315,-0.947,-0.096,0.162,0.017,0.359,0.267,-0.378,0.06,-0.321,1.178
2024-10-15 13:57:17.409,74588.862,0.058,0.314,-0.948,-0.106,0.155,0.045,-0.053,0.12,-0.305,0.061,-0.319,1.174
2024-10-15 13:57:17.419,74588.872,0.057,0.316,-0.947,0.014,0.041,0.079,-0.236,-0.078,-0.304,0.06,-0.321,1.171
2024-10-15 13:57:17.429,74588.882,0.055,0.318,-0.946,0.09,0.031,0.053,-0.261,-0.123,-0.242,0.058,-0.324,1.169
2024-10-15 13:57:17.439,74588.892,0.054,0.321,-0.945,-0.046,0.187,-0.042,-0.379,0.021,-0.175,0.057,-0.327,1.167
2024-10-15 13:57:17.449,74588.902,0.054,0.326,-0.944,-0.228,0.295,-0.021,-0.684,0.262,-0.132,0.058,-0.332,1.165
2024-10-15 13:57:17.459,74588.912,0.058,0.335,-0.941,-0.353,0.212,0.025,-1.135,0.502,-0.106,0.061,-0.341,1.165
2024-10-15 13:57:17.468,74588.922,0.063,0.348,-0.936,-0.415,0.046,0.066,-1.598,0.702,-0.092,0.067,-0.355,1.164
2024-10-15 13:57:17.479,74588.932,0.07,0.365,-0.929,-0.405,-0.132,0.108,-2.023,0.799,-0.073,0.075,-0.373,1.165
2024-10-15 13:57:17.489,74588.942,0.077,0.385,-0.92,-0.341,-0.257,0.147,-2.31,0.805,-0.084,0.083,-0.395,1.166
2024-10-15 13:57:17.498,74588.952,0.084,0.406,-0.91,-0.259,-0.298,0.157,-2.297,0.788,-0.162,0.092,-0.418,1.167
2024-10-15 13:57:17.510,74588.962,0.09,0.426,-0.9,-0.2,-0.268,0.118,-1.961,0.815,-0.256,0.1,-0.44,1.167
2024-10-15 13:57:17.519,74588.972,0.097,0.441,-0.892,-0.177,-0.162,0.063,-1.509,0.953,-0.275,0.108,-0.457,1.166
2024-10-15 13:57:17.528,74588.982,0.105,0.453,-0.885,-0.171,0.008,-0.005,-1.034,1.159,-0.278,0.118,-0.47,1.164
2024-10-15 13:57:17.538,74588.992,0.114,0.46,-0.88,-0.163,0.162,-0.113,-0.601,1.277,-0.334,0.129,-0.478,1.162
2024-10-15 13:57:17.549,74589.002,0.124,0.465,-0.877,-0.134,0.238,-0.224,-0.391,1.284,-0.393,0.14,-0.484,1.159
2024-10-15 13:57:17.559,74589.012,0.133,0.469,-0.873,-0.082,0.22,-0.236,-0.423,1.254,-0.358,0.151,-0.488,1.155
2024-10-15 13:57:17.568,74589.022,0.142,0.473,-0.869,-0.02,0.134,-0.156,-0.441,1.185,-0.262,0.162,-0.493,1.153
2024-10-15 13:57:17.578,74589.032,0.151,0.477,-0.866,0.029,0.067,-0.121,-0.358,1.101,-0.165,0.173,-0.497,1.151
2024-10-15 13:57:17.588,74589.042,0.16,0.48,-0.863,0.037,0.051,-0.103,-0.231,1.005,-0.119,0.183,-0.501,1.15
2024-10-15 13:57:17.599,74589.052,0.167,0.481,-0.86,0.024,0.078,-0.058,-0.101,0.898,-0.1,0.192,-0.502,1.149
2024-10-15 13:57:17.609,74589.062,0.174,0.482,-0.859,0.014,0.088,-0.014,0.01,0.762,-0.05,0.2,-0.503,1.148
2024-10-15 13:57:17.618,74589.072,0.18,0.481,-0.858,0.027,0.076,0.021,0.112,0.608,0.012,0.207,-0.502,1.148
2024-10-15 13:57:17.628,74589.082,0.184,0.48,-0.858,0.056,0.069,0.057,0.237,0.432,0.034,0.212,-0.501,1.148
2024-10-15 13:57:17.639,74589.092,0.187,0.477,-0.859,0.085,0.06,0.09,0.374,0.235,0.015,0.215,-0.498,1.147
2024-10-15 13:57:17.649,74589.102,0.189,0.473,-0.86,0.103,0.047,0.114,0.511,0.018,0.007,0.216,-0.493,1.146
2024-10-15 13:57:17.658,74589.112,0.188,0.469,-0.863,0.106,0.029,0.132,0.616,-0.166,0.022,0.214,-0.488,1.145
2024-10-15 13:57:17.668,74589.122,0.186,0.463,-0.867,0.103,0.009,0.125,0.668,-0.325,0.039,0.211,-0.481,1.144
2024-10-15 13:57:17.678,74589.132,0.183,0.457,-0.87,0.086,-0.006,0.111,0.601,-0.449,0.037,0.207,-0.475,1.143
2024-10-15 13:57:17.688,74589.142,0.179,0.453,-0.874,0.06,-0.032,0.111,0.456,-0.49,0.06,0.202,-0.47,1.142
2024-10-15 13:57:17.698,74589.152,0.175,0.449,-0.876,0.035,-0.064,0.145,0.373,-0.473,0.079,0.197,-0.466,1.142
2024-10-15 13:57:17.709,74589.162,0.171,0.446,-0.879,0.009,-0.057,0.157,0.345,-0.426,0.076,0.193,-0.462,1.142
2024-10-15 13:57:17.719,74589.172,0.168,0.443,-0.881,-0.016,-0.03,0.134,0.274,-0.359,0.088,0.189,-0.459,1.142
2024-10-15 13:57:17.728,74589.182,0.166,0.44,-0.882,-0.028,-0.015,0.094,0.283,-0.273,0.098,0.186,-0.456,1.143
2024-10-15 13:57:17.738,74589.192,0.164,0.437,-0.884,-0.017,-0.001,0.053,0.405,-0.23,0.063,0.183,-0.452,1.143
2024-10-15 13:57:17.748,74589.202,0.162,0.433,-0.887,0.007,0.032,-0.006,0.541,-0.256,0.027,0.181,-0.448,1.143
2024-10-15 13:57:17.758,74589.212,0.16,0.428,-0.89,0.039,0.077,-0.042,0.565,-0.318,0.018,0.178,-0.442,1.142
2024-10-15 13:57:17.768,74589.222,0.157,0.423,-0.892,0.069,0.08,-0.034,0.469,-0.364,0.053,0.174,-0.437,1.141
2024-10-15 13:57:17.778,74589.232,0.154,0.419,-0.895,0.089,0.027,0.005,0.385,-0.344,0.12,0.17,-0.433,1.141
2024-10-15 13:57:17.788,74589.242,0.152,0.416,-0.897,0.084,0.011,0.039,0.403,-0.303,0.179,0.167,-0.429,1.142
2024-10-15 13:57:17.798,74589.252,0.15,0.412,-0.898,0.069,0.019,0.08,0.19,-0.163,0.252,0.166,-0.425,1.144
2024-10-15 13:57:17.808,74589.262,0.15,0.411,-0.899,0.064,0.017,0.092,0.121,-0.112,0.37,0.166,-0.423,1.147
2024-10-15 13:57:17.818,74589.272,0.151,0.409,-0.9,0.064,0.04,-0.073,0.18,-0.179,0.386,0.166,-0.421,1.151
2024-10-15 13:57:17.828,74589.282,0.151,0.406,-0.901,0.087,0.054,-0.116,0.254,-0.182,0.327,0.166,-0.418,1.154
2024-10-15 13:57:17.838,74589.292,0.15,0.403,-0.903,0.112,0.098,-0.041,0.315,-0.139,0.332,0.165,-0.415,1.157
2024-10-15 13:57:17.848,74589.301,0.151,0.399,-0.904,0.139,0.101,-0.058,0.495,-0.151,0.401,0.165,-0.411,1.161
2024-10-15 13:57:17.858,74589.311,0.151,0.393,-0.907,0.171,0.112,-0.041,0.735,-0.188,0.453,0.165,-0.404,1.164
2024-10-15 13:57:17.868,74589.321,0.151,0.385,-0.911,0.186,0.117,0.003,0.946,-0.227,0.453,0.164,-0.395,1.167
2024-10-15 13:57:17.878,74589.331,0.15,0.374,-0.915,0.189,0.085,0.022,1.176,-0.263,0.393,0.163,-0.384,1.17
2024-10-15 13:57:17.888,74589.341,0.149,0.362,-0.92,0.195,0.011,0.048,1.336,-0.35,0.273,0.16,-0.371,1.172
2024-10-15 13:57:17.898,74589.351,0.146,0.35,-0.925,0.204,-0.072,0.082,1.28,-0.441,0.143,0.156,-0.357,1.172
2024-10-15 13:57:17.908,74589.361,0.142,0.339,-0.93,0.2,-0.163,0.101,1.034,-0.475,0.05,0.151,-0.345,1.171
2024-10-15 13:57:17.918,74589.371,0.137,0.33,-0.934,0.191,-0.289,0.14,0.808,-0.474,-0.056,0.146,-0.337,1.169
2024-10-15 13:57:17.928,74589.381,0.132,0.323,-0.937,0.184,-0.359,0.144,0.712,-0.484,-0.165,0.14,-0.329,1.167
2024-10-15 13:57:17.938,74589.391,0.127,0.317,-0.94,0.153,-0.326,0.048,0.612,-0.522,-0.216,0.134,-0.323,1.164
2024-10-15 13:57:17.948,74589.401,0.122,0.312,-0.942,0.095,-0.251,-0.067,0.602,-0.48,-0.277,0.128,-0.317,1.161
2024-10-15 13:57:17.965,74589.411,0.116,0.306,-0.945,0.026,-0.17,-0.097,0.688,-0.426,-0.349,0.123,-0.311,1.156
2024-10-15 13:57:17.969,74589.421,0.111,0.3,-0.948,-0.043,-0.092,-0.088,0.774,-0.489,-0.394,0.117,-0.304,1.152
2024-10-15 13:57:17.978,74589.431,0.105,0.293,-0.95,-0.093,0.011,-0.074,0.743,-0.639,-0.4,0.11,-0.297,1.147
2024-10-15 13:57:17.987,74589.441,0.097,0.287,-0.953,-0.134,0.091,-0.08,0.463,-0.753,-0.338,0.101,-0.292,1.142
2024-10-15 13:57:17.998,74589.451,0.089,0.286,-0.954,-0.203,0.147,-0.109,-0.03,-0.76,-0.24,0.093,-0.29,1.139
2024-10-15 13:57:18.008,74589.461,0.081,0.288,-0.954,-0.311,0.171,-0.091,-0.521,-0.661,-0.069,0.085,-0.293,1.137
2024-10-15 13:57:18.018,74589.471,0.076,0.294,-0.953,-0.427,0.168,-0.029,-0.607,-0.491,0.112,0.08,-0.299,1.138
2024-10-15 13:57:18.028,74589.481,0.073,0.298,-0.952,-0.508,0.195,0.038,-0.236,-0.133,0.203,0.077,-0.303,1.14
2024-10-15 13:57:18.037,74589.491,0.075,0.298,-0.952,-0.541,0.23,0.102,0.127,0.229,0.259,0.078,-0.303,1.143
2024-10-15 13:57:18.047,74589.501,0.078,0.297,-0.952,-0.511,0.211,0.1,0.043,0.308,0.292,0.082,-0.302,1.145
2024-10-15 13:57:18.058,74589.511,0.082,0.298,-0.951,-0.388,0.054,0.085,-0.242,0.201,0.268,0.086,-0.302,1.148
2024-10-15 13:57:18.068,74589.521,0.083,0.301,-0.95,-0.21,-0.092,0.048,-0.563,0.039,0.216,0.088,-0.306,1.151
2024-10-15 13:57:18.078,74589.531,0.084,0.308,-0.948,-0.074,-0.127,-0.083,-0.84,-0.052,0.2,0.088,-0.313,1.154
2024-10-15 13:57:18.088,74589.541,0.084,0.316,-0.945,-0.032,-0.096,-0.143,-0.935,0.047,0.252,0.089,-0.322,1.157
2024-10-15 13:57:18.098,74589.551,0.087,0.324,-0.942,-0.058,-0.024,-0.123,-0.753,0.226,0.34,0.092,-0.33,1.161
2024-10-15 13:57:18.108,74589.561,0.091,0.329,-0.94,-0.073,0.117,-0.072,-0.365,0.351,0.439,0.096,-0.335,1.166
2024-10-15 13:57:18.118,74589.571,0.096,0.33,-0.939,-0.022,0.231,-0.027,0.113,0.44,0.516,0.102,-0.336,1.171
2024-10-15 13:57:18.128,74589.581,0.102,0.326,-0.94,0.1,0.254,0.05,0.512,0.356,0.548,0.108,-0.332,1.176
2024-10-15 13:57:18.138,74589.591,0.106,0.32,-0.942,0.268,0.177,0.107,0.758,0.108,0.48,0.112,-0.325,1.181
2024-10-15 13:57:18.150,74589.601,0.106,0.311,-0.944,0.443,0.034,0.139,0.964,-0.175,0.307,0.112,-0.316,1.184
2024-10-15 13:57:18.157,74589.611,0.104,0.302,-0.948,0.568,-0.169,0.154,0.885,-0.391,0.093,0.11,-0.307,1.185
2024-10-15 13:57:18.167,74589.621,0.1,0.295,-0.95,0.592,-0.397,0.111,0.446,-0.5,-0.089,0.105,-0.3,1.184
2024-10-15 13:57:18.176,74589.631,0.095,0.293,-0.951,0.533,-0.534,0.07,0.094,-0.469,-0.242,0.099,-0.298,1.182
2024-10-15 13:57:18.187,74589.641,0.09,0.293,-0.952,0.399,-0.531,0.016,0.038,-0.384,-0.325,0.094,-0.297,1.179
2024-10-15 13:57:18.197,74589.651,0.086,0.293,-0.952,0.199,-0.328,-0.122,0.11,-0.283,-0.244,0.09,-0.297,1.176
2024-10-15 13:57:18.207,74589.661,0.084,0.29,-0.953,0.024,-0.019,-0.204,0.584,0.148,-0.114,0.088,-0.294,1.174
2024-10-15 13:57:18.217,74589.671,0.087,0.282,-0.955,-0.057,0.206,-0.07,1.013,0.409,0.062,0.091,-0.286,1.173
2024-10-15 13:57:18.228,74589.681,0.09,0.274,-0.958,0.0,0.211,0.139,0.679,0.014,0.035,0.093,-0.277,1.173
2024-10-15 13:57:18.238,74589.691,0.087,0.269,-0.959,0.238,0.082,0.101,0.428,-0.574,-0.274,0.09,-0.272,1.171
2024-10-15 13:57:18.247,74589.701,0.079,0.265,-0.961,0.399,-0.068,0.136,0.387,-0.766,-0.487,0.082,-0.268,1.167
2024-10-15 13:57:18.257,74589.711,0.07,0.262,-0.962,0.216,-0.076,0.111,0.24,-0.72,-0.484,0.073,-0.265,1.161
2024-10-15 13:57:18.267,74589.721,0.063,0.262,-0.963,-0.111,-0.009,0.037,-0.121,-0.648,-0.398,0.065,-0.265,1.157
2024-10-15 13:57:18.278,74589.731,0.056,0.265,-0.963,-0.349,0.022,-0.028,-0.521,-0.564,-0.256,0.058,-0.268,1.154
2024-10-15 13:57:18.288,74589.741,0.05,0.271,-0.961,-0.526,0.075,-0.038,-0.706,-0.464,-0.099,0.052,-0.275,1.152
2024-10-15 13:57:18.297,74589.751,0.047,0.277,-0.96,-0.658,0.188,0.001,-0.483,-0.244,-0.002,0.049,-0.281,1.152
2024-10-15 13:57:18.307,74589.761,0.046,0.28,-0.959,-0.731,0.281,0.043,-0.042,0.12,0.096,0.048,-0.284,1.153
2024-10-15 13:57:18.317,74589.771,0.049,0.279,-0.959,-0.731,0.283,0.073,0.07,0.435,0.223,0.052,-0.283,1.154
2024-10-15 13:57:18.327,74589.781,0.055,0.279,-0.959,-0.635,0.157,0.045,-0.151,0.516,0.219,0.057,-0.283,1.157
2024-10-15 13:57:18.337,74589.791,0.06,0.282,-0.957,-0.448,-0.031,-0.001,-0.543,0.574,0.162,0.063,-0.286,1.159
2024-10-15 13:57:18.347,74589.801,0.066,0.291,-0.955,-0.247,-0.173,-0.076,-1.231,0.453,0.232,0.069,-0.295,1.161
2024-10-15 13:57:18.357,74589.811,0.07,0.304,-0.95,-0.071,-0.186,-0.204,-1.588,0.241,0.309,0.074,-0.309,1.165
2024-10-15 13:57:18.367,74589.821,0.073,0.317,-0.946,0.067,-0.055,-0.152,-0.986,0.199,0.381,0.077,-0.322,1.17
2024-10-15 13:57:18.377,74589.831,0.076,0.322,-0.944,0.098,0.162,-0.101,-0.265,0.256,0.458,0.081,-0.328,1.175
2024-10-15 13:57:18.387,74589.841,0.081,0.322,-0.943,0.059,0.382,-0.115,0.243,0.366,0.507,0.086,-0.328,1.18
2024-10-15 13:57:18.397,74589.851,0.086,0.317,-0.944,0.098,0.488,0.0,0.587,0.378,0.486,0.091,-0.323,1.185
2024-10-15 13:57:18.407,74589.861,0.091,0.311,-0.946,0.226,0.268,0.108,0.654,0.289,0.411,0.096,-0.316,1.189
2024-10-15 13:57:18.417,74589.871,0.094,0.304,-0.948,0.404,-0.143,0.14,0.66,0.09,0.271,0.098,-0.309,1.192
2024-10-15 13:57:18.427,74589.881,0.094,0.299,-0.95,0.571,-0.435,0.138,0.517,-0.161,0.034,0.098,-0.303,1.193
2024-10-15 13:57:18.437,74589.891,0.091,0.295,-0.951,0.649,-0.605,0.095,0.18,-0.352,-0.217,0.095,-0.3,1.191
2024-10-15 13:57:18.447,74589.9,0.087,0.295,-0.952,0.607,-0.676,0.062,-0.057,-0.386,-0.38,0.091,-0.3,1.188
2024-10-15 13:57:18.457,74589.91,0.082,0.296,-0.952,0.456,-0.605,0.017,0.024,-0.336,-0.417,0.086,-0.3,1.184
2024-10-15 13:57:18.467,74589.92,0.078,0.295,-0.952,0.221,-0.289,-0.096,0.078,-0.235,-0.311,0.082,-0.3,1.18
2024-10-15 13:57:18.477,74589.93,0.076,0.294,-0.953,0.025,0.054,-0.131,0.394,0.074,-0.199,0.08,-0.298,1.177
2024-10-15 13:57:18.487,74589.94,0.079,0.287,-0.955,-0.066,0.262,-0.041,1.039,0.481,-0.118,0.082,-0.291,1.175
2024-10-15 13:57:18.497,74589.95,0.083,0.278,-0.957,-0.045,0.237,0.153,0.645,0.277,-0.043,0.086,-0.282,1.174
2024-10-15 13:57:18.507,74589.96,0.082,0.274,-0.958,0.169,0.056,0.14,0.248,-0.303,-0.259,0.085,-0.278,1.172
2024-10-15 13:57:18.517,74589.97,0.077,0.273,-0.959,0.408,-0.098,0.126,0.182,-0.547,-0.473,0.08,-0.276,1.168
2024-10-15 13:57:18.527,74589.98,0.07,0.272,-0.96,0.303,-0.118,0.113,0.007,-0.522,-0.439,0.073,-0.275,1.163
2024-10-15 13:57:18.537,74589.99,0.064,0.274,-0.96,-0.019,0.004,0.072,-0.358,-0.493,-0.319,0.067,-0.277,1.159
2024-10-15 13:57:18.547,74590.0,0.059,0.279,-0.958,-0.268,0.085,0.026,-0.649,-0.524,-0.173,0.061,-0.283,1.157
2024-10-15 13:57:18.557,74590.01,0.054,0.286,-0.957,-0.448,0.147,-0.025,-0.68,-0.52,-0.014,0.056,-0.29,1.156
2024-10-15 13:57:18.567,74590.02,0.049,0.291,-0.956,-0.6,0.301,-0.035,-0.312,-0.378,0.1,0.051,-0.295,1.157
2024-10-15 13:57:18.577,74590.03,0.048,0.291,-0.956,-0.713,0.437,-0.015,0.168,0.043,0.189,0.05,-0.295,1.158
2024-10-15 13:57:18.587,74590.04,0.051,0.288,-0.956,-0.783,0.422,-0.021,0.307,0.45,0.305,0.053,-0.293,1.161
2024-10-15 13:57:18.597,74590.05,0.057,0.286,-0.957,-0.76,0.238,-0.034,0.132,0.621,0.314,0.06,-0.29,1.164
2024-10-15 13:57:18.607,74590.06,0.064,0.286,-0.956,-0.574,-0.031,-0.06,-0.312,0.67,0.238,0.067,-0.29,1.167
2024-10-15 13:57:18.617,74590.07,0.071,0.293,-0.953,-0.312,-0.237,-0.093,-1.135,0.448,0.323,0.074,-0.298,1.17
2024-10-15 13:57:18.627,74590.08,0.075,0.305,-0.949,-0.076,-0.315,-0.137,-1.252,0.121,0.415,0.078,-0.31,1.175
2024-10-15 13:57:18.637,74590.09,0.076,0.312,-0.947,0.122,-0.138,-0.093,-0.24,-0.061,0.414,0.08,-0.317,1.18
2024-10-15 13:57:18.647,74590.1,0.077,0.311,-0.947,0.147,0.26,-0.115,0.34,-0.05,0.447,0.081,-0.316,1.185
2024-10-15 13:57:18.657,74590.11,0.078,0.306,-0.949,0.049,0.526,-0.061,0.471,0.135,0.414,0.082,-0.311,1.189
2024-10-15 13:57:18.667,74590.12,0.082,0.301,-0.95,0.048,0.377,0.065,0.572,0.35,0.294,0.086,-0.306,1.192
2024-10-15 13:57:18.676,74590.13,0.086,0.296,-0.951,0.141,-0.125,0.114,0.543,0.38,0.161,0.09,-0.3,1.194
2024-10-15 13:57:18.687,74590.14,0.089,0.291,-0.953,0.31,-0.525,0.128,0.379,0.174,0.001,0.093,-0.295,1.195
2024-10-15 13:57:18.697,74590.15,0.089,0.289,-0.953,0.518,-0.672,0.104,-0.061,-0.102,-0.193,0.093,-0.294,1.193
2024-10-15 13:57:18.707,74590.16,0.086,0.293,-0.952,0.664,-0.775,0.062,-0.531,-0.257,-0.383,0.09,-0.297,1.191
2024-10-15 13:57:18.716,74590.17,0.083,0.299,-0.951,0.666,-0.749,0.009,-0.586,-0.255,-0.5,0.087,-0.303,1.187
2024-10-15 13:57:18.727,74590.18,0.079,0.304,-0.949,0.474,-0.436,-0.075,-0.489,-0.192,-0.446,0.083,-0.309,1.182
2024-10-15 13:57:18.737,74590.19,0.076,0.309,-0.948,0.209,-0.04,-0.154,-0.374,-0.088,-0.284,0.08,-0.314,1.178
2024-10-15 13:57:18.747,74590.2,0.076,0.31,-0.948,0.049,0.223,-0.155,0.162,0.134,-0.2,0.08,-0.315,1.176
2024-10-15 13:57:18.757,74590.21,0.078,0.304,-0.949,-0.027,0.373,-0.053,1.085,0.454,-0.232,0.082,-0.309,1.173
2024-10-15 13:57:18.767,74590.22,0.081,0.296,-0.952,-0.039,0.35,0.143,0.542,0.182,-0.157,0.085,-0.3,1.171
2024-10-15 13:57:18.776,74590.23,0.079,0.296,-0.952,0.127,-0.008,0.211,-0.449,-0.383,-0.281,0.083,-0.3,1.168
2024-10-15 13:57:18.786,74590.24,0.073,0.301,-0.951,0.367,-0.309,0.221,-0.556,-0.662,-0.438,0.077,-0.306,1.165
2024-10-15 13:57:18.797,74590.25,0.066,0.307,-0.95,0.232,-0.212,0.148,-0.567,-0.672,-0.297,0.069,-0.312,1.161
2024-10-15 13:57:18.806,74590.26,0.059,0.312,-0.948,-0.158,0.155,0.0,-0.596,-0.63,-0.073,0.062,-0.318,1.16
2024-10-15 13:57:18.816,74590.27,0.053,0.318,-0.947,-0.407,0.436,0.018,-0.51,-0.539,0.122,0.056,-0.323,1.161
2024-10-15 13:57:18.826,74590.28,0.05,0.321,-0.946,-0.57,0.492,0.039,-0.253,-0.289,0.176,0.053,-0.327,1.162
2024-10-15 13:57:18.836,74590.29,0.05,0.321,-0.946,-0.695,0.494,0.052,0.206,0.194,0.185,0.053,-0.327,1.164
2024-10-15 13:57:18.846,74590.3,0.054,0.319,-0.946,-0.752,0.396,0.038,0.302,0.497,0.258,0.057,-0.324,1.166
2024-10-15 13:57:18.856,74590.31,0.06,0.317,-0.947,-0.677,0.137,-0.042,0.099,0.563,0.28,0.063,-0.322,1.169
2024-10-15 13:57:18.866,74590.32,0.066,0.317,-0.946,-0.457,-0.106,-0.1,-0.228,0.579,0.232,0.07,-0.322,1.172
