Date,TimeStamp,GravityX,GravityY,GravityZ,UserAccelerationX,UserAccelerationY,UserAccelerationZ,RotationRateX,RotationRateY,RotationRateZ,AttitudeRoll,AttitudePitch,AttitudeYaw
2024-10-15 13:43:37.748,73769.19,-0.066,-0.35,-0.935,0.023,0.008,0.002,0.016,-0.063,-0.014,-0.07,0.357,1.48
2024-10-15 13:43:37.754,73769.2,-0.066,-0.35,-0.935,0.025,0.003,0.002,0.01,-0.082,-0.013,-0.071,0.357,1.48
2024-10-15 13:43:37.758,73769.21,-0.067,-0.35,-0.934,0.012,0.0,0.006,0.007,-0.066,-0.003,-0.072,0.357,1.48
2024-10-15 13:43:37.768,73769.22,-0.068,-0.35,-0.934,0.003,-0.002,0.01,0.008,-0.048,0.017,-0.072,0.357,1.48
2024-10-15 13:43:37.778,73769.23,-0.068,-0.35,-0.934,0.005,-0.002,0.014,0.001,-0.04,0.047,-0.073,0.357,1.48
2024-10-15 13:43:37.789,73769.24,-0.069,-0.35,-0.934,0.011,-0.005,0.014,0.006,-0.056,0.052,-0.073,0.357,1.48
2024-10-15 13:43:37.798,73769.25,-0.069,-0.35,-0.934,0.01,-0.002,0.014,-0.002,-0.058,0.044,-0.074,0.357,1.481
2024-10-15 13:43:37.808,73769.26,-0.07,-0.35,-0.934,0.002,0.0,0.014,-0.005,0.007,0.023,-0.075,0.357,1.481
2024-10-15 13:43:37.818,73769.27,-0.069,-0.35,-0.934,-0.009,-0.0,0.015,0.016,0.076,0.005,-0.074,0.357,1.481
2024-10-15 13:43:37.828,73769.28,-0.068,-0.35,-0.934,-0.013,0.003,0.013,0.026,0.094,-0.009,-0.073,0.358,1.481
2024-10-15 13:43:37.839,73769.29,-0.068,-0.35,-0.934,-0.003,0.003,0.015,0.036,0.073,-0.005,-0.072,0.358,1.481
2024-10-15 13:43:37.848,73769.3,-0.067,-0.351,-0.934,0.0,-0.003,0.012,0.024,0.054,0.004,-0.072,0.358,1.481
2024-10-15 13:43:37.859,73769.31,-0.067,-0.351,-0.934,-0.004,-0.004,0.008,0.024,0.052,0.009,-0.071,0.358,1.481
2024-10-15 13:43:37.868,73769.32,-0.066,-0.351,-0.934,-0.013,-0.005,0.007,0.026,0.05,0.005,-0.071,0.359,1.482
2024-10-15 13:43:37.878,73769.33,-0.066,-0.351,-0.934,-0.019,-0.002,0.005,0.024,0.037,-0.003,-0.07,0.359,1.482
2024-10-15 13:43:37.888,73769.34,-0.065,-0.351,-0.934,-0.009,-0.0,0.002,0.02,0.033,-0.009,-0.07,0.359,1.482
2024-10-15 13:43:37.898,73769.35,-0.065,-0.352,-0.934,-0.001,-0.004,0.004,0.026,-0.004,-0.011,-0.07,0.359,1.481
2024-10-15 13:43:37.909,73769.36,-0.065,-0.352,-0.934,0.009,-0.007,0.007,0.019,-0.018,-0.008,-0.07,0.36,1.481
2024-10-15 13:43:37.918,73769.37,-0.065,-0.352,-0.934,0.009,-0.001,0.011,0.009,-0.01,-0.012,-0.07,0.36,1.481
2024-10-15 13:43:37.928,73769.38,-0.065,-0.352,-0.934,0.006,-0.006,0.012,0.002,0.006,-0.005,-0.07,0.36,1.481
2024-10-15 13:43:37.938,73769.39,-0.065,-0.352,-0.934,0.004,-0.008,0.01,0.001,0.01,-0.008,-0.07,0.36,1.481
2024-10-15 13:43:37.948,73769.4,-0.065,-0.352,-0.934,-0.001,-0.003,0.01,0.003,-0.006,0.001,-0.07,0.36,1.481
2024-10-15 13:43:37.959,73769.41,-0.065,-0.352,-0.934,-0.004,0.002,0.007,0.004,-0.016,-0.003,-0.07,0.36,1.481
2024-10-15 13:43:37.968,73769.42,-0.066,-0.352,-0.934,-0.004,0.0,0.007,-0.008,-0.03,-0.009,-0.07,0.36,1.481
2024-10-15 13:43:37.978,73769.43,-0.066,-0.352,-0.934,0.001,-0.005,0.005,-0.019,-0.057,-0.013,-0.071,0.36,1.481
2024-10-15 13:43:37.989,73769.44,-0.067,-0.352,-0.934,0.01,-0.005,0.006,-0.036,-0.125,-0.019,-0.071,0.36,1.481
2024-10-15 13:43:37.997,73769.45,-0.068,-0.352,-0.934,0.013,-0.004,0.009,-0.033,-0.108,-0.002,-0.073,0.359,1.481
2024-10-15 13:43:38.008,73769.46,-0.068,-0.351,-0.934,0.005,0.003,0.011,-0.013,-0.015,-0.004,-0.073,0.359,1.481
2024-10-15 13:43:38.017,73769.47,-0.068,-0.351,-0.934,-0.014,0.0,0.004,0.01,0.035,0.004,-0.073,0.359,1.481
2024-10-15 13:43:38.028,73769.48,-0.068,-0.351,-0.934,-0.013,0.001,0.001,0.012,0.044,0.0,-0.073,0.359,1.481
2024-10-15 13:43:38.037,73769.49,-0.067,-0.352,-0.934,-0.001,0.002,0.0,0.006,0.081,0.019,-0.072,0.359,1.481
2024-10-15 13:43:38.047,73769.5,-0.066,-0.352,-0.934,-0.005,-0.001,0.001,-0.014,0.169,0.047,-0.071,0.359,1.481
2024-10-15 13:43:38.058,73769.51,-0.064,-0.352,-0.934,-0.009,-0.004,0.005,0.052,0.25,0.017,-0.068,0.36,1.482
2024-10-15 13:43:38.067,73769.52,-0.062,-0.352,-0.934,-0.017,-0.007,0.012,0.014,0.125,0.023,-0.067,0.36,1.482
2024-10-15 13:43:38.078,73769.53,-0.061,-0.352,-0.934,-0.003,0.006,0.014,0.031,0.131,0.03,-0.066,0.36,1.482
2024-10-15 13:43:38.088,73769.54,-0.06,-0.353,-0.934,0.013,0.009,0.007,0.047,0.236,0.022,-0.064,0.36,1.482
2024-10-15 13:43:38.098,73769.55,-0.058,-0.353,-0.934,-0.027,0.001,0.005,0.014,0.165,-0.001,-0.062,0.361,1.482
2024-10-15 13:43:38.109,73769.56,-0.057,-0.353,-0.934,-0.022,-0.004,0.009,0.002,0.038,0.007,-0.061,0.361,1.483
2024-10-15 13:43:38.119,73769.57,-0.057,-0.353,-0.934,0.03,-0.005,0.013,0.002,-0.017,-0.006,-0.061,0.361,1.483
2024-10-15 13:43:38.128,73769.58,-0.057,-0.353,-0.934,0.029,0.009,0.015,0.006,-0.016,-0.031,-0.061,0.361,1.482
2024-10-15 13:43:38.138,73769.59,-0.057,-0.353,-0.934,-0.001,0.004,0.014,-0.008,0.014,-0.001,-0.061,0.361,1.482
2024-10-15 13:43:38.147,73769.6,-0.057,-0.353,-0.934,-0.01,-0.005,0.011,0.002,0.03,0.002,-0.061,0.361,1.482
2024-10-15 13:43:38.157,73769.61,-0.057,-0.353,-0.934,-0.007,-0.008,0.01,0.002,0.006,0.003,-0.061,0.361,1.482
2024-10-15 13:43:38.167,73769.62,-0.057,-0.353,-0.934,-0.001,-0.003,0.012,-0.001,-0.007,0.002,-0.061,0.361,1.482
2024-10-15 13:43:38.177,73769.63,-0.057,-0.353,-0.934,0.004,-0.0,0.012,-0.005,0.003,0.008,-0.061,0.361,1.482
2024-10-15 13:43:38.187,73769.64,-0.057,-0.353,-0.934,0.0,-0.004,0.009,-0.005,0.015,0.011,-0.061,0.361,1.483
2024-10-15 13:43:38.197,73769.65,-0.057,-0.353,-0.934,-0.004,-0.004,0.008,-0.007,0.026,0.023,-0.061,0.361,1.483
2024-10-15 13:43:38.207,73769.66,-0.056,-0.353,-0.934,-0.003,-0.003,0.008,-0.007,0.031,0.016,-0.06,0.361,1.483
2024-10-15 13:43:38.217,73769.669,-0.056,-0.353,-0.934,-0.002,-0.004,0.007,-0.001,0.026,-0.001,-0.06,0.361,1.483
2024-10-15 13:43:38.228,73769.679,-0.056,-0.353,-0.934,-0.0,0.001,0.006,0.0,0.012,-0.01,-0.06,0.361,1.483
2024-10-15 13:43:38.237,73769.689,-0.056,-0.353,-0.934,0.003,0.004,0.005,-0.004,0.002,-0.01,-0.06,0.361,1.483
2024-10-15 13:43:38.247,73769.699,-0.056,-0.353,-0.934,0.003,-0.002,0.003,-0.008,0.004,-0.009,-0.06,0.361,1.483
2024-10-15 13:43:38.262,73769.709,-0.056,-0.353,-0.934,-0.0,-0.004,0.001,-0.011,0.012,-0.013,-0.06,0.361,1.483
2024-10-15 13:43:38.267,73769.719,-0.056,-0.353,-0.934,-0.002,-0.001,0.003,-0.01,0.012,-0.02,-0.059,0.361,1.482
2024-10-15 13:43:38.277,73769.729,-0.055,-0.353,-0.934,-0.001,-0.002,0.007,-0.004,0.021,-0.01,-0.059,0.36,1.482
2024-10-15 13:43:38.287,73769.739,-0.055,-0.353,-0.934,-0.001,-0.002,0.009,-0.003,0.037,-0.009,-0.059,0.36,1.482
2024-10-15 13:43:38.298,73769.749,-0.055,-0.353,-0.934,-0.004,-0.002,0.007,-0.002,0.041,0.007,-0.059,0.36,1.482
2024-10-15 13:43:38.308,73769.759,-0.054,-0.353,-0.934,-0.003,-0.002,0.007,0.0,0.039,0.003,-0.058,0.36,1.482
2024-10-15 13:43:38.318,73769.769,-0.054,-0.353,-0.934,0.002,-0.003,0.008,-0.004,0.028,0.007,-0.058,0.36,1.482
2024-10-15 13:43:38.328,73769.779,-0.054,-0.353,-0.934,0.003,-0.004,0.009,-0.003,0.009,0.009,-0.058,0.36,1.482
2024-10-15 13:43:38.338,73769.789,-0.054,-0.353,-0.934,0.007,-0.0,0.009,0.006,-0.003,0.003,-0.058,0.36,1.482
2024-10-15 13:43:38.348,73769.799,-0.054,-0.353,-0.934,0.007,0.002,0.01,0.002,-0.008,0.008,-0.058,0.36,1.482
2024-10-15 13:43:38.358,73769.809,-0.054,-0.353,-0.934,0.005,0.0,0.012,0.001,-0.006,0.012,-0.058,0.36,1.483
2024-10-15 13:43:38.367,73769.819,-0.054,-0.353,-0.934,0.0,-0.003,0.007,-0.005,0.004,0.012,-0.058,0.36,1.483
2024-10-15 13:43:38.378,73769.829,-0.054,-0.353,-0.934,-0.004,-0.003,0.008,-0.001,0.018,0.009,-0.058,0.36,1.483
2024-10-15 13:43:38.387,73769.839,-0.054,-0.353,-0.934,-0.007,-0.003,0.008,-0.001,0.02,-0.004,-0.058,0.36,1.483
2024-10-15 13:43:38.397,73769.849,-0.054,-0.353,-0.934,-0.004,-0.001,0.007,-0.006,0.011,-0.013,-0.058,0.36,1.483
2024-10-15 13:43:38.408,73769.859,-0.054,-0.353,-0.934,-0.003,-0.0,0.006,-0.014,0.002,-0.023,-0.057,0.36,1.483
2024-10-15 13:43:38.417,73769.869,-0.054,-0.352,-0.934,-0.002,-0.002,0.007,-0.018,-0.011,-0.023,-0.057,0.36,1.482
2024-10-15 13:43:38.427,73769.879,-0.054,-0.352,-0.934,-0.004,-0.003,0.008,-0.025,-0.002,-0.015,-0.057,0.36,1.482
2024-10-15 13:43:38.437,73769.889,-0.054,-0.352,-0.934,-0.006,-0.003,0.009,-0.041,0.001,-0.01,-0.057,0.36,1.482
2024-10-15 13:43:38.447,73769.899,-0.054,-0.352,-0.935,-0.008,-0.011,0.012,-0.045,0.013,0.006,-0.057,0.359,1.482
2024-10-15 13:43:38.457,73769.909,-0.053,-0.351,-0.935,-0.011,-0.012,0.009,-0.039,0.033,0.002,-0.057,0.359,1.482
2024-10-15 13:43:38.467,73769.919,-0.053,-0.351,-0.935,-0.016,-0.009,0.007,-0.03,0.044,-0.008,-0.057,0.358,1.482
2024-10-15 13:43:38.478,73769.929,-0.053,-0.35,-0.935,-0.015,-0.006,0.008,-0.068,0.055,-0.007,-0.056,0.358,1.482
2024-10-15 13:43:38.487,73769.939,-0.052,-0.35,-0.935,-0.015,-0.008,0.013,-0.104,0.072,0.012,-0.056,0.357,1.482
2024-10-15 13:43:38.497,73769.949,-0.051,-0.349,-0.936,-0.02,-0.019,0.016,-0.105,0.096,0.016,-0.055,0.356,1.482
2024-10-15 13:43:38.507,73769.959,-0.051,-0.347,-0.936,-0.022,-0.022,0.015,-0.187,0.07,0.038,-0.054,0.355,1.482
2024-10-15 13:43:38.517,73769.969,-0.05,-0.345,-0.937,-0.02,-0.016,0.014,-0.321,0.083,0.099,-0.053,0.352,1.483
2024-10-15 13:43:38.527,73769.979,-0.049,-0.342,-0.938,-0.035,-0.028,0.02,-0.317,0.272,0.187,-0.052,0.349,1.484
2024-10-15 13:43:38.537,73769.989,-0.047,-0.339,-0.94,-0.066,-0.04,0.02,-0.296,0.327,0.166,-0.05,0.346,1.486
2024-10-15 13:43:38.547,73769.999,-0.044,-0.336,-0.941,-0.058,-0.015,0.015,-0.254,0.326,0.147,-0.047,0.343,1.487
2024-10-15 13:43:38.557,73770.009,-0.042,-0.334,-0.942,-0.024,0.02,0.025,-0.205,0.203,0.12,-0.045,0.341,1.489
2024-10-15 13:43:38.567,73770.019,-0.042,-0.332,-0.942,-0.002,0.013,0.02,-0.224,0.058,0.128,-0.044,0.339,1.49
2024-10-15 13:43:38.577,73770.029,-0.042,-0.33,-0.943,0.001,-0.004,0.011,-0.279,0.03,0.225,-0.044,0.336,1.492
2024-10-15 13:43:38.587,73770.039,-0.042,-0.327,-0.944,-0.029,-0.017,0.017,-0.286,0.044,0.284,-0.045,0.333,1.494
2024-10-15 13:43:38.597,73770.049,-0.043,-0.325,-0.945,-0.061,-0.044,0.012,-0.215,0.014,0.334,-0.045,0.33,1.497
2024-10-15 13:43:38.607,73770.059,-0.045,-0.322,-0.946,-0.046,-0.038,0.008,-0.264,-0.122,0.437,-0.047,0.328,1.501
2024-10-15 13:43:38.617,73770.069,-0.048,-0.319,-0.946,-0.005,-0.005,0.008,-0.287,-0.174,0.478,-0.05,0.325,1.506
2024-10-15 13:43:38.627,73770.079,-0.05,-0.317,-0.947,-0.012,-0.028,0.014,-0.282,-0.082,0.451,-0.053,0.322,1.511
2024-10-15 13:43:38.637,73770.089,-0.052,-0.313,-0.948,-0.028,-0.052,0.01,-0.318,-0.004,0.587,-0.055,0.319,1.516
2024-10-15 13:43:38.647,73770.099,-0.055,-0.31,-0.949,-0.029,-0.035,0.014,-0.389,-0.006,0.87,-0.058,0.315,1.524
2024-10-15 13:43:38.657,73770.109,-0.057,-0.305,-0.951,-0.015,-0.047,0.017,-0.409,0.065,0.909,-0.06,0.31,1.533
2024-10-15 13:43:38.667,73770.119,-0.059,-0.301,-0.952,-0.029,-0.061,0.016,-0.339,0.055,0.816,-0.062,0.306,1.541
2024-10-15 13:43:38.677,73770.129,-0.061,-0.298,-0.953,-0.038,-0.027,0.012,-0.279,0.09,0.686,-0.064,0.302,1.549
2024-10-15 13:43:38.687,73770.139,-0.062,-0.295,-0.953,-0.027,0.027,0.004,-0.203,0.032,0.479,-0.065,0.3,1.555
2024-10-15 13:43:38.697,73770.149,-0.063,-0.293,-0.954,-0.023,0.019,-0.009,-0.266,-0.029,0.335,-0.066,0.297,1.559
2024-10-15 13:43:38.707,73770.159,-0.064,-0.29,-0.955,-0.01,0.007,-0.007,-0.287,0.03,0.198,-0.067,0.294,1.562
2024-10-15 13:43:38.717,73770.169,-0.064,-0.287,-0.956,-0.025,-0.022,0.002,-0.309,0.141,0.212,-0.066,0.291,1.564
2024-10-15 13:43:38.727,73770.179,-0.063,-0.285,-0.957,-0.04,-0.027,0.004,-0.238,0.011,0.489,-0.066,0.289,1.567
2024-10-15 13:43:38.737,73770.189,-0.066,-0.281,-0.957,0.004,-0.019,0.017,-0.322,-0.126,0.636,-0.068,0.285,1.573
2024-10-15 13:43:38.747,73770.199,-0.069,-0.278,-0.958,0.01,-0.069,0.02,-0.292,-0.121,0.9,-0.072,0.281,1.58
2024-10-15 13:43:38.757,73770.209,-0.072,-0.274,-0.959,-0.057,-0.122,0.004,-0.356,-0.043,1.091,-0.075,0.278,1.591
2024-10-15 13:43:38.767,73770.219,-0.076,-0.269,-0.96,-0.101,-0.107,0.014,-0.622,-0.014,1.104,-0.079,0.272,1.602
2024-10-15 13:43:38.777,73770.229,-0.078,-0.26,-0.962,-0.138,-0.136,0.032,-1.021,0.124,1.063,-0.081,0.263,1.612
2024-10-15 13:43:38.787,73770.239,-0.079,-0.248,-0.966,-0.158,-0.163,0.038,-1.411,0.322,0.917,-0.081,0.25,1.621
2024-10-15 13:43:38.797,73770.248,-0.076,-0.232,-0.97,-0.178,-0.179,0.055,-1.757,0.567,0.71,-0.078,0.234,1.628
2024-10-15 13:43:38.807,73770.258,-0.071,-0.213,-0.975,-0.2,-0.174,0.064,-2.049,0.79,0.493,-0.073,0.214,1.633
2024-10-15 13:43:38.817,73770.268,-0.063,-0.191,-0.979,-0.187,-0.148,0.062,-2.236,0.927,0.316,-0.065,0.193,1.636
2024-10-15 13:43:38.826,73770.278,-0.054,-0.169,-0.984,-0.158,-0.121,0.057,-2.414,1.06,0.145,-0.055,0.169,1.637
2024-10-15 13:43:38.837,73770.288,-0.043,-0.144,-0.989,-0.131,-0.102,0.05,-2.544,1.137,0.025,-0.044,0.145,1.636
2024-10-15 13:43:38.846,73770.298,-0.032,-0.119,-0.992,-0.113,-0.114,0.05,-2.579,1.153,0.091,-0.032,0.119,1.636
2024-10-15 13:43:38.856,73770.308,-0.021,-0.093,-0.995,-0.112,-0.143,0.05,-2.549,1.203,0.241,-0.021,0.093,1.637
2024-10-15 13:43:38.867,73770.318,-0.008,-0.068,-0.998,-0.131,-0.141,0.059,-2.511,1.283,0.206,-0.008,0.068,1.639
2024-10-15 13:43:38.877,73770.328,0.006,-0.043,-0.999,-0.159,-0.145,0.062,-2.595,1.561,-0.227,0.006,0.043,1.639
2024-10-15 13:43:38.886,73770.338,0.023,-0.016,-1.0,-0.19,-0.157,0.066,-2.636,1.922,-0.818,0.023,0.016,1.634
2024-10-15 13:43:38.896,73770.348,0.044,0.01,-0.999,-0.2,-0.144,0.067,-2.606,2.306,-1.667,0.044,-0.01,1.623
2024-10-15 13:43:38.907,73770.358,0.07,0.038,-0.997,-0.196,-0.118,0.043,-2.648,2.828,-3.101,0.07,-0.038,1.601
2024-10-15 13:43:38.916,73770.368,0.097,0.067,-0.993,-0.248,-0.102,0.04,-2.563,3.11,-4.015,0.097,-0.067,1.567
2024-10-15 13:43:38.926,73770.378,0.126,0.096,-0.987,-0.257,-0.034,0.05,-2.473,3.494,-4.11,0.127,-0.096,1.529
2024-10-15 13:43:38.937,73770.388,0.158,0.124,-0.98,-0.229,0.014,0.06,-2.132,3.92,-3.769,0.16,-0.125,1.493
2024-10-15 13:43:38.947,73770.398,0.193,0.15,-0.97,-0.263,-0.052,0.048,-1.954,4.2,-3.187,0.197,-0.151,1.462
2024-10-15 13:43:38.956,73770.408,0.228,0.175,-0.958,-0.308,-0.084,0.066,-2.035,3.927,-2.254,0.234,-0.176,1.439
2024-10-15 13:43:38.966,73770.418,0.258,0.199,-0.946,-0.314,-0.067,0.084,-2.101,2.783,-0.975,0.266,-0.2,1.428
2024-10-15 13:43:38.976,73770.428,0.275,0.219,-0.936,-0.235,-0.01,0.09,-1.902,1.048,0.119,0.286,-0.221,1.43
2024-10-15 13:43:38.986,73770.438,0.279,0.234,-0.931,-0.125,0.091,0.123,-1.46,-0.148,0.567,0.291,-0.236,1.439
2024-10-15 13:43:38.996,73770.448,0.277,0.243,-0.93,-0.069,0.187,0.108,-0.918,-0.587,0.483,0.29,-0.246,1.448
2024-10-15 13:43:39.006,73770.458,0.272,0.248,-0.93,-0.03,0.231,0.065,-0.312,-0.735,0.146,0.284,-0.251,1.453
2024-10-15 13:43:39.016,73770.468,0.264,0.248,-0.932,0.045,0.249,0.064,0.362,-0.92,-0.189,0.276,-0.25,1.452
2024-10-15 13:43:39.026,73770.478,0.254,0.243,-0.936,0.142,0.261,0.077,0.928,-1.091,-0.554,0.265,-0.245,1.447
2024-10-15 13:43:39.036,73770.488,0.241,0.234,-0.942,0.218,0.261,0.119,1.269,-1.205,-0.953,0.251,-0.236,1.436
2024-10-15 13:43:39.046,73770.498,0.227,0.224,-0.948,0.255,0.26,0.165,1.308,-1.278,-1.351,0.235,-0.226,1.422
2024-10-15 13:43:39.056,73770.508,0.211,0.216,-0.953,0.266,0.246,0.199,1.056,-1.283,-1.612,0.218,-0.218,1.404
2024-10-15 13:43:39.066,73770.518,0.196,0.212,-0.957,0.266,0.224,0.204,0.5,-1.187,-1.568,0.202,-0.214,1.386
2024-10-15 13:43:39.076,73770.528,0.183,0.213,-0.96,0.267,0.221,0.184,-0.17,-0.748,-1.161,0.189,-0.215,1.372
2024-10-15 13:43:39.086,73770.538,0.177,0.219,-0.959,0.279,0.244,0.159,-0.802,-0.211,-0.597,0.182,-0.221,1.364
2024-10-15 13:43:39.096,73770.548,0.176,0.229,-0.957,0.301,0.249,0.154,-1.003,0.21,-0.026,0.182,-0.231,1.363
2024-10-15 13:43:39.106,73770.558,0.18,0.237,-0.955,0.325,0.25,0.127,-0.807,0.361,0.465,0.186,-0.239,1.367
2024-10-15 13:43:39.118,73770.568,0.184,0.242,-0.953,0.371,0.293,0.088,-0.526,0.202,0.8,0.191,-0.245,1.374
2024-10-15 13:43:39.126,73770.578,0.187,0.244,-0.952,0.441,0.39,0.097,-0.213,-0.188,0.907,0.194,-0.247,1.384
2024-10-15 13:43:39.136,73770.588,0.185,0.243,-0.952,0.5,0.47,0.113,0.141,-0.623,0.846,0.192,-0.245,1.393
2024-10-15 13:43:39.146,73770.598,0.179,0.238,-0.955,0.513,0.469,0.102,0.546,-0.919,0.782,0.186,-0.241,1.4
2024-10-15 13:43:39.156,73770.608,0.172,0.23,-0.958,0.48,0.403,0.08,0.904,-1.011,0.857,0.178,-0.232,1.407
2024-10-15 13:43:39.166,73770.618,0.165,0.219,-0.962,0.432,0.336,0.058,1.093,-0.904,1.064,0.17,-0.22,1.415
2024-10-15 13:43:39.176,73770.628,0.16,0.206,-0.965,0.387,0.316,0.038,1.098,-0.65,1.308,0.164,-0.208,1.425
2024-10-15 13:43:39.186,73770.638,0.158,0.193,-0.968,0.345,0.313,0.013,1.091,-0.374,1.505,0.161,-0.195,1.438
2024-10-15 13:43:39.196,73770.648,0.158,0.18,-0.971,0.304,0.286,-0.015,1.22,-0.226,1.654,0.161,-0.181,1.452
2024-10-15 13:43:39.206,73770.658,0.159,0.164,-0.974,0.277,0.244,-0.006,1.431,-0.221,1.776,0.161,-0.165,1.467
2024-10-15 13:43:39.216,73770.668,0.159,0.146,-0.976,0.248,0.251,0.012,1.819,-0.254,1.889,0.162,-0.146,1.482
2024-10-15 13:43:39.226,73770.678,0.158,0.123,-0.98,0.2,0.303,-0.003,2.17,-0.427,1.934,0.16,-0.123,1.498
2024-10-15 13:43:39.237,73770.688,0.155,0.097,-0.983,0.137,0.329,-0.019,2.453,-0.657,1.918,0.157,-0.097,1.514
2024-10-15 13:43:39.246,73770.698,0.149,0.069,-0.986,0.101,0.221,-0.016,2.61,-0.995,1.854,0.15,-0.069,1.528
2024-10-15 13:43:39.256,73770.708,0.139,0.041,-0.989,0.082,0.009,-0.006,2.483,-1.274,1.765,0.139,-0.041,1.543
2024-10-15 13:43:39.266,73770.718,0.126,0.017,-0.992,0.051,-0.194,0.057,2.02,-1.324,1.672,0.126,-0.017,1.557
2024-10-15 13:43:39.276,73770.728,0.114,-0.003,-0.993,-0.006,-0.333,0.131,1.511,-1.103,1.51,0.114,0.003,1.57
2024-10-15 13:43:39.286,73770.738,0.105,-0.018,-0.994,-0.106,-0.363,0.176,1.327,-0.738,1.187,0.105,0.018,1.582
2024-10-15 13:43:39.296,73770.748,0.099,-0.033,-0.995,-0.234,-0.301,0.166,1.442,-0.353,0.804,0.099,0.033,1.591
2024-10-15 13:43:39.306,73770.758,0.096,-0.048,-0.994,-0.312,-0.187,0.131,1.584,-0.183,0.497,0.097,0.048,1.596
2024-10-15 13:43:39.316,73770.768,0.094,-0.065,-0.993,-0.294,-0.074,0.16,1.687,-0.314,0.31,0.094,0.065,1.598
2024-10-15 13:43:39.326,73770.778,0.089,-0.082,-0.993,-0.221,-0.061,0.206,1.754,-0.651,0.174,0.089,0.082,1.599
2024-10-15 13:43:39.336,73770.788,0.081,-0.099,-0.992,-0.163,-0.141,0.179,1.634,-0.961,0.027,0.081,0.099,1.598
2024-10-15 13:43:39.346,73770.798,0.07,-0.114,-0.991,-0.154,-0.24,0.106,1.382,-1.105,-0.047,0.071,0.114,1.597
2024-10-15 13:43:39.356,73770.808,0.06,-0.126,-0.99,-0.186,-0.289,0.045,1.055,-1.032,0.08,0.06,0.127,1.596
2024-10-15 13:43:39.366,73770.818,0.051,-0.135,-0.99,-0.23,-0.264,0.001,0.68,-0.759,0.38,0.051,0.135,1.598
2024-10-15 13:43:39.376,73770.827,0.044,-0.14,-0.989,-0.259,-0.181,-0.019,0.342,-0.411,0.701,0.044,0.141,1.603
2024-10-15 13:43:39.386,73770.837,0.04,-0.143,-0.989,-0.273,-0.074,-0.029,0.117,-0.121,0.83,0.041,0.143,1.611
2024-10-15 13:43:39.396,73770.847,0.038,-0.143,-0.989,-0.27,-0.01,-0.022,-0.006,-0.101,0.69,0.039,0.144,1.619
2024-10-15 13:43:39.406,73770.857,0.036,-0.144,-0.989,-0.248,-0.004,0.022,-0.014,-0.182,0.279,0.037,0.144,1.624
2024-10-15 13:43:39.416,73770.867,0.034,-0.144,-0.989,-0.221,-0.069,0.054,0.07,-0.289,-0.21,0.034,0.144,1.624
2024-10-15 13:43:39.425,73770.877,0.032,-0.144,-0.989,-0.212,-0.158,0.036,-0.021,-0.271,-0.469,0.032,0.145,1.62
2024-10-15 13:43:39.435,73770.887,0.03,-0.141,-0.99,-0.15,-0.225,0.12,-0.574,-0.165,-0.447,0.03,0.142,1.616
2024-10-15 13:43:39.446,73770.897,0.03,-0.133,-0.991,-0.1,-0.278,0.003,-0.967,0.053,-0.284,0.03,0.134,1.612
2024-10-15 13:43:39.455,73770.907,0.032,-0.123,-0.992,-0.078,-0.295,-0.112,-1.053,0.349,-0.248,0.033,0.123,1.61
2024-10-15 13:43:39.466,73770.917,0.037,-0.113,-0.993,-0.083,-0.21,-0.154,-0.842,0.596,-0.475,0.038,0.114,1.607
2024-10-15 13:43:39.475,73770.927,0.045,-0.106,-0.993,-0.146,-0.124,-0.212,-0.557,0.753,-0.82,0.045,0.106,1.601
2024-10-15 13:43:39.485,73770.937,0.053,-0.101,-0.993,-0.194,-0.125,-0.226,-0.375,0.651,-0.992,0.053,0.101,1.592
2024-10-15 13:43:39.496,73770.947,0.059,-0.097,-0.994,-0.198,-0.143,-0.237,-0.484,0.421,-0.934,0.06,0.097,1.582
2024-10-15 13:43:39.506,73770.957,0.063,-0.089,-0.994,-0.204,-0.162,-0.237,-0.886,0.202,-0.68,0.063,0.09,1.574
2024-10-15 13:43:39.516,73770.967,0.065,-0.078,-0.995,-0.236,-0.2,-0.229,-1.408,0.149,-0.342,0.065,0.078,1.57
2024-10-15 13:43:39.525,73770.977,0.067,-0.061,-0.996,-0.288,-0.225,-0.179,-1.977,0.263,-0.065,0.067,0.061,1.569
2024-10-15 13:43:39.535,73770.987,0.071,-0.039,-0.997,-0.34,-0.239,-0.117,-2.434,0.499,0.058,0.071,0.039,1.571
2024-10-15 13:43:39.545,73770.997,0.077,-0.013,-0.997,-0.374,-0.209,-0.105,-2.711,0.815,-0.017,0.078,0.013,1.573
2024-10-15 13:43:39.555,73771.007,0.087,0.015,-0.996,-0.384,-0.159,-0.099,-2.873,1.146,-0.255,0.087,-0.015,1.574
2024-10-15 13:43:39.565,73771.017,0.1,0.044,-0.994,-0.382,-0.104,-0.097,-2.919,1.414,-0.553,0.1,-0.044,1.573
2024-10-15 13:43:39.575,73771.027,0.114,0.073,-0.991,-0.375,-0.045,-0.085,-2.819,1.523,-0.842,0.115,-0.073,1.569
2024-10-15 13:43:39.585,73771.037,0.128,0.101,-0.987,-0.351,-0.013,-0.098,-2.622,1.484,-1.096,0.129,-0.101,1.563
2024-10-15 13:43:39.595,73771.047,0.141,0.128,-0.982,-0.305,-0.023,-0.113,-2.491,1.319,-1.288,0.142,-0.128,1.554
2024-10-15 13:43:39.605,73771.057,0.15,0.154,-0.977,-0.242,-0.081,-0.118,-2.508,1.069,-1.357,0.153,-0.155,1.545
2024-10-15 13:43:39.615,73771.067,0.157,0.182,-0.971,-0.186,-0.157,-0.091,-2.719,0.803,-1.285,0.161,-0.183,1.535
2024-10-15 13:43:39.625,73771.077,0.162,0.211,-0.964,-0.147,-0.223,-0.041,-3.01,0.576,-1.166,0.166,-0.213,1.528
2024-10-15 13:43:39.636,73771.087,0.164,0.243,-0.956,-0.138,-0.252,-0.002,-3.312,0.406,-1.089,0.17,-0.246,1.522
2024-10-15 13:43:39.645,73771.097,0.164,0.278,-0.946,-0.141,-0.25,0.043,-3.531,0.334,-1.09,0.172,-0.281,1.517
2024-10-15 13:43:39.655,73771.107,0.164,0.313,-0.935,-0.136,-0.224,0.066,-3.58,0.38,-1.149,0.174,-0.318,1.512
2024-10-15 13:43:39.665,73771.117,0.165,0.348,-0.923,-0.129,-0.186,0.029,-3.454,0.561,-1.226,0.177,-0.355,1.506
2024-10-15 13:43:39.675,73771.127,0.166,0.38,-0.91,-0.124,-0.131,-0.054,-3.188,0.861,-1.34,0.181,-0.39,1.499
2024-10-15 13:43:39.685,73771.137,0.17,0.411,-0.896,-0.109,-0.065,-0.082,-3.063,1.2,-1.347,0.188,-0.423,1.49
2024-10-15 13:43:39.696,73771.147,0.176,0.44,-0.88,-0.062,0.006,-0.047,-3.086,1.379,-1.271,0.198,-0.456,1.483
2024-10-15 13:43:39.705,73771.157,0.183,0.469,-0.864,-0.004,0.027,0.026,-2.973,1.365,-1.257,0.208,-0.488,1.476
2024-10-15 13:43:39.715,73771.167,0.188,0.496,-0.848,0.022,-0.053,0.067,-2.769,1.303,-1.271,0.218,-0.519,1.469
2024-10-15 13:43:39.725,73771.177,0.193,0.521,-0.832,0.013,-0.153,0.064,-2.563,1.256,-1.198,0.227,-0.547,1.462
2024-10-15 13:43:39.735,73771.187,0.197,0.543,-0.817,-0.0,-0.184,0.046,-2.26,1.207,-1.018,0.236,-0.574,1.455
2024-10-15 13:43:39.745,73771.197,0.202,0.561,-0.803,0.002,-0.135,0.058,-1.895,1.199,-0.653,0.246,-0.596,1.451
2024-10-15 13:43:39.755,73771.207,0.209,0.576,-0.79,0.022,-0.012,0.067,-1.609,1.274,-0.406,0.258,-0.614,1.451
2024-10-15 13:43:39.765,73771.217,0.216,0.589,-0.779,0.043,0.117,0.088,-1.401,1.316,-0.506,0.271,-0.629,1.45
2024-10-15 13:43:39.775,73771.227,0.223,0.6,-0.768,0.049,0.148,0.16,-1.106,1.38,-0.76,0.282,-0.643,1.447
2024-10-15 13:43:39.785,73771.237,0.229,0.609,-0.759,0.02,0.115,0.166,-0.86,1.434,-0.949,0.292,-0.655,1.44
2024-10-15 13:43:39.795,73771.247,0.233,0.617,-0.751,-0.006,0.086,0.155,-0.726,1.393,-1.065,0.301,-0.665,1.431
2024-10-15 13:43:39.805,73771.257,0.236,0.625,-0.744,-0.009,0.059,0.2,-0.58,1.275,-1.114,0.307,-0.675,1.42
2024-10-15 13:43:39.815,73771.267,0.238,0.631,-0.738,0.001,0.035,0.204,-0.399,1.11,-1.128,0.312,-0.683,1.408
2024-10-15 13:43:39.825,73771.277,0.238,0.636,-0.734,0.031,0.051,0.168,-0.316,0.929,-1.171,0.314,-0.69,1.396
2024-10-15 13:43:39.835,73771.287,0.237,0.641,-0.73,0.075,0.089,0.167,-0.246,0.796,-1.21,0.314,-0.696,1.382
2024-10-15 13:43:39.845,73771.297,0.235,0.646,-0.727,0.106,0.108,0.169,-0.153,0.733,-1.19,0.312,-0.702,1.368
2024-10-15 13:43:39.855,73771.307,0.233,0.649,-0.724,0.122,0.121,0.152,-0.033,0.732,-1.099,0.311,-0.706,1.354
2024-10-15 13:43:39.865,73771.317,0.231,0.651,-0.723,0.131,0.137,0.153,0.099,0.773,-0.986,0.31,-0.709,1.341
2024-10-15 13:43:39.875,73771.327,0.231,0.652,-0.722,0.134,0.135,0.17,0.186,0.833,-0.882,0.31,-0.711,1.328
2024-10-15 13:43:39.886,73771.337,0.231,0.653,-0.721,0.133,0.116,0.171,0.168,0.845,-0.857,0.311,-0.711,1.317
2024-10-15 13:43:39.895,73771.347,0.232,0.654,-0.72,0.139,0.104,0.175,0.073,0.774,-0.916,0.311,-0.713,1.305
2024-10-15 13:43:39.905,73771.357,0.231,0.656,-0.719,0.153,0.075,0.196,-0.014,0.716,-0.901,0.311,-0.716,1.294
2024-10-15 13:43:39.915,73771.367,0.23,0.658,-0.717,0.144,0.034,0.18,-0.013,0.699,-0.802,0.311,-0.718,1.283
2024-10-15 13:43:39.925,73771.377,0.23,0.66,-0.715,0.112,0.018,0.132,0.058,0.688,-0.722,0.311,-0.72,1.273
2024-10-15 13:43:39.934,73771.387,0.231,0.661,-0.714,0.084,0.034,0.109,0.089,0.733,-0.62,0.313,-0.722,1.264
2024-10-15 13:43:39.945,73771.397,0.232,0.661,-0.713,0.071,0.065,0.084,0.057,0.691,-0.389,0.315,-0.723,1.258
2024-10-15 13:43:39.955,73771.407,0.235,0.663,-0.711,0.067,0.098,0.046,-0.203,0.642,-0.341,0.319,-0.724,1.253
2024-10-15 13:43:39.964,73771.416,0.237,0.666,-0.707,0.091,0.092,0.14,-0.587,0.574,-0.421,0.323,-0.729,1.25
2024-10-15 13:43:39.974,73771.426,0.237,0.672,-0.701,0.092,0.065,0.182,-0.837,0.531,-0.597,0.326,-0.738,1.247
2024-10-15 13:43:39.985,73771.436,0.236,0.681,-0.694,0.058,0.016,0.156,-1.002,0.527,-0.751,0.329,-0.749,1.242
2024-10-15 13:43:39.994,73771.446,0.235,0.689,-0.685,0.021,-0.019,0.128,-0.994,0.535,-0.803,0.33,-0.761,1.237
2024-10-15 13:43:40.005,73771.456,0.233,0.698,-0.678,0.006,-0.006,0.091,-0.864,0.555,-0.799,0.331,-0.772,1.23
2024-10-15 13:43:40.015,73771.466,0.231,0.704,-0.671,0.023,0.034,0.047,-0.621,0.561,-0.782,0.332,-0.782,1.223
2024-10-15 13:43:40.025,73771.476,0.23,0.709,-0.667,0.037,0.06,0.025,-0.242,0.575,-0.714,0.332,-0.788,1.215
2024-10-15 13:43:40.034,73771.486,0.229,0.711,-0.665,0.034,0.057,-0.003,0.172,0.561,-0.603,0.331,-0.791,1.207
2024-10-15 13:43:40.045,73771.496,0.228,0.71,-0.666,0.03,0.066,-0.017,0.512,0.512,-0.511,0.33,-0.789,1.198
2024-10-15 13:43:40.054,73771.506,0.228,0.706,-0.67,0.04,0.075,0.013,0.785,0.47,-0.431,0.328,-0.785,1.188
2024-10-15 13:43:40.065,73771.516,0.228,0.702,-0.675,0.046,0.089,0.017,0.912,0.396,-0.467,0.326,-0.778,1.179
2024-10-15 13:43:40.075,73771.526,0.227,0.697,-0.68,0.05,0.108,0.021,0.884,0.294,-0.566,0.322,-0.771,1.168
2024-10-15 13:43:40.084,73771.536,0.224,0.692,-0.686,0.048,0.102,0.031,0.791,0.221,-0.608,0.316,-0.765,1.156
2024-10-15 13:43:40.094,73771.546,0.222,0.689,-0.69,0.033,0.051,0.02,0.614,0.175,-0.565,0.311,-0.76,1.146
2024-10-15 13:43:40.105,73771.556,0.219,0.686,-0.693,0.011,0.008,0.011,0.423,0.136,-0.532,0.306,-0.757,1.136
2024-10-15 13:43:40.114,73771.566,0.216,0.685,-0.695,-0.004,-0.015,0.03,0.257,0.092,-0.538,0.301,-0.755,1.128
2024-10-15 13:43:40.124,73771.576,0.213,0.685,-0.696,-0.011,-0.039,0.064,0.07,0.05,-0.554,0.297,-0.755,1.12
2024-10-15 13:43:40.135,73771.586,0.209,0.687,-0.696,-0.01,-0.055,0.095,-0.118,0.047,-0.556,0.292,-0.757,1.113
2024-10-15 13:43:40.145,73771.596,0.206,0.689,-0.695,-0.009,-0.066,0.1,-0.276,0.108,-0.566,0.289,-0.76,1.106
2024-10-15 13:43:40.154,73771.606,0.203,0.693,-0.692,-0.008,-0.056,0.062,-0.31,0.192,-0.604,0.285,-0.765,1.1
2024-10-15 13:43:40.164,73771.616,0.201,0.696,-0.69,-0.001,-0.019,0.018,-0.203,0.273,-0.617,0.283,-0.769,1.093
2024-10-15 13:43:40.174,73771.626,0.198,0.697,-0.689,0.013,0.027,-0.02,0.0,0.278,-0.603,0.28,-0.772,1.085
2024-10-15 13:43:40.184,73771.636,0.196,0.698,-0.689,0.033,0.048,-0.017,0.182,0.203,-0.52,0.277,-0.773,1.077
2024-10-15 13:43:40.194,73771.646,0.194,0.697,-0.69,0.055,0.03,0.014,0.27,0.093,-0.386,0.274,-0.772,1.07
2024-10-15 13:43:40.204,73771.656,0.192,0.696,-0.692,0.072,0.003,0.032,0.247,-0.021,-0.29,0.27,-0.77,1.064
2024-10-15 13:43:40.214,73771.666,0.189,0.695,-0.693,0.08,-0.014,0.047,0.15,-0.109,-0.229,0.267,-0.769,1.06
2024-10-15 13:43:40.224,73771.676,0.187,0.695,-0.694,0.07,-0.018,0.065,0.042,-0.143,-0.171,0.263,-0.768,1.057
2024-10-15 13:43:40.234,73771.686,0.185,0.695,-0.694,0.046,-0.011,0.07,-0.094,-0.123,-0.103,0.261,-0.769,1.055
2024-10-15 13:43:40.244,73771.696,0.184,0.696,-0.694,0.013,-0.005,0.069,-0.189,-0.016,-0.016,0.26,-0.77,1.055
2024-10-15 13:43:40.254,73771.706,0.185,0.698,-0.692,-0.021,0.007,0.047,-0.264,0.121,0.025,0.261,-0.773,1.056
2024-10-15 13:43:40.264,73771.716,0.186,0.7,-0.69,-0.044,0.044,0.01,-0.239,0.257,-0.032,0.263,-0.775,1.057
2024-10-15 13:43:40.275,73771.726,0.187,0.701,-0.688,-0.056,0.079,-0.011,-0.094,0.291,-0.164,0.266,-0.777,1.056
2024-10-15 13:43:40.284,73771.736,0.188,0.701,-0.688,-0.05,0.072,-0.012,0.12,0.218,-0.268,0.266,-0.777,1.053
2024-10-15 13:43:40.294,73771.746,0.187,0.701,-0.689,-0.029,0.038,-0.004,0.249,0.067,-0.292,0.265,-0.776,1.049
2024-10-15 13:43:40.304,73771.756,0.185,0.699,-0.691,0.006,0.015,0.003,0.272,-0.097,-0.254,0.261,-0.774,1.044
2024-10-15 13:43:40.314,73771.766,0.182,0.698,-0.693,0.039,0.008,0.007,0.25,-0.223,-0.202,0.257,-0.772,1.04
2024-10-15 13:43:40.324,73771.776,0.179,0.697,-0.695,0.06,0.011,0.026,0.151,-0.263,-0.189,0.252,-0.771,1.037
2024-10-15 13:43:40.334,73771.786,0.176,0.696,-0.696,0.065,0.023,0.057,0.08,-0.186,-0.208,0.247,-0.77,1.034
2024-10-15 13:43:40.344,73771.796,0.174,0.696,-0.696,0.049,0.017,0.069,0.049,-0.035,-0.204,0.244,-0.77,1.031
2024-10-15 13:43:40.354,73771.806,0.173,0.696,-0.697,0.024,-0.005,0.062,0.055,0.131,-0.179,0.243,-0.77,1.028
2024-10-15 13:43:40.364,73771.816,0.173,0.696,-0.697,0.009,-0.022,0.058,0.061,0.267,-0.142,0.243,-0.77,1.026
2024-10-15 13:43:40.374,73771.826,0.174,0.696,-0.697,0.009,-0.028,0.066,0.085,0.339,-0.148,0.245,-0.77,1.023
2024-10-15 13:43:40.384,73771.836,0.175,0.695,-0.697,0.013,-0.031,0.05,0.216,0.349,-0.168,0.246,-0.769,1.021
2024-10-15 13:43:40.394,73771.846,0.176,0.693,-0.699,0.018,-0.022,0.015,0.427,0.293,-0.177,0.247,-0.766,1.017
2024-10-15 13:43:40.404,73771.856,0.177,0.69,-0.702,0.032,0.016,-0.001,0.661,0.183,-0.189,0.247,-0.761,1.013
2024-10-15 13:43:40.414,73771.866,0.176,0.685,-0.707,0.051,0.073,0.012,0.863,0.013,-0.239,0.244,-0.754,1.008
2024-10-15 13:43:40.424,73771.876,0.174,0.679,-0.714,0.067,0.105,0.044,1.0,-0.151,-0.356,0.239,-0.746,1.001
2024-10-15 13:43:40.434,73771.886,0.17,0.672,-0.721,0.075,0.067,0.085,1.09,-0.234,-0.344,0.231,-0.737,0.993
2024-10-15 13:43:40.444,73771.896,0.166,0.665,-0.728,0.06,0.009,0.062,1.014,-0.172,-0.152,0.225,-0.727,0.986
2024-10-15 13:43:40.454,73771.906,0.165,0.658,-0.735,0.033,0.013,-0.013,0.867,-0.025,0.02,0.221,-0.718,0.983
2024-10-15 13:43:40.464,73771.916,0.166,0.651,-0.74,0.013,0.039,-0.048,0.866,0.077,0.04,0.22,-0.71,0.981
2024-10-15 13:43:40.474,73771.926,0.166,0.644,-0.746,-0.002,0.045,-0.03,1.046,0.062,-0.047,0.219,-0.7,0.978
2024-10-15 13:43:40.484,73771.936,0.166,0.636,-0.753,0.001,0.036,0.026,1.186,-0.051,-0.109,0.217,-0.689,0.974
2024-10-15 13:43:40.494,73771.946,0.164,0.628,-0.761,0.021,0.039,0.085,1.128,-0.192,-0.171,0.213,-0.678,0.969
2024-10-15 13:43:40.504,73771.956,0.161,0.62,-0.768,0.038,0.037,0.106,0.961,-0.271,-0.223,0.207,-0.669,0.964
2024-10-15 13:43:40.514,73771.966,0.158,0.614,-0.774,0.047,0.0,0.072,0.763,-0.113,-0.163,0.202,-0.661,0.959
2024-10-15 13:43:40.524,73771.976,0.158,0.608,-0.778,0.042,0.001,-0.044,0.767,0.158,-0.082,0.2,-0.654,0.955
2024-10-15 13:43:40.534,73771.986,0.159,0.601,-0.783,0.019,0.061,-0.15,1.153,0.313,-0.12,0.2,-0.645,0.952
2024-10-15 13:43:40.544,73771.995,0.16,0.59,-0.792,0.005,0.12,-0.112,1.763,0.235,-0.182,0.2,-0.631,0.947
2024-10-15 13:43:40.554,73772.005,0.16,0.574,-0.803,0.019,0.159,-0.037,2.253,-0.078,-0.151,0.197,-0.611,0.94
2024-10-15 13:43:40.564,73772.015,0.157,0.555,-0.817,0.064,0.133,0.016,2.381,-0.517,-0.064,0.19,-0.588,0.933
2024-10-15 13:43:40.574,73772.025,0.151,0.536,-0.83,0.112,0.051,0.078,2.151,-0.848,0.094,0.18,-0.566,0.928
2024-10-15 13:43:40.584,73772.035,0.145,0.52,-0.842,0.128,-0.045,0.129,1.792,-0.804,0.132,0.171,-0.546,0.925
2024-10-15 13:43:40.594,73772.045,0.141,0.506,-0.851,0.083,-0.092,0.099,1.508,-0.319,0.069,0.164,-0.53,0.923
2024-10-15 13:43:40.603,73772.055,0.141,0.493,-0.858,0.006,-0.053,0.036,1.365,0.335,0.019,0.163,-0.516,0.921
2024-10-15 13:43:40.613,73772.065,0.146,0.482,-0.864,-0.047,0.052,-0.01,1.239,0.69,0.084,0.167,-0.503,0.919
2024-10-15 13:43:40.624,73772.075,0.153,0.471,-0.869,-0.035,0.113,0.008,1.185,0.68,0.247,0.174,-0.491,0.919
2024-10-15 13:43:40.633,73772.085,0.159,0.461,-0.873,0.023,0.093,0.025,1.128,0.334,0.363,0.18,-0.479,0.92
2024-10-15 13:43:40.644,73772.095,0.161,0.451,-0.878,0.081,0.045,0.011,1.072,-0.112,0.359,0.182,-0.467,0.922
2024-10-15 13:43:40.655,73772.105,0.16,0.441,-0.883,0.121,0.008,0.042,1.016,-0.355,0.221,0.18,-0.457,0.923
2024-10-15 13:43:40.663,73772.115,0.158,0.432,-0.888,0.106,-0.028,0.074,0.953,-0.38,0.026,0.176,-0.447,0.922
2024-10-15 13:43:40.673,73772.125,0.155,0.424,-0.892,0.041,-0.062,0.087,0.905,-0.206,-0.109,0.172,-0.438,0.92
2024-10-15 13:43:40.683,73772.135,0.153,0.417,-0.896,-0.012,-0.083,0.116,0.716,0.083,-0.13,0.17,-0.43,0.917
2024-10-15 13:43:40.693,73772.145,0.155,0.411,-0.898,-0.054,-0.061,0.085,0.58,0.233,0.013,0.17,-0.424,0.915
2024-10-15 13:43:40.704,73772.155,0.157,0.407,-0.9,-0.071,-0.011,0.041,0.335,0.301,0.135,0.173,-0.419,0.915
2024-10-15 13:43:40.714,73772.165,0.16,0.404,-0.9,-0.047,0.03,0.031,0.176,0.236,0.109,0.176,-0.416,0.916
2024-10-15 13:43:40.724,73772.175,0.162,0.403,-0.901,-0.027,0.004,0.012,0.146,0.058,-0.024,0.178,-0.415,0.916
2024-10-15 13:43:40.733,73772.185,0.161,0.402,-0.901,-0.019,-0.086,-0.01,0.069,-0.111,-0.172,0.177,-0.414,0.915
2024-10-15 13:43:40.744,73772.195,0.159,0.402,-0.902,-0.018,-0.157,-0.02,-0.076,-0.202,-0.278,0.175,-0.414,0.913
2024-10-15 13:43:40.753,73772.205,0.156,0.404,-0.901,-0.031,-0.181,-0.033,-0.261,-0.179,-0.301,0.171,-0.416,0.91
2024-10-15 13:43:40.764,73772.215,0.154,0.408,-0.9,-0.048,-0.15,-0.052,-0.509,-0.051,-0.271,0.169,-0.421,0.907
2024-10-15 13:43:40.773,73772.225,0.153,0.414,-0.897,-0.046,-0.087,-0.039,-0.735,0.117,-0.273,0.169,-0.427,0.906
2024-10-15 13:43:40.784,73772.235,0.154,0.421,-0.894,-0.037,-0.049,-0.013,-0.711,0.282,-0.301,0.17,-0.435,0.904
2024-10-15 13:43:40.793,73772.245,0.155,0.427,-0.891,-0.036,-0.053,-0.018,-0.511,0.347,-0.311,0.173,-0.442,0.902
2024-10-15 13:43:40.804,73772.255,0.157,0.431,-0.889,-0.034,-0.054,-0.059,-0.229,0.305,-0.286,0.175,-0.446,0.899
2024-10-15 13:43:40.813,73772.265,0.158,0.432,-0.888,-0.013,-0.023,-0.084,0.071,0.129,-0.23,0.176,-0.447,0.897
2024-10-15 13:43:40.823,73772.275,0.157,0.431,-0.889,0.022,0.006,-0.086,0.3,-0.111,-0.15,0.175,-0.445,0.894
2024-10-15 13:43:40.833,73772.285,0.154,0.428,-0.89,0.044,0.022,-0.057,0.362,-0.334,-0.091,0.172,-0.442,0.892
2024-10-15 13:43:40.844,73772.295,0.151,0.425,-0.893,0.035,-0.0,-0.018,0.286,-0.453,-0.055,0.167,-0.439,0.891
2024-10-15 13:43:40.853,73772.305,0.147,0.424,-0.894,-0.007,-0.057,-0.007,0.065,-0.405,-0.009,0.162,-0.437,0.89
2024-10-15 13:43:40.863,73772.315,0.144,0.424,-0.894,-0.056,-0.083,-0.022,-0.247,-0.237,-0.01,0.159,-0.438,0.89
2024-10-15 13:43:40.873,73772.325,0.142,0.428,-0.892,-0.093,-0.046,-0.038,-0.563,-0.009,-0.162,0.158,-0.442,0.89
2024-10-15 13:43:40.883,73772.335,0.142,0.434,-0.89,-0.113,-0.007,-0.02,-0.615,0.259,-0.348,0.158,-0.449,0.888
2024-10-15 13:43:40.893,73772.345,0.144,0.439,-0.887,-0.13,0.003,-0.06,-0.349,0.42,-0.471,0.16,-0.454,0.885
2024-10-15 13:43:40.903,73772.355,0.145,0.442,-0.885,-0.122,0.018,-0.143,-0.141,0.344,-0.538,0.162,-0.458,0.879
2024-10-15 13:43:40.913,73772.365,0.144,0.443,-0.885,-0.059,0.024,-0.108,0.046,0.091,-0.482,0.162,-0.459,0.874
2024-10-15 13:43:40.923,73772.375,0.142,0.443,-0.885,0.016,0.009,-0.053,0.1,-0.264,-0.379,0.159,-0.459,0.869
2024-10-15 13:43:40.933,73772.385,0.136,0.443,-0.886,0.069,-0.047,-0.013,-0.028,-0.614,-0.282,0.153,-0.459,0.865
2024-10-15 13:43:40.943,73772.395,0.129,0.444,-0.886,0.087,-0.108,0.038,-0.267,-0.804,-0.198,0.145,-0.461,0.863
2024-10-15 13:43:40.953,73772.405,0.121,0.448,-0.886,0.075,-0.128,0.053,-0.491,-0.749,-0.144,0.136,-0.465,0.862
2024-10-15 13:43:40.963,73772.415,0.115,0.453,-0.884,0.041,-0.079,0.016,-0.567,-0.404,-0.177,0.13,-0.47,0.861
2024-10-15 13:43:40.973,73772.425,0.113,0.458,-0.882,-0.002,0.015,-0.04,-0.405,0.059,-0.213,0.127,-0.475,0.859
2024-10-15 13:43:40.983,73772.435,0.114,0.46,-0.881,-0.036,0.111,-0.09,-0.07,0.389,-0.202,0.129,-0.478,0.857
2024-10-15 13:43:40.993,73772.445,0.117,0.459,-0.881,-0.026,0.163,-0.081,0.284,0.456,-0.126,0.132,-0.477,0.855
2024-10-15 13:43:41.003,73772.455,0.12,0.456,-0.882,0.014,0.145,-0.041,0.547,0.294,0.029,0.136,-0.473,0.854
2024-10-15 13:43:41.013,73772.465,0.122,0.45,-0.885,0.049,0.085,-0.018,0.618,0.006,0.219,0.137,-0.467,0.854
2024-10-15 13:43:41.023,73772.475,0.122,0.445,-0.887,0.064,0.023,0.02,0.473,-0.305,0.353,0.137,-0.461,0.857
2024-10-15 13:43:41.033,73772.485,0.12,0.441,-0.889,0.043,-0.025,0.062,0.207,-0.525,0.364,0.134,-0.457,0.86
2024-10-15 13:43:41.043,73772.495,0.116,0.441,-0.89,-0.007,-0.057,0.087,-0.143,-0.581,0.262,0.13,-0.456,0.864
2024-10-15 13:43:41.053,73772.505,0.112,0.443,-0.889,-0.064,-0.059,0.093,-0.432,-0.45,0.078,0.126,-0.459,0.866
2024-10-15 13:43:41.063,73772.515,0.109,0.448,-0.888,-0.117,-0.025,0.07,-0.538,-0.226,-0.127,0.123,-0.464,0.867
2024-10-15 13:43:41.073,73772.525,0.107,0.452,-0.885,-0.146,0.011,0.062,-0.427,-0.035,-0.264,0.121,-0.469,0.865
2024-10-15 13:43:41.085,73772.535,0.106,0.455,-0.884,-0.133,0.015,0.071,-0.145,0.043,-0.294,0.12,-0.473,0.862
2024-10-15 13:43:41.093,73772.545,0.105,0.455,-0.884,-0.079,0.0,0.067,0.15,-0.046,-0.256,0.118,-0.473,0.859
2024-10-15 13:43:41.103,73772.555,0.103,0.454,-0.885,-0.008,0.006,0.061,0.289,-0.23,-0.216,0.116,-0.471,0.856
2024-10-15 13:43:41.113,73772.565,0.099,0.451,-0.887,0.051,0.024,0.062,0.369,-0.374,-0.189,0.111,-0.468,0.854
2024-10-15 13:43:41.123,73772.574,0.095,0.448,-0.889,0.073,0.001,0.022,0.399,-0.444,-0.175,0.106,-0.464,0.851
2024-10-15 13:43:41.133,73772.584,0.09,0.444,-0.891,0.066,-0.03,-0.021,0.36,-0.426,-0.165,0.101,-0.46,0.849
2024-10-15 13:43:41.143,73772.594,0.086,0.441,-0.893,0.056,-0.033,-0.008,0.313,-0.299,-0.128,0.096,-0.457,0.847
2024-10-15 13:43:41.153,73772.604,0.084,0.439,-0.895,0.043,-0.022,0.02,0.302,-0.111,-0.044,0.093,-0.454,0.845
2024-10-15 13:43:41.163,73772.614,0.084,0.436,-0.896,0.026,0.005,0.023,0.284,0.062,0.06,0.093,-0.451,0.845
2024-10-15 13:43:41.173,73772.624,0.085,0.433,-0.897,0.017,0.044,0.021,0.311,0.172,0.155,0.095,-0.448,0.846
2024-10-15 13:43:41.183,73772.634,0.088,0.43,-0.899,0.017,0.092,0.014,0.468,0.19,0.214,0.097,-0.444,0.848
2024-10-15 13:43:41.192,73772.644,0.09,0.424,-0.901,0.015,0.155,-0.002,0.737,0.111,0.205,0.1,-0.438,0.849
2024-10-15 13:43:41.203,73772.654,0.091,0.416,-0.905,0.014,0.209,0.013,1.108,-0.056,0.169,0.1,-0.429,0.85
2024-10-15 13:43:41.213,73772.664,0.09,0.404,-0.91,0.004,0.201,0.052,1.491,-0.284,0.13,0.099,-0.416,0.851
2024-10-15 13:43:41.223,73772.674,0.087,0.389,-0.917,0.001,0.147,0.099,1.748,-0.562,0.067,0.094,-0.4,0.85
2024-10-15 13:43:41.233,73772.684,0.081,0.374,-0.924,0.019,0.105,0.185,1.481,-0.647,-0.116,0.087,-0.383,0.848
2024-10-15 13:43:41.242,73772.694,0.075,0.363,-0.929,0.049,0.055,0.273,0.979,-0.478,-0.249,0.081,-0.371,0.845
2024-10-15 13:43:41.253,73772.704,0.071,0.354,-0.933,-0.007,-0.025,-0.133,1.025,-0.2,-0.436,0.076,-0.361,0.841
2024-10-15 13:43:41.262,73772.714,0.068,0.347,-0.935,0.024,-0.109,-0.217,0.501,0.01,-0.501,0.073,-0.354,0.835
2024-10-15 13:43:41.272,73772.724,0.067,0.342,-0.937,0.121,-0.117,-0.117,0.685,0.171,-0.352,0.072,-0.349,0.83
2024-10-15 13:43:41.283,73772.734,0.069,0.335,-0.94,0.149,-0.028,-0.211,0.868,0.241,-0.088,0.073,-0.341,0.827
2024-10-15 13:43:41.293,73772.744,0.071,0.326,-0.943,0.204,0.033,-0.133,1.027,0.164,0.218,0.075,-0.332,0.827
2024-10-15 13:43:41.302,73772.754,0.073,0.314,-0.947,0.226,0.096,0.0,1.362,-0.001,0.452,0.077,-0.32,0.829
2024-10-15 13:43:41.312,73772.764,0.074,0.3,-0.951,0.207,0.063,0.12,1.483,-0.143,0.516,0.077,-0.305,0.833
2024-10-15 13:43:41.322,73772.774,0.073,0.286,-0.956,0.179,0.011,0.274,1.512,-0.216,0.434,0.076,-0.29,0.837
2024-10-15 13:43:41.332,73772.784,0.072,0.271,-0.96,0.145,-0.012,0.34,1.434,-0.209,0.277,0.075,-0.275,0.84
2024-10-15 13:43:41.343,73772.794,0.071,0.258,-0.963,0.12,-0.039,0.319,1.219,-0.159,0.177,0.073,-0.261,0.841
2024-10-15 13:43:41.352,73772.804,0.07,0.247,-0.966,0.09,-0.069,0.227,1.023,-0.071,0.248,0.073,-0.25,0.842
2024-10-15 13:43:41.363,73772.814,0.071,0.238,-0.969,0.036,-0.091,0.052,0.985,0.012,0.533,0.073,-0.24,0.845
2024-10-15 13:43:41.373,73772.824,0.073,0.227,-0.971,-0.061,-0.061,-0.155,1.021,0.08,0.941,0.075,-0.229,0.852
2024-10-15 13:43:41.383,73772.834,0.077,0.216,-0.973,-0.182,0.015,-0.274,1.155,0.1,1.363,0.078,-0.218,0.863
2024-10-15 13:43:41.392,73772.844,0.08,0.203,-0.976,-0.308,0.092,-0.296,1.334,0.032,1.687,0.082,-0.204,0.878
2024-10-15 13:43:41.402,73772.854,0.083,0.188,-0.979,-0.433,0.154,-0.256,1.338,-0.253,1.625,0.085,-0.189,0.894
2024-10-15 13:43:41.412,73772.864,0.08,0.175,-0.981,-0.544,0.186,-0.143,1.149,-0.891,0.781,0.081,-0.176,0.905
2024-10-15 13:43:41.423,73772.874,0.07,0.164,-0.984,-0.652,0.154,0.022,0.914,-1.096,-0.368,0.071,-0.165,0.907
2024-10-15 13:43:41.432,73772.884,0.06,0.158,-0.986,-0.715,0.074,0.092,0.43,-0.529,-1.052,0.061,-0.159,0.899
2024-10-15 13:43:41.442,73772.894,0.057,0.158,-0.986,-0.626,0.001,0.077,-0.24,0.197,-1.384,0.058,-0.159,0.886
2024-10-15 13:43:41.452,73772.904,0.058,0.164,-0.985,-0.432,-0.086,0.02,-0.649,0.522,-1.56,0.059,-0.164,0.871
2024-10-15 13:43:41.462,73772.914,0.061,0.171,-0.983,-0.232,-0.213,-0.073,-0.765,0.452,-1.69,0.061,-0.172,0.855
2024-10-15 13:43:41.472,73772.924,0.061,0.181,-0.982,-0.02,-0.305,-0.09,-0.883,0.168,-1.89,0.062,-0.182,0.838
2024-10-15 13:43:41.482,73772.934,0.057,0.19,-0.98,0.188,-0.256,-0.011,-0.792,-0.142,-2.152,0.058,-0.191,0.818
2024-10-15 13:43:41.492,73772.944,0.05,0.198,-0.979,0.386,-0.132,0.067,-0.513,-0.397,-2.332,0.051,-0.199,0.795
2024-10-15 13:43:41.502,73772.954,0.041,0.202,-0.979,0.587,0.029,0.121,-0.147,-0.537,-2.269,0.041,-0.204,0.772
2024-10-15 13:43:41.512,73772.964,0.031,0.202,-0.979,0.773,0.2,0.196,0.28,-0.586,-1.786,0.032,-0.204,0.751
2024-10-15 13:43:41.522,73772.974,0.023,0.198,-0.98,0.884,0.289,0.223,0.666,-0.53,-0.906,0.023,-0.199,0.737
2024-10-15 13:43:41.532,73772.984,0.018,0.19,-0.982,0.852,0.25,0.155,0.917,-0.21,0.169,0.018,-0.191,0.733
2024-10-15 13:43:41.542,73772.994,0.02,0.18,-0.983,0.661,0.107,0.032,1.081,0.306,1.257,0.02,-0.181,0.74
2024-10-15 13:43:41.552,73773.004,0.028,0.169,-0.985,0.393,-0.014,-0.112,1.087,0.772,2.225,0.029,-0.17,0.757
2024-10-15 13:43:41.562,73773.014,0.041,0.157,-0.987,0.155,-0.05,-0.205,1.166,0.965,2.864,0.041,-0.158,0.783
2024-10-15 13:43:41.572,73773.024,0.055,0.146,-0.988,0.011,-0.003,-0.063,0.612,0.93,2.939,0.056,-0.147,0.812
2024-10-15 13:43:41.582,73773.034,0.068,0.141,-0.988,-0.053,0.095,0.167,0.285,0.894,2.474,0.069,-0.141,0.84
2024-10-15 13:43:41.592,73773.044,0.079,0.137,-0.987,-0.131,0.092,0.167,0.208,0.776,1.762,0.08,-0.137,0.861
2024-10-15 13:43:41.602,73773.054,0.087,0.134,-0.987,-0.209,0.029,0.104,0.054,0.444,1.004,0.088,-0.135,0.875
2024-10-15 13:43:41.612,73773.064,0.088,0.131,-0.987,-0.308,0.048,0.057,0.628,-0.41,-0.284,0.089,-0.132,0.878
2024-10-15 13:43:41.622,73773.074,0.079,0.122,-0.989,-0.521,0.049,-0.072,1.333,-1.188,-1.15,0.079,-0.122,0.87
2024-10-15 13:43:41.632,73773.084,0.065,0.11,-0.992,-0.707,0.119,-0.237,1.048,-1.227,-1.07,0.065,-0.111,0.857
2024-10-15 13:43:41.642,73773.094,0.055,0.103,-0.993,-0.706,0.273,-0.188,0.547,-0.559,-0.424,0.055,-0.103,0.849
2024-10-15 13:43:41.652,73773.104,0.053,0.1,-0.994,-0.665,0.238,-0.148,0.1,0.213,0.108,0.054,-0.1,0.847
2024-10-15 13:43:41.662,73773.114,0.058,0.1,-0.993,-0.607,0.109,-0.084,-0.165,0.681,0.167,0.058,-0.1,0.849
2024-10-15 13:43:41.672,73773.124,0.065,0.102,-0.993,-0.467,-0.025,0.0,-0.275,0.683,-0.169,0.066,-0.103,0.849
2024-10-15 13:43:41.682,73773.134,0.07,0.106,-0.992,-0.269,-0.183,-0.0,-0.266,0.38,-0.606,0.071,-0.106,0.846
2024-10-15 13:43:41.692,73773.144,0.07,0.11,-0.991,-0.053,-0.324,-0.084,-0.527,-0.231,-0.963,0.07,-0.11,0.838
2024-10-15 13:43:41.702,73773.154,0.064,0.117,-0.991,0.136,-0.341,-0.028,-0.858,-0.683,-1.382,0.065,-0.118,0.827
2024-10-15 13:43:41.712,73773.163,0.055,0.128,-0.99,0.216,-0.219,0.045,-1.058,-0.746,-1.864,0.055,-0.128,0.811
2024-10-15 13:43:41.722,73773.173,0.046,0.139,-0.989,0.238,-0.116,0.052,-1.002,-0.448,-2.274,0.046,-0.14,0.791
2024-10-15 13:43:41.731,73773.183,0.04,0.149,-0.988,0.318,-0.061,0.063,-0.823,-0.075,-2.433,0.04,-0.15,0.767
2024-10-15 13:43:41.742,73773.193,0.037,0.157,-0.987,0.485,0.001,0.136,-0.524,0.146,-2.047,0.037,-0.158,0.744
2024-10-15 13:43:41.752,73773.203,0.036,0.161,-0.986,0.677,0.139,0.174,-0.06,0.184,-0.995,0.037,-0.161,0.729
2024-10-15 13:43:41.762,73773.213,0.038,0.159,-0.987,0.782,0.277,0.149,0.495,0.232,0.367,0.038,-0.159,0.726
2024-10-15 13:43:41.772,73773.223,0.042,0.151,-0.988,0.707,0.272,0.087,0.868,0.437,1.503,0.043,-0.152,0.735
2024-10-15 13:43:41.782,73773.233,0.05,0.142,-0.989,0.487,0.11,0.027,0.871,0.671,2.213,0.051,-0.142,0.754
2024-10-15 13:43:41.792,73773.243,0.061,0.132,-0.989,0.255,-0.024,-0.034,0.889,0.775,2.497,0.062,-0.132,0.777
2024-10-15 13:43:41.802,73773.253,0.072,0.123,-0.99,0.082,-0.067,-0.014,0.471,0.834,2.279,0.073,-0.123,0.801
2024-10-15 13:43:41.812,73773.263,0.083,0.12,-0.989,-0.011,-0.039,0.153,-0.053,0.874,1.611,0.084,-0.12,0.82
2024-10-15 13:43:41.822,73773.273,0.093,0.12,-0.988,-0.073,-0.039,0.13,-0.144,0.744,0.703,0.093,-0.12,0.832
2024-10-15 13:43:41.832,73773.283,0.099,0.121,-0.988,-0.109,-0.125,0.049,-0.081,0.511,-0.204,0.1,-0.121,0.835
2024-10-15 13:43:41.842,73773.293,0.102,0.121,-0.987,-0.159,-0.141,0.019,0.206,0.151,-0.607,0.103,-0.121,0.83
2024-10-15 13:43:41.852,73773.303,0.101,0.118,-0.988,-0.224,-0.028,-0.028,0.556,-0.163,-0.357,0.102,-0.118,0.825
2024-10-15 13:43:41.861,73773.313,0.098,0.111,-0.989,-0.302,0.146,-0.113,0.736,-0.446,0.22,0.099,-0.111,0.823
2024-10-15 13:43:41.871,73773.323,0.093,0.103,-0.99,-0.406,0.273,-0.151,0.76,-0.678,0.686,0.094,-0.103,0.827
2024-10-15 13:43:41.881,73773.333,0.087,0.096,-0.992,-0.537,0.324,-0.127,0.538,-0.732,0.633,0.087,-0.096,0.833
2024-10-15 13:43:41.892,73773.343,0.081,0.092,-0.993,-0.676,0.288,-0.089,0.314,-0.442,0.074,0.081,-0.092,0.837
2024-10-15 13:43:41.901,73773.353,0.079,0.089,-0.993,-0.761,0.167,-0.06,0.142,0.095,-0.439,0.079,-0.09,0.835
2024-10-15 13:43:41.912,73773.363,0.082,0.09,-0.993,-0.678,0.038,-0.045,-0.07,0.529,-0.593,0.082,-0.09,0.829
2024-10-15 13:43:41.922,73773.373,0.087,0.092,-0.992,-0.428,-0.047,-0.031,-0.465,0.542,-0.601,0.087,-0.093,0.823
2024-10-15 13:43:41.932,73773.383,0.09,0.098,-0.991,-0.151,-0.152,-0.067,-0.474,0.122,-0.652,0.09,-0.098,0.818
2024-10-15 13:43:41.942,73773.393,0.087,0.104,-0.991,0.075,-0.302,-0.142,-0.589,-0.435,-0.783,0.088,-0.104,0.811
2024-10-15 13:43:41.951,73773.403,0.08,0.111,-0.991,0.223,-0.355,-0.104,-0.713,-0.73,-0.988,0.081,-0.111,0.803
2024-10-15 13:43:41.961,73773.413,0.072,0.119,-0.99,0.247,-0.248,-0.022,-0.669,-0.614,-1.201,0.073,-0.119,0.792
2024-10-15 13:43:41.971,73773.423,0.066,0.125,-0.99,0.216,-0.138,0.019,-0.513,-0.267,-1.343,0.067,-0.126,0.78
2024-10-15 13:43:41.981,73773.433,0.064,0.131,-0.989,0.23,-0.068,0.053,-0.349,0.056,-1.341,0.064,-0.131,0.767
2024-10-15 13:43:41.991,73773.443,0.063,0.134,-0.989,0.322,0.006,0.106,-0.235,0.176,-1.158,0.064,-0.135,0.754
2024-10-15 13:43:42.001,73773.453,0.063,0.137,-0.989,0.457,0.114,0.158,-0.137,0.135,-0.782,0.064,-0.137,0.744
2024-10-15 13:43:42.011,73773.463,0.064,0.138,-0.988,0.585,0.23,0.187,0.011,0.112,-0.246,0.065,-0.138,0.739
2024-10-15 13:43:42.021,73773.473,0.065,0.136,-0.989,0.645,0.272,0.149,0.26,0.219,0.362,0.066,-0.137,0.74
2024-10-15 13:43:42.031,73773.483,0.07,0.132,-0.989,0.594,0.202,0.052,0.484,0.442,0.952,0.07,-0.133,0.746
2024-10-15 13:43:42.041,73773.493,0.077,0.126,-0.989,0.443,0.075,-0.044,0.554,0.665,1.465,0.077,-0.126,0.758
2024-10-15 13:43:42.051,73773.503,0.086,0.119,-0.989,0.263,-0.024,-0.121,0.746,0.719,1.812,0.086,-0.119,0.774
2024-10-15 13:43:42.062,73773.513,0.095,0.11,-0.989,0.106,-0.066,-0.091,0.629,0.696,1.813,0.096,-0.11,0.792
2024-10-15 13:43:42.071,73773.523,0.103,0.104,-0.989,0.018,-0.043,0.153,0.309,0.628,1.407,0.104,-0.104,0.807
2024-10-15 13:43:42.081,73773.533,0.11,0.099,-0.989,-0.043,-0.037,0.217,0.341,0.503,0.626,0.111,-0.1,0.817
2024-10-15 13:43:42.091,73773.543,0.114,0.096,-0.989,-0.104,-0.134,0.186,0.183,0.327,-0.117,0.115,-0.097,0.819
2024-10-15 13:43:42.101,73773.553,0.117,0.095,-0.989,-0.138,-0.136,0.168,0.132,0.183,-0.377,0.117,-0.095,0.816
2024-10-15 13:43:42.111,73773.563,0.118,0.094,-0.989,-0.167,-0.01,0.094,0.221,0.112,-0.171,0.118,-0.094,0.813
2024-10-15 13:43:42.121,73773.573,0.118,0.091,-0.989,-0.24,0.139,-0.069,0.353,-0.026,0.223,0.119,-0.091,0.813
2024-10-15 13:43:42.131,73773.583,0.117,0.086,-0.989,-0.359,0.253,-0.213,0.534,-0.347,0.472,0.118,-0.087,0.816
2024-10-15 13:43:42.141,73773.593,0.112,0.08,-0.991,-0.504,0.281,-0.292,0.655,-0.768,0.313,0.112,-0.08,0.82
2024-10-15 13:43:42.151,73773.603,0.103,0.074,-0.992,-0.654,0.235,-0.239,0.612,-0.865,-0.117,0.104,-0.074,0.82
2024-10-15 13:43:42.161,73773.613,0.096,0.069,-0.993,-0.773,0.175,-0.14,0.414,-0.45,-0.363,0.097,-0.069,0.817
2024-10-15 13:43:42.171,73773.623,0.095,0.067,-0.993,-0.76,0.125,-0.049,0.04,0.144,-0.318,0.095,-0.067,0.813
2024-10-15 13:43:42.181,73773.633,0.098,0.069,-0.993,-0.586,0.082,0.03,-0.491,0.502,-0.161,0.098,-0.069,0.811
2024-10-15 13:43:42.191,73773.643,0.102,0.075,-0.992,-0.338,-0.019,0.003,-0.662,0.405,-0.103,0.103,-0.075,0.811
2024-10-15 13:43:42.201,73773.653,0.104,0.083,-0.991,-0.103,-0.204,-0.114,-0.905,-0.101,-0.226,0.104,-0.083,0.81
2024-10-15 13:43:42.211,73773.663,0.1,0.093,-0.991,0.078,-0.337,-0.108,-1.131,-0.549,-0.471,0.101,-0.093,0.807
2024-10-15 13:43:42.221,73773.673,0.093,0.106,-0.99,0.158,-0.314,-0.088,-1.215,-0.663,-0.81,0.094,-0.106,0.802
2024-10-15 13:43:42.231,73773.683,0.086,0.118,-0.989,0.162,-0.238,-0.087,-1.118,-0.494,-1.214,0.087,-0.118,0.793
2024-10-15 13:43:42.241,73773.693,0.081,0.129,-0.988,0.168,-0.168,-0.065,-0.911,-0.25,-1.586,0.082,-0.13,0.78
2024-10-15 13:43:42.251,73773.703,0.077,0.138,-0.987,0.257,-0.103,0.002,-0.571,-0.098,-1.76,0.078,-0.138,0.764
2024-10-15 13:43:42.261,73773.713,0.074,0.143,-0.987,0.427,-0.032,0.096,-0.249,-0.131,-1.64,0.075,-0.144,0.747
2024-10-15 13:43:42.271,73773.723,0.07,0.145,-0.987,0.624,0.071,0.185,0.064,-0.26,-1.115,0.071,-0.146,0.733
2024-10-15 13:43:42.280,73773.733,0.066,0.144,-0.987,0.775,0.162,0.235,0.324,-0.32,-0.312,0.067,-0.144,0.725
2024-10-15 13:43:42.291,73773.742,0.064,0.14,-0.988,0.804,0.154,0.198,0.423,-0.112,0.541,0.064,-0.14,0.726
2024-10-15 13:43:42.301,73773.752,0.066,0.135,-0.989,0.674,0.05,0.129,0.37,0.3,1.254,0.066,-0.136,0.735
2024-10-15 13:43:42.311,73773.762,0.073,0.131,-0.989,0.448,-0.068,0.043,0.235,0.66,1.767,0.073,-0.132,0.75
2024-10-15 13:43:42.321,73773.772,0.083,0.127,-0.988,0.235,-0.113,-0.02,0.213,0.88,1.978,0.083,-0.128,0.769
2024-10-15 13:43:42.331,73773.782,0.094,0.126,-0.988,0.094,-0.059,0.118,-0.197,0.896,1.888,0.095,-0.126,0.788
2024-10-15 13:43:42.340,73773.792,0.105,0.126,-0.986,0.013,0.054,0.24,-0.184,0.88,1.59,0.106,-0.126,0.806
2024-10-15 13:43:42.351,73773.802,0.115,0.125,-0.985,-0.072,0.115,0.162,0.044,0.733,1.24,0.116,-0.125,0.82
2024-10-15 13:43:42.361,73773.812,0.121,0.122,-0.985,-0.165,0.161,0.039,0.342,0.355,0.696,0.123,-0.123,0.83
2024-10-15 13:43:42.371,73773.822,0.122,0.116,-0.986,-0.311,0.235,-0.056,0.82,-0.323,0.104,0.123,-0.116,0.833
2024-10-15 13:43:42.380,73773.832,0.116,0.107,-0.988,-0.501,0.288,-0.16,0.98,-0.93,-0.24,0.117,-0.107,0.831
2024-10-15 13:43:42.391,73773.842,0.105,0.099,-0.99,-0.637,0.359,-0.174,0.718,-1.05,-0.412,0.106,-0.099,0.827
2024-10-15 13:43:42.401,73773.852,0.097,0.094,-0.991,-0.734,0.378,-0.125,0.36,-0.472,-0.389,0.098,-0.094,0.822
2024-10-15 13:43:42.410,73773.862,0.096,0.092,-0.991,-0.775,0.257,-0.108,0.055,0.313,-0.246,0.096,-0.092,0.819
2024-10-15 13:43:42.421,73773.872,0.102,0.093,-0.99,-0.674,0.069,-0.073,-0.233,0.796,-0.131,0.102,-0.093,0.817
2024-10-15 13:43:42.431,73773.882,0.11,0.097,-0.989,-0.449,-0.055,0.007,-0.473,0.766,-0.133,0.11,-0.097,0.816
2024-10-15 13:43:42.441,73773.892,0.114,0.104,-0.988,-0.182,-0.148,0.019,-0.842,0.217,-0.341,0.115,-0.104,0.815
2024-10-15 13:43:42.451,73773.902,0.113,0.113,-0.987,0.057,-0.264,-0.045,-0.9,-0.474,-0.625,0.114,-0.113,0.811
2024-10-15 13:43:42.461,73773.912,0.105,0.124,-0.987,0.223,-0.35,-0.064,-1.201,-0.834,-0.931,0.106,-0.124,0.804
2024-10-15 13:43:42.471,73773.922,0.095,0.137,-0.986,0.267,-0.291,-0.058,-1.204,-0.762,-1.128,0.097,-0.137,0.795
2024-10-15 13:43:42.481,73773.932,0.088,0.149,-0.985,0.229,-0.211,-0.097,-1.097,-0.411,-1.15,0.089,-0.15,0.785
2024-10-15 13:43:42.491,73773.942,0.084,0.16,-0.984,0.236,-0.172,-0.102,-0.867,-0.109,-1.049,0.085,-0.161,0.774
2024-10-15 13:43:42.501,73773.952,0.082,0.168,-0.982,0.341,-0.145,-0.032,-0.54,-0.035,-0.856,0.083,-0.169,0.765
2024-10-15 13:43:42.510,73773.962,0.08,0.172,-0.982,0.486,-0.094,0.074,-0.263,-0.125,-0.522,0.081,-0.173,0.759
2024-10-15 13:43:42.521,73773.972,0.078,0.174,-0.982,0.614,-0.024,0.177,0.057,-0.225,-0.017,0.079,-0.174,0.756
2024-10-15 13:43:42.531,73773.982,0.076,0.171,-0.982,0.668,-0.023,0.203,0.359,-0.151,0.536,0.077,-0.172,0.758
2024-10-15 13:43:42.540,73773.992,0.077,0.167,-0.983,0.601,-0.079,0.137,0.44,0.095,0.898,0.078,-0.167,0.765
2024-10-15 13:43:42.551,73774.002,0.081,0.162,-0.984,0.416,-0.113,0.038,0.42,0.389,1.194,0.082,-0.162,0.776
2024-10-15 13:43:42.560,73774.012,0.088,0.156,-0.984,0.201,-0.096,-0.076,0.422,0.583,1.445,0.089,-0.157,0.789
2024-10-15 13:43:42.570,73774.022,0.096,0.153,-0.984,0.053,-0.038,-0.019,-0.018,0.664,1.541,0.098,-0.153,0.803
2024-10-15 13:43:42.580,73774.032,0.105,0.152,-0.983,-0.027,0.069,0.163,-0.088,0.691,1.3,0.107,-0.153,0.818
2024-10-15 13:43:42.589,73774.042,0.113,0.151,-0.982,-0.128,0.134,0.124,0.148,0.526,0.729,0.114,-0.151,0.828
2024-10-15 13:43:42.599,73774.052,0.117,0.148,-0.982,-0.219,0.144,0.057,0.271,0.246,0.192,0.119,-0.149,0.833
2024-10-15 13:43:42.609,73774.062,0.118,0.145,-0.982,-0.279,0.238,0.022,0.426,-0.063,-0.08,0.12,-0.145,0.833
2024-10-15 13:43:42.619,73774.072,0.116,0.14,-0.983,-0.358,0.359,-0.065,0.431,-0.383,-0.1,0.117,-0.141,0.831
2024-10-15 13:43:42.630,73774.082,0.111,0.137,-0.984,-0.467,0.437,-0.132,0.36,-0.671,-0.092,0.112,-0.137,0.83
2024-10-15 13:43:42.640,73774.092,0.103,0.134,-0.986,-0.58,0.437,-0.091,0.172,-0.666,-0.264,0.105,-0.135,0.828
2024-10-15 13:43:42.650,73774.102,0.099,0.133,-0.986,-0.686,0.369,-0.009,0.132,-0.2,-0.402,0.1,-0.133,0.824
2024-10-15 13:43:42.660,73774.112,0.099,0.133,-0.986,-0.701,0.226,0.035,0.043,0.382,-0.336,0.1,-0.133,0.82
2024-10-15 13:43:42.670,73774.122,0.104,0.133,-0.986,-0.551,0.059,0.072,-0.13,0.716,-0.166,0.105,-0.134,0.818
2024-10-15 13:43:42.680,73774.132,0.111,0.136,-0.985,-0.298,-0.081,0.044,-0.437,0.58,-0.116,0.112,-0.136,0.817
2024-10-15 13:43:42.690,73774.142,0.114,0.142,-0.983,-0.034,-0.224,-0.087,-0.704,0.047,-0.258,0.115,-0.143,0.816
2024-10-15 13:43:42.701,73774.152,0.111,0.151,-0.982,0.192,-0.352,-0.223,-1.013,-0.529,-0.489,0.112,-0.151,0.813
2024-10-15 13:43:42.710,73774.162,0.104,0.162,-0.981,0.316,-0.366,-0.219,-1.044,-0.615,-0.652,0.105,-0.162,0.808
2024-10-15 13:43:42.720,73774.172,0.098,0.171,-0.98,0.288,-0.267,-0.213,-0.709,-0.352,-0.549,0.1,-0.172,0.803
2024-10-15 13:43:42.730,73774.182,0.095,0.177,-0.98,0.218,-0.192,-0.185,-0.356,-0.089,-0.206,0.097,-0.178,0.8
2024-10-15 13:43:42.740,73774.192,0.095,0.178,-0.979,0.232,-0.149,-0.064,-0.028,-0.08,0.129,0.096,-0.179,0.799
2024-10-15 13:43:42.750,73774.202,0.093,0.177,-0.98,0.317,-0.152,0.074,0.286,-0.222,0.263,0.095,-0.178,0.801
2024-10-15 13:43:42.760,73774.212,0.091,0.173,-0.981,0.4,-0.187,0.163,0.454,-0.343,0.228,0.093,-0.174,0.804
2024-10-15 13:43:42.770,73774.222,0.088,0.168,-0.982,0.462,-0.243,0.193,0.446,-0.394,0.101,0.089,-0.169,0.805
2024-10-15 13:43:42.780,73774.232,0.084,0.165,-0.983,0.487,-0.295,0.139,0.225,-0.368,-0.019,0.085,-0.166,0.805
2024-10-15 13:43:42.790,73774.242,0.081,0.164,-0.983,0.464,-0.287,0.06,-0.121,-0.194,-0.018,0.082,-0.165,0.805
2024-10-15 13:43:42.800,73774.252,0.081,0.167,-0.983,0.378,-0.204,-0.038,-0.361,0.153,0.188,0.082,-0.168,0.806
2024-10-15 13:43:42.810,73774.262,0.085,0.17,-0.982,0.246,-0.068,-0.134,-0.326,0.511,0.589,0.086,-0.171,0.81
2024-10-15 13:43:42.820,73774.272,0.092,0.171,-0.981,0.11,0.101,-0.153,0.066,0.746,1.044,0.094,-0.171,0.818
2024-10-15 13:43:42.830,73774.282,0.102,0.169,-0.98,0.029,0.283,0.092,0.122,0.732,1.348,0.103,-0.169,0.83
2024-10-15 13:43:42.840,73774.292,0.11,0.164,-0.98,-0.013,0.45,0.316,0.615,0.441,1.239,0.112,-0.165,0.843
2024-10-15 13:43:42.850,73774.302,0.113,0.154,-0.982,-0.104,0.429,0.287,1.044,-0.118,0.573,0.115,-0.155,0.852
2024-10-15 13:43:42.860,73774.312,0.11,0.144,-0.984,-0.212,0.274,0.225,1.057,-0.606,0.022,0.111,-0.144,0.853
2024-10-15 13:43:42.870,73774.321,0.102,0.135,-0.986,-0.308,0.232,0.163,0.629,-0.828,-0.124,0.104,-0.135,0.851
2024-10-15 13:43:42.880,73774.331,0.094,0.132,-0.987,-0.42,0.319,0.081,0.093,-0.851,-0.173,0.095,-0.132,0.85
2024-10-15 13:43:42.890,73774.341,0.086,0.133,-0.987,-0.602,0.398,0.04,-0.21,-0.587,-0.463,0.087,-0.133,0.847
2024-10-15 13:43:42.900,73774.351,0.083,0.135,-0.987,-0.804,0.385,0.032,-0.105,0.116,-0.658,0.084,-0.135,0.841
2024-10-15 13:43:42.910,73774.361,0.087,0.137,-0.987,-0.86,0.258,-0.073,-0.203,0.746,-0.462,0.087,-0.137,0.835
2024-10-15 13:43:42.920,73774.371,0.095,0.141,-0.986,-0.65,0.082,-0.11,-0.54,0.979,-0.18,0.096,-0.141,0.832
2024-10-15 13:43:42.930,73774.381,0.104,0.148,-0.984,-0.315,-0.067,-0.071,-0.893,0.769,-0.177,0.105,-0.148,0.832
2024-10-15 13:43:42.940,73774.391,0.108,0.158,-0.981,-0.009,-0.234,-0.097,-1.089,0.247,-0.453,0.11,-0.159,0.83
2024-10-15 13:43:42.950,73774.401,0.106,0.17,-0.98,0.236,-0.388,-0.179,-1.3,-0.386,-0.792,0.108,-0.171,0.825
2024-10-15 13:43:42.959,73774.411,0.1,0.184,-0.978,0.375,-0.391,-0.115,-1.299,-0.575,-0.982,0.102,-0.185,0.817
2024-10-15 13:43:42.969,73774.421,0.093,0.196,-0.976,0.358,-0.251,-0.091,-0.885,-0.327,-0.84,0.095,-0.197,0.809
2024-10-15 13:43:42.979,73774.431,0.091,0.203,-0.975,0.275,-0.145,-0.144,-0.356,0.032,-0.42,0.093,-0.204,0.803
2024-10-15 13:43:42.989,73774.441,0.091,0.204,-0.975,0.272,-0.129,-0.125,0.083,0.107,0.012,0.093,-0.206,0.801
2024-10-15 13:43:42.999,73774.451,0.092,0.202,-0.975,0.37,-0.192,-0.032,0.301,-0.044,0.203,0.094,-0.203,0.802
2024-10-15 13:43:43.009,73774.461,0.091,0.199,-0.976,0.471,-0.249,0.083,0.252,-0.203,0.139,0.093,-0.2,0.803
2024-10-15 13:43:43.019,73774.471,0.089,0.197,-0.976,0.517,-0.291,0.15,0.076,-0.234,-0.042,0.091,-0.199,0.804
2024-10-15 13:43:43.029,73774.481,0.087,0.198,-0.976,0.498,-0.331,0.136,-0.183,-0.112,-0.157,0.089,-0.199,0.803
2024-10-15 13:43:43.039,73774.491,0.087,0.201,-0.976,0.412,-0.284,0.079,-0.375,0.194,-0.051,0.089,-0.202,0.802
2024-10-15 13:43:43.050,73774.501,0.091,0.204,-0.975,0.271,-0.142,-0.009,-0.209,0.589,0.323,0.093,-0.205,0.803
2024-10-15 13:43:43.060,73774.511,0.099,0.202,-0.974,0.112,0.052,-0.127,0.36,0.849,0.897,0.101,-0.204,0.809
2024-10-15 13:43:43.070,73774.521,0.11,0.198,-0.974,-0.009,0.288,-0.028,0.316,0.788,1.395,0.112,-0.199,0.821
2024-10-15 13:43:43.079,73774.531,0.119,0.191,-0.974,-0.072,0.513,0.159,0.717,0.455,1.559,0.121,-0.193,0.835
2024-10-15 13:43:43.090,73774.541,0.123,0.181,-0.976,-0.16,0.508,0.128,0.924,-0.145,1.093,0.125,-0.182,0.848
2024-10-15 13:43:43.099,73774.551,0.12,0.172,-0.978,-0.25,0.365,0.091,0.804,-0.604,0.35,0.122,-0.173,0.854
2024-10-15 13:43:43.109,73774.561,0.114,0.166,-0.98,-0.359,0.293,0.086,0.375,-0.704,-0.261,0.116,-0.167,0.854
2024-10-15 13:43:43.118,73774.571,0.107,0.165,-0.98,-0.477,0.313,0.055,-0.124,-0.531,-0.642,0.108,-0.166,0.849
2024-10-15 13:43:43.128,73774.581,0.102,0.168,-0.98,-0.598,0.344,0.042,-0.303,-0.127,-0.708,0.104,-0.169,0.842
2024-10-15 13:43:43.139,73774.591,0.102,0.172,-0.98,-0.648,0.263,0.044,-0.374,0.332,-0.476,0.104,-0.173,0.836
2024-10-15 13:43:43.149,73774.601,0.107,0.176,-0.979,-0.567,0.101,0.042,-0.177,0.972,-0.132,0.109,-0.177,0.834
2024-10-15 13:43:43.159,73774.611,0.115,0.176,-0.978,-0.373,-0.062,-0.016,0.096,0.742,0.143,0.117,-0.176,0.834
2024-10-15 13:43:43.169,73774.621,0.121,0.177,-0.977,-0.087,-0.215,-0.201,-0.26,0.433,-0.017,0.123,-0.177,0.835
2024-10-15 13:43:43.179,73774.631,0.122,0.18,-0.976,0.143,-0.336,-0.221,-0.45,-0.1,-0.402,0.125,-0.181,0.833
2024-10-15 13:43:43.189,73774.641,0.118,0.186,-0.975,0.204,-0.503,-0.241,-0.574,-0.544,-0.627,0.121,-0.187,0.829
2024-10-15 13:43:43.200,73774.651,0.111,0.191,-0.975,0.161,-0.565,-0.169,-0.333,-0.64,-0.551,0.114,-0.192,0.823
2024-10-15 13:43:43.209,73774.661,0.104,0.195,-0.975,0.093,-0.425,-0.129,-0.471,-0.557,-0.477,0.106,-0.196,0.818
2024-10-15 13:43:43.219,73774.671,0.1,0.201,-0.974,0.056,-0.223,-0.133,-0.584,-0.146,-0.534,0.102,-0.202,0.814
2024-10-15 13:43:43.229,73774.681,0.099,0.206,-0.974,0.057,-0.131,-0.04,-0.351,0.145,-0.593,0.101,-0.208,0.809
2024-10-15 13:43:43.239,73774.691,0.099,0.209,-0.973,0.09,-0.144,-0.051,-0.187,0.176,-0.575,0.102,-0.211,0.803
2024-10-15 13:43:43.249,73774.701,0.099,0.21,-0.973,0.153,-0.073,-0.023,0.113,0.068,-0.455,0.102,-0.212,0.798
2024-10-15 13:43:43.259,73774.711,0.098,0.208,-0.973,0.182,0.057,0.003,0.517,-0.077,-0.251,0.101,-0.209,0.794
2024-10-15 13:43:43.270,73774.721,0.097,0.201,-0.975,0.164,0.163,-0.011,0.771,-0.257,-0.07,0.099,-0.203,0.791
2024-10-15 13:43:43.279,73774.731,0.093,0.194,-0.977,0.137,0.212,0.033,0.796,-0.367,0.02,0.095,-0.195,0.791
2024-10-15 13:43:43.289,73774.741,0.09,0.187,-0.978,0.12,0.203,0.133,0.564,-0.359,-0.008,0.092,-0.188,0.79
2024-10-15 13:43:43.299,73774.751,0.087,0.183,-0.979,0.11,0.197,0.202,0.227,-0.245,-0.106,0.088,-0.184,0.789
2024-10-15 13:43:43.309,73774.761,0.085,0.183,-0.98,0.117,0.246,0.255,-0.104,-0.049,-0.145,0.087,-0.184,0.788
2024-10-15 13:43:43.319,73774.771,0.086,0.185,-0.979,0.144,0.368,0.281,-0.421,0.232,-0.015,0.087,-0.186,0.787
2024-10-15 13:43:43.330,73774.781,0.089,0.189,-0.978,0.169,0.538,0.202,-0.352,0.462,0.35,0.091,-0.19,0.789
2024-10-15 13:43:43.339,73774.791,0.095,0.19,-0.977,0.165,0.586,0.034,0.039,0.471,0.831,0.097,-0.191,0.795
2024-10-15 13:43:43.349,73774.801,0.101,0.187,-0.977,0.154,0.381,-0.086,0.492,0.186,1.113,0.103,-0.188,0.805
2024-10-15 13:43:43.359,73774.811,0.102,0.178,-0.979,0.135,0.084,-0.1,1.004,-0.205,0.828,0.104,-0.179,0.814
2024-10-15 13:43:43.369,73774.821,0.099,0.168,-0.981,0.047,-0.17,-0.065,0.916,-0.702,0.458,0.101,-0.168,0.819
2024-10-15 13:43:43.378,73774.831,0.093,0.16,-0.983,-0.034,-0.256,0.057,0.52,-0.752,0.559,0.094,-0.161,0.824
2024-10-15 13:43:43.388,73774.841,0.088,0.16,-0.983,-0.004,-0.216,0.303,-0.522,-0.412,0.695,0.089,-0.16,0.83
2024-10-15 13:43:43.399,73774.851,0.088,0.165,-0.982,-0.021,-0.129,0.324,-0.439,0.269,0.436,0.089,-0.165,0.837
2024-10-15 13:43:43.409,73774.861,0.092,0.165,-0.982,-0.186,-0.171,0.1,0.494,0.504,-0.484,0.093,-0.165,0.837
2024-10-15 13:43:43.418,73774.871,0.093,0.158,-0.983,-0.401,-0.372,-0.265,0.955,0.002,-0.985,0.095,-0.158,0.828
2024-10-15 13:43:43.428,73774.881,0.088,0.151,-0.985,-0.38,-0.575,-0.336,0.526,-0.714,-0.567,0.09,-0.151,0.819
2024-10-15 13:43:43.438,73774.891,0.079,0.15,-0.985,-0.185,-0.573,-0.225,-0.464,-0.991,-0.009,0.08,-0.151,0.816
2024-10-15 13:43:43.448,73774.9,0.071,0.159,-0.985,-0.119,-0.458,-0.067,-1.188,-0.513,0.114,0.072,-0.16,0.818
2024-10-15 13:43:43.459,73774.91,0.071,0.171,-0.983,-0.189,-0.32,-0.001,-1.21,0.372,-0.176,0.072,-0.172,0.818
2024-10-15 13:43:43.469,73774.92,0.077,0.182,-0.98,-0.266,-0.139,-0.037,-0.957,1.078,-0.453,0.079,-0.183,0.816
2024-10-15 13:43:43.478,73774.93,0.088,0.189,-0.978,-0.227,0.103,0.008,-0.406,1.292,-0.473,0.09,-0.19,0.812
2024-10-15 13:43:43.489,73774.94,0.098,0.191,-0.977,-0.075,0.308,0.042,0.145,0.76,-0.426,0.1,-0.192,0.807
2024-10-15 13:43:43.499,73774.95,0.101,0.187,-0.977,0.07,0.452,-0.031,0.744,-0.093,-0.441,0.103,-0.188,0.802
2024-10-15 13:43:43.509,73774.96,0.095,0.179,-0.979,0.194,0.415,-0.031,1.01,-0.766,-0.524,0.097,-0.179,0.797
2024-10-15 13:43:43.519,73774.97,0.086,0.17,-0.982,0.261,0.245,0.051,0.832,-0.931,-0.632,0.087,-0.171,0.79
2024-10-15 13:43:43.529,73774.98,0.076,0.164,-0.983,0.238,0.159,0.153,0.44,-0.652,-0.752,0.078,-0.165,0.782
2024-10-15 13:43:43.539,73774.99,0.071,0.162,-0.984,0.189,0.196,0.235,0.018,-0.087,-0.723,0.072,-0.163,0.775
2024-10-15 13:43:43.549,73775.0,0.072,0.165,-0.984,0.188,0.369,0.27,-0.563,0.465,-0.388,0.073,-0.166,0.769
2024-10-15 13:43:43.559,73775.01,0.079,0.172,-0.982,0.226,0.611,0.211,-0.724,0.829,0.269,0.08,-0.173,0.769
2024-10-15 13:43:43.569,73775.02,0.088,0.177,-0.98,0.254,0.62,0.065,-0.354,0.86,0.999,0.09,-0.178,0.776
2024-10-15 13:43:43.579,73775.03,0.098,0.177,-0.979,0.249,0.307,-0.081,0.16,0.54,1.48,0.1,-0.178,0.789
2024-10-15 13:43:43.589,73775.04,0.102,0.171,-0.98,0.207,-0.04,-0.118,0.813,-0.208,0.992,0.104,-0.172,0.801
2024-10-15 13:43:43.599,73775.05,0.098,0.161,-0.982,0.065,-0.292,-0.025,1.004,-0.746,0.659,0.1,-0.162,0.808
2024-10-15 13:43:43.608,73775.06,0.091,0.154,-0.984,-0.019,-0.375,0.208,0.224,-0.781,0.859,0.092,-0.154,0.815
2024-10-15 13:43:43.618,73775.07,0.088,0.154,-0.984,0.049,-0.13,0.303,-0.346,-0.046,1.03,0.09,-0.154,0.825
2024-10-15 13:43:43.628,73775.08,0.092,0.156,-0.983,-0.067,0.056,0.074,-0.075,0.444,0.693,0.093,-0.156,0.834
2024-10-15 13:43:43.638,73775.09,0.096,0.151,-0.984,-0.314,0.013,-0.251,0.928,0.207,-0.387,0.097,-0.152,0.835
2024-10-15 13:43:43.648,73775.1,0.093,0.141,-0.986,-0.518,-0.249,-0.404,1.231,-0.602,-0.962,0.094,-0.141,0.827
2024-10-15 13:43:43.658,73775.11,0.083,0.132,-0.988,-0.47,-0.511,-0.347,0.695,-1.115,-0.609,0.084,-0.132,0.818
2024-10-15 13:43:43.668,73775.12,0.072,0.13,-0.989,-0.297,-0.578,-0.188,-0.257,-0.88,-0.11,0.073,-0.13,0.814
2024-10-15 13:43:43.678,73775.13,0.068,0.136,-0.988,-0.241,-0.579,-0.024,-0.977,-0.055,0.042,0.068,-0.137,0.814
2024-10-15 13:43:43.688,73775.14,0.071,0.147,-0.987,-0.252,-0.534,0.021,-1.2,0.83,-0.19,0.072,-0.148,0.815
2024-10-15 13:43:43.698,73775.15,0.082,0.159,-0.984,-0.222,-0.356,-0.011,-1.162,1.421,-0.569,0.083,-0.16,0.812
2024-10-15 13:43:43.708,73775.16,0.096,0.169,-0.981,-0.126,-0.073,-0.006,-0.732,1.497,-0.85,0.097,-0.17,0.805
2024-10-15 13:43:43.718,73775.17,0.107,0.175,-0.979,0.018,0.171,-0.065,-0.155,0.978,-0.915,0.108,-0.176,0.797
2024-10-15 13:43:43.729,73775.18,0.11,0.174,-0.978,0.155,0.359,-0.194,0.388,0.133,-0.796,0.112,-0.175,0.788
2024-10-15 13:43:43.738,73775.19,0.107,0.17,-0.98,0.253,0.406,-0.215,0.652,-0.531,-0.657,0.109,-0.171,0.78
2024-10-15 13:43:43.748,73775.2,0.1,0.164,-0.981,0.245,0.235,-0.159,0.596,-0.672,-0.613,0.101,-0.165,0.773
2024-10-15 13:43:43.758,73775.21,0.093,0.16,-0.983,0.142,-0.021,-0.084,0.325,-0.531,-0.848,0.094,-0.161,0.765
2024-10-15 13:43:43.768,73775.22,0.088,0.163,-0.983,0.02,-0.282,0.026,-0.771,0.053,-1.203,0.09,-0.163,0.755
2024-10-15 13:43:43.778,73775.23,0.09,0.179,-0.98,-0.07,-0.583,0.077,-2.304,0.635,-1.133,0.091,-0.18,0.745
2024-10-15 13:43:43.788,73775.24,0.096,0.209,-0.973,-0.091,-0.737,-0.153,-3.606,1.088,-1.042,0.098,-0.21,0.737
2024-10-15 13:43:43.798,73775.25,0.107,0.25,-0.962,-0.054,-0.525,-0.21,-4.582,1.613,-1.071,0.11,-0.252,0.73
2024-10-15 13:43:43.808,73775.26,0.122,0.298,-0.947,0.001,-0.188,-0.117,-5.157,2.122,-0.845,0.128,-0.302,0.726
2024-10-15 13:43:43.818,73775.27,0.141,0.346,-0.928,0.088,0.258,0.033,-4.819,2.272,-0.165,0.151,-0.353,0.728
2024-10-15 13:43:43.828,73775.28,0.162,0.384,-0.909,0.188,0.622,0.14,-3.621,1.919,0.752,0.176,-0.394,0.738
2024-10-15 13:43:43.838,73775.29,0.18,0.409,-0.895,0.286,0.647,0.204,-2.286,1.078,1.456,0.198,-0.421,0.756
2024-10-15 13:43:43.848,73775.3,0.192,0.422,-0.886,0.366,0.466,0.27,-1.398,0.14,1.624,0.213,-0.436,0.777
2024-10-15 13:43:43.859,73775.31,0.196,0.43,-0.881,0.387,0.276,0.286,-1.174,-0.525,1.357,0.219,-0.444,0.797
2024-10-15 13:43:43.867,73775.32,0.195,0.439,-0.877,0.334,0.162,0.276,-1.314,-0.772,0.992,0.219,-0.454,0.812
2024-10-15 13:43:43.878,73775.33,0.193,0.449,-0.872,0.237,0.091,0.247,-1.528,-0.713,0.816,0.217,-0.466,0.825
2024-10-15 13:43:43.888,73775.34,0.191,0.462,-0.866,0.152,0.09,0.267,-1.678,-0.552,0.898,0.217,-0.48,0.838
2024-10-15 13:43:43.898,73775.35,0.192,0.474,-0.86,0.079,0.124,0.301,-1.487,-0.387,1.135,0.219,-0.493,0.853
2024-10-15 13:43:43.908,73775.36,0.194,0.482,-0.855,0.002,0.076,0.271,-0.941,-0.401,1.333,0.224,-0.503,0.87
2024-10-15 13:43:43.918,73775.37,0.197,0.485,-0.852,-0.057,-0.042,0.18,-0.408,-0.582,1.336,0.227,-0.506,0.887
2024-10-15 13:43:43.928,73775.38,0.197,0.484,-0.852,-0.085,-0.15,0.122,-0.053,-0.682,1.155,0.228,-0.505,0.902
2024-10-15 13:43:43.938,73775.39,0.196,0.481,-0.854,-0.092,-0.212,0.077,0.257,-0.685,0.879,0.226,-0.502,0.913
2024-10-15 13:43:43.948,73775.4,0.194,0.476,-0.857,-0.105,-0.184,0.022,0.507,-0.62,0.577,0.223,-0.497,0.92
2024-10-15 13:43:43.958,73775.41,0.191,0.47,-0.861,-0.123,-0.085,-0.013,0.713,-0.546,0.301,0.219,-0.49,0.923
2024-10-15 13:43:43.967,73775.42,0.188,0.463,-0.866,-0.144,-0.03,-0.034,0.881,-0.515,0.049,0.213,-0.482,0.923
2024-10-15 13:43:43.977,73775.43,0.183,0.456,-0.871,-0.166,-0.067,-0.033,0.871,-0.534,-0.204,0.207,-0.473,0.92
2024-10-15 13:43:43.988,73775.44,0.177,0.449,-0.876,-0.174,-0.159,0.008,0.683,-0.422,-0.503,0.199,-0.466,0.914
2024-10-15 13:43:43.998,73775.45,0.171,0.446,-0.879,-0.176,-0.277,0.074,0.412,-0.286,-0.715,0.192,-0.462,0.906
2024-10-15 13:43:44.008,73775.46,0.166,0.445,-0.88,-0.181,-0.354,0.106,0.074,-0.266,-0.777,0.186,-0.461,0.898
2024-10-15 13:43:44.017,73775.47,0.16,0.447,-0.88,-0.171,-0.317,0.134,-0.302,-0.17,-0.628,0.18,-0.463,0.89
2024-10-15 13:43:44.027,73775.48,0.156,0.451,-0.879,-0.138,-0.195,0.222,-0.297,-0.191,-0.144,0.176,-0.468,0.886
2024-10-15 13:43:44.037,73775.489,0.158,0.451,-0.879,-0.177,0.082,0.009,0.267,0.406,0.291,0.178,-0.467,0.887
2024-10-15 13:43:44.047,73775.499,0.166,0.445,-0.88,-0.221,0.51,-0.301,0.962,0.887,0.392,0.186,-0.461,0.89
2024-10-15 13:43:44.058,73775.509,0.174,0.433,-0.884,-0.21,0.779,-0.423,1.5,0.735,0.053,0.194,-0.448,0.89
2024-10-15 13:43:44.068,73775.519,0.176,0.419,-0.891,-0.07,0.745,-0.278,1.649,-0.115,-0.37,0.195,-0.433,0.885
2024-10-15 13:43:44.078,73775.529,0.171,0.407,-0.898,0.076,0.45,-0.012,1.35,-0.721,-0.577,0.188,-0.419,0.876
2024-10-15 13:43:44.088,73775.539,0.16,0.397,-0.904,0.138,-0.005,0.223,0.971,-1.002,-0.629,0.175,-0.409,0.868
2024-10-15 13:43:44.098,73775.549,0.149,0.391,-0.908,0.073,-0.264,0.14,0.705,-0.805,-0.512,0.163,-0.401,0.86
2024-10-15 13:43:44.109,73775.559,0.143,0.385,-0.912,0.009,-0.21,0.092,0.648,-0.209,-0.117,0.156,-0.395,0.855
2024-10-15 13:43:44.118,73775.569,0.145,0.379,-0.914,-0.026,0.015,0.074,0.641,0.444,0.383,0.157,-0.389,0.856
2024-10-15 13:43:44.128,73775.579,0.152,0.372,-0.916,-0.032,0.17,0.065,0.772,0.651,0.624,0.165,-0.381,0.86
2024-10-15 13:43:44.138,73775.589,0.16,0.363,-0.918,-0.04,0.159,0.02,1.039,0.517,0.612,0.173,-0.371,0.865
2024-10-15 13:43:44.148,73775.599,0.165,0.352,-0.921,-0.049,0.085,-0.053,1.053,0.187,0.455,0.177,-0.36,0.869
2024-10-15 13:43:44.158,73775.609,0.167,0.343,-0.924,-0.048,0.01,-0.076,0.773,-0.05,0.154,0.179,-0.35,0.87
2024-10-15 13:43:44.168,73775.619,0.166,0.337,-0.927,-0.056,-0.116,-0.074,0.409,-0.137,-0.142,0.177,-0.344,0.869
2024-10-15 13:43:44.178,73775.629,0.164,0.336,-0.927,-0.075,-0.229,-0.084,-0.056,-0.134,-0.317,0.175,-0.343,0.866
2024-10-15 13:43:44.187,73775.639,0.162,0.339,-0.927,-0.08,-0.25,-0.051,-0.432,0.024,-0.359,0.173,-0.346,0.863
2024-10-15 13:43:44.198,73775.649,0.162,0.344,-0.925,-0.078,-0.219,-0.029,-0.554,0.248,-0.292,0.174,-0.351,0.861
2024-10-15 13:43:44.208,73775.659,0.164,0.35,-0.922,-0.077,-0.186,-0.057,-0.577,0.386,-0.212,0.176,-0.357,0.859
2024-10-15 13:43:44.217,73775.669,0.167,0.356,-0.92,-0.057,-0.15,-0.059,-0.583,0.377,-0.174,0.18,-0.364,0.858
2024-10-15 13:43:44.228,73775.679,0.17,0.361,-0.917,-0.019,-0.133,-0.024,-0.58,0.269,-0.165,0.183,-0.37,0.858
2024-10-15 13:43:44.238,73775.689,0.171,0.367,-0.914,0.009,-0.134,-0.004,-0.655,0.141,-0.19,0.185,-0.376,0.857
2024-10-15 13:43:44.247,73775.699,0.171,0.374,-0.912,0.02,-0.133,0.009,-0.829,0.068,-0.226,0.185,-0.383,0.856
2024-10-15 13:43:44.257,73775.709,0.171,0.383,-0.908,0.018,-0.134,0.031,-1.058,0.096,-0.21,0.186,-0.393,0.856
2024-10-15 13:43:44.267,73775.719,0.171,0.394,-0.903,-0.0,-0.145,0.008,-1.23,0.175,-0.116,0.187,-0.405,0.856
2024-10-15 13:43:44.277,73775.729,0.173,0.406,-0.897,-0.015,-0.12,-0.021,-1.543,0.189,-0.013,0.19,-0.418,0.858
2024-10-15 13:43:44.287,73775.739,0.174,0.422,-0.89,-0.009,-0.095,0.006,-1.895,0.169,0.055,0.193,-0.435,0.862
2024-10-15 13:43:44.297,73775.749,0.176,0.439,-0.881,-0.012,-0.117,0.049,-2.117,0.175,0.081,0.197,-0.455,0.867
2024-10-15 13:43:44.307,73775.759,0.178,0.458,-0.871,-0.04,-0.142,0.051,-2.178,0.208,0.09,0.202,-0.476,0.873
2024-10-15 13:43:44.317,73775.769,0.181,0.476,-0.861,-0.073,-0.096,0.042,-2.062,0.295,0.132,0.207,-0.496,0.879
2024-10-15 13:43:44.327,73775.779,0.185,0.492,-0.851,-0.098,0.027,0.032,-1.736,0.385,0.224,0.214,-0.515,0.886
2024-10-15 13:43:44.337,73775.789,0.189,0.505,-0.842,-0.115,0.188,0.002,-1.326,0.465,0.256,0.221,-0.529,0.892
2024-10-15 13:43:44.347,73775.799,0.195,0.513,-0.836,-0.129,0.304,0.008,-0.767,0.499,0.209,0.229,-0.539,0.898
2024-10-15 13:43:44.357,73775.809,0.2,0.517,-0.832,-0.157,0.341,0.01,-0.254,0.494,0.092,0.235,-0.543,0.901
2024-10-15 13:43:44.367,73775.819,0.204,0.518,-0.831,-0.174,0.335,0.016,0.095,0.46,-0.087,0.24,-0.544,0.901
2024-10-15 13:43:44.378,73775.829,0.206,0.516,-0.831,-0.171,0.309,0.037,0.361,0.387,-0.29,0.243,-0.542,0.898
2024-10-15 13:43:44.387,73775.839,0.207,0.513,-0.833,-0.155,0.248,0.057,0.545,0.298,-0.479,0.244,-0.539,0.892
2024-10-15 13:43:44.397,73775.849,0.206,0.509,-0.836,-0.127,0.15,0.084,0.631,0.194,-0.623,0.242,-0.534,0.885
2024-10-15 13:43:44.407,73775.859,0.204,0.505,-0.839,-0.1,0.048,0.111,0.712,0.121,-0.669,0.239,-0.529,0.875
2024-10-15 13:43:44.417,73775.869,0.202,0.5,-0.842,-0.073,-0.018,0.115,0.768,0.097,-0.582,0.235,-0.524,0.866
2024-10-15 13:43:44.427,73775.879,0.2,0.494,-0.846,-0.052,-0.023,0.047,0.804,0.101,-0.476,0.232,-0.517,0.858
2024-10-15 13:43:44.437,73775.889,0.199,0.488,-0.85,-0.035,0.02,-0.014,0.857,0.033,-0.41,0.23,-0.51,0.851
2024-10-15 13:43:44.447,73775.899,0.197,0.482,-0.854,-0.008,0.034,-0.002,0.883,-0.072,-0.374,0.226,-0.503,0.845
2024-10-15 13:43:44.457,73775.909,0.194,0.475,-0.859,0.01,0.007,0.003,0.873,-0.27,-0.311,0.222,-0.495,0.839
2024-10-15 13:43:44.466,73775.919,0.189,0.468,-0.863,0.032,-0.042,0.036,0.698,-0.455,-0.206,0.216,-0.488,0.834
2024-10-15 13:43:44.476,73775.929,0.184,0.464,-0.867,0.064,-0.062,0.105,0.516,-0.539,-0.069,0.209,-0.482,0.831
2024-10-15 13:43:44.487,73775.939,0.18,0.46,-0.87,0.07,-0.025,0.121,0.378,-0.41,-0.002,0.204,-0.478,0.829
2024-10-15 13:43:44.497,73775.949,0.177,0.457,-0.872,0.051,0.056,0.083,0.372,-0.093,-0.035,0.201,-0.474,0.828
2024-10-15 13:43:44.507,73775.959,0.178,0.453,-0.874,0.023,0.147,0.026,0.543,0.216,-0.133,0.201,-0.47,0.826
2024-10-15 13:43:44.517,73775.969,0.179,0.447,-0.876,0.01,0.197,-0.01,0.753,0.295,-0.195,0.202,-0.464,0.823
2024-10-15 13:43:44.527,73775.979,0.181,0.44,-0.879,0.029,0.167,-0.007,0.94,0.155,-0.159,0.203,-0.456,0.819
2024-10-15 13:43:44.537,73775.989,0.18,0.432,-0.884,0.066,0.087,-0.011,1.015,-0.168,-0.041,0.201,-0.447,0.816
2024-10-15 13:43:44.547,73775.999,0.177,0.423,-0.889,0.105,0.016,-0.013,0.927,-0.513,0.077,0.197,-0.437,0.814
2024-10-15 13:43:44.557,73776.009,0.172,0.415,-0.893,0.139,-0.005,0.021,0.803,-0.8,0.133,0.19,-0.428,0.813
2024-10-15 13:43:44.567,73776.019,0.165,0.408,-0.898,0.151,0.016,0.056,0.679,-0.87,0.052,0.181,-0.421,0.813
2024-10-15 13:43:44.577,73776.029,0.157,0.403,-0.902,0.134,0.015,0.104,0.563,-0.705,-0.077,0.173,-0.415,0.812
2024-10-15 13:43:44.587,73776.039,0.152,0.398,-0.905,0.089,-0.028,0.11,0.506,-0.39,-0.131,0.166,-0.41,0.81
2024-10-15 13:43:44.597,73776.049,0.149,0.394,-0.907,0.045,-0.081,0.048,0.425,-0.068,-0.058,0.163,-0.405,0.808
2024-10-15 13:43:44.606,73776.059,0.15,0.391,-0.908,0.037,-0.103,-0.016,0.372,0.142,0.119,0.164,-0.401,0.807
2024-10-15 13:43:44.617,73776.068,0.152,0.387,-0.91,0.054,-0.068,-0.069,0.473,0.212,0.251,0.166,-0.397,0.809
2024-10-15 13:43:44.626,73776.078,0.155,0.381,-0.912,0.074,-0.005,-0.115,0.711,0.16,0.257,0.169,-0.391,0.81
2024-10-15 13:43:44.637,73776.088,0.157,0.373,-0.915,0.085,0.012,-0.112,1.024,0.02,0.194,0.17,-0.382,0.811
2024-10-15 13:43:44.647,73776.098,0.157,0.361,-0.919,0.081,-0.016,-0.112,1.352,-0.183,0.122,0.169,-0.37,0.811
2024-10-15 13:43:44.657,73776.108,0.154,0.348,-0.925,0.077,-0.056,-0.101,1.527,-0.46,0.044,0.165,-0.355,0.809
2024-10-15 13:43:44.667,73776.118,0.149,0.334,-0.931,0.083,-0.095,-0.041,1.457,-0.707,-0.032,0.158,-0.34,0.806
2024-10-15 13:43:44.677,73776.128,0.141,0.322,-0.936,0.078,-0.141,0.031,1.156,-0.82,-0.109,0.15,-0.328,0.803
2024-10-15 13:43:44.687,73776.138,0.133,0.313,-0.94,0.056,-0.204,0.069,0.643,-0.712,-0.195,0.141,-0.319,0.801
2024-10-15 13:43:44.697,73776.148,0.127,0.311,-0.942,0.02,-0.238,0.075,0.02,-0.4,-0.265,0.134,-0.316,0.798
2024-10-15 13:43:44.707,73776.158,0.125,0.313,-0.941,-0.015,-0.221,0.069,-0.526,-0.02,-0.267,0.132,-0.319,0.795
2024-10-15 13:43:44.716,73776.168,0.125,0.32,-0.939,-0.034,-0.156,0.054,-0.84,0.288,-0.149,0.133,-0.326,0.794
2024-10-15 13:43:44.726,73776.178,0.128,0.328,-0.936,-0.021,-0.053,0.034,-0.882,0.408,0.03,0.136,-0.335,0.794
2024-10-15 13:43:44.737,73776.188,0.132,0.336,-0.933,0.015,0.054,0.003,-0.693,0.336,0.174,0.141,-0.342,0.797
2024-10-15 13:43:44.746,73776.198,0.135,0.34,-0.931,0.053,0.113,-0.012,-0.269,0.116,0.256,0.144,-0.347,0.8
2024-10-15 13:43:44.757,73776.208,0.136,0.34,-0.931,0.076,0.111,-0.011,0.264,-0.186,0.295,0.145,-0.347,0.803
2024-10-15 13:43:44.766,73776.218,0.134,0.334,-0.933,0.08,0.085,0.015,0.792,-0.457,0.277,0.142,-0.341,0.805
2024-10-15 13:43:44.776,73776.228,0.129,0.324,-0.937,0.064,0.085,0.052,1.299,-0.725,0.205,0.137,-0.33,0.806
2024-10-15 13:43:44.786,73776.238,0.122,0.311,-0.942,0.038,0.139,0.112,1.241,-0.602,0.006,0.129,-0.317,0.805
2024-10-15 13:43:44.796,73776.248,0.117,0.303,-0.946,0.05,0.174,0.256,0.667,-0.498,-0.168,0.123,-0.308,0.803
2024-10-15 13:43:44.806,73776.258,0.114,0.296,-0.948,-0.03,0.121,-0.197,0.797,-0.125,-0.302,0.119,-0.301,0.8
2024-10-15 13:43:44.816,73776.268,0.113,0.292,-0.95,-0.012,0.026,-0.243,0.232,0.177,-0.324,0.118,-0.296,0.796
2024-10-15 13:43:44.826,73776.278,0.114,0.29,-0.95,0.115,0.03,-0.023,0.337,0.289,-0.212,0.12,-0.294,0.793
2024-10-15 13:43:44.836,73776.288,0.117,0.285,-0.951,0.158,0.044,-0.051,0.709,0.324,0.015,0.122,-0.289,0.791
2024-10-15 13:43:44.846,73776.298,0.12,0.277,-0.953,0.2,0.03,-0.033,0.924,0.184,0.326,0.125,-0.281,0.792
2024-10-15 13:43:44.856,73776.308,0.122,0.266,-0.956,0.223,0.105,0.056,1.255,-0.024,0.648,0.127,-0.269,0.795
2024-10-15 13:43:44.866,73776.318,0.123,0.252,-0.96,0.222,0.166,0.198,1.328,-0.222,0.829,0.127,-0.255,0.801
2024-10-15 13:43:44.878,73776.328,0.123,0.239,-0.963,0.204,0.246,0.306,1.243,-0.225,0.83,0.127,-0.241,0.808
2024-10-15 13:43:44.886,73776.338,0.123,0.226,-0.966,0.146,0.287,0.308,1.246,-0.132,0.814,0.126,-0.228,0.815
2024-10-15 13:43:44.896,73776.348,0.124,0.213,-0.969,0.071,0.175,0.214,1.284,-0.076,0.89,0.127,-0.214,0.822
2024-10-15 13:43:44.906,73776.358,0.125,0.199,-0.972,0.008,-0.009,0.075,1.293,-0.122,1.086,0.128,-0.2,0.83
2024-10-15 13:43:44.916,73776.368,0.126,0.185,-0.975,-0.05,-0.181,-0.097,1.234,-0.211,1.278,0.128,-0.186,0.84
2024-10-15 13:43:44.926,73776.378,0.126,0.173,-0.977,-0.129,-0.276,-0.236,0.944,-0.237,1.317,0.128,-0.174,0.852
2024-10-15 13:43:44.937,73776.388,0.125,0.164,-0.979,-0.243,-0.269,-0.314,0.594,-0.267,1.039,0.127,-0.165,0.863
2024-10-15 13:43:44.946,73776.398,0.122,0.158,-0.98,-0.404,-0.199,-0.368,0.534,-0.53,0.33,0.124,-0.158,0.87
2024-10-15 13:43:44.956,73776.408,0.116,0.152,-0.982,-0.585,-0.128,-0.317,0.656,-0.74,-0.264,0.118,-0.152,0.869
2024-10-15 13:43:44.966,73776.418,0.109,0.146,-0.983,-0.68,-0.023,-0.165,0.476,-0.665,-0.448,0.11,-0.147,0.865
2024-10-15 13:43:44.976,73776.428,0.103,0.143,-0.984,-0.64,0.102,0.026,0.298,-0.281,-0.398,0.104,-0.144,0.86
2024-10-15 13:43:44.986,73776.438,0.102,0.141,-0.985,-0.535,0.109,0.114,0.205,0.05,-0.398,0.103,-0.142,0.856
2024-10-15 13:43:44.996,73776.448,0.102,0.141,-0.985,-0.38,-0.019,0.063,0.021,0.094,-0.592,0.103,-0.141,0.851
2024-10-15 13:43:45.006,73776.458,0.101,0.142,-0.985,-0.174,-0.184,-0.039,-0.07,-0.115,-0.961,0.102,-0.142,0.843
2024-10-15 13:43:45.016,73776.468,0.096,0.145,-0.985,0.032,-0.3,-0.07,-0.324,-0.468,-1.471,0.097,-0.145,0.831
2024-10-15 13:43:45.026,73776.478,0.088,0.15,-0.985,0.196,-0.271,-0.002,-0.489,-0.609,-1.988,0.089,-0.151,0.814
2024-10-15 13:43:45.036,73776.488,0.079,0.157,-0.984,0.315,-0.146,0.073,-0.496,-0.512,-2.268,0.08,-0.158,0.793
2024-10-15 13:43:45.046,73776.498,0.072,0.163,-0.984,0.432,-0.022,0.097,-0.402,-0.325,-2.127,0.073,-0.164,0.771
2024-10-15 13:43:45.056,73776.508,0.066,0.168,-0.984,0.575,0.154,0.175,-0.307,-0.146,-1.481,0.067,-0.169,0.753
2024-10-15 13:43:45.066,73776.518,0.064,0.171,-0.983,0.711,0.331,0.262,-0.177,0.063,-0.43,0.065,-0.172,0.743
2024-10-15 13:43:45.076,73776.528,0.067,0.171,-0.983,0.758,0.42,0.281,0.11,0.406,0.744,0.068,-0.172,0.745
2024-10-15 13:43:45.086,73776.538,0.075,0.168,-0.983,0.644,0.372,0.179,0.478,0.853,1.739,0.076,-0.168,0.757
2024-10-15 13:43:45.096,73776.548,0.088,0.16,-0.983,0.413,0.258,0.038,0.746,1.178,2.393,0.09,-0.16,0.778
2024-10-15 13:43:45.106,73776.558,0.104,0.148,-0.984,0.188,0.2,-0.078,1.243,1.096,2.701,0.105,-0.148,0.803
2024-10-15 13:43:45.116,73776.568,0.117,0.132,-0.984,0.027,0.19,-0.049,1.293,0.771,2.606,0.118,-0.132,0.828
2024-10-15 13:43:45.126,73776.578,0.126,0.118,-0.985,-0.049,0.198,0.225,0.892,0.383,2.089,0.127,-0.119,0.85
2024-10-15 13:43:45.136,73776.588,0.129,0.109,-0.986,-0.123,0.181,0.302,0.543,-0.139,1.108,0.13,-0.109,0.866
2024-10-15 13:43:45.146,73776.598,0.125,0.104,-0.987,-0.244,0.009,0.242,0.452,-0.626,-0.537,0.126,-0.105,0.868
2024-10-15 13:43:45.156,73776.608,0.117,0.1,-0.988,-0.446,-0.26,0.14,0.561,-0.713,-1.335,0.118,-0.1,0.857
2024-10-15 13:43:45.166,73776.618,0.11,0.097,-0.989,-0.555,-0.356,-0.08,0.359,-0.416,-0.904,0.111,-0.097,0.845
2024-10-15 13:43:45.176,73776.628,0.107,0.095,-0.99,-0.524,-0.162,-0.255,0.253,-0.135,-0.163,0.108,-0.095,0.839
2024-10-15 13:43:45.186,73776.638,0.106,0.093,-0.99,-0.535,-0.001,-0.369,0.08,-0.114,0.179,0.107,-0.093,0.84
2024-10-15 13:43:45.196,73776.647,0.105,0.092,-0.99,-0.57,-0.009,-0.357,0.006,-0.138,0.05,0.106,-0.093,0.841
2024-10-15 13:43:45.206,73776.657,0.104,0.093,-0.99,-0.538,-0.131,-0.271,-0.095,-0.078,-0.219,0.105,-0.093,0.84
2024-10-15 13:43:45.216,73776.667,0.104,0.095,-0.99,-0.436,-0.119,-0.195,-0.267,0.055,-0.389,0.104,-0.095,0.837
2024-10-15 13:43:45.226,73776.677,0.104,0.099,-0.99,-0.288,-0.021,-0.11,-0.43,0.088,-0.525,0.105,-0.099,0.833
2024-10-15 13:43:45.235,73776.687,0.104,0.104,-0.989,-0.146,-0.047,-0.067,-0.464,-0.053,-0.668,0.104,-0.104,0.828
2024-10-15 13:43:45.245,73776.697,0.101,0.109,-0.989,-0.039,-0.163,-0.093,-0.497,-0.293,-0.73,0.102,-0.11,0.821
2024-10-15 13:43:45.255,73776.707,0.097,0.116,-0.989,0.042,-0.235,-0.05,-0.675,-0.443,-0.828,0.097,-0.116,0.814
2024-10-15 13:43:45.266,73776.717,0.091,0.124,-0.988,0.081,-0.159,0.043,-0.791,-0.401,-1.082,0.092,-0.124,0.805
2024-10-15 13:43:45.275,73776.727,0.086,0.133,-0.987,0.102,-0.056,0.108,-0.801,-0.202,-1.461,0.087,-0.134,0.793
2024-10-15 13:43:45.285,73776.737,0.083,0.142,-0.986,0.18,0.012,0.154,-0.593,-0.032,-1.793,0.084,-0.142,0.777
2024-10-15 13:43:45.296,73776.747,0.08,0.148,-0.986,0.334,0.075,0.21,-0.289,-0.012,-1.813,0.081,-0.148,0.759
2024-10-15 13:43:45.305,73776.757,0.077,0.15,-0.986,0.544,0.197,0.259,0.124,-0.123,-1.294,0.078,-0.15,0.743
2024-10-15 13:43:45.315,73776.767,0.075,0.147,-0.986,0.747,0.34,0.242,0.574,-0.162,-0.321,0.076,-0.147,0.735
2024-10-15 13:43:45.325,73776.777,0.074,0.139,-0.987,0.824,0.412,0.142,0.911,0.082,0.728,0.075,-0.14,0.736
2024-10-15 13:43:45.336,73776.787,0.079,0.129,-0.989,0.694,0.308,0.022,0.941,0.46,1.596,0.079,-0.129,0.747
2024-10-15 13:43:45.345,73776.797,0.087,0.119,-0.989,0.448,0.09,-0.074,0.682,0.765,2.182,0.088,-0.12,0.766
2024-10-15 13:43:45.355,73776.807,0.098,0.11,-0.989,0.226,-0.059,-0.108,0.661,0.931,2.331,0.099,-0.111,0.788
2024-10-15 13:43:45.365,73776.817,0.109,0.103,-0.989,0.062,-0.065,0.06,0.243,0.908,1.966,0.11,-0.104,0.809
2024-10-15 13:43:45.375,73776.827,0.12,0.1,-0.988,-0.023,0.03,0.279,0.057,0.808,1.272,0.121,-0.1,0.825
2024-10-15 13:43:45.385,73776.837,0.127,0.098,-0.987,-0.069,0.053,0.266,0.124,0.496,0.542,0.128,-0.098,0.834
2024-10-15 13:43:45.396,73776.847,0.13,0.096,-0.987,-0.101,-0.015,0.163,0.293,0.129,-0.018,0.131,-0.096,0.837
2024-10-15 13:43:45.405,73776.857,0.13,0.092,-0.987,-0.166,-0.046,0.052,0.475,-0.219,-0.213,0.131,-0.093,0.835
2024-10-15 13:43:45.415,73776.867,0.126,0.088,-0.988,-0.26,-0.004,-0.082,0.54,-0.38,-0.075,0.127,-0.088,0.832
2024-10-15 13:43:45.425,73776.877,0.123,0.082,-0.989,-0.373,0.071,-0.237,0.489,-0.388,0.127,0.123,-0.082,0.832
2024-10-15 13:43:45.436,73776.887,0.119,0.078,-0.99,-0.5,0.091,-0.346,0.439,-0.373,0.084,0.12,-0.078,0.833
2024-10-15 13:43:45.447,73776.897,0.115,0.074,-0.991,-0.624,0.041,-0.33,0.379,-0.333,-0.109,0.116,-0.074,0.832
2024-10-15 13:43:45.455,73776.907,0.113,0.071,-0.991,-0.687,-0.027,-0.217,0.233,-0.238,-0.162,0.113,-0.071,0.83
2024-10-15 13:43:45.465,73776.917,0.111,0.07,-0.991,-0.63,-0.039,-0.098,-0.064,-0.144,-0.078,0.111,-0.07,0.829
2024-10-15 13:43:45.475,73776.927,0.109,0.072,-0.991,-0.473,-0.018,0.017,-0.344,-0.098,-0.062,0.11,-0.072,0.829
2024-10-15 13:43:45.485,73776.937,0.108,0.076,-0.991,-0.295,-0.073,0.057,-0.447,-0.085,-0.2,0.109,-0.076,0.828
2024-10-15 13:43:45.509,73776.947,0.106,0.083,-0.991,-0.134,-0.217,0.01,-0.846,-0.277,-0.461,0.107,-0.083,0.825
2024-10-15 13:43:45.512,73776.957,0.102,0.092,-0.99,0.017,-0.313,-0.055,-1.008,-0.509,-0.757,0.103,-0.093,0.82
2024-10-15 13:43:45.515,73776.967,0.096,0.104,-0.99,0.122,-0.299,-0.095,-1.189,-0.566,-1.063,0.096,-0.104,0.812
2024-10-15 13:43:45.525,73776.977,0.09,0.116,-0.989,0.155,-0.163,-0.059,-0.989,-0.335,-1.353,0.09,-0.117,0.801
2024-10-15 13:43:45.535,73776.987,0.086,0.125,-0.988,0.168,0.019,-0.023,-0.503,-0.025,-1.481,0.087,-0.125,0.787
2024-10-15 13:43:45.545,73776.997,0.085,0.128,-0.988,0.255,0.162,0.032,0.096,0.053,-1.342,0.086,-0.129,0.773
2024-10-15 13:43:45.555,73777.007,0.083,0.126,-0.989,0.432,0.278,0.13,0.586,-0.092,-0.898,0.084,-0.126,0.762
2024-10-15 13:43:45.565,73777.017,0.081,0.119,-0.99,0.623,0.332,0.215,0.945,-0.212,-0.244,0.082,-0.119,0.755
2024-10-15 13:43:45.575,73777.027,0.079,0.108,-0.991,0.714,0.277,0.204,1.094,-0.093,0.468,0.08,-0.109,0.755
2024-10-15 13:43:45.585,73777.037,0.081,0.098,-0.992,0.637,0.125,0.136,0.897,0.21,1.116,0.081,-0.098,0.763
2024-10-15 13:43:45.595,73777.047,0.086,0.09,-0.992,0.444,-0.041,0.068,0.44,0.551,1.636,0.086,-0.09,0.776
2024-10-15 13:43:45.605,73777.057,0.094,0.086,-0.992,0.24,-0.146,0.013,-0.011,0.843,1.926,0.095,-0.086,0.794
2024-10-15 13:43:45.615,73777.067,0.105,0.084,-0.991,0.065,-0.173,-0.041,0.034,0.999,1.893,0.106,-0.084,0.813
2024-10-15 13:43:45.625,73777.077,0.116,0.083,-0.99,-0.066,-0.122,0.062,-0.194,0.846,1.414,0.116,-0.083,0.83
2024-10-15 13:43:45.635,73777.087,0.124,0.084,-0.989,-0.134,-0.023,0.188,-0.105,0.536,0.54,0.124,-0.084,0.84
2024-10-15 13:43:45.646,73777.097,0.127,0.083,-0.988,-0.189,-0.015,0.163,0.052,0.104,-0.241,0.128,-0.084,0.841
2024-10-15 13:43:45.654,73777.107,0.126,0.083,-0.989,-0.216,-0.014,0.102,0.14,-0.176,-0.496,0.127,-0.083,0.837
2024-10-15 13:43:45.664,73777.117,0.123,0.082,-0.989,-0.23,0.113,0.016,0.255,-0.225,-0.267,0.124,-0.082,0.833
2024-10-15 13:43:45.674,73777.127,0.121,0.079,-0.989,-0.283,0.227,-0.116,0.348,-0.166,0.134,0.122,-0.079,0.832
2024-10-15 13:43:45.684,73777.137,0.12,0.075,-0.99,-0.374,0.283,-0.247,0.389,-0.162,0.377,0.121,-0.075,0.834
2024-10-15 13:43:45.695,73777.147,0.118,0.07,-0.99,-0.462,0.268,-0.283,0.424,-0.249,0.237,0.119,-0.07,0.837
2024-10-15 13:43:45.704,73777.157,0.116,0.066,-0.991,-0.526,0.194,-0.207,0.465,-0.265,-0.074,0.116,-0.066,0.837
2024-10-15 13:43:45.715,73777.167,0.113,0.062,-0.992,-0.521,0.124,-0.101,0.369,-0.177,-0.223,0.114,-0.062,0.835
2024-10-15 13:43:45.725,73777.177,0.112,0.059,-0.992,-0.398,0.08,-0.017,0.227,-0.085,-0.201,0.113,-0.059,0.832
2024-10-15 13:43:45.735,73777.187,0.111,0.058,-0.992,-0.223,0.01,0.023,0.0,-0.193,-0.236,0.111,-0.058,0.83
2024-10-15 13:43:45.745,73777.197,0.108,0.06,-0.992,-0.07,-0.095,0.022,-0.366,-0.39,-0.382,0.108,-0.06,0.827
2024-10-15 13:43:45.755,73777.207,0.103,0.064,-0.993,0.043,-0.195,-0.029,-0.443,-0.482,-0.568,0.104,-0.064,0.823
2024-10-15 13:43:45.765,73777.217,0.098,0.071,-0.993,0.116,-0.262,-0.07,-0.706,-0.439,-0.768,0.098,-0.071,0.819
2024-10-15 13:43:45.775,73777.227,0.094,0.079,-0.992,0.156,-0.199,-0.042,-0.708,-0.239,-0.894,0.094,-0.079,0.812
2024-10-15 13:43:45.785,73777.236,0.092,0.086,-0.992,0.189,-0.091,-0.024,-0.478,0.005,-0.848,0.092,-0.086,0.806
2024-10-15 13:43:45.795,73777.246,0.092,0.089,-0.992,0.258,-0.03,-0.024,-0.012,0.09,-0.632,0.092,-0.089,0.8
2024-10-15 13:43:45.804,73777.256,0.092,0.087,-0.992,0.37,-0.001,0.035,0.49,0.047,-0.336,0.093,-0.087,0.797
2024-10-15 13:43:45.814,73777.266,0.092,0.08,-0.993,0.484,0.013,0.113,0.967,-0.053,-0.02,0.092,-0.08,0.796
2024-10-15 13:43:45.825,73777.276,0.091,0.069,-0.993,0.548,-0.011,0.155,1.194,-0.111,0.313,0.092,-0.069,0.798
2024-10-15 13:43:45.834,73777.286,0.091,0.057,-0.994,0.537,-0.084,0.18,0.986,-0.083,0.625,0.091,-0.057,0.802
2024-10-15 13:43:45.845,73777.296,0.091,0.05,-0.995,0.458,-0.171,0.194,0.299,0.055,0.93,0.091,-0.05,0.809
2024-10-15 13:43:45.854,73777.306,0.093,0.05,-0.994,0.328,-0.23,0.172,-0.528,0.281,1.212,0.093,-0.05,0.821
2024-10-15 13:43:45.865,73777.316,0.098,0.056,-0.994,0.173,-0.26,0.066,-0.8,0.546,1.356,0.098,-0.056,0.835
2024-10-15 13:43:45.874,73777.326,0.105,0.063,-0.992,0.019,-0.225,0.034,-1.03,0.713,1.203,0.105,-0.064,0.849
2024-10-15 13:43:45.885,73777.336,0.113,0.071,-0.991,-0.098,-0.093,0.073,-0.658,0.702,0.623,0.113,-0.071,0.859
2024-10-15 13:43:45.895,73777.346,0.118,0.074,-0.99,-0.209,0.01,0.005,0.004,0.406,0.021,0.119,-0.074,0.863
2024-10-15 13:43:45.905,73777.356,0.12,0.072,-0.99,-0.279,0.1,-0.059,0.375,0.043,-0.152,0.121,-0.072,0.861
2024-10-15 13:43:45.914,73777.366,0.12,0.068,-0.991,-0.267,0.281,-0.038,0.465,-0.183,0.058,0.12,-0.068,0.86
2024-10-15 13:43:45.925,73777.376,0.118,0.064,-0.991,-0.264,0.433,-0.043,0.314,-0.227,0.346,0.118,-0.064,0.862
2024-10-15 13:43:45.934,73777.386,0.116,0.061,-0.991,-0.32,0.494,-0.085,0.169,-0.167,0.448,0.116,-0.061,0.866
2024-10-15 13:43:45.944,73777.396,0.114,0.059,-0.992,-0.413,0.47,-0.116,0.158,-0.14,0.175,0.115,-0.059,0.869
2024-10-15 13:43:45.954,73777.406,0.113,0.057,-0.992,-0.516,0.395,-0.13,0.345,-0.142,-0.214,0.113,-0.057,0.868
2024-10-15 13:43:45.964,73777.416,0.111,0.053,-0.992,-0.553,0.276,-0.118,0.465,-0.154,-0.341,0.112,-0.053,0.866
2024-10-15 13:43:45.974,73777.426,0.11,0.049,-0.993,-0.451,0.143,-0.061,0.39,-0.165,-0.239,0.11,-0.049,0.863
2024-10-15 13:43:45.984,73777.436,0.108,0.046,-0.993,-0.277,0.034,0.011,0.105,-0.252,-0.206,0.108,-0.046,0.86
2024-10-15 13:43:45.994,73777.446,0.105,0.048,-0.993,-0.12,-0.084,0.053,-0.343,-0.36,-0.354,0.105,-0.048,0.858
2024-10-15 13:43:46.005,73777.456,0.101,0.052,-0.994,-0.001,-0.22,0.021,-0.484,-0.398,-0.545,0.101,-0.052,0.854
2024-10-15 13:43:46.014,73777.466,0.096,0.06,-0.994,0.092,-0.334,-0.031,-0.888,-0.381,-0.705,0.096,-0.06,0.849
2024-10-15 13:43:46.024,73777.476,0.093,0.07,-0.993,0.154,-0.306,-0.02,-0.907,-0.231,-0.725,0.093,-0.07,0.844
2024-10-15 13:43:46.035,73777.486,0.091,0.078,-0.993,0.178,-0.219,-0.065,-0.667,-0.018,-0.587,0.091,-0.078,0.838
2024-10-15 13:43:46.044,73777.496,0.091,0.083,-0.992,0.218,-0.167,-0.135,-0.25,0.048,-0.383,0.091,-0.083,0.834
2024-10-15 13:43:46.054,73777.506,0.09,0.084,-0.992,0.308,-0.152,-0.122,0.038,-0.149,-0.218,0.091,-0.084,0.831
2024-10-15 13:43:46.064,73777.516,0.088,0.084,-0.993,0.416,-0.153,0.0,0.079,-0.309,-0.129,0.088,-0.084,0.829
2024-10-15 13:43:46.074,73777.526,0.084,0.083,-0.993,0.476,-0.153,0.154,0.098,-0.331,-0.059,0.085,-0.083,0.828
2024-10-15 13:43:46.086,73777.536,0.082,0.083,-0.993,0.471,-0.207,0.247,-0.022,-0.181,0.017,0.082,-0.083,0.828
2024-10-15 13:43:46.095,73777.546,0.081,0.084,-0.993,0.434,-0.285,0.281,-0.316,0.102,0.049,0.082,-0.084,0.829
2024-10-15 13:43:46.104,73777.556,0.084,0.089,-0.993,0.368,-0.343,0.238,-0.617,0.356,0.058,0.084,-0.089,0.83
2024-10-15 13:43:46.114,73777.566,0.088,0.095,-0.992,0.26,-0.338,0.103,-0.684,0.595,0.25,0.089,-0.095,0.832
2024-10-15 13:43:46.124,73777.576,0.096,0.1,-0.99,0.136,-0.216,-0.067,-0.316,0.803,0.542,0.096,-0.1,0.836
2024-10-15 13:43:46.134,73777.586,0.104,0.102,-0.989,0.032,0.013,-0.019,-0.283,0.795,0.706,0.105,-0.102,0.843
2024-10-15 13:43:46.144,73777.596,0.112,0.102,-0.988,-0.048,0.281,0.096,0.269,0.64,0.701,0.113,-0.102,0.85
2024-10-15 13:43:46.154,73777.606,0.117,0.096,-0.988,-0.135,0.389,0.025,0.604,0.264,0.554,0.118,-0.096,0.856
2024-10-15 13:43:46.165,73777.616,0.118,0.09,-0.989,-0.185,0.399,-0.012,0.617,-0.119,0.353,0.119,-0.09,0.859
2024-10-15 13:43:46.174,73777.626,0.116,0.084,-0.99,-0.245,0.419,-0.003,0.453,-0.39,0.088,0.117,-0.084,0.861
2024-10-15 13:43:46.184,73777.636,0.112,0.081,-0.99,-0.365,0.403,-0.025,0.197,-0.478,-0.21,0.112,-0.081,0.86
2024-10-15 13:43:46.194,73777.646,0.107,0.08,-0.991,-0.51,0.362,-0.056,0.044,-0.399,-0.429,0.107,-0.08,0.857
2024-10-15 13:43:46.204,73777.656,0.104,0.081,-0.991,-0.619,0.313,-0.039,-0.117,-0.09,-0.459,0.104,-0.081,0.852
2024-10-15 13:43:46.214,73777.666,0.105,0.083,-0.991,-0.645,0.279,-0.029,-0.099,0.259,-0.262,0.105,-0.083,0.848
2024-10-15 13:43:46.224,73777.676,0.108,0.084,-0.991,-0.554,0.181,-0.077,-0.096,0.387,-0.045,0.108,-0.084,0.847
2024-10-15 13:43:46.234,73777.686,0.111,0.085,-0.99,-0.355,0.03,-0.104,-0.09,0.263,0.007,0.112,-0.085,0.847
2024-10-15 13:43:46.244,73777.696,0.112,0.086,-0.99,-0.123,-0.127,-0.11,-0.209,-0.053,-0.178,0.113,-0.086,0.847
2024-10-15 13:43:46.254,73777.706,0.11,0.09,-0.99,0.074,-0.254,-0.12,-0.431,-0.392,-0.449,0.11,-0.09,0.844
2024-10-15 13:43:46.264,73777.716,0.104,0.095,-0.99,0.197,-0.316,-0.143,-0.625,-0.589,-0.574,0.105,-0.095,0.839
2024-10-15 13:43:46.274,73777.726,0.099,0.103,-0.99,0.224,-0.271,-0.087,-0.777,-0.404,-0.513,0.099,-0.103,0.834
2024-10-15 13:43:46.284,73777.736,0.096,0.111,-0.989,0.154,-0.113,-0.028,-0.689,-0.043,-0.264,0.097,-0.111,0.831
2024-10-15 13:43:46.294,73777.746,0.097,0.116,-0.989,0.076,-0.008,-0.024,-0.403,0.18,0.021,0.098,-0.116,0.83
2024-10-15 13:43:46.304,73777.756,0.098,0.119,-0.988,0.081,0.025,-0.022,-0.132,0.086,0.163,0.099,-0.119,0.833
2024-10-15 13:43:46.314,73777.766,0.098,0.119,-0.988,0.165,-0.013,0.028,0.111,-0.152,0.065,0.099,-0.119,0.834
2024-10-15 13:43:46.323,73777.776,0.096,0.117,-0.989,0.257,-0.104,0.096,0.315,-0.325,-0.195,0.096,-0.117,0.835
2024-10-15 13:43:46.334,73777.786,0.092,0.113,-0.989,0.314,-0.224,0.142,0.417,-0.352,-0.436,0.093,-0.113,0.832
2024-10-15 13:43:46.344,73777.796,0.088,0.11,-0.99,0.349,-0.364,0.167,0.263,-0.286,-0.51,0.089,-0.11,0.826
2024-10-15 13:43:46.353,73777.806,0.085,0.11,-0.99,0.375,-0.469,0.178,-0.125,-0.221,-0.43,0.086,-0.11,0.822
2024-10-15 13:43:46.364,73777.815,0.083,0.114,-0.99,0.362,-0.454,0.143,-0.567,-0.094,-0.228,0.084,-0.114,0.819
2024-10-15 13:43:46.373,73777.825,0.084,0.12,-0.989,0.271,-0.315,0.035,-0.663,0.241,0.064,0.084,-0.12,0.818
2024-10-15 13:43:46.383,73777.835,0.088,0.125,-0.988,0.108,-0.115,-0.115,-0.45,0.628,0.485,0.089,-0.126,0.821
2024-10-15 13:43:46.394,73777.845,0.096,0.127,-0.987,-0.066,0.133,-0.223,-0.089,0.768,0.919,0.097,-0.128,0.829
2024-10-15 13:43:46.404,73777.855,0.104,0.125,-0.987,-0.204,0.36,-0.21,0.435,0.446,1.073,0.105,-0.125,0.839
2024-10-15 13:43:46.415,73777.865,0.106,0.118,-0.987,-0.317,0.476,-0.105,0.739,-0.271,0.439,0.107,-0.118,0.846
2024-10-15 13:43:46.424,73777.875,0.101,0.11,-0.989,-0.437,0.473,0.027,0.966,-0.648,-0.674,0.102,-0.11,0.844
2024-10-15 13:43:46.433,73777.885,0.094,0.101,-0.99,-0.527,0.279,0.07,0.934,-0.435,-1.321,0.095,-0.101,0.833
2024-10-15 13:43:46.443,73777.895,0.091,0.095,-0.991,-0.453,-0.023,0.043,0.501,0.05,-1.255,0.091,-0.095,0.819
2024-10-15 13:43:46.453,73777.905,0.092,0.094,-0.991,-0.279,-0.237,0.061,-0.087,0.365,-0.773,0.093,-0.094,0.808
2024-10-15 13:43:46.463,73777.915,0.095,0.098,-0.991,-0.118,-0.32,0.106,-0.685,0.321,-0.369,0.096,-0.098,0.803
2024-10-15 13:43:46.474,73777.925,0.098,0.107,-0.989,-0.012,-0.205,0.164,-1.049,0.25,-0.269,0.098,-0.107,0.801
2024-10-15 13:43:46.484,73777.935,0.1,0.118,-0.988,0.02,0.033,0.143,-0.981,0.239,-0.408,0.101,-0.118,0.799
2024-10-15 13:43:46.494,73777.945,0.101,0.127,-0.987,0.019,0.27,0.067,-0.79,0.156,-0.63,0.102,-0.127,0.795
2024-10-15 13:43:46.504,73777.955,0.101,0.134,-0.986,0.077,0.456,0.063,-0.595,-0.081,-0.813,0.102,-0.135,0.788
2024-10-15 13:43:46.513,73777.965,0.097,0.14,-0.985,0.215,0.529,0.068,-0.409,-0.353,-0.87,0.098,-0.141,0.78
2024-10-15 13:43:46.523,73777.975,0.092,0.144,-0.985,0.371,0.506,0.028,-0.15,-0.439,-0.743,0.093,-0.144,0.772
2024-10-15 13:43:46.534,73777.985,0.088,0.144,-0.986,0.47,0.399,-0.045,0.231,-0.234,-0.364,0.089,-0.145,0.766
2024-10-15 13:43:46.544,73777.995,0.087,0.14,-0.986,0.489,0.194,-0.113,0.65,0.116,0.279,0.088,-0.14,0.765
2024-10-15 13:43:46.553,73778.005,0.09,0.131,-0.987,0.449,-0.035,-0.138,0.897,0.371,1.046,0.091,-0.132,0.771
2024-10-15 13:43:46.563,73778.015,0.096,0.121,-0.988,0.36,-0.175,-0.102,0.897,0.441,1.611,0.097,-0.121,0.784
2024-10-15 13:43:46.573,73778.025,0.101,0.112,-0.989,0.213,-0.22,-0.029,0.611,0.171,1.589,0.102,-0.112,0.8
2024-10-15 13:43:46.583,73778.035,0.104,0.105,-0.989,0.012,-0.256,0.064,0.405,-0.133,1.309,0.104,-0.105,0.814
2024-10-15 13:43:46.593,73778.045,0.102,0.104,-0.989,-0.143,-0.284,0.236,-0.305,-0.35,0.639,0.102,-0.104,0.824
2024-10-15 13:43:46.603,73778.055,0.098,0.106,-0.989,-0.302,-0.187,0.293,-0.104,-0.287,-0.394,0.099,-0.107,0.825
2024-10-15 13:43:46.613,73778.065,0.096,0.105,-0.99,-0.547,-0.167,0.071,0.413,-0.081,-1.015,0.097,-0.105,0.817
2024-10-15 13:43:46.623,73778.075,0.094,0.103,-0.99,-0.661,-0.264,-0.194,0.104,-0.176,-0.702,0.095,-0.103,0.808
2024-10-15 13:43:46.634,73778.085,0.091,0.105,-0.99,-0.465,-0.376,-0.195,-0.525,-0.347,-0.12,0.092,-0.106,0.804
2024-10-15 13:43:46.643,73778.095,0.088,0.114,-0.99,-0.248,-0.442,-0.119,-1.124,-0.229,0.022,0.089,-0.114,0.805
2024-10-15 13:43:46.653,73778.105,0.088,0.125,-0.988,-0.176,-0.387,-0.054,-1.129,0.208,-0.244,0.088,-0.126,0.805
2024-10-15 13:43:46.663,73778.115,0.091,0.135,-0.987,-0.173,-0.209,-0.072,-0.821,0.571,-0.579,0.092,-0.136,0.802
2024-10-15 13:43:46.673,73778.125,0.096,0.142,-0.985,-0.142,0.028,-0.087,-0.366,0.582,-0.726,0.097,-0.142,0.796
2024-10-15 13:43:46.683,73778.135,0.099,0.144,-0.985,-0.041,0.239,-0.054,0.069,0.21,-0.703,0.1,-0.145,0.788
2024-10-15 13:43:46.693,73778.145,0.098,0.142,-0.985,0.064,0.352,-0.044,0.46,-0.276,-0.6,0.099,-0.143,0.782
2024-10-15 13:43:46.703,73778.155,0.093,0.137,-0.986,0.158,0.332,0.005,0.611,-0.55,-0.628,0.094,-0.138,0.775
2024-10-15 13:43:46.713,73778.165,0.086,0.132,-0.987,0.213,0.244,0.05,0.512,-0.564,-0.83,0.087,-0.133,0.767
2024-10-15 13:43:46.723,73778.175,0.08,0.129,-0.988,0.234,0.147,0.095,0.287,-0.368,-1.021,0.081,-0.129,0.758
2024-10-15 13:43:46.733,73778.185,0.077,0.129,-0.989,0.263,0.11,0.138,-0.069,-0.118,-0.983,0.077,-0.129,0.747
2024-10-15 13:43:46.743,73778.195,0.076,0.132,-0.988,0.316,0.176,0.196,-0.461,0.133,-0.555,0.076,-0.132,0.74
2024-10-15 13:43:46.753,73778.205,0.078,0.138,-0.987,0.383,0.319,0.23,-0.731,0.404,0.201,0.079,-0.138,0.738
2024-10-15 13:43:46.763,73778.215,0.084,0.144,-0.986,0.398,0.424,0.142,-0.513,0.706,1.019,0.085,-0.144,0.745
2024-10-15 13:43:46.773,73778.225,0.094,0.146,-0.985,0.321,0.309,-0.029,-0.064,0.914,1.63,0.096,-0.146,0.759
2024-10-15 13:43:46.783,73778.235,0.105,0.142,-0.984,0.216,0.046,-0.126,0.414,0.625,1.724,0.106,-0.143,0.776
2024-10-15 13:43:46.794,73778.245,0.111,0.134,-0.985,0.129,-0.152,-0.076,0.883,0.129,1.03,0.112,-0.135,0.789
2024-10-15 13:43:46.803,73778.255,0.11,0.125,-0.986,0.029,-0.29,0.12,0.672,-0.357,0.313,0.111,-0.126,0.795
2024-10-15 13:43:46.813,73778.265,0.107,0.121,-0.987,0.028,-0.277,0.194,0.284,-0.341,0.033,0.108,-0.121,0.796
2024-10-15 13:43:46.823,73778.275,0.105,0.12,-0.987,0.093,-0.206,0.155,-0.119,0.076,0.112,0.106,-0.12,0.796
2024-10-15 13:43:46.833,73778.285,0.108,0.121,-0.987,0.089,-0.18,-0.019,-0.126,0.42,0.338,0.109,-0.121,0.799
2024-10-15 13:43:46.843,73778.295,0.113,0.121,-0.986,-0.024,-0.174,-0.223,0.156,0.464,0.477,0.114,-0.121,0.803
2024-10-15 13:43:46.853,73778.305,0.117,0.117,-0.986,-0.169,-0.162,-0.284,0.484,0.123,0.498,0.118,-0.117,0.807
2024-10-15 13:43:46.863,73778.315,0.116,0.11,-0.987,-0.276,-0.093,-0.245,0.688,-0.369,0.441,0.117,-0.111,0.811
2024-10-15 13:43:46.873,73778.325,0.111,0.104,-0.988,-0.356,-0.036,-0.142,0.571,-0.712,0.274,0.112,-0.104,0.814
2024-10-15 13:43:46.883,73778.335,0.104,0.099,-0.99,-0.435,-0.032,-0.047,0.269,-0.769,0.008,0.104,-0.099,0.815
2024-10-15 13:43:46.893,73778.345,0.097,0.099,-0.99,-0.512,-0.074,0.038,-0.12,-0.524,-0.266,0.098,-0.099,0.814
2024-10-15 13:43:46.903,73778.355,0.094,0.102,-0.99,-0.558,-0.097,0.122,-0.479,-0.087,-0.453,0.094,-0.102,0.81
2024-10-15 13:43:46.913,73778.365,0.094,0.108,-0.99,-0.549,-0.038,0.135,-0.584,0.353,-0.487,0.095,-0.108,0.806
2024-10-15 13:43:46.922,73778.375,0.099,0.114,-0.989,-0.448,0.075,0.07,-0.505,0.578,-0.484,0.1,-0.114,0.802
2024-10-15 13:43:46.933,73778.385,0.104,0.118,-0.988,-0.282,0.178,-0.053,-0.333,0.472,-0.532,0.105,-0.119,0.797
2024-10-15 13:43:46.943,73778.394,0.106,0.121,-0.987,-0.102,0.147,-0.161,-0.076,0.021,-0.602,0.107,-0.121,0.792
2024-10-15 13:43:46.953,73778.404,0.102,0.123,-0.987,0.105,0.012,-0.149,-0.193,-0.541,-0.803,0.103,-0.123,0.785
2024-10-15 13:43:46.963,73778.414,0.094,0.127,-0.987,0.243,0.016,-0.009,-0.388,-0.816,-1.151,0.095,-0.127,0.776
2024-10-15 13:43:46.973,73778.424,0.084,0.132,-0.988,0.286,0.068,0.146,-0.481,-0.714,-1.466,0.085,-0.133,0.763
2024-10-15 13:43:46.983,73778.434,0.077,0.138,-0.987,0.321,0.138,0.224,-0.547,-0.416,-1.509,0.078,-0.139,0.748
2024-10-15 13:43:46.993,73778.444,0.073,0.145,-0.987,0.415,0.24,0.276,-0.607,-0.061,-1.097,0.073,-0.146,0.735
2024-10-15 13:43:47.003,73778.454,0.073,0.151,-0.986,0.551,0.343,0.263,-0.465,0.308,-0.233,0.074,-0.152,0.729
2024-10-15 13:43:47.013,73778.464,0.078,0.153,-0.985,0.63,0.362,0.109,0.126,0.64,0.81,0.079,-0.153,0.732
2024-10-15 13:43:47.023,73778.474,0.087,0.148,-0.985,0.572,0.215,-0.09,0.584,0.83,1.638,0.088,-0.149,0.744
2024-10-15 13:43:47.033,73778.484,0.098,0.139,-0.985,0.413,0.03,-0.166,0.854,0.881,2.165,0.099,-0.14,0.762
2024-10-15 13:43:47.043,73778.494,0.109,0.127,-0.986,0.233,-0.039,-0.141,1.003,0.564,2.37,0.11,-0.128,0.784
2024-10-15 13:43:47.053,73778.504,0.115,0.116,-0.987,0.069,-0.04,-0.012,0.732,0.083,1.951,0.116,-0.116,0.805
2024-10-15 13:43:47.063,73778.514,0.115,0.109,-0.987,-0.078,-0.053,0.21,0.372,-0.334,0.857,0.116,-0.109,0.819
2024-10-15 13:43:47.072,73778.524,0.111,0.106,-0.988,-0.29,-0.096,0.149,0.332,-0.557,-0.379,0.112,-0.106,0.821
2024-10-15 13:43:47.083,73778.534,0.105,0.103,-0.989,-0.498,-0.172,-0.03,0.327,-0.46,-0.997,0.105,-0.103,0.813
2024-10-15 13:43:47.093,73778.544,0.1,0.101,-0.99,-0.595,-0.176,-0.177,0.299,-0.26,-0.765,0.101,-0.101,0.804
2024-10-15 13:43:47.103,73778.554,0.098,0.1,-0.99,-0.575,-0.197,-0.241,0.045,-0.163,-0.172,0.099,-0.1,0.799
2024-10-15 13:43:47.112,73778.564,0.096,0.101,-0.99,-0.511,-0.246,-0.19,-0.371,-0.153,0.202,0.097,-0.101,0.799
2024-10-15 13:43:47.123,73778.574,0.096,0.106,-0.99,-0.438,-0.237,-0.051,-0.719,-0.021,0.144,0.096,-0.107,0.802
2024-10-15 13:43:47.133,73778.584,0.097,0.114,-0.989,-0.363,-0.147,0.049,-0.824,0.24,-0.161,0.097,-0.114,0.803
2024-10-15 13:43:47.142,73778.594,0.1,0.122,-0.988,-0.271,-0.017,0.044,-0.693,0.406,-0.443,0.1,-0.122,0.8
2024-10-15 13:43:47.152,73778.604,0.103,0.128,-0.986,-0.141,0.086,-0.009,-0.467,0.317,-0.565,0.104,-0.129,0.796
2024-10-15 13:43:47.163,73778.614,0.103,0.132,-0.986,0.016,0.128,-0.08,-0.082,-0.068,-0.53,0.104,-0.132,0.79
2024-10-15 13:43:47.172,73778.624,0.1,0.131,-0.986,0.141,0.119,-0.157,0.264,-0.465,-0.394,0.101,-0.132,0.786
2024-10-15 13:43:47.183,73778.634,0.093,0.128,-0.987,0.189,0.101,-0.128,0.375,-0.662,-0.272,0.094,-0.129,0.782
2024-10-15 13:43:47.192,73778.644,0.087,0.125,-0.988,0.165,0.094,-0.025,0.342,-0.61,-0.325,0.088,-0.125,0.779
2024-10-15 13:43:47.203,73778.654,0.081,0.123,-0.989,0.142,0.05,0.089,0.159,-0.437,-0.606,0.082,-0.123,0.774
2024-10-15 13:43:47.212,73778.664,0.077,0.123,-0.989,0.176,0.045,0.196,-0.125,-0.238,-1.001,0.077,-0.123,0.766
2024-10-15 13:43:47.222,73778.674,0.074,0.126,-0.989,0.276,0.105,0.273,-0.383,-0.073,-1.204,0.074,-0.127,0.755
2024-10-15 13:43:47.232,73778.684,0.072,0.132,-0.989,0.414,0.189,0.295,-0.452,0.069,-0.926,0.073,-0.132,0.744
2024-10-15 13:43:47.242,73778.694,0.073,0.135,-0.988,0.543,0.27,0.218,-0.191,0.293,-0.117,0.074,-0.136,0.739
2024-10-15 13:43:47.252,73778.704,0.078,0.135,-0.988,0.575,0.285,0.07,0.291,0.588,0.931,0.079,-0.135,0.743
2024-10-15 13:43:47.262,73778.714,0.087,0.129,-0.988,0.465,0.201,-0.071,0.649,0.863,1.822,0.088,-0.129,0.757
2024-10-15 13:43:47.272,73778.724,0.098,0.119,-0.988,0.279,0.099,-0.13,0.831,0.737,2.376,0.099,-0.12,0.777
2024-10-15 13:43:47.282,73778.734,0.108,0.109,-0.988,0.122,0.051,-0.066,0.681,0.565,2.465,0.109,-0.109,0.801
2024-10-15 13:43:47.292,73778.744,0.113,0.103,-0.988,0.04,0.014,0.18,0.158,0.193,1.839,0.114,-0.103,0.822
2024-10-15 13:43:47.302,73778.754,0.115,0.101,-0.988,-0.078,0.009,0.223,0.03,-0.171,0.641,0.115,-0.101,0.835
2024-10-15 13:43:47.312,73778.764,0.113,0.099,-0.989,-0.259,-0.061,0.108,0.284,-0.263,-0.413,0.114,-0.099,0.835
2024-10-15 13:43:47.322,73778.774,0.11,0.096,-0.989,-0.422,-0.085,-0.096,0.588,-0.222,-0.643,0.111,-0.096,0.829
2024-10-15 13:43:47.332,73778.784,0.107,0.09,-0.99,-0.463,-0.089,-0.234,0.664,-0.334,-0.169,0.107,-0.09,0.824
2024-10-15 13:43:47.342,73778.794,0.103,0.083,-0.991,-0.417,-0.155,-0.276,0.584,-0.46,0.322,0.103,-0.083,0.824
2024-10-15 13:43:47.352,73778.804,0.098,0.078,-0.992,-0.412,-0.255,-0.276,0.357,-0.489,0.342,0.099,-0.078,0.828
2024-10-15 13:43:47.362,73778.814,0.094,0.076,-0.993,-0.445,-0.353,-0.203,-0.049,-0.389,0.038,0.094,-0.076,0.829
2024-10-15 13:43:47.372,73778.824,0.091,0.08,-0.993,-0.425,-0.382,-0.069,-0.617,-0.184,-0.271,0.092,-0.08,0.828
2024-10-15 13:43:47.382,73778.834,0.09,0.088,-0.992,-0.328,-0.322,0.039,-1.035,0.05,-0.443,0.091,-0.089,0.826
2024-10-15 13:43:47.392,73778.844,0.091,0.1,-0.991,-0.203,-0.237,0.065,-1.198,0.255,-0.494,0.092,-0.1,0.822
2024-10-15 13:43:47.402,73778.854,0.094,0.111,-0.989,-0.095,-0.14,0.023,-0.83,0.312,-0.46,0.094,-0.111,0.818
2024-10-15 13:43:47.412,73778.864,0.096,0.117,-0.989,-0.022,-0.02,-0.041,-0.321,0.13,-0.402,0.096,-0.117,0.814
2024-10-15 13:43:47.422,73778.874,0.095,0.118,-0.988,0.013,0.149,-0.069,0.203,-0.174,-0.347,0.096,-0.118,0.811
2024-10-15 13:43:47.432,73778.884,0.091,0.115,-0.989,0.044,0.276,-0.054,0.458,-0.471,-0.384,0.092,-0.115,0.807
2024-10-15 13:43:47.442,73778.894,0.085,0.11,-0.99,0.11,0.27,0.002,0.489,-0.664,-0.64,0.086,-0.111,0.801
2024-10-15 13:43:47.452,73778.904,0.077,0.107,-0.991,0.191,0.196,0.097,0.329,-0.692,-1.089,0.078,-0.107,0.792
2024-10-15 13:43:47.462,73778.914,0.07,0.106,-0.992,0.267,0.171,0.205,0.104,-0.572,-1.478,0.07,-0.106,0.779
2024-10-15 13:43:47.472,73778.924,0.063,0.107,-0.992,0.365,0.242,0.303,-0.195,-0.323,-1.455,0.064,-0.107,0.764
2024-10-15 13:43:47.482,73778.934,0.06,0.111,-0.992,0.487,0.374,0.361,-0.431,-0.007,-0.782,0.061,-0.111,0.753
2024-10-15 13:43:47.492,73778.944,0.062,0.115,-0.991,0.58,0.468,0.277,-0.317,0.432,0.351,0.063,-0.115,0.751
2024-10-15 13:43:47.502,73778.954,0.07,0.116,-0.991,0.541,0.361,0.07,0.048,0.883,1.463,0.07,-0.116,0.76
2024-10-15 13:43:47.511,73778.964,0.082,0.112,-0.99,0.379,0.104,-0.097,0.324,0.986,2.261,0.082,-0.113,0.779
2024-10-15 13:43:47.522,73778.974,0.094,0.107,-0.99,0.215,-0.087,-0.121,0.471,0.886,2.598,0.095,-0.107,0.803
2024-10-15 13:43:47.532,73778.983,0.102,0.102,-0.99,0.136,-0.179,0.107,-0.056,0.329,2.252,0.103,-0.102,0.828
2024-10-15 13:43:47.542,73778.993,0.106,0.102,-0.989,0.066,-0.152,0.223,-0.279,0.034,1.276,0.107,-0.102,0.846
2024-10-15 13:43:47.551,73779.003,0.107,0.103,-0.989,-0.093,-0.101,0.129,0.07,-0.048,-0.066,0.107,-0.103,0.852
2024-10-15 13:43:47.562,73779.013,0.104,0.1,-0.989,-0.341,-0.106,-0.122,0.447,-0.265,-0.901,0.105,-0.1,0.846
2024-10-15 13:43:47.572,73779.023,0.1,0.097,-0.99,-0.491,-0.117,-0.211,0.387,-0.463,-0.711,0.1,-0.097,0.837
2024-10-15 13:43:47.582,73779.033,0.095,0.094,-0.991,-0.445,-0.146,-0.17,0.189,-0.461,-0.053,0.095,-0.095,0.833
2024-10-15 13:43:47.592,73779.043,0.091,0.093,-0.991,-0.409,-0.203,-0.181,0.036,-0.276,0.266,0.092,-0.093,0.834
2024-10-15 13:43:47.602,73779.053,0.09,0.093,-0.992,-0.458,-0.242,-0.189,-0.128,-0.075,0.124,0.09,-0.093,0.836
2024-10-15 13:43:47.612,73779.063,0.089,0.096,-0.991,-0.486,-0.246,-0.142,-0.517,0.008,-0.141,0.09,-0.097,0.837
2024-10-15 13:43:47.621,73779.073,0.09,0.104,-0.991,-0.404,-0.204,-0.066,-0.968,0.078,-0.344,0.09,-0.104,0.835
2024-10-15 13:43:47.632,73779.083,0.09,0.115,-0.989,-0.26,-0.162,-0.043,-1.224,0.189,-0.481,0.091,-0.116,0.832
2024-10-15 13:43:47.642,73779.093,0.092,0.128,-0.987,-0.131,-0.163,-0.09,-1.223,0.284,-0.561,0.093,-0.128,0.828
2024-10-15 13:43:47.652,73779.103,0.094,0.141,-0.986,-0.021,-0.169,-0.159,-1.203,0.26,-0.633,0.096,-0.141,0.823
2024-10-15 13:43:47.662,73779.113,0.095,0.152,-0.984,0.067,-0.122,-0.222,-1.095,0.079,-0.632,0.097,-0.153,0.817
2024-10-15 13:43:47.672,73779.123,0.094,0.164,-0.982,0.095,-0.044,-0.23,-1.199,-0.156,-0.553,0.095,-0.165,0.812
2024-10-15 13:43:47.681,73779.133,0.091,0.178,-0.98,0.059,-0.013,-0.166,-1.584,-0.349,-0.569,0.092,-0.179,0.808
2024-10-15 13:43:47.692,73779.143,0.085,0.198,-0.977,-0.027,-0.126,-0.048,-2.366,-0.375,-0.877,0.087,-0.199,0.803
2024-10-15 13:43:47.702,73779.153,0.081,0.228,-0.97,-0.128,-0.389,0.049,-3.672,0.05,-1.157,0.084,-0.23,0.795
2024-10-15 13:43:47.711,73779.163,0.082,0.268,-0.96,-0.195,-0.627,-0.054,-4.451,0.628,-1.211,0.085,-0.271,0.786
2024-10-15 13:43:47.721,73779.173,0.089,0.313,-0.946,-0.198,-0.527,-0.169,-4.596,1.622,-1.322,0.093,-0.318,0.777
2024-10-15 13:43:47.735,73779.183,0.104,0.355,-0.929,-0.199,-0.128,-0.124,-4.192,2.583,-1.247,0.111,-0.363,0.768
2024-10-15 13:43:47.742,73779.193,0.126,0.391,-0.912,-0.178,0.357,-0.025,-3.204,3.022,-0.693,0.138,-0.402,0.763
2024-10-15 13:43:47.752,73779.203,0.151,0.414,-0.898,-0.041,0.75,0.113,-1.864,2.445,0.123,0.166,-0.427,0.764
2024-10-15 13:43:47.761,73779.213,0.168,0.425,-0.89,0.164,0.845,0.129,-0.673,1.157,0.592,0.187,-0.439,0.77
2024-10-15 13:43:47.772,73779.223,0.175,0.426,-0.888,0.345,0.621,0.098,0.074,-0.093,0.512,0.195,-0.44,0.777
2024-10-15 13:43:47.781,73779.233,0.173,0.423,-0.889,0.41,0.239,0.102,0.311,-0.832,0.184,0.192,-0.437,0.781
2024-10-15 13:43:47.791,73779.243,0.164,0.421,-0.892,0.341,-0.056,0.167,0.11,-0.966,-0.1,0.182,-0.435,0.781
2024-10-15 13:43:47.801,73779.253,0.156,0.422,-0.893,0.194,-0.159,0.226,-0.308,-0.615,-0.175,0.173,-0.436,0.779
2024-10-15 13:43:47.811,73779.263,0.153,0.427,-0.891,0.059,-0.127,0.263,-0.646,-0.055,0.028,0.17,-0.441,0.779
2024-10-15 13:43:47.822,73779.273,0.156,0.433,-0.888,-0.033,-0.017,0.31,-0.704,0.541,0.459,0.174,-0.448,0.783
2024-10-15 13:43:47.832,73779.283,0.166,0.436,-0.884,-0.074,0.139,0.377,-0.328,0.921,0.926,0.185,-0.452,0.791
2024-10-15 13:43:47.841,73779.293,0.179,0.434,-0.883,-0.091,0.264,0.334,0.553,0.851,1.292,0.2,-0.449,0.803
2024-10-15 13:43:47.851,73779.303,0.19,0.422,-0.886,-0.082,0.305,0.201,1.421,0.213,1.423,0.211,-0.436,0.816
2024-10-15 13:43:47.861,73779.313,0.192,0.403,-0.895,-0.007,0.261,0.153,2.241,-0.901,1.185,0.212,-0.415,0.826
2024-10-15 13:43:47.871,73779.323,0.183,0.379,-0.907,0.083,0.156,0.192,2.644,-1.857,0.74,0.2,-0.389,0.831
2024-10-15 13:43:47.881,73779.333,0.166,0.355,-0.92,0.109,0.06,0.251,2.399,-2.23,0.335,0.179,-0.363,0.831
2024-10-15 13:43:47.891,73779.343,0.147,0.336,-0.93,0.067,-0.004,0.306,1.61,-2.138,0.05,0.156,-0.343,0.83
2024-10-15 13:43:47.901,73779.353,0.128,0.326,-0.937,-0.0,-0.089,0.341,0.631,-1.756,-0.029,0.136,-0.332,0.828
2024-10-15 13:43:47.911,73779.363,0.115,0.324,-0.939,-0.07,-0.188,0.346,-0.244,-1.179,0.123,0.121,-0.33,0.828
2024-10-15 13:43:47.921,73779.373,0.107,0.329,-0.938,-0.139,-0.241,0.274,-0.778,-0.538,0.393,0.114,-0.335,0.831
2024-10-15 13:43:47.931,73779.383,0.106,0.336,-0.936,-0.19,-0.23,0.151,-0.835,-0.079,0.587,0.113,-0.343,0.838
2024-10-15 13:43:47.941,73779.393,0.108,0.341,-0.934,-0.197,-0.203,0.019,-0.382,-0.166,0.473,0.115,-0.348,0.844
2024-10-15 13:43:47.951,73779.403,0.105,0.342,-0.934,-0.154,-0.189,-0.077,0.134,-0.577,0.081,0.112,-0.349,0.847
2024-10-15 13:43:47.961,73779.413,0.097,0.34,-0.935,-0.05,-0.206,-0.056,0.29,-0.929,-0.347,0.104,-0.347,0.846
2024-10-15 13:43:47.971,73779.423,0.087,0.337,-0.937,0.051,-0.208,-0.138,0.421,-0.829,-0.712,0.093,-0.344,0.84
2024-10-15 13:43:47.981,73779.433,0.077,0.333,-0.94,0.067,-0.138,-0.248,0.614,-0.73,-1.02,0.082,-0.339,0.83
2024-10-15 13:43:47.991,73779.443,0.072,0.327,-0.942,0.052,-0.079,-0.221,0.903,0.137,-1.265,0.076,-0.333,0.817
2024-10-15 13:43:48.001,73779.453,0.072,0.315,-0.946,-0.002,-0.138,-0.348,1.8,0.852,-1.141,0.076,-0.321,0.803
2024-10-15 13:43:48.011,73779.463,0.079,0.297,-0.952,-0.117,-0.041,-0.612,2.152,1.144,-0.819,0.082,-0.301,0.791
2024-10-15 13:43:48.021,73779.473,0.088,0.278,-0.957,-0.056,0.19,-0.548,2.026,1.12,-0.691,0.091,-0.281,0.782
2024-10-15 13:43:48.031,73779.483,0.094,0.26,-0.961,0.044,0.269,-0.379,1.819,0.68,-0.863,0.098,-0.263,0.772
2024-10-15 13:43:48.041,73779.493,0.096,0.246,-0.965,0.126,0.105,-0.217,1.28,0.272,-1.172,0.099,-0.248,0.76
2024-10-15 13:43:48.051,73779.503,0.095,0.238,-0.967,0.136,-0.117,-0.101,0.453,0.151,-1.337,0.098,-0.241,0.746
2024-10-15 13:43:48.061,73779.513,0.095,0.239,-0.966,0.075,-0.246,0.034,-0.225,0.557,-1.146,0.098,-0.241,0.733
2024-10-15 13:43:48.071,73779.523,0.101,0.243,-0.965,-0.028,-0.205,0.138,-0.416,1.095,-0.583,0.104,-0.245,0.724
2024-10-15 13:43:48.081,73779.533,0.112,0.248,-0.962,-0.131,0.064,0.159,-0.59,1.301,0.185,0.116,-0.25,0.723
2024-10-15 13:43:48.091,73779.543,0.125,0.254,-0.959,-0.144,0.461,0.252,-0.787,1.025,0.984,0.13,-0.257,0.729
2024-10-15 13:43:48.101,73779.553,0.135,0.26,-0.956,-0.049,0.731,0.343,-0.783,0.295,1.468,0.14,-0.263,0.743
2024-10-15 13:43:48.111,73779.562,0.137,0.265,-0.954,0.074,0.754,0.339,-0.658,-0.555,1.448,0.143,-0.268,0.76
2024-10-15 13:43:48.121,73779.572,0.133,0.268,-0.954,0.176,0.533,0.326,-0.463,-1.177,1.128,0.138,-0.272,0.774
2024-10-15 13:43:48.131,73779.582,0.122,0.271,-0.955,0.204,0.209,0.272,-0.362,-1.495,0.822,0.127,-0.274,0.784
2024-10-15 13:43:48.142,73779.592,0.11,0.274,-0.955,0.155,-0.081,0.179,-0.498,-1.533,0.72,0.114,-0.278,0.793
2024-10-15 13:43:48.151,73779.602,0.098,0.279,-0.955,0.088,-0.32,0.107,-0.734,-1.32,0.831,0.102,-0.283,0.801
2024-10-15 13:43:48.161,73779.612,0.09,0.287,-0.954,0.006,-0.469,0.043,-1.034,-0.935,0.97,0.094,-0.291,0.812
2024-10-15 13:43:48.171,73779.622,0.086,0.297,-0.951,-0.094,-0.49,-0.025,-1.282,-0.53,0.983,0.09,-0.301,0.823
2024-10-15 13:43:48.181,73779.632,0.085,0.308,-0.947,-0.17,-0.41,-0.068,-1.222,-0.09,0.748,0.09,-0.313,0.833
2024-10-15 13:43:48.191,73779.642,0.088,0.318,-0.944,-0.212,-0.278,-0.124,-0.832,0.248,0.144,0.093,-0.323,0.839
2024-10-15 13:43:48.201,73779.652,0.089,0.323,-0.942,-0.247,-0.134,-0.209,-0.187,0.188,-0.809,0.094,-0.329,0.836
2024-10-15 13:43:48.211,73779.662,0.087,0.321,-0.943,-0.236,-0.084,-0.194,0.792,0.218,-1.783,0.092,-0.327,0.822
2024-10-15 13:43:48.220,73779.672,0.083,0.311,-0.947,-0.177,-0.227,-0.208,1.639,0.232,-1.993,0.087,-0.316,0.801
2024-10-15 13:43:48.230,73779.682,0.08,0.297,-0.952,-0.111,-0.253,-0.335,1.592,0.303,-1.652,0.084,-0.301,0.78
2024-10-15 13:43:48.240,73779.692,0.079,0.284,-0.955,-0.018,-0.143,-0.326,1.265,0.495,-1.134,0.083,-0.288,0.764
2024-10-15 13:43:48.251,73779.702,0.082,0.275,-0.958,0.001,-0.112,-0.271,0.691,0.669,-0.732,0.086,-0.279,0.754
2024-10-15 13:43:48.260,73779.712,0.089,0.272,-0.958,-0.025,-0.099,-0.189,0.065,0.96,-0.527,0.092,-0.276,0.747
2024-10-15 13:43:48.270,73779.722,0.098,0.275,-0.957,-0.068,-0.039,-0.102,-0.4,1.23,-0.44,0.102,-0.278,0.742
2024-10-15 13:43:48.280,73779.732,0.11,0.281,-0.954,-0.099,0.104,0.01,-0.733,1.528,-0.331,0.115,-0.284,0.739
2024-10-15 13:43:48.290,73779.742,0.124,0.288,-0.949,-0.107,0.364,0.117,-0.858,1.603,-0.075,0.13,-0.293,0.738
2024-10-15 13:43:48.300,73779.752,0.139,0.297,-0.945,-0.091,0.674,0.153,-0.931,1.281,0.308,0.146,-0.301,0.74
2024-10-15 13:43:48.311,73779.762,0.149,0.304,-0.941,-0.01,0.889,0.183,-0.787,0.572,0.656,0.157,-0.309,0.747
2024-10-15 13:43:48.321,73779.772,0.153,0.309,-0.939,0.123,0.814,0.225,-0.433,-0.279,0.831,0.161,-0.314,0.756
2024-10-15 13:43:48.330,73779.782,0.149,0.31,-0.939,0.222,0.53,0.237,-0.185,-0.987,0.863,0.158,-0.316,0.765
2024-10-15 13:43:48.340,73779.792,0.14,0.311,-0.94,0.247,0.242,0.251,-0.242,-1.411,0.868,0.148,-0.316,0.774
2024-10-15 13:43:48.350,73779.802,0.129,0.313,-0.941,0.208,0.005,0.268,-0.485,-1.52,0.942,0.137,-0.318,0.784
2024-10-15 13:43:48.360,73779.812,0.119,0.318,-0.941,0.134,-0.198,0.271,-0.75,-1.308,1.117,0.126,-0.323,0.796
2024-10-15 13:43:48.370,73779.822,0.113,0.324,-0.939,0.043,-0.321,0.253,-0.911,-0.792,1.323,0.12,-0.33,0.809
2024-10-15 13:43:48.380,73779.832,0.113,0.332,-0.937,-0.066,-0.286,0.201,-1.026,-0.27,1.476,0.12,-0.338,0.825
2024-10-15 13:43:48.390,73779.842,0.117,0.339,-0.933,-0.159,-0.138,0.114,-1.015,-0.005,1.487,0.124,-0.346,0.844
2024-10-15 13:43:48.400,73779.852,0.12,0.347,-0.93,-0.183,-0.055,0.042,-0.815,-0.261,1.068,0.129,-0.354,0.86
2024-10-15 13:43:48.410,73779.862,0.117,0.351,-0.929,-0.157,-0.138,-0.02,-0.183,-0.915,0.117,0.125,-0.358,0.867
2024-10-15 13:43:48.420,73779.872,0.105,0.349,-0.931,-0.135,-0.334,-0.067,0.613,-1.359,-0.905,0.112,-0.357,0.862
2024-10-15 13:43:48.430,73779.882,0.087,0.343,-0.935,-0.109,-0.466,-0.096,0.874,-1.488,-1.458,0.093,-0.35,0.85
2024-10-15 13:43:48.440,73779.892,0.069,0.335,-0.94,-0.05,-0.426,-0.024,1.072,-1.177,-1.759,0.073,-0.342,0.834
2024-10-15 13:43:48.450,73779.902,0.056,0.326,-0.944,-0.031,-0.459,0.052,1.1,-0.359,-1.596,0.059,-0.332,0.817
2024-10-15 13:43:48.461,73779.912,0.052,0.316,-0.947,-0.094,-0.531,-0.166,1.132,0.499,-1.095,0.055,-0.322,0.802
2024-10-15 13:43:48.471,73779.922,0.057,0.307,-0.95,-0.139,-0.294,-0.441,0.906,1.143,-0.675,0.06,-0.312,0.794
2024-10-15 13:43:48.480,73779.932,0.068,0.301,-0.951,-0.14,-0.074,-0.624,0.416,1.472,-0.525,0.072,-0.306,0.789
2024-10-15 13:43:48.489,73779.942,0.08,0.299,-0.951,-0.062,0.101,-0.514,-0.03,1.381,-0.715,0.084,-0.304,0.783
2024-10-15 13:43:48.499,73779.952,0.09,0.302,-0.949,0.04,0.096,-0.33,-0.39,1.123,-1.093,0.094,-0.307,0.774
2024-10-15 13:43:48.510,73779.962,0.095,0.308,-0.947,0.101,-0.014,-0.203,-0.616,0.952,-1.395,0.1,-0.313,0.761
2024-10-15 13:43:48.520,73779.972,0.099,0.316,-0.943,0.103,-0.088,-0.097,-0.781,0.883,-1.456,0.105,-0.322,0.747
2024-10-15 13:43:48.530,73779.982,0.104,0.326,-0.94,0.065,-0.041,0.008,-0.972,1.039,-1.301,0.11,-0.332,0.733
2024-10-15 13:43:48.540,73779.992,0.111,0.337,-0.935,0.035,0.065,0.121,-1.044,1.277,-0.985,0.118,-0.343,0.722
2024-10-15 13:43:48.550,73780.002,0.121,0.347,-0.93,0.019,0.211,0.198,-1.069,1.478,-0.574,0.13,-0.355,0.716
2024-10-15 13:43:48.560,73780.012,0.134,0.358,-0.924,0.044,0.397,0.277,-1.083,1.469,-0.079,0.144,-0.366,0.714
2024-10-15 13:43:48.570,73780.022,0.147,0.367,-0.919,0.109,0.543,0.317,-0.86,1.138,0.374,0.158,-0.375,0.717
2024-10-15 13:43:48.580,73780.032,0.157,0.372,-0.915,0.185,0.537,0.281,-0.448,0.642,0.624,0.17,-0.381,0.723
2024-10-15 13:43:48.591,73780.042,0.162,0.373,-0.913,0.238,0.359,0.21,-0.043,0.089,0.677,0.176,-0.382,0.731
2024-10-15 13:43:48.599,73780.052,0.164,0.371,-0.914,0.25,0.131,0.134,0.187,-0.368,0.638,0.177,-0.38,0.738
2024-10-15 13:43:48.609,73780.062,0.161,0.368,-0.916,0.222,-0.069,0.093,0.301,-0.654,0.604,0.174,-0.377,0.744
2024-10-15 13:43:48.620,73780.072,0.157,0.364,-0.918,0.157,-0.203,0.07,0.346,-0.679,0.616,0.169,-0.373,0.75
2024-10-15 13:43:48.629,73780.082,0.154,0.36,-0.92,0.07,-0.249,0.053,0.307,-0.528,0.669,0.165,-0.368,0.756
