Date,TimeStamp,GravityX,GravityY,GravityZ,UserAccelerationX,UserAccelerationY,UserAccelerationZ,RotationRateX,RotationRateY,RotationRateZ,AttitudeRoll,AttitudePitch,AttitudeYaw
2024-09-23 15:15:02.170,175186.642,0.527,0.797,0.296,0.005,0.022,0.011,-0.974,-0.113,0.237,2.082,-0.922,2.383
2024-09-23 15:15:02.180,175186.652,0.529,0.793,0.302,0.03,0.055,0.028,-0.745,-0.073,0.217,2.089,-0.916,2.393
2024-09-23 15:15:02.191,175186.662,0.531,0.79,0.306,0.025,0.069,0.027,-0.476,-0.03,0.222,2.094,-0.911,2.4
2024-09-23 15:15:02.200,175186.672,0.533,0.788,0.31,0.008,0.062,0.009,-0.283,0.021,0.201,2.097,-0.907,2.404
2024-09-23 15:15:02.210,175186.682,0.534,0.786,0.311,-0.007,0.013,-0.019,-0.148,0.006,0.189,2.098,-0.904,2.405
2024-09-23 15:15:02.220,175186.692,0.536,0.784,0.313,-0.024,-0.041,-0.019,-0.298,0.024,0.201,2.099,-0.902,2.406
2024-09-23 15:15:02.230,175186.702,0.537,0.782,0.315,-0.023,-0.069,0.019,-0.353,-0.053,0.153,2.102,-0.898,2.409
2024-09-23 15:15:02.240,175186.712,0.538,0.781,0.318,0.011,-0.078,0.07,-0.243,-0.045,0.105,2.104,-0.896,2.413
2024-09-23 15:15:02.250,175186.722,0.539,0.78,0.319,-0.002,-0.077,0.032,-0.195,-0.086,0.023,2.105,-0.894,2.415
2024-09-23 15:15:02.260,175186.732,0.539,0.779,0.32,0.004,-0.005,-0.006,-0.119,-0.123,0.003,2.106,-0.893,2.417
2024-09-23 15:15:02.270,175186.742,0.54,0.779,0.319,0.02,-0.012,0.003,-0.001,-0.124,-0.041,2.105,-0.893,2.418
2024-09-23 15:15:02.280,175186.751,0.54,0.779,0.318,0.043,-0.075,0.019,0.037,-0.102,-0.059,2.104,-0.894,2.418
2024-09-23 15:15:02.290,175186.761,0.539,0.78,0.318,0.053,0.015,0.003,0.036,-0.106,-0.065,2.103,-0.894,2.418
2024-09-23 15:15:02.300,175186.771,0.539,0.78,0.317,0.022,0.002,-0.013,0.024,-0.152,-0.069,2.102,-0.895,2.418
2024-09-23 15:15:02.310,175186.781,0.539,0.781,0.316,0.0,-0.033,-0.014,0.014,-0.194,-0.065,2.1,-0.896,2.419
2024-09-23 15:15:02.319,175186.791,0.539,0.781,0.314,-0.005,-0.037,0.015,0.06,-0.226,-0.077,2.098,-0.897,2.419
2024-09-23 15:15:02.330,175186.801,0.54,0.782,0.312,-0.004,-0.026,0.04,0.147,-0.246,-0.069,2.095,-0.898,2.418
2024-09-23 15:15:02.340,175186.811,0.54,0.783,0.309,-0.007,0.003,0.044,0.246,-0.267,-0.071,2.091,-0.899,2.416
2024-09-23 15:15:02.350,175186.821,0.54,0.784,0.306,-0.011,0.025,0.043,0.329,-0.29,-0.077,2.086,-0.901,2.412
2024-09-23 15:15:02.360,175186.831,0.54,0.786,0.301,-0.011,0.033,0.03,0.311,-0.268,-0.093,2.08,-0.904,2.408
2024-09-23 15:15:02.371,175186.841,0.54,0.787,0.298,-0.01,0.028,0.014,0.209,-0.26,-0.098,2.075,-0.906,2.405
2024-09-23 15:15:02.380,175186.851,0.54,0.788,0.295,-0.019,0.014,0.003,0.108,-0.268,-0.108,2.071,-0.907,2.404
2024-09-23 15:15:02.389,175186.861,0.54,0.789,0.293,-0.024,-0.044,0.002,-0.003,-0.284,-0.111,2.068,-0.908,2.404
2024-09-23 15:15:02.399,175186.871,0.54,0.789,0.293,-0.008,-0.064,0.004,-0.196,-0.319,-0.108,2.067,-0.909,2.406
2024-09-23 15:15:02.409,175186.881,0.541,0.789,0.293,0.002,-0.051,0.019,-0.268,-0.293,-0.102,2.067,-0.909,2.41
2024-09-23 15:15:02.419,175186.891,0.541,0.788,0.294,0.006,-0.054,0.032,-0.251,-0.313,-0.167,2.068,-0.908,2.416
2024-09-23 15:15:02.429,175186.901,0.54,0.789,0.293,0.004,-0.026,0.021,-0.155,-0.316,-0.112,2.068,-0.908,2.42
2024-09-23 15:15:02.440,175186.911,0.54,0.789,0.292,-0.024,0.024,-0.053,-0.051,-0.293,-0.15,2.067,-0.909,2.422
2024-09-23 15:15:02.450,175186.921,0.54,0.79,0.292,0.013,0.024,-0.056,-0.079,-0.213,-0.106,2.066,-0.91,2.424
2024-09-23 15:15:02.459,175186.931,0.54,0.79,0.291,0.027,0.049,-0.045,-0.077,-0.163,-0.072,2.065,-0.91,2.426
2024-09-23 15:15:02.469,175186.941,0.54,0.79,0.291,-0.003,0.023,-0.026,-0.116,-0.128,-0.078,2.066,-0.911,2.428
2024-09-23 15:15:02.479,175186.951,0.539,0.79,0.292,-0.018,0.011,0.014,-0.155,-0.131,-0.098,2.066,-0.911,2.43
2024-09-23 15:15:02.489,175186.961,0.539,0.79,0.292,-0.021,-0.013,0.06,-0.187,-0.129,-0.112,2.068,-0.911,2.434
2024-09-23 15:15:02.499,175186.971,0.538,0.79,0.293,-0.011,-0.047,0.088,-0.2,-0.116,-0.125,2.069,-0.911,2.437
2024-09-23 15:15:02.510,175186.981,0.538,0.79,0.294,0.003,-0.036,0.074,-0.187,-0.096,-0.134,2.071,-0.911,2.441
2024-09-23 15:15:02.520,175186.991,0.537,0.791,0.295,-0.006,-0.028,0.01,-0.158,-0.085,-0.16,2.073,-0.912,2.445
2024-09-23 15:15:02.530,175187.001,0.536,0.791,0.296,0.001,-0.021,-0.054,-0.151,-0.063,-0.166,2.075,-0.912,2.448
2024-09-23 15:15:02.540,175187.011,0.535,0.791,0.297,0.015,0.002,-0.089,-0.198,-0.047,-0.17,2.078,-0.913,2.452
2024-09-23 15:15:02.550,175187.021,0.533,0.792,0.298,0.019,0.018,-0.082,-0.23,-0.059,-0.162,2.081,-0.913,2.456
2024-09-23 15:15:02.560,175187.031,0.532,0.792,0.3,0.011,0.007,-0.052,-0.189,-0.102,-0.133,2.083,-0.914,2.461
2024-09-23 15:15:02.570,175187.041,0.532,0.792,0.301,0.013,-0.021,-0.029,-0.173,-0.04,-0.099,2.086,-0.914,2.464
2024-09-23 15:15:02.579,175187.051,0.531,0.791,0.303,0.026,-0.047,-0.023,-0.423,-0.063,-0.129,2.089,-0.913,2.47
2024-09-23 15:15:02.590,175187.061,0.53,0.791,0.306,0.022,-0.018,-0.029,-0.409,-0.092,-0.123,2.094,-0.912,2.477
2024-09-23 15:15:02.599,175187.071,0.529,0.79,0.308,0.002,-0.046,-0.031,-0.288,-0.056,-0.102,2.098,-0.911,2.483
2024-09-23 15:15:02.610,175187.081,0.529,0.79,0.31,0.03,-0.093,-0.034,-0.21,-0.057,-0.094,2.101,-0.911,2.487
2024-09-23 15:15:02.619,175187.091,0.528,0.79,0.311,0.034,0.029,-0.028,-0.161,-0.071,-0.084,2.103,-0.911,2.49
2024-09-23 15:15:02.629,175187.101,0.528,0.79,0.312,0.011,0.064,-0.004,-0.176,-0.068,-0.063,2.105,-0.911,2.493
2024-09-23 15:15:02.639,175187.111,0.528,0.79,0.313,0.004,0.057,0.023,-0.194,-0.075,-0.026,2.106,-0.91,2.496
2024-09-23 15:15:02.649,175187.121,0.528,0.789,0.314,-0.013,0.068,0.049,-0.244,-0.094,0.001,2.108,-0.909,2.499
2024-09-23 15:15:02.659,175187.131,0.528,0.788,0.316,-0.03,0.031,0.046,-0.302,-0.101,0.024,2.11,-0.908,2.503
2024-09-23 15:15:02.669,175187.141,0.529,0.787,0.318,-0.023,-0.031,0.021,-0.3,-0.107,0.034,2.112,-0.906,2.507
2024-09-23 15:15:02.679,175187.151,0.529,0.786,0.319,-0.003,-0.047,-0.001,-0.286,-0.114,0.038,2.114,-0.904,2.511
2024-09-23 15:15:02.689,175187.161,0.53,0.785,0.321,-0.0,-0.004,-0.008,-0.23,-0.12,0.031,2.115,-0.902,2.514
2024-09-23 15:15:02.700,175187.171,0.531,0.784,0.322,0.01,0.03,-0.022,-0.126,-0.118,0.02,2.116,-0.901,2.516
2024-09-23 15:15:02.709,175187.181,0.531,0.784,0.322,0.015,0.058,-0.041,-0.117,-0.115,0.033,2.116,-0.901,2.518
2024-09-23 15:15:02.719,175187.191,0.532,0.783,0.322,0.001,0.082,-0.067,-0.098,-0.126,0.056,2.115,-0.9,2.519
2024-09-23 15:15:02.729,175187.201,0.533,0.782,0.323,-0.007,0.072,-0.07,-0.168,-0.041,0.053,2.115,-0.898,2.52
2024-09-23 15:15:02.739,175187.211,0.533,0.781,0.324,-0.011,0.042,-0.048,-0.173,0.081,0.061,2.117,-0.897,2.522
2024-09-23 15:15:02.749,175187.221,0.533,0.78,0.326,-0.03,0.038,0.012,-0.155,0.178,0.094,2.12,-0.895,2.524
2024-09-23 15:15:02.759,175187.231,0.533,0.779,0.329,-0.061,-0.007,0.032,-0.127,0.216,0.108,2.123,-0.894,2.525
2024-09-23 15:15:02.769,175187.241,0.534,0.778,0.331,-0.067,-0.021,0.074,-0.166,0.165,0.117,2.125,-0.892,2.526
2024-09-23 15:15:02.779,175187.251,0.534,0.777,0.333,-0.038,-0.029,0.082,-0.146,0.154,0.116,2.128,-0.89,2.527
2024-09-23 15:15:02.789,175187.261,0.534,0.776,0.335,0.003,-0.015,0.064,-0.113,0.186,0.111,2.13,-0.889,2.528
2024-09-23 15:15:02.799,175187.271,0.535,0.775,0.336,0.031,0.0,0.026,-0.064,0.188,0.107,2.132,-0.887,2.528
2024-09-23 15:15:02.809,175187.281,0.535,0.775,0.337,0.029,0.031,-0.037,-0.029,0.213,0.092,2.134,-0.886,2.528
2024-09-23 15:15:02.819,175187.291,0.535,0.774,0.339,0.016,0.012,-0.082,-0.024,0.191,0.077,2.135,-0.885,2.527
2024-09-23 15:15:02.830,175187.301,0.535,0.774,0.34,-0.001,-0.019,-0.084,-0.039,0.148,0.059,2.137,-0.885,2.527
2024-09-23 15:15:02.839,175187.311,0.534,0.773,0.341,-0.015,-0.021,-0.041,-0.114,0.109,0.035,2.139,-0.884,2.528
2024-09-23 15:15:02.849,175187.321,0.534,0.773,0.343,-0.003,-0.038,-0.023,-0.114,0.084,0.013,2.141,-0.883,2.529
2024-09-23 15:15:02.859,175187.331,0.534,0.772,0.344,0.017,-0.04,-0.039,-0.059,0.096,0.002,2.143,-0.883,2.53
2024-09-23 15:15:02.869,175187.341,0.534,0.772,0.345,0.03,-0.032,-0.069,-0.044,0.106,0.011,2.144,-0.882,2.531
2024-09-23 15:15:02.879,175187.35,0.533,0.772,0.346,0.046,0.002,-0.082,-0.028,0.114,-0.006,2.146,-0.882,2.531
2024-09-23 15:15:02.889,175187.36,0.533,0.772,0.346,0.05,0.007,-0.061,-0.05,0.114,-0.006,2.147,-0.882,2.532
2024-09-23 15:15:02.899,175187.37,0.533,0.772,0.347,0.038,0.003,-0.027,-0.103,0.082,-0.006,2.149,-0.882,2.533
2024-09-23 15:15:02.909,175187.38,0.532,0.771,0.349,0.017,-0.011,0.008,-0.16,0.062,-0.012,2.151,-0.881,2.534
2024-09-23 15:15:02.919,175187.39,0.532,0.771,0.351,0.017,-0.025,0.05,-0.312,0.037,0.017,2.154,-0.88,2.537
2024-09-23 15:15:02.929,175187.4,0.532,0.769,0.353,0.005,-0.028,0.048,-0.283,0.017,0.02,2.157,-0.878,2.562
2024-09-23 15:15:02.939,175187.41,0.532,0.768,0.355,-0.009,-0.046,0.032,-0.193,0.014,0.021,2.159,-0.876,2.586
2024-09-23 15:15:02.949,175187.42,0.533,0.768,0.357,0.001,-0.014,0.004,-0.185,0.039,0.053,2.161,-0.875,2.609
2024-09-23 15:15:02.959,175187.43,0.533,0.767,0.358,-0.011,0.054,-0.013,-0.114,0.015,0.058,2.162,-0.874,2.631
2024-09-23 15:15:02.969,175187.44,0.534,0.766,0.358,-0.008,0.041,0.002,0.026,-0.002,0.075,2.162,-0.873,2.651
2024-09-23 15:15:02.979,175187.45,0.534,0.766,0.357,-0.015,0.025,0.04,0.199,-0.015,0.078,2.16,-0.873,2.669
2024-09-23 15:15:02.989,175187.46,0.535,0.767,0.355,-0.009,0.017,0.052,0.354,-0.044,0.08,2.157,-0.874,2.685
2024-09-23 15:15:02.999,175187.47,0.536,0.768,0.352,-0.002,-0.008,0.034,0.44,-0.07,0.078,2.152,-0.875,2.699
2024-09-23 15:15:03.009,175187.48,0.537,0.769,0.348,0.002,-0.04,0.01,0.372,-0.088,0.088,2.146,-0.877,2.713
2024-09-23 15:15:03.019,175187.49,0.538,0.769,0.345,0.004,-0.03,0.016,0.259,-0.082,0.093,2.142,-0.878,2.728
2024-09-23 15:15:03.029,175187.5,0.539,0.769,0.344,-0.002,0.009,0.041,0.07,-0.081,0.095,2.138,-0.878,2.744
2024-09-23 15:15:03.039,175187.51,0.539,0.769,0.343,-0.014,0.007,0.034,-0.051,-0.072,0.064,2.137,-0.877,2.763
2024-09-23 15:15:03.049,175187.52,0.54,0.768,0.343,-0.013,0.023,0.018,-0.128,-0.045,0.05,2.137,-0.876,2.782
2024-09-23 15:15:03.059,175187.53,0.54,0.768,0.345,-0.02,0.002,-0.014,-0.222,-0.051,0.044,2.139,-0.875,2.803
2024-09-23 15:15:03.069,175187.54,0.541,0.767,0.346,-0.022,-0.015,-0.05,-0.244,-0.063,0.022,2.141,-0.873,2.825
2024-09-23 15:15:03.079,175187.55,0.541,0.766,0.348,-0.012,-0.013,-0.039,-0.19,-0.081,-0.008,2.142,-0.872,2.846
2024-09-23 15:15:03.089,175187.56,0.541,0.765,0.349,-0.019,-0.021,-0.014,-0.184,-0.082,-0.033,2.143,-0.871,2.867
2024-09-23 15:15:03.098,175187.57,0.541,0.765,0.35,-0.014,-0.016,0.01,-0.173,-0.1,-0.071,2.145,-0.871,2.889
2024-09-23 15:15:03.109,175187.58,0.541,0.765,0.35,0.004,-0.024,0.018,-0.141,-0.107,-0.091,2.146,-0.87,2.909
2024-09-23 15:15:03.119,175187.59,0.54,0.765,0.351,0.016,-0.069,0.012,-0.159,-0.088,-0.095,2.147,-0.87,2.912
2024-09-23 15:15:03.129,175187.6,0.54,0.765,0.352,0.025,-0.042,-0.005,-0.159,-0.075,-0.102,2.149,-0.871,2.933
2024-09-23 15:15:03.139,175187.61,0.539,0.765,0.353,0.027,0.006,-0.024,-0.16,-0.067,-0.089,2.15,-0.871,2.953
2024-09-23 15:15:03.149,175187.62,0.539,0.765,0.353,0.023,-0.01,-0.03,-0.157,-0.041,-0.092,2.151,-0.871,2.973
2024-09-23 15:15:03.158,175187.63,0.538,0.765,0.354,0.02,0.011,-0.024,-0.154,-0.047,-0.093,2.153,-0.871,2.992
2024-09-23 15:15:03.168,175187.64,0.538,0.765,0.355,0.006,0.02,-0.044,-0.168,0.004,-0.07,2.155,-0.87,3.012
2024-09-23 15:15:03.178,175187.65,0.537,0.764,0.358,0.006,-0.006,-0.064,-0.373,0.001,-0.073,2.158,-0.869,3.033
2024-09-23 15:15:03.188,175187.66,0.537,0.763,0.36,0.018,-0.011,-0.066,-0.236,-0.017,-0.086,2.162,-0.868,3.055
2024-09-23 15:15:03.198,175187.67,0.537,0.762,0.362,0.01,0.001,-0.037,-0.345,0.034,0.103,2.164,-0.867,3.074
2024-09-23 15:15:03.209,175187.68,0.536,0.763,0.361,0.003,-0.011,-0.014,0.207,0.02,-0.257,2.164,-0.868,3.09
2024-09-23 15:15:03.219,175187.69,0.536,0.764,0.36,0.04,0.048,0.001,0.199,-0.098,-0.061,2.162,-0.87,3.105
2024-09-23 15:15:03.229,175187.7,0.535,0.765,0.358,-0.015,0.034,-0.006,0.219,-0.091,-0.098,2.16,-0.871,3.119
2024-09-23 15:15:03.238,175187.71,0.535,0.767,0.355,-0.041,0.034,0.06,0.268,-0.088,-0.058,2.157,-0.873,3.132
2024-09-23 15:15:03.249,175187.72,0.535,0.768,0.353,0.008,-0.057,0.067,0.257,-0.035,-0.027,2.154,-0.875,-3.139
2024-09-23 15:15:03.258,175187.73,0.535,0.769,0.351,-0.004,0.002,0.042,0.208,0.035,-0.0,2.151,-0.877,-3.127
2024-09-23 15:15:03.268,175187.74,0.535,0.769,0.35,-0.018,0.014,0.017,0.021,0.03,0.023,2.15,-0.877,-3.114
2024-09-23 15:15:03.278,175187.75,0.535,0.769,0.35,-0.034,0.023,-0.009,-0.078,0.017,0.011,2.151,-0.877,-3.098
2024-09-23 15:15:03.288,175187.76,0.535,0.769,0.351,-0.021,0.005,0.016,-0.012,0.013,-0.016,2.151,-0.877,-3.083
2024-09-23 15:15:03.298,175187.77,0.535,0.769,0.35,-0.003,-0.032,0.037,0.147,0.026,-0.028,2.151,-0.877,-3.069
2024-09-23 15:15:03.308,175187.78,0.534,0.77,0.349,0.008,-0.011,0.017,0.277,0.035,-0.02,2.149,-0.879,-3.057
2024-09-23 15:15:03.318,175187.79,0.534,0.771,0.347,0.011,0.011,-0.003,0.328,0.057,0.006,2.147,-0.88,-3.046
2024-09-23 15:15:03.328,175187.8,0.534,0.772,0.345,0.005,0.035,-0.019,0.349,0.05,-0.014,2.144,-0.882,-3.036
2024-09-23 15:15:03.338,175187.81,0.534,0.773,0.343,-0.001,0.02,-0.028,0.302,0.032,0.003,2.141,-0.884,-3.026
2024-09-23 15:15:03.348,175187.82,0.533,0.774,0.341,-0.017,-0.011,-0.02,0.16,0.027,-0.02,2.14,-0.885,-3.015
2024-09-23 15:15:03.358,175187.83,0.533,0.775,0.34,-0.006,-0.017,0.0,0.045,0.014,-0.0,2.139,-0.886,-3.002
2024-09-23 15:15:03.368,175187.84,0.533,0.775,0.34,0.009,-0.021,0.035,-0.008,0.011,-0.033,2.139,-0.886,-2.989
2024-09-23 15:15:03.379,175187.85,0.533,0.775,0.341,0.005,-0.057,0.029,-0.054,-0.006,-0.046,2.14,-0.886,-2.974
2024-09-23 15:15:03.388,175187.86,0.532,0.775,0.341,0.014,-0.032,-0.001,-0.065,-0.019,-0.053,2.141,-0.886,-2.96
2024-09-23 15:15:03.398,175187.87,0.532,0.775,0.342,0.013,-0.026,-0.021,-0.112,-0.053,-0.076,2.142,-0.886,-2.944
2024-09-23 15:15:03.408,175187.88,0.532,0.775,0.342,0.02,-0.018,-0.021,-0.068,-0.069,-0.083,2.143,-0.887,-2.929
2024-09-23 15:15:03.418,175187.89,0.531,0.775,0.342,0.024,0.01,-0.004,0.027,-0.09,-0.084,2.142,-0.887,-2.915
2024-09-23 15:15:03.428,175187.9,0.531,0.776,0.341,0.011,0.016,0.009,0.057,-0.116,-0.068,2.141,-0.888,-2.902
2024-09-23 15:15:03.438,175187.91,0.531,0.776,0.34,0.004,0.008,0.007,0.066,-0.137,-0.053,2.14,-0.889,-2.889
2024-09-23 15:15:03.448,175187.92,0.531,0.777,0.338,0.003,-0.026,0.024,0.066,-0.136,-0.024,2.138,-0.89,-2.877
2024-09-23 15:15:03.458,175187.93,0.531,0.777,0.337,0.004,-0.057,0.047,0.118,-0.114,-0.008,2.136,-0.89,-2.865
2024-09-23 15:15:03.469,175187.94,0.532,0.777,0.335,0.004,-0.03,0.06,0.217,-0.125,0.007,2.133,-0.891,-2.855
2024-09-23 15:15:03.478,175187.949,0.533,0.778,0.333,-0.001,0.011,0.038,0.3,-0.126,0.015,2.129,-0.892,-2.847
2024-09-23 15:15:03.488,175187.959,0.533,0.779,0.329,0.008,0.026,0.002,0.344,-0.114,0.028,2.124,-0.893,-2.839
2024-09-23 15:15:03.498,175187.969,0.534,0.78,0.326,0.012,0.044,-0.02,0.388,-0.106,0.016,2.119,-0.895,-2.845
2024-09-23 15:15:03.508,175187.979,0.534,0.782,0.322,-0.01,0.037,-0.034,0.42,-0.058,0.01,2.114,-0.897,-2.838
2024-09-23 15:15:03.518,175187.989,0.534,0.783,0.319,-0.021,0.015,-0.046,0.362,-0.003,0.004,2.109,-0.899,-2.831
2024-09-23 15:15:03.528,175187.999,0.534,0.783,0.317,-0.033,0.031,-0.056,0.154,-0.063,-0.001,2.106,-0.9,-2.823
2024-09-23 15:15:03.538,175188.009,0.535,0.784,0.316,-0.025,-0.012,-0.052,0.114,-0.063,-0.006,2.104,-0.901,-2.813
2024-09-23 15:15:03.548,175188.019,0.535,0.784,0.315,0.027,-0.06,-0.005,0.139,-0.047,0.018,2.103,-0.901,-2.803
2024-09-23 15:15:03.558,175188.029,0.535,0.785,0.313,0.016,-0.007,0.004,0.177,-0.027,0.02,2.101,-0.902,-2.793
2024-09-23 15:15:03.568,175188.039,0.535,0.785,0.312,-0.025,0.058,0.017,0.093,-0.001,0.008,2.099,-0.903,-2.784
2024-09-23 15:15:03.578,175188.049,0.535,0.785,0.312,-0.019,0.05,0.039,-0.029,-0.028,0.014,2.098,-0.903,-2.773
2024-09-23 15:15:03.588,175188.059,0.536,0.785,0.311,-0.01,0.001,0.06,0.136,-0.012,0.04,2.097,-0.903,-2.762
2024-09-23 15:15:03.598,175188.069,0.536,0.786,0.308,-0.01,-0.084,0.077,0.613,-0.028,0.004,2.093,-0.904,-2.756
2024-09-23 15:15:03.608,175188.079,0.536,0.789,0.302,0.007,-0.054,0.043,0.969,-0.002,-0.036,2.084,-0.908,-2.756
2024-09-23 15:15:03.618,175188.089,0.535,0.792,0.294,0.022,0.092,-0.032,1.099,0.017,-0.05,2.073,-0.914,-2.76
2024-09-23 15:15:03.628,175188.099,0.535,0.795,0.285,0.022,0.095,-0.049,1.024,0.032,-0.09,2.061,-0.92,-2.763
2024-09-23 15:15:03.638,175188.109,0.534,0.799,0.278,0.016,-0.022,-0.06,0.995,0.068,-0.093,2.05,-0.925,-2.766
2024-09-23 15:15:03.648,175188.119,0.533,0.801,0.271,0.004,-0.058,-0.045,0.644,0.117,0.003,2.042,-0.929,-2.778
2024-09-23 15:15:03.658,175188.129,0.533,0.802,0.269,-0.015,-0.066,0.009,0.226,0.101,0.023,2.037,-0.931,-2.785
2024-09-23 15:15:03.667,175188.139,0.533,0.802,0.269,0.01,-0.02,0.072,-0.154,0.132,0.063,2.038,-0.931,-2.785
2024-09-23 15:15:03.677,175188.149,0.533,0.802,0.271,0.011,-0.033,0.095,-0.181,0.121,-0.029,2.042,-0.93,-2.782
2024-09-23 15:15:03.687,175188.159,0.532,0.801,0.273,-0.01,-0.055,0.05,-0.109,0.13,-0.081,2.045,-0.93,-2.78
2024-09-23 15:15:03.697,175188.169,0.531,0.802,0.274,-0.012,-0.094,0.004,0.014,0.15,-0.103,2.048,-0.93,-2.778
2024-09-23 15:15:03.707,175188.179,0.53,0.802,0.275,-0.007,-0.034,-0.039,0.07,0.173,-0.117,2.049,-0.931,-2.778
2024-09-23 15:15:03.717,175188.189,0.528,0.803,0.275,-0.005,0.025,-0.075,0.098,0.142,-0.069,2.051,-0.933,-2.778
2024-09-23 15:15:03.728,175188.199,0.528,0.804,0.275,0.014,0.044,-0.106,0.041,0.081,-0.086,2.052,-0.934,-2.779
2024-09-23 15:15:03.737,175188.209,0.527,0.804,0.275,0.023,-0.005,-0.041,-0.014,0.022,-0.078,2.052,-0.934,-2.778
2024-09-23 15:15:03.748,175188.219,0.526,0.804,0.276,0.016,0.015,0.045,-0.126,-0.009,-0.013,2.054,-0.934,-2.777
2024-09-23 15:15:03.757,175188.229,0.526,0.804,0.276,0.014,-0.023,0.073,0.008,-0.011,-0.003,2.054,-0.934,-2.776
2024-09-23 15:15:03.767,175188.239,0.527,0.804,0.275,0.043,-0.088,0.068,0.285,0.001,0.071,2.053,-0.935,-2.778
2024-09-23 15:15:03.777,175188.249,0.527,0.805,0.271,0.037,-0.027,0.05,0.651,-0.045,0.052,2.046,-0.936,-2.786
2024-09-23 15:15:03.787,175188.259,0.527,0.807,0.265,0.009,0.086,0.061,0.975,0.046,-0.009,2.036,-0.94,-2.799
2024-09-23 15:15:03.797,175188.269,0.527,0.81,0.256,-0.013,0.129,0.049,1.112,0.063,-0.058,2.024,-0.945,-2.814
2024-09-23 15:15:03.807,175188.279,0.526,0.814,0.247,-0.036,0.163,-0.021,1.259,0.055,-0.071,2.01,-0.95,-2.832
2024-09-23 15:15:03.817,175188.289,0.525,0.817,0.237,-0.051,0.115,-0.041,1.369,0.064,-0.087,1.994,-0.957,-2.852
2024-09-23 15:15:03.827,175188.299,0.524,0.821,0.226,-0.015,-0.005,0.025,1.393,0.018,-0.12,1.977,-0.963,-2.874
2024-09-23 15:15:03.837,175188.309,0.523,0.825,0.214,-0.008,0.059,0.059,1.337,0.017,-0.22,1.959,-0.97,-2.895
2024-09-23 15:15:03.849,175188.319,0.521,0.829,0.203,-0.006,0.015,0.075,1.428,0.031,-0.23,1.942,-0.977,-2.916
2024-09-23 15:15:03.857,175188.329,0.519,0.833,0.191,-0.007,-0.069,0.067,1.468,0.016,-0.222,1.923,-0.984,-2.939
2024-09-23 15:15:03.867,175188.339,0.517,0.837,0.178,-0.035,-0.09,0.029,1.619,0.009,-0.298,1.903,-0.992,-2.964
2024-09-23 15:15:03.877,175188.349,0.515,0.842,0.164,0.019,-0.088,0.061,1.718,-0.017,-0.292,1.88,-1.0,-2.991
2024-09-23 15:15:03.888,175188.359,0.512,0.846,0.15,0.037,-0.064,0.022,1.751,0.056,-0.273,1.855,-1.008,-3.021
2024-09-23 15:15:03.897,175188.369,0.509,0.85,0.135,0.036,-0.044,-0.017,1.985,0.176,-0.329,1.829,-1.016,-3.053
2024-09-23 15:15:03.908,175188.379,0.506,0.854,0.118,0.021,-0.023,-0.044,2.236,0.223,-0.311,1.799,-1.024,-3.09
2024-09-23 15:15:03.918,175188.389,0.503,0.858,0.099,-0.003,0.056,-0.085,2.32,0.069,-0.345,1.765,-1.032,-3.132
2024-09-23 15:15:03.927,175188.399,0.501,0.862,0.08,-0.01,0.088,-0.061,2.099,0.151,-0.252,1.73,-1.039,3.109
2024-09-23 15:15:03.937,175188.409,0.499,0.864,0.064,-0.0,-0.006,0.019,1.795,0.149,-0.175,1.699,-1.044,3.072
2024-09-23 15:15:03.948,175188.419,0.498,0.866,0.051,0.003,-0.06,0.031,1.554,0.197,-0.046,1.672,-1.047,3.039
2024-09-23 15:15:03.957,175188.429,0.497,0.867,0.039,-0.02,-0.114,0.055,1.224,0.035,-0.046,1.65,-1.048,3.011
2024-09-23 15:15:03.968,175188.439,0.497,0.867,0.03,0.001,-0.119,0.103,0.938,-0.023,-0.079,1.631,-1.05,2.99
2024-09-23 15:15:03.978,175188.449,0.496,0.868,0.023,0.044,-0.012,0.169,0.664,-0.06,-0.097,1.617,-1.051,2.974
2024-09-23 15:15:03.987,175188.459,0.495,0.869,0.018,0.081,-0.022,0.154,0.315,-0.114,-0.128,1.607,-1.053,2.964
2024-09-23 15:15:03.997,175188.469,0.494,0.869,0.016,0.021,-0.078,0.108,0.062,-0.154,-0.113,1.603,-1.054,2.96
2024-09-23 15:15:04.007,175188.479,0.493,0.87,0.015,-0.005,-0.05,0.062,-0.143,-0.173,-0.092,1.602,-1.055,2.961
2024-09-23 15:15:04.017,175188.489,0.492,0.87,0.016,0.009,-0.042,-0.034,-0.215,-0.124,-0.141,1.604,-1.056,2.965
2024-09-23 15:15:04.027,175188.499,0.491,0.871,0.018,-0.009,-0.043,-0.08,-0.214,-0.111,-0.129,1.607,-1.057,2.97
2024-09-23 15:15:04.037,175188.509,0.49,0.871,0.019,-0.029,-0.006,-0.074,-0.183,-0.022,-0.076,1.61,-1.058,2.974
2024-09-23 15:15:04.047,175188.519,0.49,0.872,0.021,-0.02,0.033,-0.031,-0.235,-0.028,-0.028,1.613,-1.059,2.978
2024-09-23 15:15:04.057,175188.529,0.489,0.872,0.023,-0.016,0.007,0.028,-0.312,-0.035,-0.024,1.618,-1.059,2.983
2024-09-23 15:15:04.067,175188.539,0.489,0.872,0.026,-0.008,-0.032,0.076,-0.289,-0.02,-0.068,1.623,-1.059,2.99
2024-09-23 15:15:04.077,175188.548,0.488,0.872,0.027,0.017,-0.03,0.089,-0.105,0.031,-0.055,1.626,-1.06,2.994
2024-09-23 15:15:04.087,175188.558,0.489,0.872,0.029,-0.014,-0.024,0.023,-0.239,-0.04,0.073,1.629,-1.059,2.997
2024-09-23 15:15:04.097,175188.568,0.489,0.872,0.032,-0.03,0.001,-0.048,-0.561,-0.179,0.074,1.635,-1.058,3.005
2024-09-23 15:15:04.107,175188.578,0.489,0.871,0.035,0.028,0.057,-0.067,-0.369,-0.061,-0.051,1.643,-1.058,3.015
2024-09-23 15:15:04.117,175188.588,0.49,0.871,0.037,0.013,0.017,-0.073,-0.14,0.015,0.123,1.647,-1.058,3.02
2024-09-23 15:15:04.127,175188.598,0.491,0.87,0.039,-0.06,0.01,-0.105,-0.395,0.007,0.157,1.651,-1.056,3.024
2024-09-23 15:15:04.137,175188.608,0.492,0.87,0.044,-0.004,0.105,-0.088,-0.696,0.037,0.053,1.661,-1.054,3.035
2024-09-23 15:15:04.147,175188.618,0.492,0.869,0.051,0.039,0.039,-0.042,-0.758,0.009,0.053,1.674,-1.053,3.05
2024-09-23 15:15:04.157,175188.628,0.493,0.868,0.057,-0.005,-0.082,-0.007,-0.728,-0.073,0.092,1.686,-1.052,3.065
2024-09-23 15:15:04.167,175188.638,0.494,0.867,0.063,0.015,-0.016,0.002,-0.716,-0.16,0.11,1.697,-1.05,3.079
2024-09-23 15:15:04.177,175188.648,0.495,0.866,0.068,0.025,0.045,0.0,-0.705,-0.092,0.07,1.708,-1.048,3.093
2024-09-23 15:15:04.187,175188.658,0.495,0.865,0.074,0.002,0.027,-0.016,-0.677,-0.065,0.104,1.719,-1.046,3.106
2024-09-23 15:15:04.197,175188.668,0.497,0.864,0.079,-0.036,-0.013,-0.042,-0.631,-0.11,0.132,1.729,-1.044,3.119
2024-09-23 15:15:04.207,175188.678,0.498,0.863,0.084,-0.02,-0.064,-0.048,-0.484,-0.096,0.12,1.737,-1.042,3.13
2024-09-23 15:15:04.217,175188.688,0.499,0.862,0.087,0.005,-0.027,-0.02,-0.321,-0.036,0.097,1.743,-1.04,3.137
2024-09-23 15:15:04.227,175188.698,0.5,0.862,0.089,0.012,0.044,-0.015,-0.177,0.017,0.101,1.747,-1.039,3.142
2024-09-23 15:15:04.238,175188.708,0.5,0.861,0.09,0.009,0.045,-0.02,-0.131,0.107,0.068,1.75,-1.038,-3.139
2024-09-23 15:15:04.247,175188.718,0.501,0.861,0.092,0.013,0.011,-0.001,-0.132,0.156,0.037,1.753,-1.037,-3.137
2024-09-23 15:15:04.257,175188.728,0.501,0.86,0.094,0.02,-0.004,0.026,-0.184,0.172,0.045,1.757,-1.036,-3.134
2024-09-23 15:15:04.267,175188.738,0.501,0.86,0.097,-0.007,-0.036,0.043,-0.373,0.087,0.102,1.763,-1.035,-3.129
2024-09-23 15:15:04.276,175188.748,0.502,0.859,0.101,-0.001,-0.053,0.051,-0.395,0.106,0.065,1.769,-1.033,-3.122
2024-09-23 15:15:04.286,175188.758,0.502,0.858,0.105,0.003,-0.042,0.042,-0.506,0.048,-0.012,1.778,-1.032,-3.113
2024-09-23 15:15:04.297,175188.768,0.502,0.858,0.111,-0.015,-0.041,0.028,-0.731,-0.055,-0.036,1.788,-1.031,-3.102
2024-09-23 15:15:04.306,175188.778,0.502,0.857,0.117,-0.014,-0.0,0.025,-0.892,-0.088,-0.049,1.8,-1.03,-3.086
2024-09-23 15:15:04.316,175188.788,0.501,0.856,0.125,0.035,-0.032,-0.007,-0.956,-0.045,-0.05,1.815,-1.028,-3.068
2024-09-23 15:15:04.326,175188.798,0.501,0.855,0.133,0.004,-0.07,-0.077,-0.933,-0.016,-0.031,1.83,-1.026,-3.05
2024-09-23 15:15:04.336,175188.808,0.501,0.854,0.141,-0.041,0.002,-0.082,-0.926,-0.024,-0.02,1.844,-1.024,-3.033
2024-09-23 15:15:04.347,175188.818,0.501,0.853,0.148,-0.019,0.04,-0.03,-0.918,-0.047,-0.017,1.859,-1.021,-3.016
2024-09-23 15:15:04.356,175188.828,0.501,0.852,0.156,-0.009,-0.013,0.012,-0.914,-0.068,0.006,1.872,-1.019,-2.999
2024-09-23 15:15:04.367,175188.838,0.501,0.85,0.163,-0.008,-0.042,0.039,-0.945,-0.065,0.02,1.886,-1.016,-2.982
2024-09-23 15:15:04.376,175188.848,0.501,0.848,0.171,0.009,-0.035,0.027,-1.008,-0.07,0.012,1.9,-1.013,-2.965
2024-09-23 15:15:04.386,175188.858,0.501,0.846,0.179,0.012,-0.018,0.01,-0.994,-0.072,0.037,1.915,-1.009,-2.947
2024-09-23 15:15:04.396,175188.868,0.502,0.844,0.187,0.0,-0.002,-0.006,-0.925,-0.073,0.075,1.928,-1.005,-2.931
2024-09-23 15:15:04.407,175188.878,0.503,0.842,0.194,-0.006,0.004,-0.023,-0.772,-0.091,0.088,1.939,-1.001,-2.916
2024-09-23 15:15:04.417,175188.888,0.504,0.841,0.199,-0.005,0.016,-0.044,-0.519,-0.094,0.05,1.947,-0.998,-2.906
2024-09-23 15:15:04.427,175188.898,0.505,0.839,0.202,-0.004,0.024,-0.062,-0.412,-0.085,0.177,1.952,-0.996,-2.899
2024-09-23 15:15:04.437,175188.908,0.506,0.838,0.205,-0.028,0.041,-0.083,-0.279,-0.106,0.172,1.955,-0.993,-2.894
2024-09-23 15:15:04.447,175188.918,0.508,0.836,0.206,-0.025,0.058,-0.064,-0.156,-0.095,0.175,1.956,-0.99,-2.891
2024-09-23 15:15:04.457,175188.928,0.51,0.835,0.207,0.006,0.022,-0.028,-0.143,-0.056,0.209,1.956,-0.988,-2.89
2024-09-23 15:15:04.467,175188.938,0.512,0.833,0.209,0.014,0.057,-0.003,-0.342,-0.057,0.222,1.958,-0.985,-2.888
2024-09-23 15:15:04.476,175188.948,0.514,0.831,0.212,-0.007,0.093,0.024,-0.598,-0.066,0.202,1.963,-0.982,-2.882
2024-09-23 15:15:04.487,175188.958,0.515,0.829,0.218,-0.011,0.037,0.041,-0.847,-0.063,0.185,1.971,-0.977,-2.871
2024-09-23 15:15:04.497,175188.968,0.517,0.826,0.224,0.002,-0.041,0.003,-0.712,-0.083,0.124,1.98,-0.972,-2.859
2024-09-23 15:15:04.505,175188.978,0.518,0.824,0.229,-0.005,-0.06,-0.022,-0.494,-0.081,0.107,1.987,-0.969,-2.85
2024-09-23 15:15:04.515,175188.988,0.519,0.823,0.232,-0.002,-0.036,-0.053,-0.311,-0.075,0.111,1.991,-0.966,-2.844
2024-09-23 15:15:04.525,175188.998,0.52,0.822,0.233,0.021,0.044,-0.052,-0.2,-0.059,0.094,1.993,-0.964,-2.841
2024-09-23 15:15:04.535,175189.008,0.521,0.821,0.235,0.025,0.074,-0.002,-0.224,0.007,0.096,1.994,-0.963,-2.838
2024-09-23 15:15:04.546,175189.018,0.521,0.82,0.237,0.009,0.068,0.005,-0.33,0.051,0.022,1.998,-0.961,-2.834
2024-09-23 15:15:04.556,175189.028,0.521,0.819,0.24,-0.006,0.017,-0.015,-0.278,0.094,-0.085,2.003,-0.96,-2.829
2024-09-23 15:15:04.567,175189.038,0.52,0.819,0.242,-0.015,-0.1,-0.036,0.025,0.084,-0.086,2.006,-0.96,-2.826
2024-09-23 15:15:04.576,175189.048,0.52,0.819,0.243,-0.028,-0.145,-0.032,-0.244,0.111,0.05,2.008,-0.96,-2.825
2024-09-23 15:15:04.586,175189.058,0.52,0.818,0.245,-0.029,-0.067,0.032,-0.122,0.093,0.037,2.011,-0.959,-2.823
2024-09-23 15:15:04.596,175189.068,0.52,0.818,0.246,0.037,0.025,0.131,-0.021,0.087,0.023,2.013,-0.958,-2.822
2024-09-23 15:15:04.606,175189.078,0.519,0.818,0.246,0.032,-0.002,0.07,0.011,0.031,-0.088,2.014,-0.959,-2.822
2024-09-23 15:15:04.617,175189.088,0.518,0.819,0.246,-0.009,0.089,-0.023,0.028,0.0,-0.1,2.014,-0.959,-2.821
2024-09-23 15:15:04.625,175189.098,0.517,0.82,0.246,-0.004,-0.02,-0.037,0.139,0.067,-0.12,2.014,-0.961,-2.822
2024-09-23 15:15:04.636,175189.108,0.516,0.821,0.245,0.028,-0.061,-0.035,0.112,0.122,-0.089,2.014,-0.962,-2.823
2024-09-23 15:15:04.646,175189.118,0.515,0.821,0.245,0.021,0.068,-0.056,0.014,0.113,-0.119,2.015,-0.964,-2.823
2024-09-23 15:15:04.656,175189.128,0.514,0.822,0.246,0.008,0.069,-0.028,0.04,0.092,-0.138,2.017,-0.965,-2.823
2024-09-23 15:15:04.666,175189.138,0.513,0.823,0.245,0.001,0.023,0.033,0.125,0.045,-0.092,2.017,-0.966,-2.823
2024-09-23 15:15:04.676,175189.147,0.512,0.823,0.244,-0.008,-0.044,0.068,0.202,0.015,-0.036,2.016,-0.967,-2.825
2024-09-23 15:15:04.686,175189.157,0.512,0.824,0.242,-0.009,-0.113,0.088,0.309,0.013,-0.027,2.013,-0.969,-2.829
2024-09-23 15:15:04.696,175189.167,0.512,0.825,0.239,0.01,-0.086,0.073,0.484,-0.001,-0.023,2.008,-0.971,-2.835
2024-09-23 15:15:04.706,175189.177,0.512,0.827,0.234,0.016,-0.004,0.01,0.694,0.003,-0.025,2.0,-0.973,-2.844
2024-09-23 15:15:04.716,175189.187,0.511,0.829,0.227,0.013,0.054,-0.056,0.893,0.002,-0.04,1.989,-0.977,-2.857
2024-09-23 15:15:04.726,175189.197,0.511,0.831,0.22,0.021,0.096,-0.084,0.977,-0.006,-0.048,1.977,-0.981,-2.872
2024-09-23 15:15:04.736,175189.207,0.51,0.833,0.212,0.021,0.114,-0.084,0.899,-0.001,-0.053,1.964,-0.985,-2.888
2024-09-23 15:15:04.747,175189.217,0.51,0.835,0.205,0.013,0.102,-0.066,0.777,-0.047,-0.073,1.952,-0.989,-2.901
2024-09-23 15:15:04.756,175189.227,0.509,0.838,0.198,-0.0,0.047,-0.03,0.71,-0.048,-0.149,1.942,-0.993,-2.913
2024-09-23 15:15:04.766,175189.237,0.508,0.84,0.192,-0.006,-0.012,0.016,0.669,-0.102,-0.172,1.932,-0.997,-2.924
2024-09-23 15:15:04.776,175189.247,0.507,0.842,0.187,-0.012,-0.038,0.046,0.452,-0.118,-0.138,1.924,-1.0,-2.933
2024-09-23 15:15:04.786,175189.257,0.506,0.843,0.183,-0.023,-0.043,0.042,0.197,-0.156,-0.166,1.918,-1.003,-2.938
2024-09-23 15:15:04.796,175189.267,0.505,0.844,0.182,0.013,-0.082,0.088,-0.04,-0.131,-0.1,1.917,-1.004,-2.938
2024-09-23 15:15:04.806,175189.277,0.504,0.844,0.181,0.002,-0.094,0.055,0.129,0.035,-0.13,1.916,-1.005,-2.938
2024-09-23 15:15:04.816,175189.287,0.503,0.845,0.179,-0.022,-0.071,0.033,0.45,0.102,-0.088,1.913,-1.007,-2.942
2024-09-23 15:15:04.826,175189.297,0.502,0.847,0.175,-0.061,0.014,-0.002,0.578,0.087,-0.116,1.907,-1.01,-2.951
2024-09-23 15:15:04.835,175189.307,0.501,0.849,0.17,-0.05,0.201,-0.03,0.686,0.08,-0.101,1.899,-1.013,-2.961
2024-09-23 15:15:04.846,175189.317,0.5,0.85,0.165,0.005,0.11,-0.007,0.782,0.086,-0.05,1.889,-1.016,-2.974
2024-09-23 15:15:04.855,175189.327,0.5,0.852,0.158,0.005,-0.092,0.005,0.933,0.157,-0.035,1.877,-1.019,-2.989
2024-09-23 15:15:04.865,175189.337,0.499,0.853,0.151,-0.025,-0.037,0.025,0.914,0.117,-0.037,1.864,-1.022,-3.006
2024-09-23 15:15:04.876,175189.347,0.499,0.855,0.144,-0.01,0.03,0.034,0.767,0.017,-0.064,1.852,-1.025,-3.022
2024-09-23 15:15:04.886,175189.357,0.498,0.856,0.138,0.044,-0.016,0.068,0.516,-0.027,-0.087,1.841,-1.028,-3.033
2024-09-23 15:15:04.896,175189.367,0.497,0.857,0.135,0.072,-0.075,0.077,0.182,0.068,-0.017,1.836,-1.029,-3.04
2024-09-23 15:15:04.905,175189.377,0.497,0.857,0.135,0.039,-0.071,0.026,-0.028,0.129,-0.056,1.836,-1.03,-3.041
2024-09-23 15:15:04.915,175189.387,0.496,0.857,0.137,-0.021,-0.097,-0.008,-0.212,0.129,-0.059,1.84,-1.03,-3.038
2024-09-23 15:15:04.926,175189.397,0.496,0.857,0.139,-0.026,-0.129,0.003,-0.185,0.059,-0.073,1.844,-1.03,-3.034
2024-09-23 15:15:04.936,175189.407,0.495,0.857,0.141,0.008,-0.02,0.015,-0.152,0.048,-0.09,1.848,-1.03,-3.03
2024-09-23 15:15:04.946,175189.417,0.494,0.858,0.142,0.023,0.031,0.005,-0.073,0.046,-0.096,1.851,-1.031,-3.028
2024-09-23 15:15:04.956,175189.427,0.493,0.858,0.142,0.021,0.01,-0.024,0.063,0.072,-0.062,1.852,-1.032,-3.027
2024-09-23 15:15:04.966,175189.437,0.493,0.859,0.142,0.003,0.004,-0.047,0.036,0.06,-0.052,1.852,-1.032,-3.028
2024-09-23 15:15:04.975,175189.447,0.492,0.859,0.143,0.004,0.015,-0.06,-0.114,-0.007,-0.017,1.853,-1.033,-3.027
2024-09-23 15:15:04.986,175189.457,0.493,0.858,0.144,0.007,-0.001,-0.041,-0.229,-0.099,0.024,1.855,-1.032,-3.024
2024-09-23 15:15:04.996,175189.467,0.493,0.858,0.145,0.003,-0.043,-0.037,-0.324,-0.221,0.043,1.858,-1.031,-3.019
2024-09-23 15:15:05.006,175189.477,0.494,0.857,0.148,-0.006,-0.018,-0.039,-0.587,-0.366,0.099,1.861,-1.029,-3.011
2024-09-23 15:15:05.015,175189.487,0.495,0.855,0.152,-0.002,0.038,-0.036,-0.821,-0.395,0.036,1.868,-1.026,-2.998
2024-09-23 15:15:05.026,175189.497,0.496,0.854,0.157,0.037,0.052,-0.044,-0.67,-0.211,-0.043,1.877,-1.024,-2.984
2024-09-23 15:15:05.036,175189.507,0.496,0.853,0.161,0.034,0.027,-0.062,-0.503,-0.019,-0.025,1.886,-1.023,-2.973
2024-09-23 15:15:05.046,175189.517,0.495,0.853,0.165,-0.022,0.015,-0.046,-0.364,-0.023,-0.02,1.892,-1.021,-2.965
2024-09-23 15:15:05.055,175189.527,0.496,0.852,0.168,-0.011,0.037,0.017,-0.363,-0.013,0.058,1.897,-1.02,-2.959
2024-09-23 15:15:05.066,175189.537,0.496,0.851,0.171,0.011,-0.031,0.057,-0.325,0.093,0.045,1.903,-1.018,-2.953
2024-09-23 15:15:05.075,175189.547,0.496,0.851,0.174,0.002,-0.099,0.15,-0.205,0.136,0.049,1.908,-1.017,-2.949
2024-09-23 15:15:05.085,175189.557,0.497,0.85,0.176,-0.019,-0.048,0.092,-0.071,0.083,0.08,1.911,-1.016,-2.947
2024-09-23 15:15:05.095,175189.567,0.497,0.85,0.176,-0.024,0.005,0.012,-0.016,0.054,0.077,1.911,-1.015,-2.946
2024-09-23 15:15:05.105,175189.577,0.498,0.849,0.177,-0.003,0.039,-0.016,-0.006,0.084,0.083,1.912,-1.014,-2.947
2024-09-23 15:15:05.116,175189.587,0.498,0.849,0.177,0.019,0.054,-0.055,0.033,0.177,0.076,1.913,-1.014,-2.947
2024-09-23 15:15:05.126,175189.597,0.498,0.849,0.177,0.027,0.051,-0.099,0.1,0.174,0.067,1.913,-1.013,-2.949
2024-09-23 15:15:05.135,175189.607,0.498,0.849,0.177,-0.013,0.034,-0.094,0.157,0.237,0.031,1.913,-1.013,-2.951
2024-09-23 15:15:05.145,175189.617,0.498,0.849,0.177,-0.01,0.017,-0.043,0.286,0.333,-0.045,1.913,-1.014,-2.955
2024-09-23 15:15:05.155,175189.627,0.497,0.85,0.177,0.007,-0.003,0.006,0.175,0.263,-0.025,1.912,-1.015,-2.959
2024-09-23 15:15:05.165,175189.637,0.496,0.85,0.177,-0.021,-0.049,0.059,0.071,0.18,-0.144,1.913,-1.016,-2.96
2024-09-23 15:15:05.175,175189.647,0.494,0.851,0.177,-0.012,-0.028,0.067,-0.063,0.083,-0.151,1.915,-1.018,-2.96
2024-09-23 15:15:05.185,175189.657,0.493,0.852,0.179,0.007,-0.072,0.061,-0.2,-0.004,-0.159,1.918,-1.019,-2.956
2024-09-23 15:15:05.195,175189.667,0.491,0.852,0.18,0.041,-0.074,0.015,-0.193,0.053,-0.213,1.923,-1.02,-2.951
2024-09-23 15:15:05.205,175189.677,0.489,0.853,0.182,0.043,0.008,-0.032,-0.037,0.142,-0.222,1.927,-1.022,-2.948
2024-09-23 15:15:05.215,175189.687,0.488,0.854,0.183,0.006,0.023,-0.069,-0.065,0.023,-0.06,1.929,-1.023,-2.946
2024-09-23 15:15:05.225,175189.697,0.488,0.853,0.184,-0.015,0.038,-0.049,-0.203,-0.026,0.001,1.931,-1.023,-2.944
2024-09-23 15:15:05.234,175189.707,0.488,0.853,0.185,0.002,-0.014,0.004,-0.209,-0.011,0.011,1.934,-1.022,-2.94
2024-09-23 15:15:05.245,175189.717,0.488,0.852,0.187,-0.023,-0.064,-0.001,-0.184,-0.02,0.086,1.937,-1.021,-2.937
2024-09-23 15:15:05.257,175189.727,0.489,0.852,0.189,-0.024,-0.006,-0.017,-0.214,0.038,0.111,1.939,-1.019,-2.934
2024-09-23 15:15:05.265,175189.737,0.49,0.851,0.191,0.011,0.03,-0.025,-0.21,0.059,0.071,1.942,-1.017,-2.931
2024-09-23 15:15:05.275,175189.746,0.49,0.85,0.193,-0.038,0.015,-0.019,-0.182,0.021,0.045,1.946,-1.016,-2.928
2024-09-23 15:15:05.285,175189.756,0.491,0.849,0.194,-0.041,0.031,0.015,-0.218,-0.058,0.08,1.948,-1.015,-2.925
2024-09-23 15:15:05.295,175189.766,0.492,0.848,0.196,-0.02,0.018,0.04,-0.314,-0.079,0.101,1.95,-1.013,-2.921
2024-09-23 15:15:05.305,175189.776,0.493,0.847,0.198,-0.013,-0.016,0.049,-0.381,-0.143,0.155,1.954,-1.01,-2.916
2024-09-23 15:15:05.315,175189.786,0.495,0.846,0.2,-0.023,-0.044,0.026,-0.252,-0.179,0.194,1.956,-1.008,-2.911
2024-09-23 15:15:05.325,175189.796,0.497,0.844,0.201,-0.019,-0.036,0.02,-0.065,-0.14,0.192,1.955,-1.005,-2.91
2024-09-23 15:15:05.335,175189.806,0.499,0.843,0.201,-0.003,0.015,-0.009,-0.056,-0.165,0.193,1.953,-1.003,-2.91
2024-09-23 15:15:05.345,175189.816,0.501,0.842,0.2,-0.003,0.056,-0.058,-0.169,-0.216,0.189,1.952,-1.001,-2.91
2024-09-23 15:15:05.355,175189.826,0.503,0.841,0.201,0.014,0.019,-0.035,-0.201,-0.222,0.188,1.951,-0.999,-2.908
2024-09-23 15:15:05.365,175189.836,0.505,0.84,0.202,0.031,-0.049,0.002,-0.217,-0.204,0.194,1.951,-0.996,-2.906
2024-09-23 15:15:05.375,175189.846,0.507,0.838,0.202,0.021,-0.029,-0.007,-0.218,-0.177,0.174,1.951,-0.994,-2.903
2024-09-23 15:15:05.386,175189.856,0.508,0.837,0.203,0.016,0.016,-0.017,-0.16,-0.158,0.163,1.951,-0.992,-2.901
2024-09-23 15:15:05.395,175189.866,0.51,0.836,0.204,0.001,0.018,-0.01,-0.217,-0.144,0.171,1.951,-0.989,-2.899
2024-09-23 15:15:05.405,175189.876,0.512,0.834,0.206,-0.014,0.018,0.001,-0.393,-0.138,0.199,1.953,-0.986,-2.895
2024-09-23 15:15:05.415,175189.886,0.514,0.832,0.209,-0.011,0.028,0.009,-0.531,-0.156,0.167,1.957,-0.983,-2.889
2024-09-23 15:15:05.425,175189.896,0.515,0.83,0.213,-0.005,0.01,0.022,-0.719,-0.15,0.17,1.963,-0.979,-2.88
2024-09-23 15:15:05.434,175189.906,0.517,0.827,0.219,-0.005,-0.017,0.036,-0.837,-0.115,0.164,1.972,-0.975,-2.868
2024-09-23 15:15:05.445,175189.916,0.518,0.825,0.225,-0.01,0.022,0.056,-0.712,-0.053,0.098,1.98,-0.97,-2.856
2024-09-23 15:15:05.455,175189.926,0.519,0.823,0.23,-0.008,0.006,0.011,-0.448,-0.014,0.046,1.988,-0.967,-2.847
2024-09-23 15:15:05.465,175189.936,0.519,0.822,0.233,-0.01,-0.027,-0.094,-0.261,0.034,-0.006,1.992,-0.966,-2.841
2024-09-23 15:15:05.475,175189.946,0.519,0.822,0.235,-0.005,0.014,-0.123,-0.281,0.044,-0.02,1.996,-0.965,-2.837
2024-09-23 15:15:05.485,175189.956,0.519,0.821,0.237,-0.01,0.023,-0.101,-0.211,0.019,-0.051,2.0,-0.964,-2.833
2024-09-23 15:15:05.495,175189.966,0.519,0.821,0.24,-0.004,-0.045,-0.057,-0.38,0.042,0.079,2.004,-0.963,-2.828
2024-09-23 15:15:05.505,175189.976,0.519,0.819,0.243,0.021,-0.095,-0.003,-0.384,0.066,0.052,2.009,-0.96,-2.823
2024-09-23 15:15:05.516,175189.986,0.519,0.818,0.247,0.051,-0.013,0.061,-0.39,0.085,0.033,2.014,-0.958,-2.818
2024-09-23 15:15:05.525,175189.996,0.519,0.817,0.25,0.034,0.036,0.059,-0.403,0.044,-0.07,2.02,-0.957,-2.811
2024-09-23 15:15:05.534,175190.006,0.518,0.817,0.254,0.005,0.063,-0.006,-0.449,0.026,-0.078,2.026,-0.956,-2.804
2024-09-23 15:15:05.544,175190.016,0.517,0.816,0.258,-0.012,-0.076,-0.049,-0.429,0.063,-0.098,2.033,-0.954,-2.797
2024-09-23 15:15:05.554,175190.026,0.516,0.815,0.262,-0.017,-0.071,-0.043,-0.469,0.068,-0.089,2.04,-0.953,-2.789
2024-09-23 15:15:05.564,175190.036,0.516,0.814,0.266,0.006,0.013,-0.05,-0.493,0.036,-0.067,2.047,-0.952,-2.781
2024-09-23 15:15:05.574,175190.046,0.515,0.814,0.27,0.006,-0.011,-0.053,-0.455,-0.0,-0.072,2.053,-0.95,-2.773
2024-09-23 15:15:05.584,175190.056,0.515,0.813,0.273,0.018,-0.049,0.004,-0.443,-0.025,-0.037,2.059,-0.949,-2.766
2024-09-23 15:15:05.594,175190.066,0.515,0.812,0.277,0.018,-0.007,0.044,-0.387,-0.048,-0.018,2.064,-0.947,-2.759
2024-09-23 15:15:05.605,175190.076,0.515,0.811,0.279,-0.001,0.034,0.083,-0.203,-0.084,0.023,2.067,-0.945,-2.755
2024-09-23 15:15:05.615,175190.086,0.515,0.81,0.279,-0.016,0.029,0.084,0.03,-0.096,0.015,2.067,-0.945,-2.754
2024-09-23 15:15:05.624,175190.096,0.516,0.811,0.278,-0.015,0.039,0.062,0.108,-0.087,0.035,2.065,-0.945,-2.755
2024-09-23 15:15:05.635,175190.106,0.516,0.811,0.277,-0.008,0.078,0.017,0.068,-0.079,0.013,2.063,-0.945,-2.757
2024-09-23 15:15:05.645,175190.116,0.516,0.811,0.276,-0.011,0.071,-0.035,0.004,-0.095,0.018,2.062,-0.945,-2.757
2024-09-23 15:15:05.654,175190.126,0.517,0.81,0.276,-0.018,-0.028,-0.072,-0.082,-0.115,0.012,2.061,-0.945,-2.757
2024-09-23 15:15:05.664,175190.136,0.517,0.81,0.276,-0.003,-0.041,-0.067,-0.19,-0.142,0.014,2.061,-0.944,-2.755
2024-09-23 15:15:05.675,175190.146,0.518,0.809,0.277,0.013,0.007,-0.032,-0.328,-0.127,0.002,2.063,-0.943,-2.751
2024-09-23 15:15:05.684,175190.156,0.518,0.808,0.28,0.016,0.009,-0.008,-0.385,-0.145,-0.015,2.066,-0.941,-2.745
2024-09-23 15:15:05.694,175190.166,0.519,0.807,0.283,0.014,0.012,0.012,-0.463,-0.084,0.026,2.07,-0.939,-2.739
2024-09-23 15:15:05.704,175190.176,0.519,0.806,0.286,-0.02,0.006,-0.027,-0.427,-0.047,0.04,2.074,-0.937,-2.733
2024-09-23 15:15:05.715,175190.186,0.519,0.804,0.29,0.002,-0.017,-0.004,-0.519,-0.013,0.062,2.079,-0.934,-2.726
2024-09-23 15:15:05.724,175190.196,0.52,0.802,0.294,-0.02,-0.003,0.0,-0.548,0.016,0.065,2.085,-0.931,-2.719
2024-09-23 15:15:05.734,175190.206,0.52,0.8,0.299,-0.018,-0.015,0.03,-0.589,0.019,0.04,2.092,-0.927,-2.711
2024-09-23 15:15:05.744,175190.216,0.521,0.798,0.303,-0.013,-0.034,0.032,-0.571,0.007,0.016,2.098,-0.924,-2.703
2024-09-23 15:15:05.754,175190.226,0.521,0.797,0.307,-0.005,0.005,0.029,-0.485,0.009,-0.011,2.104,-0.922,-2.696
2024-09-23 15:15:05.764,175190.236,0.52,0.795,0.311,0.014,0.014,0.007,-0.384,0.032,-0.015,2.11,-0.919,-2.689
2024-09-23 15:15:05.775,175190.246,0.52,0.794,0.314,0.015,0.001,-0.042,-0.299,0.041,-0.002,2.114,-0.918,-2.684
2024-09-23 15:15:05.784,175190.256,0.52,0.793,0.316,0.004,0.006,-0.081,-0.293,0.05,0.012,2.117,-0.916,-2.68
2024-09-23 15:15:05.794,175190.266,0.52,0.792,0.319,0.015,0.015,-0.074,-0.316,0.041,0.012,2.121,-0.915,-2.676
2024-09-23 15:15:05.804,175190.276,0.52,0.791,0.322,0.018,0.008,-0.04,-0.292,0.056,0.007,2.125,-0.913,-2.672
2024-09-23 15:15:05.814,175190.286,0.52,0.79,0.325,0.007,-0.009,0.002,-0.432,0.054,0.036,2.129,-0.911,-2.668
2024-09-23 15:15:05.824,175190.296,0.52,0.788,0.329,0.005,-0.013,0.02,-0.552,0.013,-0.007,2.134,-0.908,-2.661
2024-09-23 15:15:05.834,175190.306,0.52,0.787,0.333,-0.013,-0.019,0.003,-0.421,-0.001,0.03,2.14,-0.905,-2.654
2024-09-23 15:15:05.844,175190.316,0.52,0.785,0.335,-0.003,-0.1,-0.015,-0.198,0.013,0.027,2.143,-0.903,-2.65
2024-09-23 15:15:05.854,175190.326,0.52,0.785,0.336,0.033,-0.035,-0.047,-0.004,0.007,0.021,2.144,-0.903,-2.649
2024-09-23 15:15:05.864,175190.336,0.521,0.785,0.336,0.009,0.062,-0.062,0.091,0.003,0.027,2.143,-0.903,-2.65
2024-09-23 15:15:05.874,175190.345,0.521,0.785,0.335,0.005,0.068,-0.061,0.062,-0.009,0.055,2.142,-0.903,-2.651
2024-09-23 15:15:05.884,175190.355,0.521,0.785,0.335,0.007,0.043,-0.024,-0.054,-0.015,0.075,2.141,-0.902,-2.652
2024-09-23 15:15:05.894,175190.365,0.522,0.784,0.335,-0.0,0.022,0.024,-0.128,-0.033,0.095,2.142,-0.901,-2.652
2024-09-23 15:15:05.904,175190.375,0.523,0.783,0.337,-0.001,0.01,0.059,-0.229,-0.037,0.133,2.142,-0.899,-2.65
2024-09-23 15:15:05.914,175190.385,0.524,0.781,0.338,-0.008,-0.018,0.072,-0.325,-0.059,0.142,2.144,-0.897,-2.648
2024-09-23 15:15:05.924,175190.395,0.526,0.779,0.341,-0.005,-0.009,0.069,-0.385,-0.068,0.145,2.146,-0.894,-2.644
2024-09-23 15:15:05.934,175190.405,0.527,0.777,0.343,-0.005,-0.015,0.051,-0.338,-0.056,0.162,2.148,-0.89,-2.641
2024-09-23 15:15:05.944,175190.415,0.529,0.775,0.346,-0.009,-0.018,0.019,-0.28,-0.047,0.153,2.15,-0.887,-2.638
2024-09-23 15:15:05.954,175190.425,0.53,0.774,0.347,-0.013,0.006,-0.013,-0.25,-0.045,0.135,2.151,-0.885,-2.636
2024-09-23 15:15:05.964,175190.435,0.531,0.772,0.349,-0.011,0.032,-0.04,-0.318,-0.057,0.116,2.152,-0.882,-2.633
2024-09-23 15:15:05.974,175190.445,0.532,0.77,0.351,-0.008,0.042,-0.067,-0.378,-0.082,0.096,2.155,-0.879,-2.629
2024-09-23 15:15:05.984,175190.455,0.533,0.768,0.355,-0.014,0.029,-0.081,-0.5,-0.044,0.082,2.158,-0.876,-2.624
2024-09-23 15:15:05.994,175190.465,0.534,0.766,0.359,-0.009,-0.007,-0.069,-0.552,0.046,0.073,2.162,-0.873,-2.618
2024-09-23 15:15:06.004,175190.475,0.534,0.764,0.363,-0.006,-0.023,-0.042,-0.565,0.188,0.076,2.169,-0.869,-2.612
2024-09-23 15:15:06.014,175190.485,0.534,0.761,0.368,-0.022,-0.032,-0.029,-0.445,0.216,0.08,2.175,-0.865,-2.606
2024-09-23 15:15:06.024,175190.495,0.534,0.759,0.372,-0.031,-0.009,0.007,-0.287,0.117,0.094,2.18,-0.862,-2.602
2024-09-23 15:15:06.034,175190.505,0.534,0.758,0.374,-0.033,0.01,0.056,-0.057,0.111,0.092,2.182,-0.861,-2.601
2024-09-23 15:15:06.044,175190.515,0.534,0.758,0.374,-0.002,0.03,0.095,0.063,0.082,0.131,2.182,-0.86,-2.602
2024-09-23 15:15:06.053,175190.525,0.535,0.758,0.374,0.025,0.049,0.053,0.16,0.091,0.101,2.181,-0.86,-2.604
2024-09-23 15:15:06.064,175190.535,0.535,0.758,0.373,0.012,0.053,-0.005,0.18,0.098,0.102,2.179,-0.86,-2.607
2024-09-23 15:15:06.074,175190.545,0.536,0.758,0.372,-0.007,0.03,-0.01,0.136,0.074,0.087,2.178,-0.86,-2.61
2024-09-23 15:15:06.083,175190.555,0.536,0.758,0.372,0.004,-0.013,-0.023,0.102,0.031,0.063,2.177,-0.86,-2.613
2024-09-23 15:15:06.094,175190.565,0.537,0.758,0.372,0.007,-0.036,0.003,-0.054,-0.007,0.057,2.176,-0.86,-2.613
2024-09-23 15:15:06.103,175190.575,0.537,0.757,0.372,0.011,-0.056,0.025,-0.163,-0.046,0.018,2.177,-0.859,-2.612
2024-09-23 15:15:06.113,175190.585,0.537,0.756,0.373,0.026,-0.06,0.007,-0.176,-0.053,-0.015,2.178,-0.858,-2.61
2024-09-23 15:15:06.123,175190.595,0.537,0.756,0.374,0.037,-0.045,-0.024,-0.159,-0.024,-0.028,2.179,-0.857,-2.608
2024-09-23 15:15:06.133,175190.605,0.537,0.755,0.375,0.037,-0.024,-0.051,-0.154,-0.013,-0.033,2.181,-0.856,-2.606
2024-09-23 15:15:06.143,175190.615,0.537,0.755,0.377,0.023,-0.02,-0.062,-0.193,-0.019,-0.006,2.183,-0.856,-2.603
2024-09-23 15:15:06.154,175190.625,0.537,0.754,0.378,0.005,-0.028,-0.064,-0.202,-0.014,0.028,2.184,-0.854,-2.601
2024-09-23 15:15:06.164,175190.635,0.537,0.753,0.379,0.005,-0.001,-0.03,-0.12,0.006,0.023,2.186,-0.853,-2.599
2024-09-23 15:15:06.173,175190.645,0.537,0.753,0.38,0.015,0.009,-0.008,0.026,-0.015,0.009,2.186,-0.853,-2.599
2024-09-23 15:15:06.183,175190.655,0.538,0.753,0.379,0.008,0.04,-0.016,0.016,-0.006,0.05,2.185,-0.853,-2.6
2024-09-23 15:15:06.193,175190.665,0.538,0.753,0.379,-0.019,0.062,-0.027,-0.097,0.003,0.064,2.185,-0.852,-2.6
2024-09-23 15:15:06.203,175190.675,0.538,0.752,0.381,-0.012,0.01,-0.017,-0.219,0.085,0.03,2.186,-0.851,-2.599
2024-09-23 15:15:06.213,175190.685,0.538,0.751,0.383,0.023,0.008,0.011,-0.236,0.096,0.059,2.189,-0.849,-2.596
2024-09-23 15:15:06.223,175190.695,0.539,0.75,0.385,-0.037,0.016,0.012,-0.171,0.105,0.038,2.191,-0.847,-2.594
2024-09-23 15:15:06.233,175190.705,0.539,0.749,0.386,-0.049,-0.057,0.016,-0.092,0.085,0.069,2.193,-0.846,-2.593
2024-09-23 15:15:06.244,175190.715,0.539,0.748,0.387,-0.012,-0.048,0.023,-0.048,0.048,0.078,2.194,-0.845,-2.593
2024-09-23 15:15:06.253,175190.725,0.539,0.748,0.387,-0.008,-0.045,0.037,0.014,0.081,0.047,2.194,-0.845,-2.594
2024-09-23 15:15:06.264,175190.735,0.539,0.748,0.387,0.008,-0.03,0.045,0.073,0.092,0.029,2.194,-0.845,-2.594
2024-09-23 15:15:06.273,175190.745,0.539,0.748,0.387,-0.024,0.038,0.015,0.16,0.099,0.013,2.194,-0.845,-2.596
2024-09-23 15:15:06.284,175190.755,0.538,0.749,0.387,-0.046,0.023,0.001,0.107,0.147,-0.004,2.193,-0.846,-2.598
2024-09-23 15:15:06.293,175190.765,0.538,0.749,0.387,-0.013,0.028,-0.006,-0.07,0.161,-0.021,2.195,-0.846,-2.598
2024-09-23 15:15:06.303,175190.775,0.537,0.749,0.389,-0.003,0.04,-0.029,-0.191,0.138,-0.047,2.198,-0.846,-2.596
2024-09-23 15:15:06.313,175190.785,0.536,0.748,0.392,-0.015,-0.046,-0.044,-0.246,0.13,-0.073,2.202,-0.845,-2.593
2024-09-23 15:15:06.323,175190.795,0.535,0.748,0.394,0.002,-0.119,-0.037,-0.247,0.115,-0.1,2.206,-0.844,-2.589
2024-09-23 15:15:06.333,175190.805,0.534,0.747,0.396,0.022,-0.082,-0.009,-0.217,0.089,-0.098,2.21,-0.844,-2.585
2024-09-23 15:15:06.343,175190.815,0.532,0.747,0.398,0.019,-0.041,0.012,-0.08,0.065,-0.119,2.213,-0.844,-2.582
2024-09-23 15:15:06.353,175190.825,0.531,0.748,0.398,0.022,-0.025,0.029,0.088,0.073,-0.137,2.214,-0.845,-2.581
2024-09-23 15:15:06.363,175190.835,0.53,0.749,0.397,0.027,0.009,0.022,0.276,0.069,-0.14,2.214,-0.847,-2.582
2024-09-23 15:15:06.373,175190.845,0.528,0.751,0.395,0.013,0.033,-0.007,0.415,0.081,-0.14,2.213,-0.85,-2.585
2024-09-23 15:15:06.383,175190.855,0.527,0.754,0.393,0.008,0.021,-0.033,0.369,0.096,-0.147,2.211,-0.854,-2.589
2024-09-23 15:15:06.393,175190.865,0.526,0.756,0.391,0.009,0.032,-0.055,0.194,0.108,-0.144,2.21,-0.857,-2.591
2024-09-23 15:15:06.403,175190.875,0.524,0.757,0.391,0.006,0.008,-0.057,-0.041,0.096,-0.16,2.212,-0.858,-2.591
2024-09-23 15:15:06.413,175190.885,0.523,0.757,0.391,0.017,-0.052,-0.036,0.056,0.065,-0.128,2.213,-0.859,-2.589
2024-09-23 15:15:06.423,175190.895,0.522,0.758,0.391,0.017,-0.053,-0.015,0.107,0.061,-0.099,2.214,-0.861,-2.589
2024-09-23 15:15:06.433,175190.905,0.521,0.759,0.391,0.019,-0.028,0.013,0.106,0.054,-0.102,2.214,-0.862,-2.59
2024-09-23 15:15:06.443,175190.915,0.52,0.76,0.39,0.033,0.054,0.029,0.138,0.028,-0.047,2.214,-0.863,-2.59
2024-09-23 15:15:06.453,175190.925,0.52,0.761,0.389,-0.01,0.045,0.066,0.071,0.021,-0.04,2.214,-0.864,-2.591
2024-09-23 15:15:06.463,175190.935,0.519,0.761,0.389,-0.009,0.043,0.077,0.006,0.019,-0.029,2.214,-0.865,-2.592
2024-09-23 15:15:06.473,175190.944,0.519,0.761,0.389,-0.001,0.063,0.075,-0.0,0.06,-0.016,2.214,-0.865,-2.591
2024-09-23 15:15:06.483,175190.954,0.519,0.761,0.39,-0.027,-0.011,0.034,-0.131,0.045,0.006,2.215,-0.865,-2.591
2024-09-23 15:15:06.493,175190.964,0.519,0.76,0.391,-0.031,-0.03,-0.022,-0.094,-0.004,-0.004,2.216,-0.864,-2.589
2024-09-23 15:15:06.503,175190.974,0.519,0.76,0.391,-0.009,-0.042,-0.027,0.126,-0.0,-0.006,2.216,-0.864,-2.589
2024-09-23 15:15:06.513,175190.984,0.519,0.761,0.389,0.016,-0.053,0.006,0.215,0.0,0.002,2.215,-0.865,-2.592
2024-09-23 15:15:06.523,175190.994,0.519,0.762,0.388,0.009,0.018,0.019,0.273,-0.017,0.012,2.212,-0.866,-2.595
2024-09-23 15:15:06.533,175191.004,0.519,0.763,0.385,-0.011,0.04,0.022,0.427,0.03,0.021,2.209,-0.868,-2.599
2024-09-23 15:15:06.544,175191.014,0.519,0.765,0.382,-0.006,0.041,0.022,0.326,-0.022,0.012,2.205,-0.87,-2.604
2024-09-23 15:15:06.553,175191.024,0.519,0.766,0.379,-0.023,0.089,-0.029,0.38,-0.009,-0.018,2.202,-0.872,-2.608
2024-09-23 15:15:06.563,175191.034,0.519,0.768,0.376,0.011,0.058,-0.024,0.403,-0.008,-0.024,2.198,-0.875,-2.613
2024-09-23 15:15:06.573,175191.044,0.519,0.769,0.373,-0.005,-0.005,-0.023,0.345,-0.022,-0.075,2.195,-0.878,-2.617
2024-09-23 15:15:06.583,175191.054,0.518,0.771,0.371,-0.015,-0.017,-0.047,0.288,-0.029,-0.08,2.192,-0.88,-2.62
2024-09-23 15:15:06.593,175191.064,0.518,0.772,0.369,0.016,-0.059,-0.031,0.279,-0.067,-0.082,2.189,-0.882,-2.623
2024-09-23 15:15:06.603,175191.074,0.517,0.774,0.366,0.023,-0.061,-0.006,0.347,-0.109,-0.081,2.186,-0.885,-2.626
2024-09-23 15:15:06.613,175191.084,0.517,0.776,0.362,0.021,-0.037,0.021,0.475,-0.163,-0.075,2.181,-0.888,-2.631
2024-09-23 15:15:06.623,175191.094,0.517,0.778,0.357,0.023,-0.029,0.046,0.561,-0.19,-0.065,2.175,-0.891,-2.637
2024-09-23 15:15:06.633,175191.104,0.518,0.78,0.351,0.027,0.011,0.074,0.722,-0.182,-0.025,2.167,-0.895,-2.645
2024-09-23 15:15:06.643,175191.114,0.518,0.783,0.344,0.013,0.035,0.108,0.801,-0.132,0.024,2.157,-0.899,-2.655
2024-09-23 15:15:06.653,175191.124,0.519,0.785,0.338,-0.017,0.035,0.105,0.705,-0.196,0.006,2.148,-0.903,-2.665
2024-09-23 15:15:06.663,175191.134,0.52,0.788,0.33,-0.011,0.025,0.06,0.831,-0.181,-0.011,2.137,-0.908,-2.676
2024-09-23 15:15:06.673,175191.144,0.52,0.791,0.324,0.012,-0.053,0.045,0.59,-0.072,-0.028,2.128,-0.912,-2.686
2024-09-23 15:15:06.682,175191.154,0.52,0.792,0.32,0.01,-0.031,-0.021,0.195,-0.091,-0.042,2.123,-0.914,-2.691
2024-09-23 15:15:06.693,175191.164,0.52,0.792,0.319,-0.017,-0.008,-0.064,-0.09,-0.098,-0.046,2.122,-0.915,-2.692
2024-09-23 15:15:06.703,175191.174,0.52,0.792,0.32,-0.001,-0.155,-0.024,-0.138,-0.06,-0.054,2.123,-0.915,-2.689
2024-09-23 15:15:06.713,175191.184,0.519,0.792,0.321,0.011,-0.053,-0.008,-0.031,-0.041,-0.057,2.124,-0.914,-2.688
2024-09-23 15:15:06.723,175191.194,0.519,0.793,0.32,-0.006,0.066,-0.006,0.11,-0.034,-0.077,2.123,-0.915,-2.688
2024-09-23 15:15:06.732,175191.204,0.518,0.794,0.319,-0.005,0.052,-0.02,0.138,-0.052,-0.076,2.122,-0.917,-2.689
2024-09-23 15:15:06.743,175191.214,0.518,0.794,0.317,0.003,0.015,-0.04,0.193,-0.03,-0.067,2.12,-0.918,-2.69
2024-09-23 15:15:06.753,175191.224,0.517,0.795,0.316,0.002,-0.034,-0.019,0.182,0.007,-0.105,2.119,-0.92,-2.692
2024-09-23 15:15:06.762,175191.234,0.516,0.797,0.314,0.009,-0.043,-0.009,0.176,-0.003,-0.176,2.118,-0.922,-2.694
2024-09-23 15:15:06.772,175191.244,0.515,0.798,0.313,-0.004,-0.002,-0.046,0.223,0.008,-0.223,2.117,-0.925,-2.695
2024-09-23 15:15:06.783,175191.254,0.513,0.8,0.311,-0.005,-0.036,-0.083,0.135,0.041,-0.144,2.116,-0.927,-2.696
2024-09-23 15:15:06.794,175191.264,0.512,0.801,0.311,0.003,-0.062,-0.088,0.001,0.125,-0.064,2.117,-0.928,-2.696
2024-09-23 15:15:06.803,175191.274,0.511,0.801,0.312,0.016,-0.017,-0.036,-0.101,0.13,-0.065,2.119,-0.929,-2.695
2024-09-23 15:15:06.812,175191.284,0.51,0.801,0.314,0.012,0.059,-0.011,-0.17,0.031,-0.122,2.122,-0.929,-2.692
2024-09-23 15:15:06.823,175191.294,0.509,0.801,0.316,-0.029,0.081,-0.023,-0.251,0.019,-0.069,2.125,-0.928,-2.688
2024-09-23 15:15:06.832,175191.304,0.508,0.8,0.318,-0.006,-0.091,0.037,-0.214,0.079,-0.096,2.129,-0.928,-2.684
2024-09-23 15:15:06.843,175191.314,0.508,0.8,0.32,0.033,-0.106,0.099,-0.241,0.107,-0.047,2.133,-0.927,-2.681
2024-09-23 15:15:06.852,175191.324,0.507,0.8,0.322,0.016,0.013,0.067,-0.167,0.107,-0.059,2.137,-0.927,-2.677
2024-09-23 15:15:06.863,175191.334,0.506,0.8,0.323,-0.002,0.026,0.022,0.036,0.126,-0.058,2.139,-0.927,-2.676
2024-09-23 15:15:06.872,175191.344,0.505,0.8,0.323,0.005,0.032,0.016,0.276,0.153,-0.026,2.139,-0.928,-2.678
2024-09-23 15:15:06.882,175191.354,0.505,0.802,0.32,0.001,0.093,0.03,0.582,0.139,-0.004,2.136,-0.93,-2.683
2024-09-23 15:15:06.892,175191.364,0.504,0.804,0.315,-0.012,0.117,0.072,0.855,0.134,0.004,2.129,-0.934,-2.694
2024-09-23 15:15:06.902,175191.374,0.504,0.807,0.308,-0.016,0.074,0.097,1.037,0.123,0.005,2.119,-0.939,-2.708
2024-09-23 15:15:06.912,175191.384,0.504,0.81,0.3,-0.015,0.027,0.079,1.115,0.1,-0.011,2.107,-0.945,-2.723
2024-09-23 15:15:06.923,175191.394,0.503,0.814,0.291,-0.013,0.001,0.054,1.229,0.089,-0.053,2.095,-0.951,-2.74
2024-09-23 15:15:06.932,175191.404,0.502,0.818,0.28,0.002,-0.003,0.024,1.416,0.081,-0.096,2.08,-0.958,-2.759
2024-09-23 15:15:06.942,175191.414,0.501,0.823,0.268,0.003,0.018,-0.006,1.638,0.054,-0.143,2.062,-0.966,-2.782
2024-09-23 15:15:06.952,175191.424,0.5,0.828,0.254,-0.014,0.046,-0.03,1.849,0.079,-0.199,2.041,-0.976,-2.808
2024-09-23 15:15:06.962,175191.434,0.497,0.834,0.238,-0.021,0.068,-0.027,2.078,0.058,-0.23,2.017,-0.987,-2.838
2024-09-23 15:15:06.972,175191.444,0.496,0.84,0.221,-0.016,0.057,-0.018,2.045,-0.032,-0.219,1.99,-0.997,-2.871
2024-09-23 15:15:06.982,175191.454,0.494,0.845,0.205,-0.023,0.005,-0.016,1.652,-0.079,-0.179,1.964,-1.006,-2.901
2024-09-23 15:15:06.992,175191.464,0.493,0.849,0.192,0.025,-0.056,0.05,1.35,-0.047,-0.226,1.942,-1.014,-2.925
2024-09-23 15:15:07.002,175191.474,0.491,0.852,0.181,0.054,-0.149,0.063,1.118,-0.031,-0.132,1.924,-1.02,-2.946
2024-09-23 15:15:07.012,175191.484,0.49,0.855,0.172,0.014,-0.202,0.021,1.035,-0.062,-0.245,1.908,-1.025,-2.951
2024-09-23 15:15:07.022,175191.494,0.487,0.858,0.163,-0.044,-0.054,0.028,0.938,0.038,-0.246,1.894,-1.031,-2.954
2024-09-23 15:15:07.032,175191.504,0.485,0.86,0.156,-0.061,0.02,0.035,0.874,0.145,-0.23,1.882,-1.036,-2.97
2024-09-23 15:15:07.043,175191.514,0.483,0.862,0.15,-0.035,0.076,-0.009,0.573,0.112,-0.138,1.872,-1.04,-2.982
2024-09-23 15:15:07.053,175191.524,0.482,0.864,0.147,-0.014,0.041,-0.039,0.249,0.066,-0.127,1.867,-1.042,-2.989
2024-09-23 15:15:07.062,175191.534,0.481,0.865,0.146,-0.042,-0.062,0.021,0.178,-0.041,-0.272,1.865,-1.045,-2.992
2024-09-23 15:15:07.072,175191.543,0.478,0.866,0.143,-0.005,-0.111,0.068,0.323,-0.062,-0.235,1.862,-1.048,-2.995
2024-09-23 15:15:07.082,175191.553,0.477,0.868,0.14,0.032,-0.087,0.075,0.317,0.032,-0.152,1.857,-1.051,-3.0
2024-09-23 15:15:07.092,175191.563,0.475,0.869,0.138,0.054,0.001,0.072,0.324,0.01,-0.162,1.853,-1.053,-3.006
2024-09-23 15:15:07.102,175191.573,0.474,0.87,0.135,0.051,0.064,0.031,0.342,-0.017,-0.099,1.848,-1.055,-3.011
2024-09-23 15:15:07.112,175191.583,0.473,0.871,0.132,0.019,0.024,0.01,0.3,-0.091,-0.093,1.842,-1.057,-3.017
2024-09-23 15:15:07.122,175191.593,0.473,0.872,0.129,0.034,-0.012,0.004,0.14,-0.101,-0.089,1.838,-1.059,-3.021
2024-09-23 15:15:07.132,175191.603,0.472,0.872,0.128,0.055,-0.046,0.013,0.022,-0.117,-0.075,1.836,-1.06,-3.022
2024-09-23 15:15:07.142,175191.613,0.472,0.872,0.128,0.051,-0.042,-0.0,-0.109,-0.118,-0.047,1.836,-1.06,-3.021
2024-09-23 15:15:07.152,175191.623,0.471,0.873,0.129,0.022,-0.041,-0.021,-0.163,-0.113,-0.084,1.837,-1.06,-3.018
2024-09-23 15:15:07.162,175191.633,0.471,0.873,0.129,0.011,-0.058,-0.008,-0.15,-0.121,-0.087,1.839,-1.061,-3.014
2024-09-23 15:15:07.172,175191.643,0.47,0.873,0.13,0.002,-0.05,0.016,-0.096,-0.135,-0.09,1.841,-1.061,-3.011
2024-09-23 15:15:07.182,175191.653,0.47,0.873,0.13,-0.007,-0.017,0.045,-0.06,-0.13,-0.096,1.841,-1.062,-3.01
2024-09-23 15:15:07.192,175191.663,0.469,0.874,0.13,0.005,0.016,0.03,-0.059,-0.177,-0.094,1.841,-1.063,-3.008
2024-09-23 15:15:07.202,175191.673,0.468,0.874,0.13,0.01,0.02,-0.005,-0.165,-0.204,-0.053,1.841,-1.063,-3.005
2024-09-23 15:15:07.212,175191.683,0.468,0.874,0.131,0.003,0.004,-0.03,-0.168,-0.179,-0.14,1.843,-1.063,-3.001
2024-09-23 15:15:07.222,175191.693,0.467,0.875,0.13,0.012,0.007,-0.045,0.161,-0.04,-0.115,1.843,-1.065,-3.0
2024-09-23 15:15:07.232,175191.703,0.467,0.875,0.128,0.007,-0.016,-0.043,0.249,0.078,0.108,1.838,-1.065,-3.005
2024-09-23 15:15:07.242,175191.713,0.467,0.875,0.128,-0.025,-0.015,-0.072,-0.01,0.071,-0.007,1.837,-1.065,-3.008
2024-09-23 15:15:07.252,175191.723,0.467,0.875,0.128,-0.04,0.077,-0.055,-0.144,-0.06,0.028,1.839,-1.065,-3.006
2024-09-23 15:15:07.262,175191.733,0.468,0.874,0.13,-0.004,0.003,0.032,-0.329,-0.065,0.073,1.842,-1.064,-3.002
2024-09-23 15:15:07.272,175191.743,0.469,0.873,0.133,0.046,-0.081,-0.002,-0.499,-0.049,0.039,1.848,-1.062,-2.994
2024-09-23 15:15:07.282,175191.753,0.469,0.872,0.138,0.008,0.01,-0.021,-0.54,-0.042,0.071,1.856,-1.06,-2.984
2024-09-23 15:15:07.292,175191.763,0.47,0.871,0.142,-0.035,0.006,-0.028,-0.591,-0.015,0.072,1.865,-1.058,-2.973
2024-09-23 15:15:07.302,175191.773,0.47,0.87,0.148,-0.012,-0.038,-0.03,-0.621,0.026,0.088,1.875,-1.055,-2.962
2024-09-23 15:15:07.312,175191.783,0.471,0.869,0.153,-0.004,-0.009,-0.016,-0.627,0.086,0.101,1.886,-1.052,-2.95
2024-09-23 15:15:07.322,175191.793,0.472,0.867,0.159,-0.006,-0.006,-0.017,-0.591,0.227,0.106,1.897,-1.049,-2.939
2024-09-23 15:15:07.332,175191.803,0.472,0.866,0.165,-0.01,0.002,-0.01,-0.447,0.238,0.034,1.907,-1.047,-2.93
2024-09-23 15:15:07.342,175191.813,0.472,0.865,0.17,-0.019,0.027,-0.006,-0.375,0.227,0.02,1.916,-1.045,-2.923
2024-09-23 15:15:07.352,175191.823,0.472,0.864,0.174,-0.002,0.042,0.002,-0.492,0.185,-0.008,1.925,-1.044,-2.915
2024-09-23 15:15:07.362,175191.833,0.471,0.863,0.18,0.028,0.03,0.021,-0.796,0.047,-0.008,1.936,-1.042,-2.903
2024-09-23 15:15:07.372,175191.843,0.472,0.862,0.187,0.023,-0.024,0.037,-0.82,-0.057,0.078,1.949,-1.038,-2.888
2024-09-23 15:15:07.382,175191.853,0.472,0.86,0.194,0.022,-0.071,0.038,-0.782,-0.025,0.034,1.96,-1.035,-2.874
2024-09-23 15:15:07.392,175191.863,0.473,0.858,0.201,-0.008,-0.051,-0.042,-0.944,-0.122,0.085,1.973,-1.031,-2.859
2024-09-23 15:15:07.401,175191.873,0.474,0.855,0.209,-0.042,0.037,-0.064,-1.042,-0.112,0.074,1.986,-1.026,-2.842
2024-09-23 15:15:07.411,175191.883,0.475,0.853,0.217,-0.002,0.011,-0.088,-1.003,-0.069,0.073,2.0,-1.021,-2.825
2024-09-23 15:15:07.421,175191.893,0.475,0.851,0.225,-0.011,-0.066,-0.075,-0.804,-0.02,0.061,2.012,-1.017,-2.81
2024-09-23 15:15:07.432,175191.903,0.476,0.848,0.231,-0.033,0.028,-0.033,-0.751,-0.06,0.113,2.023,-1.013,-2.797
2024-09-23 15:15:07.442,175191.913,0.477,0.846,0.237,-0.022,0.059,0.003,-0.813,-0.078,0.121,2.032,-1.008,-2.785
2024-09-23 15:15:07.451,175191.923,0.479,0.843,0.244,-0.007,-0.009,0.036,-0.905,-0.079,0.143,2.043,-1.003,-2.772
2024-09-23 15:15:07.461,175191.933,0.48,0.84,0.252,-0.016,-0.102,0.051,-0.98,-0.082,0.147,2.054,-0.998,-2.757
2024-09-23 15:15:07.471,175191.943,0.482,0.837,0.26,-0.018,-0.058,0.023,-1.059,-0.093,0.153,2.066,-0.992,-2.742
2024-09-23 15:15:07.481,175191.953,0.483,0.833,0.268,-0.009,-0.002,-0.013,-1.04,-0.136,0.126,2.078,-0.985,-2.727
2024-09-23 15:15:07.491,175191.963,0.484,0.83,0.276,-0.01,-0.011,-0.022,-0.87,-0.121,0.118,2.088,-0.98,-2.713
2024-09-23 15:15:07.501,175191.973,0.486,0.827,0.282,-0.007,-0.003,-0.043,-0.836,-0.147,0.17,2.097,-0.974,-2.701
2024-09-23 15:15:07.511,175191.983,0.488,0.824,0.288,-0.013,0.026,-0.081,-0.786,-0.092,0.18,2.104,-0.969,-2.69
2024-09-23 15:15:07.521,175191.993,0.49,0.821,0.294,0.008,0.095,-0.064,-0.796,-0.073,0.23,2.112,-0.963,-2.68
2024-09-23 15:15:07.531,175192.003,0.492,0.817,0.301,-0.009,0.083,-0.056,-0.888,-0.041,0.216,2.12,-0.957,-2.67
2024-09-23 15:15:07.542,175192.013,0.494,0.813,0.308,-0.008,0.077,-0.025,-1.053,-0.034,0.204,2.129,-0.95,-2.647
2024-09-23 15:15:07.551,175192.023,0.495,0.809,0.317,-0.002,0.053,-0.007,-1.066,-0.03,0.164,2.14,-0.942,-2.622
2024-09-23 15:15:07.563,175192.033,0.496,0.805,0.325,0.002,0.001,0.014,-1.065,-0.048,0.142,2.151,-0.935,-2.599
2024-09-23 15:15:07.572,175192.043,0.498,0.801,0.334,0.001,-0.016,0.012,-1.062,-0.064,0.112,2.161,-0.928,-2.575
2024-09-23 15:15:07.581,175192.053,0.499,0.797,0.342,-0.007,-0.007,-0.016,-1.006,-0.056,0.077,2.171,-0.922,-2.561
2024-09-23 15:15:07.591,175192.063,0.499,0.793,0.349,-0.002,-0.069,-0.031,-0.919,-0.027,0.075,2.181,-0.916,-2.549
2024-09-23 15:15:07.601,175192.073,0.5,0.79,0.356,0.01,-0.063,-0.038,-0.887,-0.044,0.014,2.19,-0.91,-2.538
2024-09-23 15:15:07.611,175192.083,0.5,0.787,0.362,0.017,0.046,-0.022,-0.826,-0.028,-0.004,2.198,-0.905,-2.526
2024-09-23 15:15:07.621,175192.093,0.5,0.784,0.369,0.02,0.052,-0.007,-0.821,-0.014,-0.005,2.206,-0.9,-2.516
2024-09-23 15:15:07.631,175192.103,0.5,0.781,0.375,0.013,-0.017,-0.016,-0.749,-0.017,-0.032,2.214,-0.896,-2.505
2024-09-23 15:15:07.641,175192.113,0.5,0.778,0.38,0.006,-0.02,-0.014,-0.753,-0.03,-0.019,2.221,-0.892,-2.496
2024-09-23 15:15:07.651,175192.123,0.5,0.775,0.385,0.004,-0.028,-0.013,-0.591,-0.027,0.062,2.228,-0.887,-2.488
2024-09-23 15:15:07.661,175192.133,0.501,0.773,0.389,0.014,-0.02,0.005,-0.422,-0.038,0.042,2.232,-0.884,-2.482
2024-09-23 15:15:07.671,175192.142,0.501,0.772,0.392,0.016,-0.028,0.025,-0.271,-0.019,-0.034,2.235,-0.882,-2.477
2024-09-23 15:15:07.681,175192.152,0.5,0.771,0.394,0.015,0.077,0.007,-0.193,0.016,-0.018,2.237,-0.881,-2.474
2024-09-23 15:15:07.691,175192.162,0.5,0.771,0.395,0.007,0.06,0.001,-0.121,0.044,-0.019,2.239,-0.88,-2.472
2024-09-23 15:15:07.701,175192.172,0.5,0.77,0.396,-0.016,-0.043,-0.016,-0.087,0.067,-0.023,2.241,-0.879,-2.471
2024-09-23 15:15:07.711,175192.182,0.499,0.77,0.397,-0.013,0.011,-0.028,-0.036,0.065,-0.02,2.242,-0.879,-2.47
2024-09-23 15:15:07.721,175192.192,0.499,0.77,0.397,-0.005,0.057,-0.039,0.064,0.043,-0.02,2.243,-0.879,-2.47
2024-09-23 15:15:07.731,175192.202,0.499,0.771,0.396,-0.019,0.038,-0.031,0.137,0.008,-0.013,2.242,-0.88,-2.471
2024-09-23 15:15:07.741,175192.212,0.499,0.771,0.395,-0.017,0.034,0.001,0.205,-0.03,0.015,2.241,-0.881,-2.473
2024-09-23 15:15:07.751,175192.222,0.499,0.772,0.393,-0.009,0.009,0.033,0.24,-0.058,0.021,2.238,-0.882,-2.476
2024-09-23 15:15:07.761,175192.232,0.5,0.773,0.391,-0.007,0.022,0.044,0.24,-0.075,0.026,2.235,-0.884,-2.479
2024-09-23 15:15:07.771,175192.242,0.5,0.774,0.389,-0.006,0.041,0.033,0.217,-0.065,0.051,2.231,-0.885,-2.482
2024-09-23 15:15:07.781,175192.252,0.501,0.774,0.387,-0.002,0.009,0.017,0.14,-0.064,0.052,2.229,-0.885,-2.485
2024-09-23 15:15:07.791,175192.262,0.502,0.774,0.386,-0.008,0.009,0.003,-0.021,-0.071,0.059,2.227,-0.885,-2.486
2024-09-23 15:15:07.801,175192.272,0.502,0.774,0.386,-0.011,0.02,-0.007,-0.148,-0.075,0.06,2.227,-0.884,-2.486
2024-09-23 15:15:07.811,175192.282,0.503,0.773,0.388,-0.007,-0.003,0.001,-0.264,-0.076,0.072,2.227,-0.883,-2.484
2024-09-23 15:15:07.821,175192.292,0.504,0.771,0.39,-0.013,-0.008,0.017,-0.4,-0.077,0.078,2.229,-0.88,-2.48
2024-09-23 15:15:07.831,175192.302,0.505,0.769,0.393,-0.015,-0.011,0.024,-0.422,-0.136,0.071,2.232,-0.877,-2.476
2024-09-23 15:15:07.841,175192.312,0.505,0.767,0.395,-0.007,-0.039,0.016,-0.359,-0.085,-0.017,2.235,-0.874,-2.471
2024-09-23 15:15:07.851,175192.322,0.505,0.766,0.397,0.006,-0.048,0.002,-0.312,-0.088,0.02,2.237,-0.873,-2.467
2024-09-23 15:15:07.861,175192.332,0.506,0.765,0.399,-0.015,0.0,-0.038,-0.279,-0.114,-0.038,2.239,-0.871,-2.464
2024-09-23 15:15:07.871,175192.342,0.506,0.764,0.4,-0.023,-0.021,-0.061,-0.229,-0.049,-0.032,2.241,-0.87,-2.46
2024-09-23 15:15:07.881,175192.352,0.506,0.764,0.402,0.03,-0.027,-0.035,-0.155,-0.054,-0.002,2.242,-0.869,-2.458
2024-09-23 15:15:07.891,175192.362,0.506,0.763,0.402,0.011,0.049,-0.051,-0.069,-0.053,-0.014,2.243,-0.868,-2.456
2024-09-23 15:15:07.901,175192.372,0.506,0.763,0.402,-0.0,0.075,-0.039,-0.015,-0.044,0.013,2.243,-0.868,-2.456
2024-09-23 15:15:07.911,175192.382,0.506,0.763,0.402,0.016,0.077,0.003,-0.065,-0.017,0.031,2.242,-0.868,-2.455
2024-09-23 15:15:07.921,175192.392,0.506,0.762,0.403,-0.001,0.056,0.041,-0.129,-0.003,0.021,2.243,-0.867,-2.455
2024-09-23 15:15:07.930,175192.402,0.507,0.761,0.404,-0.008,-0.019,0.048,-0.205,-0.005,0.021,2.244,-0.865,-2.453
2024-09-23 15:15:07.941,175192.412,0.507,0.76,0.406,-0.004,-0.045,0.029,-0.236,-0.01,0.018,2.246,-0.864,-2.45
2024-09-23 15:15:07.951,175192.422,0.507,0.759,0.408,0.009,-0.032,0.021,-0.262,0.002,0.015,2.248,-0.862,-2.448
2024-09-23 15:15:07.960,175192.432,0.507,0.758,0.41,0.023,-0.007,0.011,-0.334,0.022,0.019,2.251,-0.86,-2.444
2024-09-23 15:15:07.970,175192.442,0.507,0.757,0.413,0.015,0.004,-0.013,-0.341,0.025,0.036,2.254,-0.858,-2.44
2024-09-23 15:15:07.980,175192.452,0.507,0.755,0.415,-0.007,-0.027,-0.032,-0.231,0.027,0.038,2.256,-0.856,-2.438
2024-09-23 15:15:07.990,175192.462,0.508,0.754,0.416,-0.011,-0.041,-0.042,-0.083,0.005,0.04,2.258,-0.855,-2.436
2024-09-23 15:15:08.000,175192.472,0.508,0.754,0.417,0.001,-0.037,-0.048,0.024,0.046,0.028,2.258,-0.854,-2.436
2024-09-23 15:15:08.011,175192.482,0.508,0.754,0.417,0.009,-0.016,-0.04,-0.053,0.014,0.016,2.258,-0.854,-2.436
2024-09-23 15:15:08.021,175192.492,0.508,0.754,0.417,-0.001,-0.001,-0.036,-0.051,-0.008,0.033,2.259,-0.854,-2.435
2024-09-23 15:15:08.030,175192.502,0.508,0.753,0.418,0.022,-0.021,-0.029,-0.05,0.006,0.01,2.259,-0.853,-2.435
2024-09-23 15:15:08.040,175192.512,0.508,0.753,0.418,0.052,-0.024,-0.034,-0.03,-0.009,0.013,2.259,-0.853,-2.435
2024-09-23 15:15:08.050,175192.522,0.508,0.753,0.418,0.01,0.016,-0.036,-0.074,-0.019,-0.002,2.26,-0.852,-2.434
2024-09-23 15:15:08.060,175192.532,0.508,0.752,0.419,0.007,-0.0,-0.018,-0.132,-0.034,-0.017,2.26,-0.852,-2.433
2024-09-23 15:15:08.070,175192.542,0.508,0.752,0.42,0.007,-0.016,0.003,-0.209,-0.057,-0.015,2.261,-0.851,-2.431
2024-09-23 15:15:08.081,175192.552,0.509,0.751,0.421,-0.012,-0.055,0.014,-0.284,-0.074,-0.011,2.263,-0.849,-2.428
2024-09-23 15:15:08.090,175192.562,0.509,0.75,0.423,-0.004,-0.045,0.027,-0.253,-0.084,0.003,2.264,-0.848,-2.425
2024-09-23 15:15:08.101,175192.572,0.509,0.749,0.424,0.003,-0.018,0.029,-0.326,-0.086,0.019,2.265,-0.846,-2.422
2024-09-23 15:15:08.110,175192.582,0.51,0.747,0.426,-0.001,-0.002,0.018,-0.346,-0.074,0.049,2.267,-0.843,-2.418
2024-09-23 15:15:08.120,175192.592,0.511,0.745,0.429,-0.003,0.039,0.028,-0.335,-0.052,0.068,2.269,-0.841,-2.415
2024-09-23 15:15:08.130,175192.602,0.512,0.744,0.43,-0.016,0.028,0.034,-0.267,-0.041,0.081,2.27,-0.838,-2.413
2024-09-23 15:15:08.141,175192.612,0.512,0.742,0.432,-0.022,0.022,0.028,-0.227,-0.029,0.079,2.271,-0.836,-2.411
2024-09-23 15:15:08.150,175192.622,0.513,0.741,0.434,-0.02,0.018,0.015,-0.261,-0.002,0.073,2.273,-0.834,-2.409
2024-09-23 15:15:08.160,175192.632,0.514,0.739,0.436,-0.013,0.016,-0.003,-0.282,0.034,0.072,2.275,-0.832,-2.406
2024-09-23 15:15:08.170,175192.642,0.514,0.737,0.438,-0.015,0.003,-0.008,-0.309,0.039,0.075,2.277,-0.829,-2.403
2024-09-23 15:15:08.180,175192.652,0.514,0.736,0.441,-0.02,0.016,-0.007,-0.191,0.122,0.089,2.279,-0.827,-2.401
2024-09-23 15:15:08.190,175192.662,0.514,0.735,0.442,-0.015,0.04,-0.006,0.064,0.186,0.08,2.281,-0.826,-2.401
2024-09-23 15:15:08.201,175192.672,0.514,0.735,0.442,-0.026,0.025,0.006,0.172,0.181,0.12,2.281,-0.826,-2.404
2024-09-23 15:15:08.209,175192.682,0.514,0.736,0.441,-0.04,0.038,-0.0,0.325,0.171,0.112,2.28,-0.827,-2.407
2024-09-23 15:15:08.220,175192.692,0.514,0.737,0.439,-0.007,0.051,0.0,0.377,0.134,0.095,2.278,-0.828,-2.412
2024-09-23 15:15:08.230,175192.702,0.514,0.738,0.437,0.04,0.018,0.016,0.405,0.119,0.083,2.276,-0.83,-2.418
2024-09-23 15:15:08.240,175192.712,0.514,0.739,0.435,0.033,-0.014,-0.028,0.36,0.085,0.073,2.273,-0.832,-2.423
2024-09-23 15:15:08.250,175192.722,0.514,0.74,0.433,0.014,-0.017,-0.046,0.205,0.083,0.067,2.271,-0.834,-2.427
2024-09-23 15:15:08.260,175192.732,0.514,0.741,0.432,0.03,-0.014,-0.035,0.091,0.055,0.022,2.27,-0.834,-2.429
2024-09-23 15:15:08.270,175192.741,0.514,0.741,0.432,0.03,-0.02,-0.02,-0.02,0.039,0.002,2.27,-0.834,-2.429
2024-09-23 15:15:08.280,175192.751,0.514,0.741,0.433,0.012,-0.028,-0.036,-0.012,0.035,-0.031,2.271,-0.834,-2.429
2024-09-23 15:15:08.290,175192.761,0.513,0.741,0.433,0.019,-0.031,-0.026,0.084,0.032,-0.042,2.271,-0.835,-2.429
2024-09-23 15:15:08.300,175192.771,0.513,0.742,0.432,0.018,-0.058,-0.026,0.154,0.021,-0.054,2.271,-0.836,-2.43
2024-09-23 15:15:08.310,175192.781,0.512,0.743,0.431,0.012,-0.052,-0.036,0.157,-0.004,-0.057,2.27,-0.837,-2.431
2024-09-23 15:15:08.320,175192.791,0.512,0.744,0.43,0.016,-0.025,-0.016,0.121,-0.016,-0.055,2.269,-0.839,-2.432
2024-09-23 15:15:08.330,175192.801,0.512,0.745,0.428,0.025,-0.013,0.016,0.172,-0.052,-0.048,2.267,-0.84,-2.433
2024-09-23 15:15:08.340,175192.811,0.512,0.745,0.427,0.024,-0.012,0.027,0.062,-0.008,0.005,2.266,-0.841,-2.435
2024-09-23 15:15:08.350,175192.821,0.512,0.745,0.428,-0.003,0.023,0.003,-0.2,0.006,0.027,2.266,-0.84,-2.434
2024-09-23 15:15:08.360,175192.831,0.512,0.744,0.429,-0.008,0.066,0.008,-0.09,0.093,0.031,2.268,-0.839,-2.433
2024-09-23 15:15:08.370,175192.841,0.512,0.744,0.43,-0.02,0.034,0.033,-0.026,0.073,0.051,2.269,-0.838,-2.433
2024-09-23 15:15:08.380,175192.851,0.513,0.743,0.43,-0.074,0.01,-0.021,0.018,0.016,0.052,2.269,-0.838,-2.433
2024-09-23 15:15:08.390,175192.861,0.513,0.743,0.43,-0.043,-0.043,0.006,0.048,-0.024,0.07,2.268,-0.838,-2.435
2024-09-23 15:15:08.400,175192.871,0.514,0.743,0.429,-0.006,-0.083,0.052,0.073,-0.042,0.092,2.266,-0.837,-2.436
2024-09-23 15:15:08.410,175192.881,0.515,0.743,0.428,-0.005,-0.064,0.079,0.076,-0.056,0.085,2.265,-0.837,-2.438
2024-09-23 15:15:08.420,175192.891,0.516,0.742,0.428,-0.002,-0.016,0.095,0.001,-0.049,0.06,2.263,-0.837,-2.439
2024-09-23 15:15:08.430,175192.901,0.516,0.742,0.428,0.011,0.026,0.064,-0.067,-0.041,0.046,2.263,-0.836,-2.439
2024-09-23 15:15:08.440,175192.911,0.517,0.741,0.428,-0.0,0.053,0.007,-0.09,-0.036,0.065,2.263,-0.835,-2.439
2024-09-23 15:15:08.450,175192.921,0.517,0.741,0.429,-0.023,0.034,-0.027,-0.127,-0.034,0.089,2.263,-0.834,-2.438
2024-09-23 15:15:08.460,175192.931,0.518,0.74,0.429,-0.022,0.021,-0.039,-0.093,-0.041,0.065,2.263,-0.833,-2.437
2024-09-23 15:15:08.470,175192.941,0.519,0.739,0.43,-0.011,-0.007,-0.046,-0.002,-0.055,0.069,2.263,-0.832,-2.437
2024-09-23 15:15:08.479,175192.951,0.519,0.739,0.429,-0.008,-0.006,-0.021,0.026,-0.067,0.054,2.262,-0.831,-2.438
2024-09-23 15:15:08.489,175192.961,0.52,0.739,0.429,-0.012,0.042,-0.012,0.066,-0.074,0.036,2.26,-0.831,-2.439
2024-09-23 15:15:08.499,175192.971,0.52,0.739,0.428,-0.005,0.008,-0.0,0.055,-0.049,0.027,2.259,-0.831,-2.44
2024-09-23 15:15:08.509,175192.981,0.521,0.739,0.428,0.005,-0.022,0.009,0.031,-0.04,0.008,2.258,-0.831,-2.44
2024-09-23 15:15:08.519,175192.991,0.521,0.739,0.427,0.004,-0.011,0.012,-0.0,-0.043,-0.011,2.258,-0.832,-2.44
2024-09-23 15:15:08.530,175193.001,0.521,0.739,0.427,0.008,-0.026,-0.011,0.012,-0.044,-0.031,2.257,-0.832,-2.44
2024-09-23 15:15:08.540,175193.011,0.521,0.739,0.427,0.019,-0.015,-0.035,-0.092,-0.038,-0.021,2.257,-0.832,-2.44
2024-09-23 15:15:08.549,175193.021,0.521,0.739,0.427,0.022,-0.003,-0.038,-0.035,-0.068,-0.032,2.258,-0.832,-2.439
2024-09-23 15:15:08.559,175193.031,0.521,0.739,0.427,0.009,0.025,-0.025,0.079,-0.076,-0.024,2.257,-0.832,-2.439
2024-09-23 15:15:08.569,175193.041,0.521,0.74,0.425,0.011,0.002,-0.002,0.108,-0.081,-0.046,2.256,-0.833,-2.439
2024-09-23 15:15:08.579,175193.051,0.521,0.74,0.425,0.017,0.022,0.002,-0.009,-0.183,-0.001,2.255,-0.833,-2.439
2024-09-23 15:15:08.590,175193.061,0.522,0.74,0.424,-0.001,-0.009,0.013,0.028,-0.081,-0.055,2.254,-0.834,-2.439
2024-09-23 15:15:08.600,175193.071,0.522,0.741,0.423,0.043,-0.05,0.036,0.107,-0.042,0.017,2.252,-0.834,-2.44
2024-09-23 15:15:08.609,175193.081,0.522,0.741,0.423,-0.012,0.033,0.058,0.015,-0.058,0.003,2.251,-0.834,-2.441
2024-09-23 15:15:08.619,175193.091,0.523,0.741,0.422,-0.045,-0.037,0.037,-0.018,-0.029,0.043,2.25,-0.834,-2.441
2024-09-23 15:15:08.630,175193.101,0.523,0.74,0.422,0.019,-0.066,0.011,0.007,-0.005,0.029,2.25,-0.834,-2.442
2024-09-23 15:15:08.640,175193.111,0.523,0.741,0.422,0.002,0.024,-0.015,0.102,-0.025,0.022,2.249,-0.834,-2.442
2024-09-23 15:15:08.650,175193.121,0.523,0.741,0.42,-0.03,0.061,-0.024,0.278,-0.019,-0.011,2.247,-0.835,-2.445
2024-09-23 15:15:08.660,175193.131,0.523,0.743,0.417,0.001,0.02,-0.021,0.442,0.031,-0.02,2.244,-0.837,-2.449
2024-09-23 15:15:08.669,175193.141,0.523,0.745,0.415,0.013,0.003,-0.016,0.37,0.049,-0.004,2.241,-0.84,-2.454
2024-09-23 15:15:08.678,175193.151,0.523,0.746,0.413,-0.019,0.015,-0.038,0.195,0.093,-0.016,2.24,-0.842,-2.457
2024-09-23 15:15:08.688,175193.161,0.522,0.746,0.413,-0.027,-0.015,-0.038,0.031,0.046,-0.001,2.24,-0.842,-2.458
2024-09-23 15:15:08.698,175193.171,0.522,0.746,0.413,-0.037,-0.03,-0.003,0.007,0.069,-0.05,2.24,-0.843,-2.457
2024-09-23 15:15:08.709,175193.181,0.521,0.747,0.413,0.014,-0.033,0.001,0.083,0.1,-0.054,2.241,-0.843,-2.457
2024-09-23 15:15:08.719,175193.191,0.52,0.747,0.413,0.016,-0.005,-0.002,0.066,0.081,-0.082,2.242,-0.844,-2.458
2024-09-23 15:15:08.729,175193.201,0.519,0.748,0.413,-0.016,-0.007,-0.024,0.012,0.064,-0.114,2.243,-0.845,-2.457
2024-09-23 15:15:08.739,175193.211,0.518,0.749,0.413,0.025,-0.028,-0.025,-0.008,0.068,-0.132,2.244,-0.846,-2.456
2024-09-23 15:15:08.749,175193.221,0.517,0.749,0.414,0.023,-0.028,-0.017,-0.015,0.05,-0.127,2.246,-0.847,-2.455
2024-09-23 15:15:08.759,175193.231,0.516,0.75,0.414,0.005,0.004,-0.009,0.001,-0.008,-0.127,2.247,-0.848,-2.454
2024-09-23 15:15:08.769,175193.241,0.515,0.751,0.413,0.007,-0.007,-0.002,0.046,-0.071,-0.121,2.247,-0.849,-2.453
2024-09-23 15:15:08.779,175193.251,0.514,0.752,0.413,0.022,-0.064,0.006,0.083,-0.11,-0.101,2.247,-0.851,-2.453
2024-09-23 15:15:08.789,175193.261,0.514,0.753,0.411,0.027,-0.04,0.034,0.119,-0.15,-0.081,2.245,-0.852,-2.453
2024-09-23 15:15:08.800,175193.271,0.515,0.754,0.409,0.023,-0.009,0.063,0.26,-0.146,-0.013,2.242,-0.853,-2.455
2024-09-23 15:15:08.809,175193.281,0.515,0.755,0.405,0.006,-0.003,0.09,0.492,-0.129,0.006,2.237,-0.856,-2.459
2024-09-23 15:15:08.819,175193.291,0.516,0.757,0.401,-0.014,0.045,0.093,0.474,-0.115,0.025,2.232,-0.859,-2.465
2024-09-23 15:15:08.829,175193.301,0.517,0.759,0.397,-0.022,0.111,0.052,0.402,-0.133,0.043,2.226,-0.861,-2.471
2024-09-23 15:15:08.840,175193.311,0.518,0.76,0.394,-0.016,0.056,0.012,0.354,-0.131,0.059,2.221,-0.863,-2.476
2024-09-23 15:15:08.850,175193.321,0.519,0.76,0.391,-0.018,-0.042,-0.009,0.179,-0.089,0.071,2.217,-0.864,-2.48
2024-09-23 15:15:08.859,175193.331,0.519,0.761,0.389,-0.021,-0.004,-0.016,0.071,-0.106,0.037,2.214,-0.864,-2.482
2024-09-23 15:15:08.869,175193.34,0.52,0.761,0.388,-0.035,0.032,0.001,0.102,-0.106,0.056,2.212,-0.864,-2.483
2024-09-23 15:15:08.879,175193.35,0.521,0.761,0.387,-0.006,-0.052,0.008,0.181,-0.044,0.064,2.21,-0.865,-2.486
2024-09-23 15:15:08.889,175193.36,0.522,0.761,0.386,0.009,-0.029,-0.016,0.135,-0.035,0.064,2.208,-0.865,-2.488
2024-09-23 15:15:08.899,175193.37,0.522,0.761,0.385,-0.021,0.061,-0.021,0.074,-0.069,0.056,2.206,-0.865,-2.49
2024-09-23 15:15:08.909,175193.38,0.523,0.761,0.383,-0.017,0.043,-0.004,0.21,-0.063,0.048,2.204,-0.866,-2.492
2024-09-23 15:15:08.919,175193.39,0.523,0.763,0.38,-0.001,-0.029,0.025,0.483,-0.045,0.024,2.2,-0.867,-2.496
2024-09-23 15:15:08.929,175193.4,0.523,0.765,0.376,-0.012,-0.018,0.021,0.595,-0.051,-0.039,2.194,-0.871,-2.503
2024-09-23 15:15:08.939,175193.41,0.523,0.767,0.372,-0.011,0.038,-0.007,0.483,-0.049,-0.107,2.189,-0.874,-2.51
2024-09-23 15:15:08.949,175193.42,0.522,0.769,0.368,0.02,-0.002,-0.028,0.359,-0.057,-0.122,2.185,-0.878,-2.514
2024-09-23 15:15:08.959,175193.43,0.522,0.771,0.366,0.004,-0.068,-0.042,0.165,0.005,-0.054,2.182,-0.88,-2.516
2024-09-23 15:15:08.970,175193.44,0.521,0.771,0.366,-0.013,-0.119,-0.026,-0.158,0.01,-0.052,2.183,-0.88,-2.516
2024-09-23 15:15:08.979,175193.45,0.521,0.77,0.368,0.014,-0.066,0.006,-0.338,-0.043,0.009,2.186,-0.879,-2.512
2024-09-23 15:15:08.989,175193.46,0.521,0.769,0.37,0.014,-0.005,0.031,-0.212,-0.023,-0.055,2.189,-0.877,-2.508
2024-09-23 15:15:08.999,175193.47,0.521,0.769,0.371,0.016,-0.018,-0.001,-0.133,0.027,-0.056,2.19,-0.877,-2.506
2024-09-23 15:15:09.009,175193.48,0.52,0.769,0.372,0.018,0.006,0.003,-0.034,0.096,-0.093,2.192,-0.877,-2.504
2024-09-23 15:15:09.019,175193.49,0.519,0.769,0.373,-0.012,0.04,0.022,-0.062,0.06,-0.07,2.194,-0.877,-2.503
2024-09-23 15:15:09.028,175193.5,0.518,0.769,0.374,-0.014,0.002,-0.012,-0.067,0.021,-0.073,2.196,-0.878,-2.501
2024-09-23 15:15:09.039,175193.51,0.518,0.769,0.374,0.02,-0.006,-0.012,-0.023,0.03,-0.081,2.197,-0.878,-2.5
2024-09-23 15:15:09.049,175193.52,0.517,0.77,0.374,0.018,0.026,0.023,0.046,0.012,-0.107,2.198,-0.879,-2.499
2024-09-23 15:15:09.058,175193.53,0.516,0.771,0.374,-0.015,0.045,0.005,0.081,-0.006,-0.08,2.198,-0.88,-2.499
2024-09-23 15:15:09.069,175193.54,0.516,0.771,0.373,-0.014,-0.044,-0.019,0.114,-0.016,-0.079,2.197,-0.881,-2.5
2024-09-23 15:15:09.078,175193.55,0.515,0.772,0.372,0.012,-0.084,-0.013,0.139,-0.031,-0.062,2.196,-0.882,-2.501
2024-09-23 15:15:09.088,175193.56,0.515,0.773,0.371,0.015,-0.038,-0.009,0.135,-0.036,-0.078,2.195,-0.884,-2.502
2024-09-23 15:15:09.099,175193.57,0.514,0.774,0.369,0.024,-0.011,-0.003,0.136,-0.053,-0.086,2.194,-0.885,-2.503
2024-09-23 15:15:09.109,175193.58,0.514,0.775,0.368,0.016,0.025,0.006,0.151,-0.069,-0.068,2.192,-0.887,-2.504
2024-09-23 15:15:09.118,175193.59,0.514,0.776,0.366,0.003,0.041,0.007,0.158,-0.055,-0.049,2.19,-0.888,-2.506
2024-09-23 15:15:09.129,175193.6,0.514,0.777,0.365,0.002,0.036,0.002,0.123,-0.078,-0.054,2.189,-0.889,-2.507
2024-09-23 15:15:09.139,175193.61,0.513,0.777,0.364,-0.004,0.037,-0.0,0.032,-0.007,-0.089,2.189,-0.89,-2.507
2024-09-23 15:15:09.148,175193.62,0.512,0.778,0.364,-0.011,0.01,-0.003,0.005,-0.036,-0.067,2.189,-0.891,-2.507
2024-09-23 15:15:09.158,175193.63,0.512,0.778,0.364,-0.034,-0.04,-0.026,0.028,-0.064,-0.114,2.189,-0.892,-2.506
2024-09-23 15:15:09.168,175193.64,0.511,0.779,0.363,-0.012,-0.068,-0.024,-0.009,-0.044,-0.113,2.189,-0.893,-2.505
2024-09-23 15:15:09.178,175193.65,0.511,0.779,0.364,0.03,-0.028,-0.012,-0.045,-0.034,-0.09,2.189,-0.893,-2.504
2024-09-23 15:15:09.189,175193.66,0.51,0.779,0.364,0.012,-0.003,-0.002,-0.054,-0.046,-0.057,2.19,-0.894,-2.502
2024-09-23 15:15:09.199,175193.67,0.51,0.779,0.364,-0.007,-0.021,-0.012,-0.074,-0.033,-0.079,2.191,-0.894,-2.501
2024-09-23 15:15:09.209,175193.68,0.509,0.779,0.365,0.007,0.029,0.013,-0.142,-0.026,-0.05,2.192,-0.894,-2.499
2024-09-23 15:15:09.218,175193.69,0.509,0.779,0.366,-0.029,0.056,0.028,-0.123,0.003,-0.051,2.194,-0.893,-2.497
2024-09-23 15:15:09.229,175193.7,0.509,0.779,0.366,-0.033,0.015,0.051,-0.06,0.056,-0.052,2.195,-0.893,-2.495
2024-09-23 15:15:09.238,175193.71,0.508,0.779,0.367,-0.007,0.002,0.046,-0.063,0.096,-0.042,2.197,-0.893,-2.494
2024-09-23 15:15:09.248,175193.72,0.507,0.779,0.368,-0.018,0.02,0.01,-0.041,0.077,-0.037,2.199,-0.893,-2.493
2024-09-23 15:15:09.258,175193.73,0.507,0.779,0.369,-0.011,-0.005,-0.014,-0.001,0.059,-0.039,2.2,-0.893,-2.492
2024-09-23 15:15:09.268,175193.74,0.506,0.779,0.369,0.012,-0.048,-0.039,-0.051,0.063,-0.035,2.201,-0.893,-2.492
2024-09-23 15:15:09.278,175193.75,0.506,0.779,0.37,0.016,-0.028,-0.046,-0.12,0.046,-0.021,2.202,-0.893,-2.49
2024-09-23 15:15:09.289,175193.76,0.506,0.779,0.371,0.004,-0.002,-0.034,-0.185,0.048,-0.001,2.204,-0.892,-2.488
2024-09-23 15:15:09.298,175193.77,0.505,0.778,0.373,0.01,-0.019,-0.024,-0.203,0.07,-0.025,2.207,-0.891,-2.486
2024-09-23 15:15:09.308,175193.78,0.505,0.777,0.376,0.02,0.014,-0.015,-0.367,0.056,0.034,2.21,-0.89,-2.483
2024-09-23 15:15:09.318,175193.79,0.505,0.776,0.378,0.009,0.029,-0.023,-0.345,-0.038,0.016,2.214,-0.888,-2.478
2024-09-23 15:15:09.328,175193.8,0.506,0.774,0.38,-0.004,-0.008,-0.03,-0.176,-0.035,0.061,2.216,-0.886,-2.475
2024-09-23 15:15:09.338,175193.81,0.506,0.774,0.381,0.033,-0.054,-0.008,-0.066,-0.019,0.047,2.216,-0.885,-2.474
2024-09-23 15:15:09.348,175193.82,0.507,0.773,0.381,0.03,0.055,-0.024,-0.07,-0.066,0.078,2.215,-0.884,-2.474
2024-09-23 15:15:09.359,175193.83,0.508,0.772,0.381,-0.018,0.054,-0.029,-0.085,-0.09,0.102,2.215,-0.883,-2.474
2024-09-23 15:15:09.368,175193.84,0.509,0.771,0.382,-0.003,-0.009,0.001,-0.141,-0.089,0.13,2.214,-0.881,-2.474
2024-09-23 15:15:09.378,175193.85,0.511,0.77,0.383,0.002,0.002,0.067,-0.248,-0.087,0.151,2.214,-0.879,-2.473
2024-09-23 15:15:09.388,175193.86,0.512,0.768,0.384,-0.014,0.024,0.105,-0.349,-0.068,0.158,2.215,-0.876,-2.471
2024-09-23 15:15:09.398,175193.87,0.514,0.766,0.387,-0.015,0.012,0.092,-0.42,-0.057,0.152,2.217,-0.872,-2.467
2024-09-23 15:15:09.408,175193.88,0.515,0.763,0.39,-0.014,-0.016,0.041,-0.499,-0.04,0.169,2.219,-0.868,-2.463
2024-09-23 15:15:09.418,175193.89,0.517,0.76,0.394,-0.01,-0.003,-0.007,-0.519,-0.029,0.174,2.222,-0.864,-2.458
2024-09-23 15:15:09.428,175193.9,0.518,0.757,0.398,-0.009,0.014,-0.025,-0.469,-0.008,0.167,2.226,-0.859,-2.454
2024-09-23 15:15:09.438,175193.91,0.519,0.755,0.401,-0.012,0.017,-0.031,-0.38,0.011,0.148,2.228,-0.855,-2.45
2024-09-23 15:15:09.448,175193.92,0.52,0.753,0.404,-0.016,0.022,-0.048,-0.327,0.027,0.129,2.231,-0.852,-2.447
2024-09-23 15:15:09.458,175193.93,0.521,0.751,0.406,-0.019,0.028,-0.063,-0.346,-0.005,0.126,2.233,-0.849,-2.445
2024-09-23 15:15:09.468,175193.939,0.522,0.749,0.409,-0.016,0.012,-0.065,-0.329,0.051,0.121,2.235,-0.846,-2.442
2024-09-23 15:15:09.478,175193.949,0.522,0.747,0.412,-0.003,-0.001,-0.058,-0.326,0.102,0.079,2.238,-0.843,-2.439
2024-09-23 15:15:09.488,175193.959,0.522,0.745,0.415,-0.005,0.011,-0.045,-0.299,0.16,0.063,2.242,-0.841,-2.436
2024-09-23 15:15:09.498,175193.969,0.522,0.744,0.417,-0.023,-0.002,-0.026,-0.221,0.188,0.049,2.246,-0.839,-2.433
2024-09-23 15:15:09.508,175193.979,0.521,0.743,0.42,-0.018,-0.012,-0.014,-0.137,0.206,0.058,2.249,-0.837,-2.432
2024-09-23 15:15:09.518,175193.989,0.521,0.742,0.422,-0.008,-0.003,0.005,-0.073,0.238,0.053,2.251,-0.836,-2.431
2024-09-23 15:15:09.528,175193.999,0.521,0.742,0.423,-0.005,0.01,0.011,0.009,0.218,0.084,2.253,-0.835,-2.432
2024-09-23 15:15:09.538,175194.009,0.52,0.742,0.424,-0.009,0.02,0.012,0.118,0.225,0.064,2.254,-0.835,-2.433
2024-09-23 15:15:09.548,175194.019,0.52,0.742,0.424,-0.004,0.024,0.003,0.204,0.197,0.072,2.255,-0.836,-2.435
2024-09-23 15:15:09.558,175194.029,0.52,0.742,0.423,0.016,0.014,-0.003,0.258,0.175,0.09,2.254,-0.837,-2.439
2024-09-23 15:15:09.568,175194.039,0.52,0.743,0.422,0.024,0.005,0.001,0.255,0.158,0.093,2.253,-0.838,-2.443
2024-09-23 15:15:09.578,175194.049,0.52,0.744,0.421,0.017,-0.005,0.025,0.273,0.107,0.088,2.251,-0.839,-2.447
2024-09-23 15:15:09.588,175194.059,0.52,0.745,0.419,0.012,-0.01,0.047,0.304,0.096,0.052,2.249,-0.84,-2.451
2024-09-23 15:15:09.597,175194.069,0.52,0.746,0.417,0.011,-0.028,0.058,0.255,0.067,0.008,2.247,-0.841,-2.454
2024-09-23 15:15:09.608,175194.079,0.519,0.747,0.416,0.021,-0.035,0.028,0.183,0.042,-0.019,2.246,-0.843,-2.457
2024-09-23 15:15:09.617,175194.089,0.519,0.747,0.415,0.022,-0.064,-0.036,0.143,0.037,-0.024,2.245,-0.844,-2.459
2024-09-23 15:15:09.627,175194.099,0.519,0.748,0.414,0.013,-0.083,-0.083,0.22,0.025,-0.032,2.244,-0.845,-2.46
2024-09-23 15:15:09.638,175194.109,0.519,0.749,0.412,0.017,-0.014,-0.08,0.187,0.029,0.008,2.243,-0.847,-2.463
2024-09-23 15:15:09.648,175194.119,0.518,0.75,0.411,0.015,0.056,-0.063,0.148,0.026,0.001,2.241,-0.848,-2.465
2024-09-23 15:15:09.658,175194.129,0.518,0.751,0.41,0.014,0.071,-0.033,0.182,0.045,-0.071,2.24,-0.849,-2.466
2024-09-23 15:15:09.668,175194.139,0.518,0.751,0.41,0.01,0.043,-0.023,-0.054,0.001,-0.014,2.241,-0.85,-2.467
2024-09-23 15:15:09.678,175194.149,0.518,0.751,0.41,-0.017,0.034,-0.024,-0.008,-0.011,0.019,2.241,-0.849,-2.466
2024-09-23 15:15:09.688,175194.159,0.518,0.751,0.41,-0.005,-0.052,0.057,0.009,0.014,0.017,2.241,-0.849,-2.466
2024-09-23 15:15:09.698,175194.169,0.518,0.751,0.41,0.01,-0.052,0.072,-0.006,-0.008,0.045,2.24,-0.849,-2.467
2024-09-23 15:15:09.708,175194.179,0.519,0.75,0.41,-0.028,-0.001,0.064,0.046,-0.022,0.03,2.24,-0.849,-2.467
2024-09-23 15:15:09.717,175194.189,0.519,0.751,0.409,-0.027,-0.057,0.056,0.065,-0.023,0.008,2.239,-0.849,-2.468
2024-09-23 15:15:09.727,175194.199,0.519,0.751,0.409,-0.006,-0.035,0.025,0.088,-0.049,0.029,2.238,-0.849,-2.469
2024-09-23 15:15:09.738,175194.209,0.52,0.751,0.408,-0.012,-0.022,0.006,0.087,-0.078,0.062,2.236,-0.849,-2.471
2024-09-23 15:15:09.748,175194.219,0.52,0.751,0.406,-0.003,-0.049,0.027,0.094,-0.078,0.08,2.234,-0.85,-2.473
2024-09-23 15:15:09.757,175194.229,0.521,0.751,0.405,0.021,-0.01,0.062,0.075,-0.073,0.102,2.232,-0.849,-2.474
2024-09-23 15:15:09.767,175194.239,0.522,0.751,0.405,-0.005,0.05,0.077,0.06,-0.059,0.098,2.23,-0.849,-2.476
2024-09-23 15:15:09.778,175194.249,0.523,0.75,0.404,-0.029,0.052,0.07,0.048,-0.031,0.089,2.228,-0.848,-2.478
2024-09-23 15:15:09.787,175194.259,0.524,0.75,0.403,-0.026,0.037,0.029,0.078,-0.025,0.083,2.227,-0.848,-2.479
2024-09-23 15:15:09.798,175194.269,0.525,0.75,0.403,-0.03,0.04,-0.024,0.099,-0.045,0.066,2.225,-0.848,-2.481
2024-09-23 15:15:09.808,175194.279,0.525,0.75,0.402,-0.026,0.016,-0.068,0.124,-0.025,0.038,2.224,-0.848,-2.482
2024-09-23 15:15:09.817,175194.289,0.526,0.751,0.401,-0.009,-0.007,-0.079,0.129,-0.015,0.009,2.222,-0.849,-2.484
2024-09-23 15:15:09.827,175194.299,0.526,0.751,0.4,-0.013,-0.003,-0.077,0.131,-0.029,-0.02,2.221,-0.85,-2.486
2024-09-23 15:15:09.837,175194.309,0.525,0.752,0.399,-0.019,-0.02,-0.057,0.126,-0.023,-0.036,2.22,-0.851,-2.487
2024-09-23 15:15:09.847,175194.319,0.525,0.752,0.398,-0.003,-0.018,-0.01,0.083,-0.035,-0.051,2.219,-0.852,-2.488
2024-09-23 15:15:09.857,175194.329,0.525,0.753,0.397,0.011,-0.011,0.009,0.068,-0.038,-0.065,2.218,-0.852,-2.488
2024-09-23 15:15:09.868,175194.339,0.524,0.754,0.396,0.016,-0.037,0.01,0.056,-0.038,-0.079,2.218,-0.853,-2.488
2024-09-23 15:15:09.877,175194.349,0.524,0.754,0.396,0.015,-0.053,0.0,-0.011,-0.022,-0.062,2.218,-0.854,-2.488
2024-09-23 15:15:09.887,175194.359,0.524,0.754,0.396,0.021,-0.035,0.001,-0.03,-0.029,-0.1,2.218,-0.855,-2.487
2024-09-23 15:15:09.897,175194.369,0.523,0.755,0.396,0.025,-0.019,-0.003,0.038,-0.061,-0.071,2.218,-0.855,-2.486
2024-09-23 15:15:09.907,175194.379,0.523,0.756,0.395,0.025,-0.021,-0.005,0.121,-0.054,-0.096,2.218,-0.857,-2.486
2024-09-23 15:15:09.917,175194.389,0.522,0.757,0.393,0.039,-0.007,-0.02,0.212,-0.068,-0.072,2.216,-0.858,-2.487
2024-09-23 15:15:09.927,175194.399,0.522,0.758,0.391,0.019,0.032,-0.015,0.203,-0.079,-0.069,2.214,-0.86,-2.489
2024-09-23 15:15:09.937,175194.409,0.522,0.759,0.389,0.002,0.012,-0.001,0.165,-0.072,-0.065,2.212,-0.862,-2.491
2024-09-23 15:15:09.947,175194.419,0.522,0.76,0.388,0.011,0.028,0.04,0.12,-0.041,-0.052,2.21,-0.863,-2.492
2024-09-23 15:15:09.957,175194.429,0.522,0.76,0.387,-0.015,0.014,0.067,0.07,-0.037,-0.043,2.209,-0.864,-2.493
2024-09-23 15:15:09.967,175194.439,0.521,0.761,0.387,-0.03,0.006,0.071,0.039,-0.019,-0.035,2.209,-0.864,-2.493
2024-09-23 15:15:09.977,175194.449,0.521,0.761,0.387,-0.025,-0.021,0.057,-0.005,-0.021,-0.023,2.209,-0.865,-2.493
2024-09-23 15:15:09.987,175194.459,0.521,0.761,0.386,-0.021,-0.036,0.022,0.141,-0.052,-0.018,2.208,-0.865,-2.494
2024-09-23 15:15:09.998,175194.469,0.522,0.762,0.383,-0.018,-0.025,0.006,0.426,-0.052,-0.025,2.205,-0.867,-2.497
2024-09-23 15:15:10.007,175194.479,0.522,0.764,0.379,-0.003,-0.02,0.001,0.592,-0.059,-0.038,2.199,-0.87,-2.504
2024-09-23 15:15:10.017,175194.489,0.521,0.767,0.374,0.013,0.019,-0.018,0.665,-0.055,-0.058,2.193,-0.874,-2.511
2024-09-23 15:15:10.027,175194.499,0.521,0.769,0.369,0.001,0.015,-0.036,0.542,0.031,-0.007,2.187,-0.878,-2.519
2024-09-23 15:15:10.037,175194.509,0.521,0.771,0.366,-0.004,0.007,-0.036,0.421,0.056,-0.027,2.183,-0.881,-2.524
2024-09-23 15:15:10.047,175194.519,0.521,0.773,0.364,-0.032,0.064,-0.028,0.255,-0.005,-0.008,2.18,-0.883,-2.528
2024-09-23 15:15:10.057,175194.529,0.52,0.774,0.362,-0.041,0.035,-0.012,0.208,0.028,-0.067,2.178,-0.884,-2.531
2024-09-23 15:15:10.067,175194.538,0.52,0.774,0.361,0.035,-0.014,0.003,0.082,0.03,-0.05,2.178,-0.886,-2.533
2024-09-23 15:15:10.077,175194.548,0.519,0.775,0.361,0.0,-0.01,-0.015,-0.032,0.006,-0.066,2.178,-0.886,-2.532
2024-09-23 15:15:10.087,175194.558,0.519,0.775,0.361,-0.019,-0.086,-0.037,-0.101,-0.012,-0.07,2.179,-0.886,-2.531
2024-09-23 15:15:10.097,175194.568,0.518,0.775,0.362,0.019,-0.078,-0.029,-0.134,-0.037,-0.076,2.181,-0.886,-2.528
2024-09-23 15:15:10.107,175194.578,0.518,0.775,0.363,0.024,-0.015,-0.012,-0.076,-0.071,-0.073,2.182,-0.886,-2.526
2024-09-23 15:15:10.117,175194.588,0.518,0.775,0.362,0.016,0.006,0.009,-0.021,-0.107,-0.053,2.182,-0.887,-2.525
2024-09-23 15:15:10.127,175194.598,0.518,0.775,0.361,0.016,0.016,0.026,0.169,-0.118,0.0,2.18,-0.887,-2.526
2024-09-23 15:15:10.136,175194.608,0.518,0.776,0.358,0.015,0.017,0.064,0.497,-0.133,0.061,2.175,-0.889,-2.53
2024-09-23 15:15:10.146,175194.618,0.519,0.779,0.352,0.003,0.03,0.096,0.833,-0.154,0.057,2.167,-0.892,-2.54
2024-09-23 15:15:10.157,175194.628,0.52,0.781,0.344,-0.007,0.099,0.071,0.966,-0.147,0.038,2.155,-0.897,-2.552
2024-09-23 15:15:10.167,175194.638,0.521,0.784,0.336,-0.011,0.107,0.049,0.902,-0.139,0.063,2.144,-0.902,-2.565
2024-09-23 15:15:10.177,175194.648,0.522,0.787,0.329,-0.019,0.01,0.042,0.931,-0.153,0.017,2.133,-0.906,-2.578
2024-09-23 15:15:10.187,175194.658,0.523,0.79,0.322,-0.012,-0.059,0.02,0.678,-0.057,0.046,2.122,-0.91,-2.589
2024-09-23 15:15:10.197,175194.668,0.523,0.791,0.317,-0.014,-0.033,-0.02,0.364,-0.041,0.027,2.116,-0.913,-2.597
2024-09-23 15:15:10.207,175194.678,0.523,0.792,0.315,-0.034,0.0,-0.009,0.061,-0.045,0.045,2.113,-0.913,-2.6
2024-09-23 15:15:10.216,175194.688,0.524,0.792,0.315,-0.019,-0.086,0.014,0.066,-0.023,0.0,2.112,-0.914,-2.601
2024-09-23 15:15:10.227,175194.698,0.523,0.792,0.314,0.001,-0.066,0.01,0.143,0.003,-0.048,2.111,-0.914,-2.602
2024-09-23 15:15:10.237,175194.708,0.523,0.793,0.312,-0.001,0.012,-0.014,0.227,-0.048,-0.071,2.109,-0.916,-2.604
2024-09-23 15:15:10.247,175194.718,0.523,0.794,0.31,-0.016,0.008,-0.034,0.355,-0.03,-0.042,2.106,-0.918,-2.608
2024-09-23 15:15:10.257,175194.728,0.522,0.796,0.307,-0.006,-0.065,-0.028,0.348,-0.003,-0.089,2.102,-0.92,-2.612
2024-09-23 15:15:10.266,175194.738,0.521,0.797,0.305,0.02,-0.056,-0.015,0.246,0.006,-0.132,2.099,-0.923,-2.616
2024-09-23 15:15:10.276,175194.748,0.52,0.799,0.303,0.013,0.014,-0.03,0.169,0.048,-0.138,2.098,-0.925,-2.618
2024-09-23 15:15:10.286,175194.758,0.519,0.799,0.303,0.007,-0.038,-0.048,-0.023,0.042,-0.098,2.098,-0.926,-2.618
2024-09-23 15:15:10.297,175194.768,0.518,0.799,0.304,0.017,-0.077,-0.034,-0.069,0.107,-0.007,2.1,-0.926,-2.616
2024-09-23 15:15:10.307,175194.778,0.518,0.799,0.304,0.027,-0.024,0.028,-0.003,0.123,-0.013,2.102,-0.926,-2.616
2024-09-23 15:15:10.317,175194.788,0.517,0.8,0.305,-0.0,0.01,0.041,-0.023,0.116,-0.052,2.104,-0.926,-2.615
2024-09-23 15:15:10.327,175194.798,0.517,0.8,0.306,-0.03,0.109,-0.009,-0.093,0.126,-0.046,2.106,-0.927,-2.614
2024-09-23 15:15:10.337,175194.808,0.516,0.799,0.308,-0.008,0.07,0.021,-0.134,0.173,-0.031,2.109,-0.926,-2.612
2024-09-23 15:15:10.346,175194.818,0.515,0.799,0.31,-0.004,-0.081,0.016,-0.176,0.175,0.005,2.112,-0.926,-2.61
2024-09-23 15:15:10.357,175194.828,0.515,0.798,0.312,0.004,-0.042,-0.0,-0.204,0.163,0.016,2.116,-0.925,-2.607
2024-09-23 15:15:10.366,175194.838,0.514,0.798,0.315,0.021,0.0,0.0,-0.178,0.152,0.022,2.12,-0.923,-2.605
2024-09-23 15:15:10.377,175194.848,0.514,0.797,0.316,0.012,-0.018,0.009,-0.015,0.137,-0.001,2.122,-0.923,-2.603
2024-09-23 15:15:10.387,175194.858,0.514,0.798,0.316,-0.004,-0.02,0.017,0.243,0.185,0.017,2.122,-0.923,-2.605
2024-09-23 15:15:10.396,175194.868,0.513,0.798,0.315,-0.019,0.017,0.036,0.386,0.175,0.021,2.121,-0.925,-2.61
2024-09-23 15:15:10.406,175194.878,0.513,0.8,0.312,-0.03,0.065,0.021,0.499,0.132,-0.046,2.117,-0.927,-2.616
2024-09-23 15:15:10.416,175194.888,0.512,0.802,0.308,0.011,0.072,-0.011,0.628,0.118,-0.094,2.113,-0.931,-2.623
2024-09-23 15:15:10.426,175194.898,0.51,0.805,0.303,0.032,0.047,-0.022,0.782,0.118,-0.129,2.106,-0.935,-2.632
2024-09-23 15:15:10.436,175194.908,0.509,0.808,0.296,-0.001,0.082,-0.016,1.005,0.048,-0.143,2.098,-0.941,-2.644
2024-09-23 15:15:10.447,175194.918,0.508,0.812,0.287,-0.014,0.067,0.016,1.217,0.084,-0.2,2.086,-0.948,-2.659
2024-09-23 15:15:10.456,175194.928,0.506,0.817,0.278,0.006,0.024,0.065,1.221,0.103,-0.182,2.073,-0.956,-2.676
2024-09-23 15:15:10.466,175194.938,0.504,0.821,0.269,-0.002,0.023,0.076,1.155,0.075,-0.204,2.061,-0.963,-2.693
2024-09-23 15:15:10.476,175194.948,0.502,0.825,0.26,-0.023,-0.021,0.065,1.091,0.063,-0.235,2.048,-0.97,-2.709
2024-09-23 15:15:10.486,175194.958,0.5,0.829,0.251,0.002,-0.111,0.067,1.072,0.055,-0.264,2.037,-0.977,-2.724
2024-09-23 15:15:10.496,175194.968,0.497,0.833,0.243,0.021,-0.096,0.032,1.078,0.09,-0.274,2.025,-0.984,-2.739
2024-09-23 15:15:10.507,175194.978,0.495,0.837,0.234,0.01,-0.036,0.0,1.193,0.105,-0.256,2.012,-0.992,-2.755
2024-09-23 15:15:10.516,175194.988,0.493,0.841,0.224,-0.011,-0.007,-0.026,1.171,0.083,-0.229,1.998,-0.999,-2.773
2024-09-23 15:15:10.526,175194.998,0.49,0.845,0.215,-0.025,0.033,-0.052,1.197,0.161,-0.261,1.984,-1.006,-2.791
2024-09-23 15:15:10.536,175195.008,0.488,0.849,0.205,-0.012,0.043,-0.038,1.348,0.298,-0.239,1.969,-1.013,-2.811
2024-09-23 15:15:10.546,175195.018,0.485,0.852,0.194,-0.009,0.03,-0.044,1.478,0.217,-0.169,1.952,-1.021,-2.835
2024-09-23 15:15:10.556,175195.028,0.484,0.856,0.183,-0.018,0.063,-0.066,1.556,0.236,-0.172,1.932,-1.028,-2.861
2024-09-23 15:15:10.566,175195.038,0.482,0.859,0.171,-0.005,0.02,-0.019,1.464,0.189,-0.071,1.911,-1.034,-2.888
2024-09-23 15:15:10.576,175195.048,0.482,0.862,0.16,-0.003,-0.021,0.043,1.112,0.099,-0.009,1.892,-1.039,-2.911
2024-09-23 15:15:10.586,175195.058,0.481,0.863,0.152,0.001,-0.02,0.088,0.828,-0.014,-0.016,1.877,-1.042,-2.929
2024-09-23 15:15:10.596,175195.068,0.481,0.864,0.146,0.018,-0.083,0.122,0.63,-0.007,0.022,1.865,-1.044,-2.943
2024-09-23 15:15:10.606,175195.078,0.482,0.865,0.141,0.037,-0.137,0.122,0.453,-0.017,0.05,1.855,-1.045,-2.954
2024-09-23 15:15:10.616,175195.088,0.482,0.865,0.138,0.028,-0.043,0.096,0.208,-0.074,0.036,1.849,-1.045,-2.96
2024-09-23 15:15:10.626,175195.098,0.483,0.865,0.136,-0.002,0.004,0.084,0.113,-0.106,0.011,1.846,-1.046,-2.963
2024-09-23 15:15:10.636,175195.108,0.483,0.865,0.135,0.016,-0.02,0.084,0.031,-0.078,0.039,1.843,-1.046,-2.965
2024-09-23 15:15:10.646,175195.118,0.483,0.865,0.134,0.033,-0.021,0.011,0.055,-0.058,0.04,1.842,-1.045,-2.966
2024-09-23 15:15:10.656,175195.128,0.484,0.865,0.134,0.008,-0.001,-0.05,0.006,-0.021,0.087,1.84,-1.045,-2.967
2024-09-23 15:15:10.666,175195.137,0.485,0.864,0.134,-0.003,-0.02,-0.076,-0.06,-0.044,0.116,1.84,-1.044,-2.967
2024-09-23 15:15:10.676,175195.147,0.486,0.864,0.134,0.016,0.001,-0.086,-0.177,-0.139,0.13,1.841,-1.042,-2.965
2024-09-23 15:15:10.686,175195.157,0.488,0.863,0.136,-0.013,0.0,-0.064,-0.346,-0.21,0.165,1.842,-1.04,-2.961
2024-09-23 15:15:10.696,175195.167,0.489,0.861,0.139,-0.026,-0.025,-0.006,-0.648,-0.199,0.142,1.848,-1.037,-2.953
2024-09-23 15:15:10.706,175195.177,0.49,0.86,0.144,0.001,-0.03,0.018,-0.478,-0.108,-0.013,1.856,-1.035,-2.942
2024-09-23 15:15:10.716,175195.187,0.49,0.859,0.145,0.003,-0.043,-0.013,-0.125,-0.078,0.043,1.859,-1.034,-2.936
2024-09-23 15:15:10.726,175195.197,0.491,0.859,0.147,-0.052,-0.048,-0.052,-0.302,-0.118,0.135,1.861,-1.033,-2.933
2024-09-23 15:15:10.736,175195.207,0.492,0.858,0.15,-0.016,0.071,0.026,-0.628,-0.125,0.048,1.867,-1.03,-2.925
2024-09-23 15:15:10.746,175195.217,0.492,0.856,0.156,0.091,0.039,0.044,-0.76,-0.046,-0.01,1.877,-1.028,-2.912
2024-09-23 15:15:10.756,175195.227,0.492,0.855,0.162,0.03,-0.158,-0.021,-0.621,0.018,-0.065,1.888,-1.026,-2.899
2024-09-23 15:15:10.766,175195.237,0.491,0.855,0.166,-0.033,-0.046,-0.053,-0.397,0.047,-0.061,1.897,-1.025,-2.889
2024-09-23 15:15:10.776,175195.247,0.491,0.855,0.169,-0.024,0.077,-0.073,-0.241,0.055,-0.023,1.903,-1.025,-2.883
2024-09-23 15:15:10.786,175195.257,0.491,0.854,0.17,0.0,0.03,-0.055,0.003,0.052,-0.029,1.905,-1.025,-2.881
2024-09-23 15:15:10.795,175195.267,0.49,0.855,0.17,-0.022,0.003,-0.002,0.173,0.001,-0.032,1.904,-1.025,-2.883
2024-09-23 15:15:10.805,175195.277,0.49,0.855,0.168,-0.041,0.041,0.045,0.092,-0.061,-0.024,1.902,-1.026,-2.885
2024-09-23 15:15:10.816,175195.287,0.49,0.856,0.168,0.023,0.044,0.061,0.045,-0.012,-0.13,1.901,-1.027,-2.886
2024-09-23 15:15:10.826,175195.297,0.488,0.857,0.167,0.043,-0.029,0.036,0.175,0.002,-0.161,1.9,-1.029,-2.887
2024-09-23 15:15:10.836,175195.307,0.487,0.858,0.165,0.003,-0.04,0.007,0.245,0.004,-0.17,1.897,-1.031,-2.89
2024-09-23 15:15:10.846,175195.317,0.485,0.859,0.163,0.015,0.018,-0.012,0.244,0.022,-0.183,1.895,-1.033,-2.893
2024-09-23 15:15:10.856,175195.327,0.484,0.86,0.161,0.013,0.025,0.019,0.217,-0.01,-0.181,1.892,-1.036,-2.896
2024-09-23 15:15:10.866,175195.337,0.482,0.861,0.159,-0.008,-0.038,0.031,0.186,-0.022,-0.182,1.889,-1.038,-2.899
2024-09-23 15:15:10.876,175195.347,0.481,0.863,0.157,0.001,-0.084,0.017,0.22,0.004,-0.172,1.887,-1.04,-2.901
2024-09-23 15:15:10.885,175195.357,0.479,0.864,0.155,0.017,-0.052,-0.005,0.259,0.06,-0.167,1.884,-1.043,-2.905
2024-09-23 15:15:10.896,175195.367,0.478,0.865,0.153,0.003,-0.012,-0.032,0.413,0.034,-0.186,1.88,-1.045,-2.91
2024-09-23 15:15:10.905,175195.377,0.476,0.867,0.149,-0.017,0.028,-0.036,0.481,0.01,-0.232,1.874,-1.049,-2.918
2024-09-23 15:15:10.915,175195.387,0.474,0.869,0.145,0.013,0.037,-0.026,0.559,0.12,-0.266,1.867,-1.053,-2.926
2024-09-23 15:15:10.925,175195.397,0.471,0.871,0.141,0.039,0.034,-0.005,0.495,0.127,-0.251,1.861,-1.057,-2.935
2024-09-23 15:15:10.936,175195.407,0.469,0.872,0.138,0.016,0.01,0.012,0.272,0.053,-0.245,1.856,-1.06,-2.941
2024-09-23 15:15:10.945,175195.417,0.467,0.874,0.136,-0.007,-0.019,0.003,0.132,-0.029,-0.214,1.854,-1.063,-2.944
2024-09-23 15:15:10.955,175195.427,0.465,0.875,0.135,-0.007,-0.058,0.023,0.101,0.025,-0.208,1.853,-1.065,-2.945
2024-09-23 15:15:10.965,175195.437,0.463,0.876,0.134,-0.004,-0.057,0.022,0.079,0.014,-0.28,1.853,-1.068,-2.945
2024-09-23 15:15:10.975,175195.447,0.46,0.878,0.134,-0.009,-0.009,0.022,0.13,0.082,-0.273,1.853,-1.071,-2.946
2024-09-23 15:15:10.993,175195.457,0.458,0.879,0.133,0.011,0.001,0.037,0.176,0.098,-0.296,1.853,-1.074,-2.947
2024-09-23 15:15:10.997,175195.467,0.455,0.881,0.132,0.02,-0.018,0.017,0.121,0.032,-0.29,1.852,-1.077,-2.948
2024-09-23 15:15:11.005,175195.477,0.452,0.882,0.131,-0.003,-0.0,0.013,0.122,-0.002,-0.308,1.852,-1.08,-2.949
2024-09-23 15:15:11.015,175195.487,0.45,0.884,0.129,0.011,0.026,0.01,0.16,-0.041,-0.291,1.851,-1.084,-2.95
2024-09-23 15:15:11.026,175195.497,0.447,0.885,0.128,0.005,0.019,-0.003,0.104,-0.044,-0.275,1.849,-1.087,-2.951
2024-09-23 15:15:11.035,175195.507,0.445,0.886,0.127,-0.001,0.019,-0.015,0.024,-0.018,-0.249,1.849,-1.089,-2.951
2024-09-23 15:15:11.045,175195.517,0.443,0.887,0.127,-0.013,-0.02,-0.017,-0.063,-0.038,-0.248,1.851,-1.092,-2.949
2024-09-23 15:15:11.055,175195.527,0.441,0.888,0.128,-0.027,-0.064,-0.017,-0.233,-0.081,-0.143,1.854,-1.093,-2.945
2024-09-23 15:15:11.065,175195.537,0.44,0.888,0.131,-0.023,-0.065,-0.019,-0.416,-0.063,-0.211,1.86,-1.094,-2.937
2024-09-23 15:15:11.075,175195.547,0.438,0.889,0.135,-0.014,-0.049,-0.011,-0.526,-0.126,-0.216,1.869,-1.095,-2.926
2024-09-23 15:15:11.085,175195.557,0.437,0.889,0.139,-0.029,-0.067,0.019,-0.577,-0.16,-0.134,1.879,-1.095,-2.913
2024-09-23 15:15:11.095,175195.567,0.436,0.889,0.143,0.011,-0.054,0.028,-0.513,-0.134,-0.144,1.889,-1.094,-2.901
2024-09-23 15:15:11.105,175195.577,0.434,0.889,0.147,0.021,-0.025,0.024,-0.335,-0.092,-0.193,1.896,-1.095,-2.891
2024-09-23 15:15:11.115,175195.587,0.433,0.889,0.149,-0.001,0.003,0.015,-0.171,-0.042,-0.215,1.902,-1.096,-2.884
2024-09-23 15:15:11.125,175195.597,0.431,0.89,0.15,0.023,0.05,-0.009,-0.104,0.033,-0.239,1.905,-1.097,-2.88
2024-09-23 15:15:11.136,175195.607,0.428,0.891,0.15,0.026,0.038,-0.003,-0.011,0.027,-0.242,1.908,-1.1,-2.877
2024-09-23 15:15:11.147,175195.617,0.426,0.892,0.15,0.005,0.019,0.001,0.075,0.055,-0.226,1.91,-1.102,-2.876
2024-09-23 15:15:11.156,175195.627,0.424,0.893,0.15,-0.001,-0.018,-0.0,0.132,0.12,-0.216,1.91,-1.104,-2.876
2024-09-23 15:15:11.165,175195.637,0.422,0.894,0.149,0.003,-0.003,-0.008,0.11,0.147,-0.171,1.91,-1.107,-2.878
2024-09-23 15:15:11.174,175195.647,0.421,0.895,0.149,-0.006,0.023,-0.023,0.047,0.135,-0.157,1.911,-1.108,-2.878
2024-09-23 15:15:11.184,175195.657,0.419,0.896,0.149,-0.015,-0.004,-0.033,0.025,0.135,-0.192,1.913,-1.11,-2.877
2024-09-23 15:15:11.194,175195.667,0.417,0.897,0.149,-0.008,-0.039,-0.031,0.067,0.172,-0.265,1.915,-1.112,-2.877
2024-09-23 15:15:11.204,175195.677,0.414,0.898,0.15,0.011,-0.033,-0.039,0.046,0.227,-0.279,1.918,-1.115,-2.876
2024-09-23 15:15:11.215,175195.687,0.411,0.899,0.151,0.024,0.029,-0.06,-0.097,0.23,-0.257,1.923,-1.118,-2.873
2024-09-23 15:15:11.224,175195.697,0.409,0.9,0.153,0.023,0.044,-0.067,-0.225,0.245,-0.213,1.93,-1.119,-2.868
2024-09-23 15:15:11.234,175195.707,0.406,0.9,0.157,0.008,0.01,-0.06,-0.331,0.309,-0.214,1.939,-1.12,-2.86
2024-09-23 15:15:11.245,175195.717,0.404,0.9,0.162,-0.019,-0.023,-0.049,-0.452,0.35,-0.263,1.952,-1.121,-2.85
2024-09-23 15:15:11.255,175195.727,0.4,0.901,0.168,-0.018,-0.008,-0.021,-0.546,0.245,-0.32,1.967,-1.122,-2.837
2024-09-23 15:15:11.264,175195.736,0.397,0.901,0.173,0.012,-0.007,0.019,-0.519,0.205,-0.381,1.982,-1.123,-2.822
2024-09-23 15:15:11.274,175195.746,0.393,0.902,0.178,0.033,-0.037,0.05,-0.375,0.244,-0.493,1.997,-1.125,-2.809
2024-09-23 15:15:11.284,175195.756,0.387,0.904,0.181,0.07,-0.003,0.033,-0.049,0.304,-0.563,2.009,-1.129,-2.798
2024-09-23 15:15:11.294,175195.766,0.382,0.906,0.182,0.092,0.035,0.007,0.296,0.377,-0.582,2.015,-1.135,-2.796
2024-09-23 15:15:11.304,175195.776,0.375,0.909,0.179,0.06,0.024,-0.023,0.443,0.337,-0.619,2.017,-1.142,-2.798
2024-09-23 15:15:11.314,175195.786,0.37,0.912,0.177,-0.021,0.048,-0.008,0.393,0.26,-0.564,2.017,-1.149,-2.801
2024-09-23 15:15:11.324,175195.796,0.364,0.915,0.174,-0.037,0.026,0.064,0.33,0.282,-0.489,2.017,-1.155,-2.803
2024-09-23 15:15:11.334,175195.806,0.359,0.917,0.173,0.008,-0.049,0.097,0.275,0.328,-0.464,2.019,-1.161,-2.805
2024-09-23 15:15:11.345,175195.816,0.354,0.919,0.172,-0.021,-0.03,0.079,0.259,0.407,-0.477,2.021,-1.166,-2.806
2024-09-23 15:15:11.354,175195.826,0.35,0.921,0.17,-0.046,0.036,0.083,0.157,0.052,-0.46,2.024,-1.171,-2.805
2024-09-23 15:15:11.364,175195.836,0.345,0.923,0.169,0.004,0.045,0.061,0.217,0.164,-0.488,2.026,-1.176,-2.804
2024-09-23 15:15:11.374,175195.846,0.341,0.925,0.167,0.018,-0.004,0.049,0.347,0.21,-0.368,2.027,-1.181,-2.805
2024-09-23 15:15:11.384,175195.856,0.338,0.927,0.164,0.047,-0.021,-0.013,0.568,0.203,-0.26,2.022,-1.186,-2.813
2024-09-23 15:15:11.394,175195.866,0.336,0.929,0.158,-0.066,0.025,-0.087,0.647,0.149,-0.115,2.012,-1.19,-2.825
2024-09-23 15:15:11.405,175195.876,0.335,0.93,0.153,-0.039,0.05,-0.129,0.659,0.071,-0.008,1.999,-1.194,-2.841
2024-09-23 15:15:11.415,175195.886,0.335,0.93,0.148,0.024,0.044,-0.096,0.412,-0.071,0.102,1.985,-1.196,-2.855
2024-09-23 15:15:11.424,175195.896,0.337,0.93,0.145,0.017,0.004,-0.026,0.138,-0.159,0.092,1.977,-1.196,-2.863
2024-09-23 15:15:11.435,175195.906,0.338,0.93,0.143,0.014,-0.038,0.034,0.009,-0.222,0.093,1.972,-1.195,-2.866
2024-09-23 15:15:11.444,175195.916,0.339,0.93,0.142,0.022,-0.049,0.029,0.006,-0.301,0.123,1.969,-1.194,-2.867
2024-09-23 15:15:11.455,175195.926,0.341,0.929,0.141,0.038,-0.028,-0.02,-0.001,-0.424,0.194,1.963,-1.193,-2.869
2024-09-23 15:15:11.465,175195.936,0.344,0.929,0.14,0.026,-0.02,-0.044,-0.13,-0.471,0.289,1.958,-1.19,-2.87
2024-09-23 15:15:11.475,175195.946,0.347,0.927,0.14,0.027,-0.01,-0.032,-0.275,-0.534,0.313,1.955,-1.187,-2.868
2024-09-23 15:15:11.484,175195.956,0.351,0.925,0.142,0.007,-0.036,0.022,-0.512,-0.578,0.366,1.955,-1.182,-2.862
2024-09-23 15:15:11.494,175195.966,0.356,0.923,0.145,0.002,-0.04,0.077,-0.614,-0.604,0.395,1.959,-1.177,-2.851
2024-09-23 15:15:11.504,175195.976,0.36,0.921,0.149,0.019,-0.048,0.103,-0.552,-0.614,0.406,1.962,-1.171,-2.841
2024-09-23 15:15:11.514,175195.986,0.365,0.919,0.151,0.001,-0.054,0.103,-0.366,-0.659,0.45,1.962,-1.165,-2.834
2024-09-23 15:15:11.524,175195.996,0.37,0.917,0.151,-0.01,0.008,0.061,-0.208,-0.73,0.481,1.957,-1.16,-2.832
2024-09-23 15:15:11.535,175196.006,0.376,0.915,0.149,-0.004,0.055,0.014,-0.077,-0.892,0.503,1.948,-1.154,-2.833
2024-09-23 15:15:11.544,175196.016,0.382,0.913,0.146,0.008,0.085,-0.01,0.02,-0.78,0.492,1.935,-1.15,-2.837
2024-09-23 15:15:11.554,175196.026,0.387,0.911,0.143,0.002,0.081,-0.018,0.023,-0.612,0.414,1.924,-1.146,-2.842
2024-09-23 15:15:11.564,175196.036,0.391,0.909,0.141,-0.025,0.061,-0.01,-0.057,-0.212,0.413,1.917,-1.142,-2.845
2024-09-23 15:15:11.574,175196.046,0.395,0.907,0.143,-0.092,0.065,0.037,-0.571,0.049,0.274,1.919,-1.137,-2.842
2024-09-23 15:15:11.584,175196.056,0.396,0.906,0.149,-0.108,0.044,0.057,-0.545,-0.045,-0.067,1.931,-1.134,-2.829
2024-09-23 15:15:11.594,175196.066,0.396,0.905,0.152,-0.179,0.002,0.059,-0.267,-0.143,0.111,1.938,-1.132,-2.82
2024-09-23 15:15:11.604,175196.076,0.397,0.905,0.152,-0.022,-0.125,0.1,0.177,-0.013,0.061,1.937,-1.131,-2.82
2024-09-23 15:15:11.614,175196.086,0.398,0.905,0.149,0.13,-0.073,0.041,0.586,0.038,0.097,1.929,-1.132,-2.829
2024-09-23 15:15:11.624,175196.096,0.399,0.906,0.143,-0.046,0.023,-0.037,0.732,0.03,0.098,1.915,-1.134,-2.845
2024-09-23 15:15:11.634,175196.106,0.399,0.907,0.137,-0.051,0.103,-0.096,0.7,0.08,0.028,1.901,-1.135,-2.861
2024-09-23 15:15:11.644,175196.116,0.399,0.908,0.131,0.003,0.07,-0.082,0.622,0.061,-0.02,1.888,-1.137,-2.876
2024-09-23 15:15:11.654,175196.126,0.399,0.908,0.126,0.004,-0.011,-0.065,0.434,0.087,-0.017,1.878,-1.139,-2.888
2024-09-23 15:15:11.664,175196.136,0.398,0.909,0.124,0.015,-0.039,-0.058,0.254,0.158,-0.034,1.872,-1.14,-2.896
2024-09-23 15:15:11.674,175196.146,0.398,0.909,0.123,0.009,-0.06,-0.022,0.069,0.186,-0.014,1.87,-1.141,-2.899
2024-09-23 15:15:11.684,175196.156,0.398,0.909,0.124,-0.012,-0.059,-0.007,-0.089,0.193,-0.018,1.873,-1.141,-2.899
2024-09-23 15:15:11.694,175196.166,0.397,0.909,0.126,-0.018,-0.014,0.022,-0.129,0.165,-0.045,1.877,-1.141,-2.896
2024-09-23 15:15:11.704,175196.176,0.397,0.909,0.127,-0.01,-0.009,0.05,0.059,0.134,-0.005,1.88,-1.141,-2.895
2024-09-23 15:15:11.714,175196.186,0.397,0.909,0.126,-0.0,-0.056,0.017,0.225,0.126,0.033,1.878,-1.142,-2.899
2024-09-23 15:15:11.724,175196.196,0.397,0.909,0.124,0.01,-0.006,-0.03,0.25,0.088,0.121,1.873,-1.142,-2.905
2024-09-23 15:15:11.734,175196.206,0.398,0.909,0.122,0.008,0.067,-0.057,0.287,0.076,0.164,1.868,-1.141,-2.912
2024-09-23 15:15:11.744,175196.216,0.4,0.909,0.12,0.006,-0.005,-0.035,0.211,0.064,0.243,1.862,-1.14,-2.919
2024-09-23 15:15:11.754,175196.226,0.402,0.908,0.119,-0.002,-0.077,-0.007,0.069,0.029,0.256,1.858,-1.138,-2.924
2024-09-23 15:15:11.764,175196.236,0.404,0.907,0.119,-0.027,-0.013,0.041,-0.041,0.0,0.198,1.856,-1.136,-2.926
2024-09-23 15:15:11.774,175196.246,0.406,0.906,0.119,-0.012,0.004,0.056,-0.062,-0.029,0.146,1.856,-1.134,-2.926
2024-09-23 15:15:11.785,175196.256,0.407,0.906,0.119,0.024,0.004,0.056,0.017,-0.044,0.109,1.856,-1.133,-2.926
2024-09-23 15:15:11.794,175196.266,0.408,0.905,0.118,0.038,0.023,0.02,0.138,-0.076,0.085,1.853,-1.132,-2.928
2024-09-23 15:15:11.804,175196.276,0.409,0.905,0.116,0.027,0.036,-0.017,0.257,-0.132,0.039,1.848,-1.132,-2.933
2024-09-23 15:15:11.814,175196.286,0.409,0.906,0.112,0.004,0.041,-0.034,0.504,-0.22,-0.04,1.838,-1.133,-2.941
2024-09-23 15:15:11.824,175196.296,0.409,0.907,0.105,-0.002,0.052,-0.046,0.916,-0.194,-0.105,1.822,-1.135,-2.957
2024-09-23 15:15:11.834,175196.306,0.408,0.908,0.095,0.007,0.065,-0.066,1.153,-0.049,-0.122,1.799,-1.139,-2.981
2024-09-23 15:15:11.844,175196.316,0.406,0.91,0.084,0.011,0.084,-0.062,1.172,0.025,-0.229,1.775,-1.143,-3.007
2024-09-23 15:15:11.854,175196.326,0.404,0.912,0.073,0.002,0.113,-0.005,1.134,-0.03,-0.136,1.751,-1.147,-3.034
2024-09-23 15:15:11.864,175196.335,0.404,0.912,0.065,-0.001,0.033,0.089,0.727,-0.05,0.097,1.729,-1.149,-3.057
2024-09-23 15:15:11.874,175196.345,0.405,0.912,0.059,0.004,-0.117,0.168,0.43,0.002,0.16,1.716,-1.149,-3.071
2024-09-23 15:15:11.884,175196.355,0.407,0.912,0.056,-0.03,-0.12,0.255,0.325,0.033,0.143,1.708,-1.148,-3.08
2024-09-23 15:15:11.894,175196.365,0.408,0.911,0.054,-0.095,-0.094,0.179,0.252,0.057,0.121,1.701,-1.147,-3.088
2024-09-23 15:15:11.904,175196.375,0.409,0.911,0.053,-0.034,0.051,0.027,0.023,0.055,0.097,1.699,-1.146,-3.092
2024-09-23 15:15:11.915,175196.385,0.41,0.911,0.053,0.028,0.083,-0.046,-0.082,0.02,0.097,1.7,-1.145,-3.091
2024-09-23 15:15:11.924,175196.395,0.411,0.91,0.054,0.029,-0.026,-0.076,-0.031,-0.007,0.097,1.701,-1.144,-3.09
2024-09-23 15:15:11.934,175196.405,0.412,0.91,0.054,0.025,-0.041,-0.124,0.013,-0.009,0.151,1.7,-1.143,-3.09
2024-09-23 15:15:11.944,175196.415,0.413,0.909,0.053,0.025,0.012,-0.139,0.042,0.018,0.18,1.699,-1.141,-3.091
2024-09-23 15:15:11.954,175196.425,0.415,0.908,0.054,0.015,0.011,-0.097,-0.044,0.047,0.183,1.699,-1.139,-3.092
2024-09-23 15:15:11.964,175196.435,0.416,0.908,0.055,-0.006,-0.021,-0.026,-0.198,0.038,0.151,1.702,-1.137,-3.089
2024-09-23 15:15:11.974,175196.445,0.418,0.907,0.057,-0.021,-0.028,0.034,-0.289,0.028,0.145,1.707,-1.136,-3.084
2024-09-23 15:15:11.984,175196.455,0.419,0.906,0.061,-0.007,-0.048,0.035,-0.394,0.056,0.117,1.714,-1.134,-3.076
2024-09-23 15:15:11.993,175196.465,0.42,0.905,0.064,0.007,-0.056,0.005,-0.355,0.024,0.085,1.722,-1.132,-3.068
2024-09-23 15:15:12.004,175196.475,0.421,0.905,0.068,0.003,-0.038,-0.012,-0.428,-0.017,0.114,1.73,-1.131,-3.06
2024-09-23 15:15:12.013,175196.485,0.421,0.904,0.072,-0.003,-0.038,-0.029,-0.521,-0.119,0.064,1.739,-1.129,-3.049
2024-09-23 15:15:12.023,175196.495,0.422,0.904,0.075,0.014,-0.007,-0.017,-0.283,-0.147,-0.049,1.746,-1.128,-3.039
2024-09-23 15:15:12.034,175196.505,0.422,0.904,0.077,0.032,-0.016,-0.015,-0.304,-0.108,0.036,1.751,-1.128,-3.033
2024-09-23 15:15:12.044,175196.515,0.422,0.903,0.081,0.02,-0.01,-0.034,-0.757,-0.137,0.089,1.76,-1.126,-3.021
2024-09-23 15:15:12.054,175196.525,0.423,0.902,0.088,0.021,0.057,0.014,-0.922,-0.169,-0.002,1.776,-1.124,-3.002
2024-09-23 15:15:12.064,175196.535,0.423,0.901,0.095,0.029,-0.046,0.03,-0.83,-0.084,0.014,1.793,-1.122,-2.982
2024-09-23 15:15:12.073,175196.545,0.423,0.9,0.103,0.018,-0.125,-0.009,-0.821,-0.036,0.004,1.809,-1.12,-2.964
2024-09-23 15:15:12.083,175196.555,0.423,0.899,0.11,0.009,0.001,0.005,-0.736,0.028,-0.007,1.824,-1.118,-2.946
2024-09-23 15:15:12.093,175196.565,0.423,0.899,0.115,-0.018,0.014,0.038,-0.561,-0.067,0.04,1.837,-1.117,-2.932
2024-09-23 15:15:12.104,175196.575,0.423,0.898,0.119,-0.033,-0.08,0.025,-0.338,-0.016,-0.008,1.845,-1.115,-2.922
2024-09-23 15:15:12.113,175196.585,0.424,0.898,0.122,-0.01,-0.006,0.012,-0.209,-0.01,0.06,1.85,-1.114,-2.917
2024-09-23 15:15:12.123,175196.595,0.424,0.897,0.123,0.007,0.073,0.013,-0.123,0.082,-0.001,1.854,-1.113,-2.913
2024-09-23 15:15:12.134,175196.605,0.424,0.897,0.124,-0.028,0.059,-0.001,-0.003,0.078,-0.053,1.856,-1.114,-2.911
2024-09-23 15:15:12.143,175196.615,0.423,0.898,0.124,-0.041,0.032,-0.01,0.131,0.03,-0.03,1.855,-1.114,-2.913
2024-09-23 15:15:12.153,175196.625,0.423,0.898,0.123,0.024,0.018,-0.008,0.169,0.072,-0.007,1.853,-1.115,-2.916
2024-09-23 15:15:12.163,175196.635,0.423,0.898,0.122,0.048,0.019,-0.027,0.164,0.141,0.035,1.851,-1.115,-2.92
2024-09-23 15:15:12.174,175196.645,0.423,0.898,0.121,-0.007,0.029,-0.033,0.154,0.254,0.062,1.849,-1.115,-2.923
2024-09-23 15:15:12.183,175196.655,0.423,0.898,0.121,-0.031,0.037,-0.021,0.197,0.279,-0.002,1.849,-1.115,-2.927
2024-09-23 15:15:12.194,175196.665,0.422,0.898,0.12,-0.021,0.023,0.004,0.171,0.29,-0.051,1.848,-1.116,-2.931
2024-09-23 15:15:12.203,175196.675,0.422,0.899,0.121,-0.012,0.006,0.016,-0.091,0.172,-0.04,1.849,-1.117,-2.932
2024-09-23 15:15:12.213,175196.685,0.422,0.898,0.123,0.005,-0.02,0.05,-0.256,0.073,0.166,1.853,-1.116,-2.929
2024-09-23 15:15:12.223,175196.695,0.423,0.897,0.125,-0.003,-0.072,0.07,-0.21,0.151,0.057,1.859,-1.114,-2.924
2024-09-23 15:15:12.234,175196.705,0.424,0.897,0.128,-0.029,-0.052,-0.007,-0.2,0.077,0.1,1.863,-1.112,-2.921
2024-09-23 15:15:12.243,175196.715,0.425,0.896,0.13,-0.045,0.071,-0.044,-0.28,0.06,0.149,1.868,-1.111,-2.916
2024-09-23 15:15:12.253,175196.725,0.426,0.895,0.133,-0.005,0.057,-0.099,-0.425,0.048,0.191,1.874,-1.108,-2.91
2024-09-23 15:15:12.263,175196.735,0.428,0.893,0.138,-0.037,-0.052,-0.118,-0.702,0.032,0.154,1.884,-1.105,-2.899
2024-09-23 15:15:12.273,175196.745,0.429,0.891,0.145,-0.065,-0.011,-0.091,-0.84,-0.027,0.21,1.897,-1.101,-2.884
2024-09-23 15:15:12.283,175196.755,0.431,0.889,0.153,-0.034,-0.016,-0.033,-0.947,-0.052,0.263,1.912,-1.095,-2.867
2024-09-23 15:15:12.293,175196.765,0.434,0.886,0.161,-0.0,-0.08,0.018,-0.907,-0.084,0.293,1.926,-1.09,-2.85
2024-09-23 15:15:12.304,175196.775,0.437,0.884,0.168,-0.021,-0.064,0.043,-0.789,-0.1,0.272,1.938,-1.084,-2.835
2024-09-23 15:15:12.312,175196.785,0.439,0.881,0.174,-0.035,-0.036,0.042,-0.588,-0.11,0.232,1.948,-1.079,-2.824
2024-09-23 15:15:12.322,175196.795,0.441,0.88,0.178,0.012,0.023,0.027,-0.403,-0.122,0.219,1.953,-1.075,-2.816
2024-09-23 15:15:12.333,175196.805,0.443,0.878,0.18,0.035,0.044,-0.003,-0.332,-0.112,0.226,1.957,-1.072,-2.811
2024-09-23 15:15:12.343,175196.815,0.446,0.876,0.183,0.025,0.021,-0.026,-0.406,-0.136,0.235,1.96,-1.068,-2.806
2024-09-23 15:15:12.353,175196.825,0.448,0.874,0.187,0.002,-0.003,-0.045,-0.598,-0.139,0.237,1.966,-1.064,-2.798
2024-09-23 15:15:12.363,175196.835,0.45,0.872,0.192,-0.005,-0.021,-0.05,-0.701,-0.124,0.229,1.973,-1.06,-2.787
2024-09-23 15:15:12.373,175196.845,0.453,0.869,0.198,0.005,-0.004,-0.023,-0.909,-0.089,0.253,1.984,-1.054,-2.774
2024-09-23 15:15:12.383,175196.855,0.455,0.866,0.207,0.004,0.013,0.002,-1.161,-0.07,0.226,1.997,-1.048,-2.758
2024-09-23 15:15:12.393,175196.865,0.457,0.863,0.218,0.003,0.04,0.045,-1.426,-0.106,0.227,2.015,-1.04,-2.736
2024-09-23 15:15:12.403,175196.875,0.459,0.858,0.23,-0.003,0.022,0.05,-1.461,-0.123,0.228,2.034,-1.032,-2.712
2024-09-23 15:15:12.413,175196.885,0.461,0.854,0.241,-0.005,-0.035,0.046,-1.312,-0.093,0.223,2.052,-1.023,-2.69
2024-09-23 15:15:12.425,175196.895,0.463,0.85,0.251,-0.009,-0.056,0.027,-1.088,-0.067,0.193,2.067,-1.016,-2.672
2024-09-23 15:15:12.434,175196.905,0.465,0.847,0.258,-0.016,-0.017,-0.018,-0.651,-0.057,0.149,2.077,-1.01,-2.659
2024-09-23 15:15:12.443,175196.915,0.466,0.845,0.262,-0.004,0.021,-0.056,-0.323,-0.031,0.111,2.082,-1.007,-2.652
2024-09-23 15:15:12.453,175196.925,0.467,0.844,0.264,0.015,0.06,-0.101,-0.284,-0.015,0.026,2.086,-1.005,-2.648
2024-09-23 15:15:12.463,175196.934,0.467,0.843,0.267,0.036,0.132,-0.098,-0.442,-0.001,0.006,2.09,-1.003,-2.643
2024-09-23 15:15:12.473,175196.944,0.467,0.842,0.271,0.0,0.075,-0.071,-0.533,-0.004,-0.001,2.097,-1.0,-2.635
2024-09-23 15:15:12.483,175196.954,0.467,0.84,0.276,-0.045,-0.08,-0.011,-0.527,0.02,0.021,2.104,-0.998,-2.626
2024-09-23 15:15:12.493,175196.964,0.467,0.838,0.281,-0.014,-0.113,0.036,-0.651,0.056,0.091,2.112,-0.994,-2.618
2024-09-23 15:15:12.503,175196.974,0.468,0.836,0.287,0.012,-0.022,0.041,-0.646,0.061,0.073,2.12,-0.99,-2.608
2024-09-23 15:15:12.513,175196.984,0.468,0.834,0.292,0.014,0.017,0.036,-0.642,0.105,0.102,2.129,-0.986,-2.599
2024-09-23 15:15:12.523,175196.994,0.468,0.832,0.298,-0.003,-0.006,0.013,-0.467,0.088,0.036,2.137,-0.982,-2.591
2024-09-23 15:15:12.533,175197.004,0.469,0.83,0.301,-0.0,0.004,-0.02,-0.339,0.116,0.04,2.142,-0.98,-2.585
2024-09-23 15:15:12.543,175197.014,0.468,0.83,0.304,-0.014,0.002,-0.012,-0.119,0.09,0.013,2.146,-0.979,-2.582
2024-09-23 15:15:12.554,175197.024,0.468,0.83,0.304,-0.026,0.062,0.01,0.136,0.093,0.007,2.147,-0.978,-2.582
2024-09-23 15:15:12.563,175197.034,0.468,0.83,0.303,-0.012,0.068,-0.014,0.291,0.092,-0.009,2.145,-0.98,-2.585
2024-09-23 15:15:12.573,175197.044,0.467,0.831,0.301,0.018,0.091,-0.077,0.32,0.077,-0.023,2.142,-0.982,-2.59
2024-09-23 15:15:12.582,175197.054,0.467,0.832,0.298,0.014,0.077,-0.1,0.371,0.036,-0.028,2.139,-0.984,-2.595
2024-09-23 15:15:12.592,175197.064,0.467,0.834,0.295,0.011,0.017,-0.056,0.393,0.011,-0.02,2.134,-0.986,-2.6
2024-09-23 15:15:12.603,175197.074,0.467,0.835,0.292,0.011,-0.017,0.01,0.369,-0.004,0.011,2.129,-0.988,-2.606
2024-09-23 15:15:12.613,175197.084,0.467,0.836,0.289,0.005,-0.008,0.068,0.32,-0.025,0.01,2.125,-0.99,-2.612
2024-09-23 15:15:12.622,175197.094,0.467,0.837,0.286,0.002,-0.011,0.107,0.348,-0.047,0.002,2.12,-0.991,-2.617
2024-09-23 15:15:12.633,175197.104,0.467,0.838,0.282,0.009,-0.033,0.121,0.435,-0.048,-0.005,2.115,-0.993,-2.623
2024-09-23 15:15:12.642,175197.114,0.467,0.839,0.278,0.005,-0.029,0.097,0.556,-0.049,-0.008,2.108,-0.996,-2.631
2024-09-23 15:15:12.653,175197.124,0.467,0.841,0.272,-0.001,-0.011,0.05,0.759,-0.044,-0.033,2.099,-0.999,-2.641
2024-09-23 15:15:12.662,175197.134,0.467,0.844,0.265,0.001,0.014,0.009,1.08,-0.028,-0.036,2.086,-1.004,-2.655
2024-09-23 15:15:12.672,175197.144,0.467,0.847,0.254,0.001,0.041,-0.016,1.39,-0.007,-0.049,2.069,-1.011,-2.675
2024-09-23 15:15:12.683,175197.154,0.466,0.851,0.241,-0.002,0.056,-0.009,1.666,-0.032,-0.07,2.048,-1.018,-2.7
2024-09-23 15:15:12.693,175197.164,0.466,0.856,0.225,0.001,0.057,0.008,1.873,-0.055,-0.098,2.022,-1.027,-2.73
2024-09-23 15:15:12.702,175197.174,0.465,0.86,0.21,0.004,0.032,0.03,1.682,-0.067,-0.084,1.995,-1.035,-2.761
2024-09-23 15:15:12.712,175197.184,0.464,0.864,0.196,0.007,0.025,0.044,1.439,-0.079,-0.157,1.97,-1.043,-2.788
2024-09-23 15:15:12.722,175197.194,0.463,0.867,0.184,-0.001,-0.029,0.057,1.189,-0.11,-0.172,1.949,-1.05,-2.812
2024-09-23 15:15:12.732,175197.204,0.461,0.87,0.175,-0.015,-0.123,0.05,0.826,-0.127,-0.192,1.933,-1.055,-2.829
2024-09-23 15:15:12.742,175197.214,0.46,0.872,0.168,-0.021,-0.113,0.054,0.49,-0.148,-0.244,1.922,-1.059,-2.84
2024-09-23 15:15:12.753,175197.224,0.458,0.874,0.164,0.015,-0.112,0.084,0.327,-0.096,-0.244,1.916,-1.063,-2.846
2024-09-23 15:15:12.762,175197.234,0.456,0.875,0.161,0.015,-0.115,0.054,0.338,-0.006,-0.272,1.911,-1.066,-2.85
2024-09-23 15:15:12.772,175197.244,0.453,0.877,0.158,0.009,-0.087,0.011,0.5,0.045,-0.258,1.906,-1.07,-2.857
2024-09-23 15:15:12.782,175197.254,0.451,0.879,0.153,0.006,0.003,-0.037,0.718,0.17,-0.294,1.898,-1.075,-2.867
2024-09-23 15:15:12.792,175197.264,0.448,0.882,0.147,0.004,0.093,-0.081,0.841,0.275,-0.277,1.888,-1.08,-2.881
2024-09-23 15:15:12.802,175197.274,0.445,0.884,0.141,-0.033,0.084,-0.087,0.852,0.296,-0.284,1.877,-1.085,-2.896
2024-09-23 15:15:12.813,175197.284,0.442,0.887,0.135,-0.042,0.059,-0.07,0.8,0.259,-0.238,1.866,-1.09,-2.912
2024-09-23 15:15:12.822,175197.294,0.44,0.888,0.13,-0.007,-0.006,-0.032,0.587,0.242,-0.124,1.857,-1.094,-2.925
2024-09-23 15:15:12.832,175197.304,0.439,0.89,0.126,0.01,-0.06,-0.012,0.411,0.158,-0.099,1.851,-1.096,-2.934
2024-09-23 15:15:12.842,175197.314,0.438,0.89,0.123,-0.013,-0.061,0.002,0.407,0.229,-0.103,1.845,-1.098,-2.942
2024-09-23 15:15:12.852,175197.324,0.437,0.891,0.121,-0.032,-0.065,0.022,0.394,0.205,-0.056,1.84,-1.1,-2.95
2024-09-23 15:15:12.862,175197.334,0.436,0.892,0.119,0.008,0.023,-0.012,0.155,0.172,-0.006,1.837,-1.101,-2.956
2024-09-23 15:15:12.872,175197.344,0.436,0.892,0.119,0.043,0.068,-0.028,-0.017,0.139,-0.001,1.837,-1.101,-2.958
2024-09-23 15:15:12.882,175197.354,0.436,0.892,0.12,0.054,0.011,-0.005,0.061,0.139,0.023,1.839,-1.101,-2.958
2024-09-23 15:15:12.892,175197.364,0.436,0.892,0.119,0.028,-0.02,-0.012,0.111,0.126,0.062,1.838,-1.101,-2.96
2024-09-23 15:15:12.902,175197.374,0.437,0.892,0.119,-0.006,-0.008,-0.01,0.166,0.12,0.063,1.836,-1.101,-2.963
2024-09-23 15:15:12.912,175197.384,0.437,0.892,0.118,-0.006,0.059,0.041,0.042,0.106,0.055,1.835,-1.101,-2.966
2024-09-23 15:15:12.922,175197.394,0.438,0.891,0.119,0.002,0.042,0.041,-0.191,0.026,0.086,1.837,-1.1,-2.965
2024-09-23 15:15:12.932,175197.404,0.439,0.89,0.122,0.002,-0.017,0.038,-0.455,-0.011,0.125,1.842,-1.098,-2.959
2024-09-23 15:15:12.943,175197.414,0.439,0.889,0.126,0.005,-0.053,0.057,-0.486,-0.035,0.037,1.851,-1.096,-2.949
2024-09-23 15:15:12.951,175197.424,0.44,0.889,0.13,-0.008,-0.065,0.05,-0.432,-0.014,0.054,1.859,-1.094,-2.94
2024-09-23 15:15:12.961,175197.434,0.44,0.888,0.134,-0.015,-0.042,0.009,-0.369,-0.055,0.039,1.866,-1.093,-2.932
2024-09-23 15:15:12.972,175197.444,0.441,0.887,0.136,-0.004,0.008,-0.014,-0.23,-0.06,0.011,1.87,-1.092,-2.926
