Date,TimeStamp,GravityX,GravityY,GravityZ,UserAccelerationX,UserAccelerationY,UserAccelerationZ,RotationRateX,RotationRateY,RotationRateZ,AttitudeRoll,AttitudePitch,AttitudeYaw
2024-09-23 14:37:33.352,172937.819,0.083,0.759,-0.646,0.008,0.042,0.009,0.406,-0.185,-0.066,0.128,-0.861,0.792
2024-09-23 14:37:33.362,172937.829,0.082,0.756,-0.65,0.019,0.036,0.031,0.434,0.018,-0.017,0.126,-0.857,0.79
2024-09-23 14:37:33.372,172937.839,0.082,0.753,-0.652,0.015,0.055,0.039,0.252,-0.028,-0.019,0.125,-0.853,0.789
2024-09-23 14:37:33.382,172937.849,0.082,0.752,-0.654,-0.04,0.118,0.009,0.099,0.063,-0.044,0.125,-0.851,0.789
2024-09-23 14:37:33.392,172937.859,0.083,0.752,-0.654,-0.039,-0.046,-0.047,-0.021,0.091,0.002,0.126,-0.851,0.788
2024-09-23 14:37:33.403,172937.869,0.083,0.752,-0.653,-0.005,-0.169,-0.024,-0.077,0.111,0.011,0.127,-0.852,0.788
2024-09-23 14:37:33.412,172937.879,0.084,0.753,-0.652,-0.044,0.002,-0.019,-0.134,0.082,0.021,0.128,-0.853,0.789
2024-09-23 14:37:33.422,172937.889,0.084,0.754,-0.651,-0.029,-0.044,-0.003,-0.164,0.019,0.028,0.129,-0.854,0.789
2024-09-23 14:37:33.432,172937.899,0.085,0.755,-0.65,-0.014,-0.075,0.009,-0.187,-0.014,0.034,0.13,-0.856,0.79
2024-09-23 14:37:33.442,172937.909,0.085,0.757,-0.648,-0.009,-0.041,0.009,-0.221,-0.027,0.027,0.13,-0.858,0.791
2024-09-23 14:37:33.452,172937.919,0.085,0.758,-0.647,0.002,-0.028,0.0,-0.231,-0.029,0.025,0.13,-0.86,0.792
2024-09-23 14:37:33.463,172937.929,0.085,0.759,-0.645,0.001,-0.01,-0.004,-0.181,0.011,0.017,0.131,-0.863,0.793
2024-09-23 14:37:33.472,172937.939,0.085,0.761,-0.644,-0.004,-0.001,0.016,-0.155,0.048,0.011,0.132,-0.864,0.793
2024-09-23 14:37:33.481,172937.949,0.085,0.761,-0.643,-0.007,-0.002,0.008,-0.137,0.025,-0.005,0.132,-0.865,0.794
2024-09-23 14:37:33.491,172937.959,0.085,0.762,-0.642,-0.009,0.035,-0.001,-0.082,0.006,-0.023,0.132,-0.867,0.794
2024-09-23 14:37:33.501,172937.969,0.085,0.762,-0.642,-0.004,0.013,-0.001,0.007,-0.025,-0.049,0.132,-0.867,0.793
2024-09-23 14:37:33.512,172937.979,0.084,0.762,-0.642,0.005,0.002,0.008,0.114,-0.042,-0.071,0.131,-0.866,0.792
2024-09-23 14:37:33.522,172937.989,0.084,0.761,-0.643,0.006,0.036,0.024,0.19,-0.068,-0.083,0.129,-0.865,0.791
2024-09-23 14:37:33.532,172937.999,0.082,0.76,-0.645,0.006,0.034,0.029,0.22,-0.104,-0.085,0.127,-0.863,0.789
2024-09-23 14:37:33.542,172938.009,0.081,0.758,-0.647,0.001,0.028,0.018,0.27,-0.047,-0.067,0.125,-0.861,0.787
2024-09-23 14:37:33.552,172938.019,0.081,0.757,-0.649,0.005,0.033,0.003,0.203,0.026,0.008,0.124,-0.858,0.786
2024-09-23 14:37:33.562,172938.029,0.081,0.756,-0.65,-0.001,0.039,0.003,0.071,-0.033,0.009,0.124,-0.857,0.786
2024-09-23 14:37:33.572,172938.039,0.081,0.756,-0.65,-0.046,0.069,-0.019,-0.054,-0.038,-0.006,0.124,-0.857,0.786
2024-09-23 14:37:33.582,172938.048,0.08,0.757,-0.649,-0.02,-0.05,-0.027,-0.168,-0.067,0.004,0.123,-0.858,0.786
2024-09-23 14:37:33.592,172938.058,0.08,0.758,-0.647,0.004,-0.113,-0.021,-0.254,-0.115,0.003,0.123,-0.86,0.787
2024-09-23 14:37:33.602,172938.068,0.079,0.76,-0.645,-0.005,-0.001,-0.026,-0.306,-0.135,0.009,0.122,-0.863,0.788
2024-09-23 14:37:33.612,172938.078,0.078,0.762,-0.643,0.002,-0.047,-0.021,-0.303,-0.164,0.007,0.121,-0.866,0.788
2024-09-23 14:37:33.622,172938.088,0.077,0.764,-0.641,-0.003,-0.053,-0.002,-0.185,-0.137,0.024,0.12,-0.869,0.789
2024-09-23 14:37:33.632,172938.098,0.077,0.764,-0.64,-0.004,-0.051,0.027,-0.052,-0.085,0.034,0.119,-0.87,0.79
2024-09-23 14:37:33.642,172938.108,0.077,0.764,-0.64,-0.005,0.005,0.039,0.088,-0.053,0.043,0.119,-0.87,0.79
2024-09-23 14:37:33.652,172938.118,0.076,0.763,-0.642,-0.019,0.064,0.042,0.194,-0.036,0.028,0.119,-0.868,0.79
2024-09-23 14:37:33.661,172938.128,0.076,0.762,-0.643,-0.011,0.055,0.039,0.219,-0.046,0.013,0.118,-0.866,0.79
2024-09-23 14:37:33.671,172938.138,0.076,0.76,-0.645,-0.013,0.035,0.033,0.258,-0.041,-0.01,0.118,-0.864,0.79
2024-09-23 14:37:33.681,172938.148,0.076,0.758,-0.647,-0.004,0.021,0.012,0.275,-0.008,-0.012,0.117,-0.861,0.789
2024-09-23 14:37:33.691,172938.158,0.076,0.757,-0.649,-0.001,0.004,0.012,0.195,-0.041,-0.009,0.116,-0.858,0.789
2024-09-23 14:37:33.701,172938.168,0.075,0.756,-0.65,-0.014,0.022,0.004,0.082,-0.061,-0.002,0.115,-0.857,0.788
2024-09-23 14:37:33.711,172938.178,0.075,0.756,-0.651,-0.013,0.006,-0.025,0.018,-0.049,0.012,0.115,-0.857,0.788
2024-09-23 14:37:33.721,172938.188,0.075,0.756,-0.651,-0.007,-0.039,-0.033,-0.003,-0.027,0.025,0.115,-0.857,0.789
2024-09-23 14:37:33.732,172938.198,0.075,0.756,-0.651,-0.018,-0.024,-0.011,0.038,0.004,0.033,0.115,-0.857,0.789
2024-09-23 14:37:33.742,172938.208,0.075,0.755,-0.651,-0.021,0.004,-0.006,0.067,0.018,0.017,0.115,-0.856,0.789
2024-09-23 14:37:33.752,172938.218,0.076,0.755,-0.651,-0.018,0.014,0.005,0.091,0.044,-0.016,0.116,-0.856,0.789
2024-09-23 14:37:33.762,172938.228,0.076,0.754,-0.652,-0.018,0.003,0.008,0.085,0.1,-0.034,0.116,-0.855,0.789
2024-09-23 14:37:33.772,172938.238,0.076,0.754,-0.653,-0.011,0.009,0.005,0.087,0.081,-0.052,0.116,-0.854,0.788
2024-09-23 14:37:33.783,172938.248,0.076,0.753,-0.653,-0.021,-0.007,0.017,0.083,0.062,-0.027,0.116,-0.853,0.787
2024-09-23 14:37:33.792,172938.258,0.076,0.753,-0.654,0.001,-0.007,0.008,0.068,0.078,-0.044,0.116,-0.852,0.786
2024-09-23 14:37:33.801,172938.268,0.077,0.752,-0.654,-0.005,-0.013,0.025,0.068,0.08,-0.007,0.117,-0.852,0.786
2024-09-23 14:37:33.811,172938.278,0.077,0.752,-0.655,-0.003,-0.049,0.018,0.026,0.063,-0.01,0.117,-0.851,0.785
2024-09-23 14:37:33.821,172938.288,0.077,0.752,-0.655,-0.009,-0.003,0.02,-0.055,0.042,0.006,0.117,-0.851,0.785
2024-09-23 14:37:33.831,172938.298,0.077,0.753,-0.654,-0.005,-0.008,0.001,-0.127,0.042,0.013,0.118,-0.852,0.785
2024-09-23 14:37:33.842,172938.308,0.078,0.754,-0.652,-0.008,-0.035,-0.012,-0.253,0.055,0.009,0.119,-0.854,0.786
2024-09-23 14:37:33.851,172938.318,0.078,0.756,-0.65,-0.01,-0.046,-0.012,-0.38,0.091,0.006,0.12,-0.857,0.786
2024-09-23 14:37:33.862,172938.328,0.079,0.759,-0.646,-0.018,-0.052,-0.015,-0.48,0.171,0.029,0.121,-0.862,0.787
2024-09-23 14:37:33.871,172938.338,0.081,0.762,-0.642,-0.02,-0.068,-0.029,-0.588,0.278,0.069,0.125,-0.867,0.789
2024-09-23 14:37:33.881,172938.348,0.083,0.767,-0.637,-0.026,-0.048,-0.021,-0.806,0.343,0.105,0.13,-0.874,0.792
2024-09-23 14:37:33.891,172938.358,0.086,0.772,-0.629,-0.041,-0.026,-0.029,-1.069,0.366,0.129,0.136,-0.882,0.795
2024-09-23 14:37:33.901,172938.368,0.09,0.78,-0.62,-0.05,-0.067,-0.057,-1.275,0.369,0.149,0.144,-0.894,0.8
2024-09-23 14:37:33.912,172938.378,0.093,0.788,-0.609,-0.038,-0.141,-0.072,-1.398,0.365,0.17,0.152,-0.907,0.806
2024-09-23 14:37:33.921,172938.388,0.097,0.796,-0.598,-0.029,-0.122,-0.065,-1.394,0.299,0.171,0.16,-0.921,0.812
2024-09-23 14:37:33.932,172938.398,0.1,0.804,-0.587,-0.029,-0.069,-0.048,-1.264,0.251,0.166,0.168,-0.933,0.819
2024-09-23 14:37:33.942,172938.408,0.102,0.81,-0.577,-0.022,-0.042,-0.029,-1.034,0.197,0.174,0.176,-0.944,0.825
2024-09-23 14:37:33.951,172938.418,0.105,0.815,-0.57,-0.006,-0.004,-0.0,-0.754,0.177,0.146,0.182,-0.953,0.83
2024-09-23 14:37:33.961,172938.428,0.107,0.818,-0.565,-0.006,0.053,0.027,-0.42,0.188,0.159,0.187,-0.958,0.834
2024-09-23 14:37:33.971,172938.438,0.11,0.82,-0.562,-0.021,0.093,0.029,-0.096,0.228,0.213,0.192,-0.961,0.838
2024-09-23 14:37:33.981,172938.448,0.113,0.819,-0.562,-0.058,0.14,0.032,0.15,0.28,0.217,0.198,-0.96,0.842
2024-09-23 14:37:33.991,172938.458,0.116,0.818,-0.564,-0.064,0.156,0.065,0.258,0.294,0.214,0.203,-0.957,0.845
2024-09-23 14:37:34.001,172938.468,0.119,0.816,-0.566,-0.089,0.135,0.064,0.277,0.269,0.201,0.208,-0.954,0.848
2024-09-23 14:37:34.011,172938.478,0.123,0.814,-0.568,-0.095,0.096,0.046,0.231,0.256,0.173,0.213,-0.951,0.85
2024-09-23 14:37:34.021,172938.488,0.125,0.813,-0.569,-0.092,0.02,0.029,0.094,0.224,0.162,0.217,-0.949,0.852
2024-09-23 14:37:34.031,172938.498,0.127,0.813,-0.569,-0.075,-0.013,0.014,-0.054,0.158,0.128,0.22,-0.949,0.854
2024-09-23 14:37:34.042,172938.508,0.129,0.813,-0.567,-0.069,-0.016,0.009,-0.213,0.119,0.095,0.224,-0.95,0.857
2024-09-23 14:37:34.058,172938.518,0.13,0.815,-0.565,-0.046,-0.058,-0.014,-0.346,0.105,0.066,0.227,-0.952,0.859
2024-09-23 14:37:34.063,172938.528,0.131,0.817,-0.562,-0.018,-0.075,-0.034,-0.459,0.107,0.063,0.23,-0.956,0.862
2024-09-23 14:37:34.070,172938.538,0.132,0.82,-0.557,-0.007,-0.051,-0.033,-0.582,0.082,0.01,0.233,-0.961,0.864
2024-09-23 14:37:34.080,172938.548,0.132,0.823,-0.552,0.005,-0.046,-0.043,-0.732,0.025,-0.032,0.236,-0.967,0.867
2024-09-23 14:37:34.090,172938.558,0.132,0.828,-0.545,0.024,-0.056,-0.049,-0.874,0.043,-0.036,0.238,-0.975,0.87
2024-09-23 14:37:34.100,172938.568,0.132,0.833,-0.537,0.026,-0.059,-0.048,-1.007,0.109,-0.045,0.242,-0.985,0.873
2024-09-23 14:37:34.110,172938.578,0.133,0.839,-0.528,0.032,-0.069,-0.043,-1.127,0.153,-0.071,0.246,-0.995,0.877
2024-09-23 14:37:34.120,172938.588,0.133,0.845,-0.518,0.042,-0.104,-0.034,-1.259,0.167,-0.11,0.251,-1.007,0.88
2024-09-23 14:37:34.131,172938.598,0.132,0.852,-0.506,0.049,-0.115,-0.034,-1.384,0.122,-0.143,0.256,-1.02,0.884
2024-09-23 14:37:34.141,172938.608,0.132,0.859,-0.494,0.057,-0.084,-0.046,-1.471,0.091,-0.131,0.261,-1.034,0.889
2024-09-23 14:37:34.151,172938.618,0.131,0.867,-0.481,0.062,-0.053,-0.062,-1.542,0.043,-0.164,0.266,-1.049,0.894
2024-09-23 14:37:34.161,172938.628,0.13,0.875,-0.467,0.073,-0.034,-0.06,-1.575,0.045,-0.175,0.27,-1.064,0.899
2024-09-23 14:37:34.171,172938.638,0.128,0.882,-0.453,0.077,-0.033,-0.056,-1.576,0.017,-0.206,0.275,-1.08,0.904
2024-09-23 14:37:34.181,172938.647,0.126,0.889,-0.44,0.063,-0.023,-0.053,-1.483,0.001,-0.259,0.279,-1.096,0.908
2024-09-23 14:37:34.191,172938.657,0.124,0.896,-0.427,0.057,0.003,-0.034,-1.304,-0.01,-0.309,0.281,-1.11,0.911
2024-09-23 14:37:34.201,172938.667,0.12,0.901,-0.417,0.031,0.023,-0.011,-1.099,-0.028,-0.348,0.282,-1.122,0.911
2024-09-23 14:37:34.211,172938.677,0.117,0.906,-0.408,0.009,0.049,0.019,-0.878,-0.032,-0.392,0.28,-1.133,0.909
2024-09-23 14:37:34.221,172938.687,0.113,0.909,-0.401,0.009,0.058,0.031,-0.512,0.016,-0.43,0.275,-1.141,0.904
2024-09-23 14:37:34.231,172938.697,0.11,0.911,-0.398,0.011,0.043,0.032,-0.206,0.11,-0.368,0.269,-1.145,0.897
2024-09-23 14:37:34.241,172938.707,0.107,0.912,-0.397,0.005,0.045,0.028,-0.058,0.127,-0.291,0.264,-1.147,0.89
2024-09-23 14:37:34.251,172938.717,0.105,0.912,-0.396,0.0,0.093,0.011,-0.016,0.102,-0.243,0.26,-1.148,0.884
2024-09-23 14:37:34.261,172938.727,0.104,0.912,-0.396,0.018,0.081,0.017,-0.031,0.056,-0.172,0.256,-1.149,0.879
2024-09-23 14:37:34.271,172938.737,0.102,0.913,-0.396,0.025,0.008,0.007,-0.032,-0.033,-0.182,0.253,-1.149,0.876
2024-09-23 14:37:34.281,172938.747,0.101,0.913,-0.396,0.027,0.01,0.002,-0.022,-0.013,-0.164,0.249,-1.15,0.872
2024-09-23 14:37:34.291,172938.757,0.099,0.913,-0.396,0.017,0.064,0.003,0.012,0.047,-0.137,0.246,-1.151,0.868
2024-09-23 14:37:34.300,172938.767,0.098,0.913,-0.396,-0.011,0.103,0.028,-0.006,0.099,-0.115,0.244,-1.151,0.865
2024-09-23 14:37:34.309,172938.777,0.098,0.913,-0.395,-0.004,0.094,0.026,-0.042,0.053,-0.129,0.242,-1.151,0.862
2024-09-23 14:37:34.319,172938.787,0.097,0.914,-0.395,0.006,0.069,0.017,-0.059,-0.001,-0.142,0.24,-1.152,0.859
2024-09-23 14:37:34.329,172938.797,0.095,0.914,-0.394,0.012,0.04,-0.003,-0.002,-0.03,-0.166,0.236,-1.153,0.856
2024-09-23 14:37:34.340,172938.807,0.093,0.914,-0.395,0.024,0.04,-0.031,0.069,0.006,-0.166,0.232,-1.153,0.852
2024-09-23 14:37:34.350,172938.817,0.092,0.914,-0.396,0.022,0.053,-0.056,0.089,0.055,-0.153,0.229,-1.153,0.847
2024-09-23 14:37:34.360,172938.827,0.091,0.914,-0.396,0.005,0.06,-0.057,0.013,0.12,-0.154,0.226,-1.152,0.843
2024-09-23 14:37:34.371,172938.837,0.09,0.914,-0.396,-0.002,0.061,-0.039,0.067,0.12,-0.126,0.224,-1.152,0.84
2024-09-23 14:37:34.381,172938.847,0.09,0.913,-0.397,-0.012,0.037,-0.018,0.11,0.141,-0.081,0.222,-1.152,0.837
2024-09-23 14:37:34.390,172938.857,0.09,0.913,-0.398,-0.011,0.008,-0.023,0.108,0.201,-0.056,0.222,-1.151,0.835
2024-09-23 14:37:34.401,172938.867,0.09,0.913,-0.398,0.003,0.011,-0.016,0.086,0.224,-0.026,0.223,-1.15,0.833
2024-09-23 14:37:34.411,172938.877,0.091,0.913,-0.399,-0.013,0.011,-0.01,0.024,0.229,-0.006,0.225,-1.15,0.832
2024-09-23 14:37:34.421,172938.887,0.092,0.913,-0.398,-0.025,-0.021,-0.016,-0.063,0.197,0.002,0.227,-1.15,0.833
2024-09-23 14:37:34.431,172938.897,0.093,0.913,-0.397,-0.015,-0.03,-0.014,-0.187,0.191,0.016,0.23,-1.151,0.833
2024-09-23 14:37:34.441,172938.907,0.094,0.914,-0.395,-0.005,-0.03,-0.013,-0.314,0.194,0.045,0.233,-1.153,0.836
2024-09-23 14:37:34.450,172938.917,0.095,0.915,-0.391,-0.009,-0.031,-0.011,-0.363,0.175,0.068,0.238,-1.156,0.839
2024-09-23 14:37:34.461,172938.927,0.096,0.917,-0.388,-0.019,-0.039,-0.013,-0.349,0.172,0.086,0.244,-1.16,0.843
2024-09-23 14:37:34.470,172938.937,0.098,0.918,-0.385,-0.015,-0.046,-0.021,-0.297,0.182,0.105,0.249,-1.163,0.847
2024-09-23 14:37:34.480,172938.947,0.1,0.919,-0.382,-0.013,-0.03,-0.023,-0.22,0.206,0.107,0.255,-1.165,0.851
2024-09-23 14:37:34.490,172938.957,0.101,0.919,-0.38,-0.018,-0.015,-0.013,-0.162,0.201,0.095,0.26,-1.166,0.855
2024-09-23 14:37:34.500,172938.967,0.103,0.92,-0.379,-0.016,-0.013,-0.009,-0.08,0.205,0.074,0.265,-1.167,0.858
2024-09-23 14:37:34.510,172938.977,0.104,0.92,-0.378,-0.016,-0.011,-0.002,-0.018,0.199,0.06,0.269,-1.168,0.859
2024-09-23 14:37:34.520,172938.987,0.105,0.92,-0.378,-0.008,-0.016,-0.004,0.048,0.189,0.052,0.272,-1.167,0.861
2024-09-23 14:37:34.530,172938.997,0.107,0.919,-0.379,-0.011,-0.024,-0.002,0.091,0.175,0.039,0.274,-1.166,0.861
2024-09-23 14:37:34.540,172939.007,0.107,0.919,-0.379,-0.016,-0.028,-0.004,0.083,0.173,0.029,0.276,-1.165,0.862
2024-09-23 14:37:34.550,172939.017,0.108,0.919,-0.38,-0.016,-0.016,-0.009,0.075,0.156,0.032,0.278,-1.165,0.862
2024-09-23 14:37:34.560,172939.027,0.109,0.918,-0.381,-0.02,0.003,-0.008,0.107,0.161,0.044,0.28,-1.164,0.862
2024-09-23 14:37:34.570,172939.037,0.11,0.918,-0.382,-0.027,0.006,0.01,0.129,0.18,0.066,0.282,-1.162,0.862
2024-09-23 14:37:34.580,172939.047,0.112,0.917,-0.382,-0.03,-0.011,0.026,0.088,0.193,0.094,0.285,-1.161,0.864
2024-09-23 14:37:34.590,172939.057,0.114,0.917,-0.383,-0.036,-0.015,0.025,0.022,0.167,0.134,0.289,-1.16,0.866
2024-09-23 14:37:34.600,172939.067,0.116,0.917,-0.382,-0.049,0.005,0.035,-0.025,0.176,0.159,0.294,-1.16,0.87
2024-09-23 14:37:34.610,172939.077,0.118,0.917,-0.382,-0.049,0.011,0.049,-0.042,0.182,0.206,0.299,-1.16,0.874
2024-09-23 14:37:34.620,172939.087,0.121,0.916,-0.382,-0.038,0.004,0.041,0.02,0.161,0.297,0.306,-1.159,0.88
2024-09-23 14:37:34.630,172939.097,0.124,0.916,-0.383,-0.037,0.012,0.044,0.229,0.228,0.366,0.314,-1.157,0.886
2024-09-23 14:37:34.640,172939.107,0.129,0.914,-0.385,-0.04,0.028,0.065,0.38,0.223,0.417,0.322,-1.153,0.893
2024-09-23 14:37:34.650,172939.117,0.133,0.912,-0.389,-0.038,0.008,0.04,0.551,0.138,0.417,0.33,-1.147,0.899
2024-09-23 14:37:34.660,172939.127,0.137,0.908,-0.395,-0.048,0.013,0.062,0.777,0.067,0.381,0.334,-1.139,0.903
2024-09-23 14:37:34.670,172939.137,0.141,0.905,-0.402,-0.023,0.074,0.071,0.781,0.024,0.416,0.337,-1.131,0.905
2024-09-23 14:37:34.680,172939.147,0.146,0.902,-0.407,0.005,0.128,0.035,0.409,0.129,0.579,0.344,-1.123,0.911
2024-09-23 14:37:34.690,172939.157,0.151,0.899,-0.41,0.01,0.158,0.019,0.26,-0.034,0.454,0.352,-1.118,0.92
2024-09-23 14:37:34.700,172939.167,0.154,0.898,-0.412,-0.007,0.11,-0.01,-0.014,-0.019,0.426,0.359,-1.116,0.928
2024-09-23 14:37:34.710,172939.177,0.158,0.898,-0.41,-0.002,0.03,-0.097,-0.273,-0.02,0.478,0.368,-1.115,0.939
2024-09-23 14:37:34.722,172939.187,0.162,0.899,-0.407,0.044,0.033,-0.038,-0.383,-0.132,0.418,0.379,-1.117,0.952
2024-09-23 14:37:34.730,172939.197,0.165,0.899,-0.405,-0.003,-0.049,-0.051,-0.172,-0.064,0.409,0.388,-1.118,0.963
2024-09-23 14:37:34.740,172939.207,0.169,0.899,-0.404,-0.003,-0.163,-0.059,0.085,0.2,0.357,0.396,-1.117,0.971
2024-09-23 14:37:34.750,172939.217,0.173,0.897,-0.406,0.06,-0.103,0.001,0.407,0.358,0.311,0.403,-1.114,0.976
2024-09-23 14:37:34.760,172939.227,0.178,0.894,-0.411,0.032,0.057,0.028,0.695,0.386,0.308,0.408,-1.107,0.977
2024-09-23 14:37:34.770,172939.237,0.182,0.891,-0.417,-0.032,0.089,0.057,0.795,0.314,0.286,0.411,-1.099,0.977
2024-09-23 14:37:34.780,172939.247,0.185,0.887,-0.423,0.02,0.018,0.089,0.764,0.273,0.235,0.413,-1.091,0.975
2024-09-23 14:37:34.790,172939.256,0.188,0.883,-0.429,0.059,0.022,0.067,0.758,0.251,0.124,0.413,-1.083,0.972
2024-09-23 14:37:34.800,172939.266,0.19,0.88,-0.436,0.02,0.044,0.008,0.885,0.22,0.047,0.411,-1.075,0.967
2024-09-23 14:37:34.810,172939.276,0.191,0.875,-0.444,0.01,0.062,-0.035,1.072,0.275,-0.034,0.406,-1.066,0.959
2024-09-23 14:37:34.820,172939.286,0.192,0.871,-0.453,0.028,0.053,-0.062,1.064,0.372,-0.07,0.401,-1.057,0.949
2024-09-23 14:37:34.830,172939.296,0.193,0.867,-0.46,0.013,0.014,-0.061,0.733,0.486,-0.033,0.398,-1.048,0.941
2024-09-23 14:37:34.840,172939.306,0.195,0.864,-0.464,-0.012,-0.028,-0.029,0.542,0.401,0.022,0.398,-1.043,0.936
2024-09-23 14:37:34.850,172939.316,0.198,0.862,-0.467,-0.003,-0.127,0.033,0.218,0.426,0.151,0.401,-1.039,0.935
2024-09-23 14:37:34.860,172939.326,0.202,0.862,-0.466,0.024,-0.312,0.082,-0.354,0.5,0.273,0.409,-1.038,0.939
2024-09-23 14:37:34.870,172939.336,0.207,0.864,-0.459,0.016,-0.27,0.127,-0.999,0.377,0.446,0.424,-1.043,0.951
2024-09-23 14:37:34.880,172939.346,0.213,0.868,-0.448,-0.029,-0.144,0.104,-1.374,0.227,0.491,0.443,-1.052,0.97
2024-09-23 14:37:34.890,172939.356,0.218,0.873,-0.436,-0.011,-0.146,0.049,-1.314,0.198,0.434,0.463,-1.062,0.99
2024-09-23 14:37:34.899,172939.366,0.222,0.878,-0.425,-0.008,-0.104,0.004,-1.06,0.31,0.433,0.483,-1.071,1.01
2024-09-23 14:37:34.910,172939.376,0.228,0.88,-0.416,0.0,0.02,-0.061,-0.72,0.361,0.503,0.501,-1.077,1.027
2024-09-23 14:37:34.920,172939.386,0.234,0.881,-0.41,-0.039,0.079,-0.073,-0.4,0.369,0.529,0.518,-1.079,1.042
2024-09-23 14:37:34.929,172939.396,0.24,0.881,-0.408,-0.082,0.031,-0.036,0.061,0.417,0.443,0.532,-1.078,1.053
2024-09-23 14:37:34.940,172939.406,0.245,0.879,-0.409,-0.074,0.005,0.021,0.385,0.373,0.26,0.54,-1.074,1.057
2024-09-23 14:37:34.949,172939.416,0.248,0.876,-0.413,-0.052,0.04,0.035,0.767,0.311,0.16,0.541,-1.068,1.055
2024-09-23 14:37:34.959,172939.426,0.25,0.873,-0.42,-0.05,0.126,0.039,0.934,0.247,0.004,0.537,-1.06,1.047
2024-09-23 14:37:34.969,172939.436,0.25,0.869,-0.427,-0.044,0.147,-0.02,0.666,0.105,-0.143,0.53,-1.054,1.037
2024-09-23 14:37:34.979,172939.446,0.249,0.868,-0.431,-0.028,0.089,-0.107,0.279,-0.04,-0.204,0.524,-1.05,1.029
2024-09-23 14:37:34.989,172939.456,0.246,0.868,-0.432,-0.031,0.037,-0.092,0.021,-0.155,-0.188,0.518,-1.05,1.024
2024-09-23 14:37:34.999,172939.466,0.244,0.868,-0.433,-0.008,0.01,-0.004,0.073,-0.299,-0.112,0.514,-1.051,1.021
2024-09-23 14:37:35.009,172939.476,0.241,0.867,-0.436,0.034,0.037,0.043,0.501,-0.439,-0.137,0.506,-1.049,1.017
2024-09-23 14:37:35.019,172939.486,0.239,0.865,-0.442,0.048,0.083,0.06,0.606,-0.396,-0.087,0.495,-1.044,1.009
2024-09-23 14:37:35.029,172939.496,0.237,0.862,-0.447,0.022,0.03,0.014,0.394,-0.351,0.055,0.487,-1.04,1.004
2024-09-23 14:37:35.040,172939.506,0.236,0.861,-0.45,-0.003,0.001,0.038,0.077,-0.233,0.013,0.483,-1.038,1.003
2024-09-23 14:37:35.050,172939.516,0.234,0.861,-0.451,-0.005,0.016,0.083,0.0,-0.231,-0.178,0.479,-1.038,1.001
2024-09-23 14:37:35.060,172939.526,0.232,0.861,-0.453,-0.008,-0.007,0.06,0.353,-0.209,-0.161,0.473,-1.037,0.996
2024-09-23 14:37:35.070,172939.536,0.23,0.859,-0.458,0.008,-0.066,-0.02,0.686,-0.145,-0.108,0.465,-1.033,0.989
2024-09-23 14:37:35.078,172939.546,0.228,0.856,-0.465,0.013,-0.066,-0.061,0.874,-0.175,-0.146,0.456,-1.027,0.981
2024-09-23 14:37:35.088,172939.556,0.225,0.851,-0.474,0.003,0.105,-0.043,1.181,-0.252,-0.24,0.444,-1.018,0.969
2024-09-23 14:37:35.098,172939.566,0.222,0.846,-0.486,-0.009,0.169,-0.044,1.376,-0.323,-0.215,0.429,-1.008,0.954
2024-09-23 14:37:35.108,172939.576,0.218,0.84,-0.497,0.025,0.04,-0.025,1.239,-0.421,-0.269,0.413,-0.997,0.941
2024-09-23 14:37:35.119,172939.586,0.213,0.834,-0.509,0.069,-0.043,0.031,1.268,-0.483,-0.306,0.397,-0.986,0.927
2024-09-23 14:37:35.129,172939.596,0.208,0.828,-0.52,0.05,0.022,0.045,1.212,-0.577,-0.306,0.381,-0.976,0.913
2024-09-23 14:37:35.139,172939.606,0.202,0.823,-0.531,0.019,-0.04,0.043,1.048,-0.61,-0.339,0.364,-0.967,0.901
2024-09-23 14:37:35.149,172939.616,0.196,0.818,-0.541,0.059,-0.092,0.08,1.041,-0.557,-0.31,0.348,-0.958,0.889
2024-09-23 14:37:35.159,172939.626,0.192,0.814,-0.549,0.079,-0.081,0.151,0.707,-0.509,-0.193,0.336,-0.951,0.88
2024-09-23 14:37:35.169,172939.636,0.187,0.811,-0.555,0.065,-0.162,0.243,0.658,-0.606,-0.19,0.325,-0.945,0.873
2024-09-23 14:37:35.179,172939.646,0.182,0.807,-0.561,0.069,-0.201,0.276,0.728,-0.688,-0.222,0.313,-0.94,0.867
2024-09-23 14:37:35.190,172939.656,0.176,0.803,-0.57,0.07,-0.195,0.185,1.113,-0.686,-0.36,0.299,-0.932,0.857
2024-09-23 14:37:35.199,172939.666,0.168,0.796,-0.582,0.068,-0.061,0.066,1.605,-0.767,-0.511,0.281,-0.92,0.844
2024-09-23 14:37:35.209,172939.676,0.159,0.786,-0.598,0.063,0.073,0.019,1.996,-0.833,-0.659,0.26,-0.904,0.827
2024-09-23 14:37:35.219,172939.686,0.148,0.774,-0.616,0.02,0.123,0.024,2.276,-0.891,-0.691,0.236,-0.885,0.808
2024-09-23 14:37:35.229,172939.696,0.137,0.761,-0.635,0.042,0.153,0.025,2.314,-1.014,-0.629,0.213,-0.864,0.79
2024-09-23 14:37:35.239,172939.706,0.126,0.746,-0.654,0.059,0.071,0.04,2.33,-1.079,-0.548,0.19,-0.843,0.774
2024-09-23 14:37:35.249,172939.716,0.115,0.732,-0.671,0.043,-0.016,0.091,2.048,-1.074,-0.45,0.17,-0.822,0.761
2024-09-23 14:37:35.259,172939.726,0.105,0.72,-0.686,0.063,-0.055,0.143,1.591,-1.028,-0.33,0.152,-0.804,0.751
2024-09-23 14:37:35.269,172939.736,0.096,0.712,-0.696,0.065,-0.052,0.204,1.049,-0.92,-0.209,0.138,-0.792,0.744
2024-09-23 14:37:35.279,172939.746,0.089,0.706,-0.703,0.012,-0.083,0.194,0.611,-0.9,-0.116,0.126,-0.784,0.741
2024-09-23 14:37:35.289,172939.756,0.082,0.703,-0.707,-0.038,-0.107,0.112,0.418,-0.906,-0.131,0.115,-0.779,0.738
2024-09-23 14:37:35.299,172939.766,0.074,0.7,-0.711,-0.059,-0.064,0.013,0.438,-0.944,-0.165,0.104,-0.775,0.735
2024-09-23 14:37:35.309,172939.776,0.066,0.696,-0.715,-0.062,0.019,-0.076,0.604,-0.946,-0.213,0.092,-0.77,0.732
2024-09-23 14:37:35.320,172939.786,0.059,0.692,-0.72,-0.073,0.09,-0.12,0.613,-0.825,-0.181,0.081,-0.764,0.728
2024-09-23 14:37:35.329,172939.796,0.051,0.688,-0.724,-0.057,0.117,-0.132,0.584,-0.793,-0.183,0.071,-0.758,0.725
2024-09-23 14:37:35.339,172939.806,0.045,0.684,-0.728,-0.06,0.092,-0.063,0.451,-0.547,-0.101,0.062,-0.753,0.723
2024-09-23 14:37:35.349,172939.816,0.042,0.682,-0.73,-0.034,0.028,0.043,-0.024,-0.427,-0.054,0.057,-0.751,0.722
2024-09-23 14:37:35.359,172939.826,0.038,0.684,-0.728,-0.004,-0.039,0.077,-0.492,-0.595,-0.138,0.052,-0.753,0.721
2024-09-23 14:37:35.369,172939.836,0.032,0.685,-0.727,-0.052,-0.047,0.003,0.137,-0.475,-0.235,0.044,-0.755,0.718
2024-09-23 14:37:35.379,172939.846,0.03,0.685,-0.728,-0.091,-0.067,-0.135,-0.147,-0.07,0.03,0.041,-0.755,0.717
2024-09-23 14:37:35.389,172939.855,0.03,0.688,-0.725,-0.019,-0.101,-0.015,-0.515,0.002,0.048,0.041,-0.758,0.718
2024-09-23 14:37:35.399,172939.865,0.03,0.692,-0.721,0.05,-0.07,0.2,-0.821,-0.039,0.015,0.041,-0.765,0.719
2024-09-23 14:37:35.409,172939.875,0.031,0.699,-0.715,-0.017,-0.179,0.091,-0.954,0.186,0.083,0.043,-0.774,0.72
2024-09-23 14:37:35.419,172939.885,0.034,0.706,-0.707,-0.093,-0.138,-0.059,-1.152,0.357,0.21,0.047,-0.784,0.722
2024-09-23 14:37:35.429,172939.895,0.039,0.715,-0.698,-0.104,0.012,-0.079,-1.458,0.49,0.366,0.055,-0.797,0.727
2024-09-23 14:37:35.439,172939.905,0.045,0.726,-0.686,-0.173,-0.109,-0.051,-1.812,0.606,0.486,0.066,-0.813,0.735
2024-09-23 14:37:35.449,172939.915,0.054,0.74,-0.671,-0.127,-0.176,0.004,-2.159,0.759,0.6,0.08,-0.832,0.745
2024-09-23 14:37:35.459,172939.925,0.064,0.754,-0.653,-0.081,-0.142,0.015,-2.419,0.89,0.65,0.098,-0.855,0.758
2024-09-23 14:37:35.469,172939.935,0.075,0.77,-0.634,-0.09,-0.094,-0.01,-2.477,1.075,0.64,0.118,-0.878,0.772
2024-09-23 14:37:35.479,172939.945,0.088,0.785,-0.614,-0.106,-0.075,-0.06,-2.456,1.282,0.673,0.142,-0.902,0.787
2024-09-23 14:37:35.489,172939.955,0.101,0.799,-0.593,-0.134,-0.087,-0.096,-2.574,1.423,0.692,0.169,-0.926,0.804
2024-09-23 14:37:35.499,172939.965,0.115,0.814,-0.57,-0.142,-0.082,-0.086,-2.763,1.49,0.706,0.2,-0.95,0.824
2024-09-23 14:37:35.509,172939.975,0.13,0.829,-0.544,-0.151,-0.057,-0.066,-2.951,1.536,0.712,0.234,-0.977,0.847
2024-09-23 14:37:35.519,172939.985,0.144,0.844,-0.517,-0.162,-0.03,-0.056,-3.146,1.547,0.712,0.271,-1.004,0.874
2024-09-23 14:37:35.529,172939.995,0.158,0.859,-0.487,-0.172,0.038,-0.105,-3.268,1.647,0.701,0.313,-1.033,0.904
2024-09-23 14:37:35.539,172940.005,0.171,0.874,-0.456,-0.179,0.157,-0.152,-3.42,1.613,0.655,0.36,-1.062,0.939
2024-09-23 14:37:35.549,172940.015,0.184,0.887,-0.423,-0.172,0.165,-0.177,-3.431,1.52,0.621,0.41,-1.092,0.978
2024-09-23 14:37:35.559,172940.025,0.196,0.9,-0.39,-0.148,0.108,-0.161,-3.368,1.42,0.69,0.465,-1.12,1.024
2024-09-23 14:37:35.569,172940.035,0.207,0.911,-0.356,-0.106,0.087,-0.101,-3.385,1.307,0.766,0.527,-1.146,1.076
2024-09-23 14:37:35.579,172940.045,0.219,0.921,-0.322,-0.06,0.062,-0.052,-3.509,1.096,0.782,0.596,-1.171,1.139
2024-09-23 14:37:35.589,172940.055,0.229,0.93,-0.287,-0.011,-0.015,-0.021,-3.611,0.974,0.809,0.673,-1.195,1.211
2024-09-23 14:37:35.599,172940.065,0.239,0.938,-0.25,0.047,-0.089,0.016,-3.943,0.886,0.817,0.763,-1.218,1.298
2024-09-23 14:37:35.608,172940.075,0.248,0.946,-0.209,0.078,-0.175,0.003,-4.174,0.674,0.781,0.87,-1.24,1.402
2024-09-23 14:37:35.618,172940.085,0.257,0.952,-0.169,0.073,-0.172,-0.054,-4.049,0.419,0.79,0.989,-1.258,1.522
2024-09-23 14:37:35.629,172940.095,0.265,0.955,-0.131,0.074,-0.072,-0.056,-3.636,0.412,0.743,1.111,-1.271,1.645
2024-09-23 14:37:35.639,172940.105,0.272,0.957,-0.097,0.112,0.063,-0.032,-3.166,0.629,0.586,1.227,-1.278,1.762
2024-09-23 14:37:35.649,172940.115,0.277,0.958,-0.067,0.108,0.117,-0.081,-2.732,0.713,0.427,1.332,-1.282,1.865
2024-09-23 14:37:35.659,172940.125,0.281,0.959,-0.041,0.031,-0.016,-0.18,-2.414,0.639,0.198,1.427,-1.283,1.956
2024-09-23 14:37:35.668,172940.135,0.282,0.959,-0.018,0.052,-0.13,-0.236,-2.061,0.64,0.075,1.508,-1.284,2.034
2024-09-23 14:37:35.678,172940.145,0.283,0.959,0.004,0.13,-0.102,-0.146,-2.127,0.761,0.131,1.585,-1.284,2.107
2024-09-23 14:37:35.689,172940.155,0.284,0.958,0.027,0.135,-0.037,-0.07,-2.283,0.796,0.111,1.667,-1.281,2.184
2024-09-23 14:37:35.698,172940.165,0.285,0.957,0.052,0.118,-0.026,-0.044,-2.499,0.685,0.057,1.753,-1.277,2.266
2024-09-23 14:37:35.709,172940.175,0.284,0.956,0.078,0.102,-0.163,-0.059,-2.52,0.582,-0.12,1.84,-1.272,2.351
2024-09-23 14:37:35.717,172940.185,0.282,0.954,0.104,0.139,-0.266,-0.131,-2.603,0.546,-0.175,1.925,-1.266,2.434
2024-09-23 14:37:35.727,172940.195,0.28,0.951,0.132,0.124,-0.187,-0.221,-2.991,0.453,-0.167,2.012,-1.256,2.52
2024-09-23 14:37:35.738,172940.205,0.277,0.947,0.164,0.082,-0.084,-0.219,-3.485,0.313,-0.329,2.105,-1.243,2.614
2024-09-23 14:37:35.748,172940.215,0.273,0.941,0.2,0.094,-0.151,-0.178,-3.986,0.244,-0.399,2.203,-1.226,2.715
2024-09-23 14:37:35.758,172940.225,0.269,0.933,0.239,0.079,-0.322,-0.146,-4.237,0.105,-0.396,2.298,-1.203,2.814
2024-09-23 14:37:35.768,172940.235,0.265,0.923,0.278,0.065,-0.372,-0.084,-4.217,0.065,-0.399,2.381,-1.176,2.903
2024-09-23 14:37:35.778,172940.245,0.261,0.912,0.317,0.066,-0.303,-0.008,-4.065,0.099,-0.324,2.452,-1.148,2.979
2024-09-23 14:37:35.788,172940.255,0.258,0.9,0.352,0.044,-0.21,0.041,-3.659,0.187,-0.346,2.51,-1.119,3.041
2024-09-23 14:37:35.798,172940.265,0.253,0.889,0.382,0.015,-0.123,0.04,-2.975,0.241,-0.448,2.556,-1.094,3.091
2024-09-23 14:37:35.808,172940.275,0.249,0.879,0.407,-0.029,-0.042,0.025,-2.399,0.291,-0.391,2.593,-1.074,3.13
2024-09-23 14:37:35.818,172940.285,0.244,0.871,0.426,-0.12,0.102,-0.005,-1.993,0.396,-0.305,2.622,-1.057,-3.125
2024-09-23 14:37:35.828,172940.295,0.24,0.863,0.444,-0.135,0.206,-0.05,-1.922,0.36,-0.17,2.645,-1.041,-3.101
2024-09-23 14:37:35.838,172940.305,0.238,0.854,0.462,-0.134,0.14,-0.088,-2.037,0.285,-0.105,2.666,-1.025,-3.081
2024-09-23 14:37:35.847,172940.315,0.236,0.844,0.481,-0.132,0.015,-0.045,-2.343,0.235,-0.109,2.686,-1.006,-3.061
2024-09-23 14:37:35.857,172940.325,0.234,0.832,0.503,-0.127,-0.101,0.058,-2.778,0.22,-0.158,2.707,-0.983,-3.039
2024-09-23 14:37:35.867,172940.335,0.231,0.817,0.528,-0.126,-0.182,0.125,-3.122,0.229,-0.178,2.729,-0.957,-3.014
2024-09-23 14:37:35.877,172940.345,0.228,0.8,0.554,-0.121,-0.196,0.158,-3.237,0.2,-0.18,2.751,-0.928,-2.99
2024-09-23 14:37:35.887,172940.355,0.226,0.783,0.579,-0.12,-0.145,0.131,-3.002,0.133,-0.194,2.77,-0.9,-2.968
2024-09-23 14:37:35.898,172940.365,0.219,0.762,0.609,-0.119,-0.053,0.027,-6.415,1.158,-1.655,2.796,-0.867,-2.939
2024-09-23 14:37:35.908,172940.375,0.205,0.746,0.633,-0.112,0.066,-0.059,0.039,0.94,0.062,2.828,-0.843,-2.916
2024-09-23 14:37:35.917,172940.385,0.206,0.751,0.627,0.095,1.415,0.329,0.809,-0.968,-0.252,2.824,-0.849,-2.917
2024-09-23 14:37:35.928,172940.395,0.208,0.751,0.626,0.138,1.218,0.354,-0.342,0.085,0.447,2.821,-0.85,-2.918
2024-09-23 14:37:35.938,172940.405,0.213,0.748,0.628,-0.223,-0.512,0.554,-0.226,-0.021,0.831,2.815,-0.845,-2.926
2024-09-23 14:37:35.948,172940.415,0.22,0.743,0.632,0.012,0.096,-0.016,-0.932,-0.358,0.782,2.807,-0.837,-2.936
2024-09-23 14:37:35.959,172940.425,0.229,0.733,0.64,-0.073,0.242,-0.177,-1.474,-0.51,0.773,2.799,-0.823,-2.941
2024-09-23 14:37:35.967,172940.435,0.238,0.722,0.65,-0.079,0.129,-0.053,-1.687,-0.756,0.529,2.791,-0.806,-2.942
2024-09-23 14:37:35.977,172940.445,0.244,0.71,0.661,0.049,0.016,-0.031,-1.767,-0.314,0.182,2.789,-0.789,-2.938
2024-09-23 14:37:35.988,172940.454,0.246,0.697,0.673,0.095,-0.045,-0.04,-1.778,0.058,0.421,2.791,-0.771,-2.933
2024-09-23 14:37:35.997,172940.464,0.249,0.685,0.685,-0.084,-0.004,-0.125,-1.465,0.086,0.442,2.793,-0.755,-2.931
2024-09-23 14:37:36.006,172940.474,0.251,0.675,0.693,-0.116,0.09,-0.117,-0.855,-0.089,0.178,2.794,-0.742,-2.93
2024-09-23 14:37:36.017,172940.484,0.253,0.676,0.692,-0.017,0.007,0.005,0.945,-0.357,-0.048,2.792,-0.742,-2.931
2024-09-23 14:37:36.027,172940.494,0.256,0.685,0.682,-0.038,-0.009,-0.003,1.675,-0.419,0.142,2.782,-0.755,-2.938
2024-09-23 14:37:36.037,172940.504,0.26,0.696,0.669,-0.069,0.25,-0.114,1.47,-0.402,0.104,2.771,-0.77,-2.948
2024-09-23 14:37:36.047,172940.514,0.263,0.703,0.66,-0.061,0.23,-0.075,0.864,-0.455,0.088,2.762,-0.78,-2.955
2024-09-23 14:37:36.056,172940.524,0.267,0.706,0.655,-0.048,-0.009,0.012,0.376,-0.611,0.185,2.754,-0.784,-2.959
2024-09-23 14:37:36.066,172940.534,0.273,0.705,0.654,-0.025,-0.068,0.024,-0.507,-0.67,0.233,2.746,-0.783,-2.962
2024-09-23 14:37:36.077,172940.544,0.28,0.701,0.656,-0.02,-0.076,0.091,-0.528,-0.916,0.195,2.738,-0.777,-2.961
2024-09-23 14:37:36.086,172940.554,0.288,0.698,0.656,-0.038,-0.092,0.138,-0.133,-1.038,0.248,2.728,-0.773,-2.962
2024-09-23 14:37:36.096,172940.564,0.297,0.697,0.653,-0.076,-0.059,0.085,0.018,-1.074,0.266,2.715,-0.771,-2.966
2024-09-23 14:37:36.106,172940.574,0.304,0.696,0.65,-0.055,-0.081,0.177,-0.002,-0.809,0.071,2.704,-0.77,-2.968
2024-09-23 14:37:36.119,172940.584,0.309,0.697,0.648,-0.063,-0.134,0.187,0.173,-0.529,0.089,2.697,-0.771,-2.969
2024-09-23 14:37:36.126,172940.594,0.312,0.699,0.644,-0.077,-0.128,0.069,0.503,-0.393,0.046,2.69,-0.773,-2.972
2024-09-23 14:37:36.136,172940.604,0.315,0.702,0.639,-0.104,-0.029,-0.003,0.578,-0.37,-0.001,2.684,-0.778,-2.976
2024-09-23 14:37:36.146,172940.614,0.317,0.705,0.634,-0.132,0.058,-0.014,0.457,-0.349,-0.028,2.678,-0.783,-2.979
2024-09-23 14:37:36.156,172940.624,0.318,0.708,0.63,-0.107,0.04,-0.005,0.381,-0.296,-0.109,2.674,-0.787,-2.981
2024-09-23 14:37:36.167,172940.634,0.319,0.711,0.626,-0.063,-0.029,0.052,0.414,-0.27,-0.146,2.67,-0.791,-2.982
2024-09-23 14:37:36.177,172940.644,0.32,0.714,0.623,-0.049,-0.055,0.091,0.383,-0.277,-0.122,2.666,-0.795,-2.983
2024-09-23 14:37:36.187,172940.654,0.321,0.716,0.619,-0.032,-0.054,0.076,0.165,-0.269,-0.088,2.663,-0.798,-2.983
2024-09-23 14:37:36.197,172940.664,0.323,0.717,0.618,-0.003,-0.068,0.064,0.023,-0.35,-0.116,2.66,-0.8,-2.982
2024-09-23 14:37:36.207,172940.674,0.324,0.718,0.616,0.012,-0.085,0.068,0.012,-0.4,-0.104,2.658,-0.8,-2.981
2024-09-23 14:37:36.217,172940.684,0.326,0.718,0.615,0.024,-0.049,0.051,0.128,-0.409,-0.031,2.654,-0.801,-2.981
2024-09-23 14:37:36.227,172940.694,0.329,0.719,0.612,0.017,-0.022,0.011,0.24,-0.471,0.013,2.648,-0.803,-2.982
2024-09-23 14:37:36.238,172940.704,0.332,0.721,0.608,-0.011,0.022,-0.011,0.291,-0.481,0.036,2.642,-0.805,-2.984
2024-09-23 14:37:36.247,172940.714,0.334,0.723,0.605,-0.024,0.047,-0.017,0.243,-0.379,0.016,2.637,-0.808,-2.986
2024-09-23 14:37:36.258,172940.724,0.337,0.724,0.603,0.01,0.048,-0.033,0.118,-0.35,0.095,2.632,-0.809,-2.988
2024-09-23 14:37:36.267,172940.734,0.34,0.723,0.601,0.043,0.028,-0.069,-0.073,-0.453,0.129,2.627,-0.809,-2.99
2024-09-23 14:37:36.277,172940.744,0.344,0.722,0.601,0.08,0.028,-0.088,-0.306,-0.52,0.054,2.622,-0.806,-2.989
2024-09-23 14:37:36.288,172940.754,0.347,0.719,0.602,0.135,0.009,-0.065,-0.404,-0.467,0.093,2.618,-0.803,-2.988
2024-09-23 14:37:36.298,172940.764,0.351,0.716,0.603,0.084,-0.004,-0.042,-0.503,-0.345,0.19,2.615,-0.798,-2.986
2024-09-23 14:37:36.307,172940.774,0.354,0.713,0.606,-0.022,0.019,-0.011,-0.416,-0.313,0.231,2.613,-0.793,-2.985
2024-09-23 14:37:36.317,172940.784,0.358,0.71,0.607,-0.004,-0.011,0.032,-0.204,-0.143,0.337,2.609,-0.789,-2.987
2024-09-23 14:37:36.327,172940.794,0.36,0.708,0.608,0.035,-0.045,0.033,-0.019,0.038,0.349,2.606,-0.786,-2.99
2024-09-23 14:37:36.337,172940.804,0.363,0.707,0.608,0.027,0.026,-0.025,0.064,0.077,0.352,2.604,-0.785,-2.994
2024-09-23 14:37:36.353,172940.814,0.365,0.706,0.607,0.043,0.057,-0.043,0.14,0.045,0.349,2.601,-0.784,-2.999
2024-09-23 14:37:36.358,172940.824,0.367,0.705,0.607,0.084,0.032,-0.035,0.048,0.055,0.35,2.598,-0.783,-3.004
2024-09-23 14:37:36.368,172940.834,0.369,0.704,0.607,0.079,0.004,-0.016,-0.179,0.068,0.311,2.596,-0.781,-3.008
2024-09-23 14:37:36.377,172940.844,0.37,0.701,0.61,0.032,-0.008,-0.016,-0.449,0.092,0.294,2.596,-0.777,-3.009
2024-09-23 14:37:36.387,172940.854,0.372,0.696,0.614,-0.036,-0.007,-0.016,-0.577,0.121,0.317,2.597,-0.77,-3.009
2024-09-23 14:37:36.397,172940.864,0.373,0.692,0.618,-0.085,-0.022,-0.012,-0.622,0.149,0.317,2.599,-0.764,-3.009
2024-09-23 14:37:36.407,172940.874,0.374,0.687,0.623,-0.083,-0.038,-0.005,-0.626,0.121,0.276,2.601,-0.757,-3.008
2024-09-23 14:37:36.417,172940.884,0.376,0.682,0.627,-0.058,-0.03,0.009,-0.497,0.088,0.226,2.602,-0.751,-3.007
2024-09-23 14:37:36.427,172940.894,0.376,0.679,0.631,-0.001,-0.021,0.018,-0.268,0.123,0.183,2.604,-0.746,-3.006
2024-09-23 14:37:36.437,172940.904,0.376,0.678,0.632,0.055,-0.016,0.032,0.141,0.188,0.088,2.604,-0.745,-3.007
2024-09-23 14:37:36.447,172940.914,0.375,0.68,0.63,0.049,0.048,0.074,0.498,0.205,-0.014,2.605,-0.748,-3.01
2024-09-23 14:37:36.457,172940.924,0.374,0.684,0.627,0.019,0.062,0.067,0.707,0.255,-0.043,2.604,-0.753,-3.014
2024-09-23 14:37:36.467,172940.934,0.371,0.689,0.623,0.026,0.039,0.034,0.823,0.285,-0.079,2.604,-0.76,-3.019
2024-09-23 14:37:36.477,172940.944,0.369,0.694,0.618,0.04,0.013,0.015,0.888,0.297,-0.094,2.603,-0.768,-3.024
2024-09-23 14:37:36.487,172940.954,0.367,0.7,0.613,0.028,0.006,-0.005,0.786,0.269,-0.106,2.603,-0.775,-3.028
2024-09-23 14:37:36.497,172940.964,0.364,0.704,0.609,0.016,0.013,-0.012,0.503,0.11,-0.154,2.602,-0.782,-3.032
2024-09-23 14:37:36.507,172940.974,0.363,0.707,0.607,-0.001,-0.054,-0.008,0.21,-0.053,-0.187,2.602,-0.786,-3.032
2024-09-23 14:37:36.517,172940.984,0.362,0.709,0.605,0.004,-0.107,0.03,0.042,-0.149,-0.223,2.602,-0.788,-3.03
2024-09-23 14:37:36.527,172940.994,0.362,0.71,0.605,0.014,-0.098,0.044,0.014,-0.205,-0.239,2.602,-0.789,-3.028
2024-09-23 14:37:36.537,172941.004,0.361,0.711,0.604,-0.017,-0.066,0.043,0.039,-0.209,-0.261,2.602,-0.79,-3.025
2024-09-23 14:37:36.547,172941.014,0.36,0.712,0.603,-0.034,-0.028,0.051,0.09,-0.188,-0.336,2.603,-0.793,-3.022
2024-09-23 14:37:36.557,172941.024,0.359,0.714,0.601,-0.024,-0.013,0.033,0.169,-0.205,-0.384,2.603,-0.796,-3.018
2024-09-23 14:37:36.567,172941.034,0.357,0.717,0.599,-0.021,-0.042,0.013,0.246,-0.212,-0.394,2.603,-0.799,-3.015
2024-09-23 14:37:36.577,172941.044,0.356,0.72,0.596,-0.005,-0.072,0.034,0.376,-0.203,-0.406,2.603,-0.804,-3.012
2024-09-23 14:37:36.587,172941.054,0.354,0.724,0.592,0.003,-0.065,0.056,0.457,-0.197,-0.438,2.603,-0.81,-3.01
2024-09-23 14:37:36.598,172941.063,0.352,0.729,0.588,-0.014,-0.05,0.036,0.475,-0.188,-0.537,2.603,-0.816,-3.008
2024-09-23 14:37:36.607,172941.073,0.348,0.734,0.584,-0.03,-0.005,0.007,0.559,-0.162,-0.617,2.603,-0.824,-3.004
2024-09-23 14:37:36.617,172941.083,0.345,0.739,0.578,-0.039,0.036,-0.026,0.67,-0.153,-0.619,2.604,-0.832,-3.001
2024-09-23 14:37:36.626,172941.093,0.341,0.746,0.572,-0.046,0.05,-0.079,0.83,-0.177,-0.582,2.604,-0.842,-2.999
2024-09-23 14:37:36.637,172941.103,0.338,0.752,0.565,-0.047,0.091,-0.078,0.858,-0.229,-0.577,2.603,-0.852,-2.998
2024-09-23 14:37:36.647,172941.113,0.335,0.759,0.558,-0.025,0.114,-0.038,0.681,-0.281,-0.583,2.601,-0.862,-2.997
2024-09-23 14:37:36.657,172941.123,0.332,0.764,0.553,0.003,0.044,0.011,0.521,-0.32,-0.608,2.601,-0.87,-2.994
2024-09-23 14:37:36.667,172941.133,0.33,0.769,0.548,0.003,-0.037,0.046,0.544,-0.386,-0.557,2.6,-0.877,-2.99
2024-09-23 14:37:36.677,172941.143,0.328,0.773,0.543,-0.016,-0.078,0.048,0.373,-0.434,-0.455,2.598,-0.884,-2.987
2024-09-23 14:37:36.687,172941.153,0.327,0.776,0.54,-0.022,-0.045,0.074,0.093,-0.413,-0.366,2.597,-0.888,-2.983
2024-09-23 14:37:36.697,172941.163,0.327,0.776,0.539,-0.039,0.023,0.08,-0.276,-0.395,-0.291,2.597,-0.889,-2.978
2024-09-23 14:37:36.707,172941.173,0.327,0.775,0.541,-0.067,-0.029,0.033,-0.438,-0.356,-0.209,2.598,-0.887,-2.972
2024-09-23 14:37:36.717,172941.183,0.327,0.773,0.543,-0.042,-0.087,0.029,-0.436,-0.326,-0.177,2.599,-0.884,-2.965
2024-09-23 14:37:36.727,172941.193,0.327,0.772,0.545,-0.023,-0.056,0.037,-0.406,-0.193,-0.144,2.601,-0.882,-2.96
2024-09-23 14:37:36.737,172941.203,0.327,0.77,0.548,-0.026,0.006,0.036,-0.486,-0.153,-0.154,2.604,-0.878,-2.954
2024-09-23 14:37:36.747,172941.213,0.327,0.768,0.551,-0.04,0.007,0.06,-0.416,-0.076,-0.052,2.606,-0.875,-2.949
2024-09-23 14:37:36.757,172941.223,0.327,0.765,0.554,-0.085,-0.039,0.041,-0.336,0.128,0.073,2.609,-0.872,-2.947
2024-09-23 14:37:36.766,172941.233,0.327,0.763,0.557,-0.095,-0.01,0.007,-0.308,0.148,0.139,2.611,-0.868,-2.946
2024-09-23 14:37:36.777,172941.243,0.327,0.761,0.56,-0.068,0.106,-0.032,-0.363,0.131,0.148,2.613,-0.865,-2.945
2024-09-23 14:37:36.786,172941.253,0.328,0.758,0.564,0.012,0.056,-0.071,-0.483,0.135,0.247,2.615,-0.86,-2.944
2024-09-23 14:37:36.797,172941.263,0.329,0.754,0.568,0.037,-0.013,-0.043,-0.547,0.072,0.235,2.616,-0.854,-2.944
2024-09-23 14:37:36.806,172941.273,0.331,0.75,0.572,0.037,0.001,-0.028,-0.542,0.03,0.252,2.618,-0.849,-2.943
2024-09-23 14:37:36.817,172941.283,0.333,0.746,0.576,0.022,-0.001,-0.012,-0.462,-0.071,0.263,2.618,-0.843,-2.942
2024-09-23 14:37:36.827,172941.293,0.335,0.744,0.579,0.035,0.019,0.019,-0.272,-0.157,0.214,2.616,-0.838,-2.942
2024-09-23 14:37:36.837,172941.303,0.338,0.742,0.579,0.061,0.061,0.035,-0.087,-0.174,0.18,2.614,-0.836,-2.944
2024-09-23 14:37:36.846,172941.313,0.34,0.741,0.579,0.045,0.098,0.062,0.106,-0.195,0.18,2.61,-0.835,-2.946
2024-09-23 14:37:36.857,172941.323,0.343,0.741,0.577,0.012,0.177,0.059,0.167,-0.194,0.234,2.606,-0.835,-2.95
2024-09-23 14:37:36.867,172941.333,0.346,0.741,0.575,0.024,0.231,0.028,0.067,-0.262,0.309,2.6,-0.835,-2.954
2024-09-23 14:37:36.876,172941.343,0.35,0.74,0.574,0.05,0.184,0.003,-0.134,-0.324,0.395,2.594,-0.833,-2.958
2024-09-23 14:37:36.886,172941.353,0.355,0.737,0.575,0.049,0.045,-0.005,-0.318,-0.3,0.474,2.588,-0.829,-2.962
2024-09-23 14:37:36.896,172941.363,0.361,0.733,0.577,0.043,-0.016,0.027,-0.536,-0.218,0.529,2.583,-0.822,-2.965
2024-09-23 14:37:36.906,172941.373,0.366,0.727,0.581,0.032,-0.002,0.045,-0.753,-0.152,0.59,2.58,-0.814,-2.967
2024-09-23 14:37:36.916,172941.383,0.371,0.72,0.587,0.004,-0.038,0.016,-0.891,-0.131,0.684,2.578,-0.804,-2.968
2024-09-23 14:37:36.926,172941.393,0.377,0.712,0.593,-0.013,-0.079,-0.021,-0.909,-0.131,0.73,2.575,-0.792,-2.97
2024-09-23 14:37:36.936,172941.403,0.383,0.704,0.599,-0.0,-0.06,-0.051,-0.859,-0.112,0.675,2.573,-0.781,-2.972
2024-09-23 14:37:36.946,172941.413,0.388,0.696,0.604,0.008,0.018,-0.076,-0.796,-0.09,0.62,2.571,-0.77,-2.973
2024-09-23 14:37:36.956,172941.423,0.392,0.69,0.609,-0.008,0.074,-0.102,-0.671,-0.103,0.535,2.569,-0.761,-2.974
2024-09-23 14:37:36.966,172941.433,0.396,0.684,0.612,-0.025,0.063,-0.127,-0.408,-0.096,0.445,2.567,-0.754,-2.976
2024-09-23 14:37:36.976,172941.443,0.4,0.681,0.614,-0.032,0.041,-0.148,-0.208,-0.207,0.465,2.564,-0.749,-2.979
2024-09-23 14:37:36.987,172941.453,0.404,0.679,0.613,-0.024,0.053,-0.186,0.147,-0.129,0.364,2.559,-0.746,-2.983
2024-09-23 14:37:36.996,172941.463,0.406,0.68,0.61,-0.034,0.097,-0.231,0.622,0.089,0.275,2.554,-0.748,-2.99
2024-09-23 14:37:37.006,172941.473,0.408,0.684,0.604,-0.108,0.106,-0.141,1.252,-0.009,0.258,2.547,-0.754,-3.0
2024-09-23 14:37:37.016,172941.483,0.409,0.691,0.596,-0.125,0.077,-0.111,1.207,0.298,0.169,2.54,-0.763,-3.012
2024-09-23 14:37:37.026,172941.493,0.408,0.698,0.589,-0.071,-0.029,-0.105,1.196,0.278,0.063,2.536,-0.772,-3.023
2024-09-23 14:37:37.036,172941.503,0.407,0.704,0.582,-0.071,0.003,0.029,1.147,0.243,0.007,2.532,-0.781,-3.033
2024-09-23 14:37:37.046,172941.513,0.405,0.711,0.574,-0.039,-0.047,0.014,1.245,0.283,-0.026,2.527,-0.791,-3.042
2024-09-23 14:37:37.056,172941.523,0.403,0.719,0.566,-0.032,-0.097,-0.013,1.38,0.287,-0.061,2.523,-0.802,-3.052
2024-09-23 14:37:37.066,172941.533,0.401,0.727,0.557,-0.067,-0.061,-0.009,1.414,0.291,-0.067,2.518,-0.814,-3.064
2024-09-23 14:37:37.076,172941.543,0.399,0.735,0.549,-0.056,-0.095,-0.013,1.195,0.336,-0.131,2.513,-0.825,-3.074
2024-09-23 14:37:37.086,172941.553,0.396,0.74,0.543,-0.057,-0.163,-0.019,0.678,0.379,-0.095,2.512,-0.834,-3.081
2024-09-23 14:37:37.096,172941.563,0.394,0.743,0.541,-0.081,-0.197,-0.014,0.36,0.264,-0.039,2.513,-0.838,-3.084
2024-09-23 14:37:37.106,172941.573,0.392,0.745,0.54,-0.091,-0.216,-0.015,0.105,0.403,0.025,2.514,-0.84,-3.086
2024-09-23 14:37:37.117,172941.583,0.389,0.744,0.543,-0.105,-0.23,-0.016,-0.155,0.594,0.053,2.519,-0.84,-3.086
2024-09-23 14:37:37.126,172941.593,0.386,0.742,0.548,-0.129,-0.141,0.1,-0.563,0.604,0.015,2.527,-0.836,-3.084
2024-09-23 14:37:37.136,172941.603,0.384,0.739,0.553,-0.101,0.044,0.313,-0.34,0.393,0.03,2.535,-0.832,-3.08
2024-09-23 14:37:37.146,172941.613,0.383,0.738,0.556,-0.004,0.217,0.484,-0.052,0.248,0.201,2.538,-0.83,-3.08
2024-09-23 14:37:37.155,172941.623,0.384,0.736,0.558,0.076,0.172,0.315,-0.354,0.235,0.363,2.539,-0.827,-3.082
2024-09-23 14:37:37.166,172941.633,0.385,0.732,0.563,0.054,-0.008,0.09,-0.689,0.191,0.429,2.541,-0.821,-3.082
2024-09-23 14:37:37.176,172941.643,0.387,0.725,0.569,-0.054,-0.029,0.06,-0.93,0.131,0.413,2.544,-0.811,-3.08
2024-09-23 14:37:37.186,172941.653,0.389,0.718,0.577,-0.094,-0.062,0.035,-1.029,0.124,0.316,2.548,-0.801,-3.077
2024-09-23 14:37:37.196,172941.662,0.39,0.711,0.585,-0.052,-0.05,0.008,-1.003,0.234,0.27,2.553,-0.791,-3.072
2024-09-23 14:37:37.205,172941.672,0.39,0.705,0.593,-0.054,-0.038,-0.001,-0.81,0.397,0.204,2.559,-0.782,-3.068
2024-09-23 14:37:37.216,172941.682,0.389,0.701,0.598,-0.084,-0.036,-0.027,-0.382,0.472,0.125,2.565,-0.776,-3.065
2024-09-23 14:37:37.226,172941.692,0.386,0.699,0.602,-0.061,-0.018,-0.071,-0.21,0.517,0.082,2.571,-0.773,-3.064
2024-09-23 14:37:37.236,172941.702,0.384,0.697,0.606,0.009,-0.01,-0.025,-0.372,0.407,0.069,2.577,-0.771,-3.063
2024-09-23 14:37:37.245,172941.712,0.383,0.693,0.611,0.031,-0.025,0.053,-0.609,0.318,0.109,2.582,-0.766,-3.06
2024-09-23 14:37:37.255,172941.722,0.382,0.689,0.616,0.005,-0.071,0.089,-0.687,0.212,0.164,2.587,-0.76,-3.057
2024-09-23 14:37:37.265,172941.732,0.382,0.684,0.622,0.0,-0.019,0.084,-0.76,0.066,0.187,2.59,-0.753,-3.054
2024-09-23 14:37:37.275,172941.742,0.384,0.678,0.627,0.018,0.063,0.013,-0.767,-0.043,0.224,2.592,-0.745,-3.051
2024-09-23 14:37:37.285,172941.752,0.386,0.672,0.632,0.009,0.06,-0.046,-0.81,-0.069,0.272,2.594,-0.737,-3.048
2024-09-23 14:37:37.296,172941.762,0.388,0.666,0.637,-0.026,0.075,-0.036,-0.712,-0.064,0.248,2.595,-0.729,-3.046
2024-09-23 14:37:37.306,172941.772,0.39,0.661,0.641,-0.062,0.137,-0.031,-0.554,-0.089,0.24,2.595,-0.723,-3.044
2024-09-23 14:37:37.316,172941.782,0.392,0.657,0.644,-0.089,0.12,-0.035,-0.623,-0.059,0.24,2.595,-0.716,-3.043
2024-09-23 14:37:37.326,172941.792,0.393,0.652,0.648,-0.036,0.044,0.001,-0.639,0.025,0.146,2.596,-0.71,-3.041
2024-09-23 14:37:37.336,172941.802,0.394,0.647,0.652,-0.009,-0.013,-0.006,-0.529,0.135,0.137,2.598,-0.704,-3.038
2024-09-23 14:37:37.346,172941.812,0.393,0.644,0.656,-0.089,-0.073,-0.055,-0.452,0.211,0.086,2.602,-0.699,-3.036
2024-09-23 14:37:37.356,172941.822,0.393,0.641,0.66,-0.079,-0.018,-0.047,-0.444,0.19,0.042,2.605,-0.695,-3.034
2024-09-23 14:37:37.367,172941.832,0.392,0.638,0.664,-0.057,0.043,-0.033,-0.452,0.135,-0.007,2.608,-0.691,-3.031
2024-09-23 14:37:37.376,172941.842,0.391,0.635,0.667,-0.027,0.019,-0.016,-0.374,0.088,-0.0,2.611,-0.688,-3.029
2024-09-23 14:37:37.386,172941.852,0.39,0.633,0.669,0.019,0.012,-0.018,-0.206,0.064,0.028,2.613,-0.685,-3.027
2024-09-23 14:37:37.395,172941.862,0.39,0.632,0.67,0.027,0.051,-0.03,-0.097,0.078,0.056,2.614,-0.684,-3.026
2024-09-23 14:37:37.405,172941.872,0.39,0.631,0.671,0.004,0.102,-0.021,-0.11,0.014,0.074,2.615,-0.683,-3.026
2024-09-23 14:37:37.416,172941.882,0.391,0.63,0.672,-0.005,0.102,0.001,-0.191,-0.026,0.076,2.615,-0.681,-3.026
2024-09-23 14:37:37.426,172941.892,0.392,0.628,0.673,0.026,0.038,0.012,-0.23,-0.05,0.117,2.614,-0.679,-3.026
2024-09-23 14:37:37.436,172941.902,0.393,0.626,0.674,0.04,0.009,0.004,-0.251,-0.096,0.153,2.614,-0.676,-3.026
2024-09-23 14:37:37.445,172941.912,0.395,0.623,0.675,0.024,0.018,-0.007,-0.25,-0.127,0.158,2.613,-0.673,-3.026
2024-09-23 14:37:37.455,172941.922,0.397,0.621,0.676,0.015,0.046,-0.014,-0.288,-0.141,0.178,2.611,-0.67,-3.026
2024-09-23 14:37:37.465,172941.932,0.399,0.618,0.678,0.0,0.071,-0.013,-0.443,-0.147,0.174,2.61,-0.666,-3.026
2024-09-23 14:37:37.475,172941.942,0.401,0.614,0.68,-0.007,0.042,-0.015,-0.484,-0.132,0.124,2.609,-0.661,-3.024
2024-09-23 14:37:37.485,172941.952,0.402,0.611,0.682,-0.009,-0.015,-0.014,-0.343,-0.102,0.105,2.609,-0.657,-3.023
2024-09-23 14:37:37.496,172941.962,0.403,0.609,0.683,-0.019,-0.048,-0.007,-0.006,-0.057,0.045,2.609,-0.655,-3.023
2024-09-23 14:37:37.505,172941.972,0.403,0.61,0.682,-0.017,-0.021,0.017,0.148,0.005,0.002,2.608,-0.655,-3.023
2024-09-23 14:37:37.515,172941.982,0.403,0.611,0.681,-0.0,-0.024,0.062,0.167,-0.024,0.012,2.607,-0.657,-3.024
2024-09-23 14:37:37.525,172941.992,0.404,0.612,0.68,0.01,-0.068,0.096,0.159,-0.048,0.011,2.606,-0.658,-3.026
2024-09-23 14:37:37.535,172942.002,0.404,0.613,0.679,0.009,-0.105,0.09,0.205,-0.085,-0.012,2.605,-0.66,-3.027
2024-09-23 14:37:37.545,172942.012,0.405,0.615,0.677,-0.009,-0.06,0.057,0.306,-0.134,-0.073,2.603,-0.662,-3.028
2024-09-23 14:37:37.555,172942.022,0.405,0.618,0.674,-0.029,-0.005,0.021,0.38,-0.168,-0.13,2.601,-0.666,-3.029
2024-09-23 14:37:37.565,172942.032,0.406,0.62,0.671,-0.026,-0.013,0.025,0.305,-0.216,-0.077,2.598,-0.669,-3.03
2024-09-23 14:37:37.575,172942.042,0.407,0.623,0.668,-0.008,-0.041,0.022,0.293,-0.29,-0.012,2.594,-0.672,-3.032
2024-09-23 14:37:37.585,172942.052,0.408,0.624,0.666,0.002,-0.042,-0.023,0.111,-0.15,-0.132,2.592,-0.674,-3.032
2024-09-23 14:37:37.595,172942.062,0.408,0.626,0.665,-0.061,0.013,0.003,0.152,-0.225,-0.15,2.591,-0.676,-3.031
2024-09-23 14:37:37.605,172942.072,0.409,0.627,0.663,-0.086,0.117,0.04,0.039,-0.193,-0.165,2.589,-0.678,-3.03
2024-09-23 14:37:37.615,172942.082,0.409,0.628,0.662,-0.01,-0.009,-0.033,0.029,-0.12,-0.158,2.588,-0.679,-3.029
2024-09-23 14:37:37.626,172942.092,0.409,0.629,0.662,-0.014,-0.097,-0.001,0.125,-0.047,-0.128,2.588,-0.68,-3.028
2024-09-23 14:37:37.635,172942.102,0.408,0.631,0.66,-0.052,-0.02,0.009,0.24,0.054,-0.124,2.588,-0.682,-3.028
2024-09-23 14:37:37.645,172942.112,0.406,0.633,0.659,-0.036,0.034,-0.005,0.273,0.139,-0.096,2.589,-0.685,-3.028
2024-09-23 14:37:37.655,172942.122,0.405,0.634,0.658,-0.026,0.02,-0.002,0.178,0.161,-0.068,2.59,-0.687,-3.029
2024-09-23 14:37:37.665,172942.132,0.404,0.636,0.658,-0.02,-0.033,0.022,0.116,0.14,-0.048,2.591,-0.689,-3.029
2024-09-23 14:37:37.675,172942.142,0.402,0.636,0.658,-0.008,-0.07,0.022,-0.022,0.146,-0.01,2.593,-0.69,-3.029
2024-09-23 14:37:37.685,172942.152,0.401,0.636,0.659,0.003,-0.048,0.013,-0.114,0.126,-0.002,2.595,-0.689,-3.029
2024-09-23 14:37:37.695,172942.162,0.401,0.635,0.661,-0.006,0.035,0.0,-0.196,0.092,0.012,2.596,-0.688,-3.028
2024-09-23 14:37:37.705,172942.172,0.4,0.633,0.662,-0.027,0.029,-0.028,-0.214,0.113,-0.017,2.598,-0.686,-3.026
2024-09-23 14:37:37.715,172942.182,0.399,0.632,0.664,-0.026,0.02,-0.029,-0.16,0.143,-0.023,2.6,-0.684,-3.025
2024-09-23 14:37:37.725,172942.192,0.398,0.632,0.666,-0.038,0.038,-0.026,-0.037,0.23,-0.022,2.603,-0.684,-3.024
2024-09-23 14:37:37.735,172942.202,0.396,0.632,0.666,-0.053,0.064,-0.041,0.114,0.319,0.003,2.606,-0.684,-3.024
2024-09-23 14:37:37.745,172942.212,0.394,0.633,0.667,-0.068,0.085,-0.045,0.147,0.311,0.013,2.608,-0.685,-3.025
2024-09-23 14:37:37.755,172942.222,0.392,0.634,0.667,-0.065,0.07,-0.022,0.262,0.268,0.012,2.61,-0.687,-3.026
2024-09-23 14:37:37.765,172942.232,0.39,0.636,0.666,-0.039,0.017,0.015,0.301,0.277,-0.011,2.612,-0.689,-3.028
2024-09-23 14:37:37.775,172942.242,0.388,0.637,0.666,-0.004,-0.027,0.051,0.094,0.162,-0.056,2.613,-0.691,-3.029
2024-09-23 14:37:37.785,172942.252,0.387,0.638,0.666,0.03,-0.059,0.08,-0.117,0.019,-0.071,2.615,-0.691,-3.028
2024-09-23 14:37:37.795,172942.261,0.387,0.637,0.667,0.059,-0.129,0.07,-0.163,-0.019,-0.035,2.616,-0.69,-3.027
2024-09-23 14:37:37.805,172942.271,0.387,0.636,0.667,0.052,-0.148,0.036,-0.047,-0.004,-0.023,2.616,-0.69,-3.026
2024-09-23 14:37:37.815,172942.281,0.387,0.636,0.668,0.006,-0.046,-0.006,-0.199,-0.048,-0.008,2.616,-0.689,-3.025
2024-09-23 14:37:37.825,172942.291,0.388,0.633,0.67,-0.011,0.048,-0.022,-0.624,-0.284,0.127,2.616,-0.685,-3.023
2024-09-23 14:37:37.835,172942.301,0.391,0.628,0.673,-0.012,0.043,-0.015,-0.748,-0.395,0.087,2.615,-0.678,-3.019
2024-09-23 14:37:37.845,172942.311,0.395,0.624,0.675,-0.02,-0.017,-0.0,-0.351,-0.405,0.078,2.613,-0.673,-3.017
2024-09-23 14:37:37.855,172942.321,0.398,0.622,0.675,-0.054,0.018,0.034,-0.214,-0.443,-0.012,2.609,-0.671,-3.016
2024-09-23 14:37:37.865,172942.331,0.4,0.621,0.674,0.009,0.076,0.08,-0.175,-0.387,-0.151,2.606,-0.67,-3.013
2024-09-23 14:37:37.875,172942.341,0.401,0.621,0.674,0.063,-0.008,0.079,0.048,-0.121,-0.241,2.605,-0.67,-3.011
2024-09-23 14:37:37.884,172942.351,0.399,0.623,0.673,-0.011,-0.113,0.027,0.273,0.113,-0.223,2.606,-0.672,-3.009
2024-09-23 14:37:37.894,172942.361,0.397,0.625,0.672,-0.076,-0.049,-0.013,0.178,0.166,-0.228,2.608,-0.676,-3.008
2024-09-23 14:37:37.905,172942.371,0.395,0.627,0.671,-0.068,0.015,-0.04,0.157,0.084,-0.253,2.61,-0.678,-3.007
2024-09-23 14:37:37.915,172942.381,0.392,0.63,0.67,-0.047,-0.018,-0.022,0.34,0.096,-0.195,2.612,-0.681,-3.006
2024-09-23 14:37:37.925,172942.391,0.391,0.633,0.668,-0.008,-0.017,0.002,0.506,0.126,-0.183,2.612,-0.686,-3.006
2024-09-23 14:37:37.935,172942.401,0.389,0.638,0.665,0.031,0.024,0.031,0.502,0.097,-0.142,2.613,-0.691,-3.008
2024-09-23 14:37:37.945,172942.411,0.388,0.641,0.662,0.031,0.038,0.035,0.395,0.019,-0.116,2.612,-0.696,-3.009
2024-09-23 14:37:37.955,172942.421,0.387,0.644,0.66,0.009,0.019,0.018,0.36,-0.056,-0.089,2.611,-0.7,-3.011
2024-09-23 14:37:37.965,172942.431,0.387,0.646,0.658,0.013,0.004,0.016,0.254,-0.044,-0.059,2.61,-0.703,-3.012
2024-09-23 14:37:37.975,172942.441,0.387,0.647,0.657,0.003,-0.02,0.028,0.016,-0.055,-0.062,2.609,-0.704,-3.012
2024-09-23 14:37:37.984,172942.451,0.387,0.647,0.657,-0.024,-0.024,0.038,-0.192,-0.083,-0.053,2.609,-0.704,-3.011
2024-09-23 14:37:37.995,172942.461,0.387,0.646,0.658,-0.033,-0.048,0.027,-0.281,-0.104,-0.025,2.61,-0.702,-3.009
2024-09-23 14:37:38.005,172942.471,0.388,0.644,0.66,-0.033,-0.079,-0.0,-0.279,-0.141,-0.04,2.61,-0.699,-3.007
2024-09-23 14:37:38.015,172942.481,0.389,0.642,0.661,-0.034,-0.017,-0.011,-0.196,-0.144,-0.035,2.61,-0.698,-3.005
2024-09-23 14:37:38.024,172942.491,0.389,0.642,0.661,-0.032,0.047,-0.002,-0.08,-0.11,-0.051,2.609,-0.697,-3.003
2024-09-23 14:37:38.034,172942.501,0.389,0.642,0.661,-0.029,0.047,0.017,0.03,-0.012,-0.072,2.609,-0.697,-3.002
2024-09-23 14:37:38.044,172942.511,0.388,0.642,0.661,-0.013,-0.006,0.025,0.124,0.133,-0.042,2.61,-0.698,-3.002
2024-09-23 14:37:38.054,172942.521,0.387,0.644,0.66,-0.011,-0.078,0.02,0.208,0.145,-0.198,2.611,-0.7,-3.002
2024-09-23 14:37:38.064,172942.531,0.385,0.646,0.659,-0.005,-0.017,-0.01,0.197,0.084,-0.148,2.613,-0.702,-3.001
2024-09-23 14:37:38.075,172942.541,0.384,0.648,0.658,0.022,0.055,-0.058,0.213,0.049,-0.057,2.613,-0.705,-3.001
2024-09-23 14:37:38.085,172942.551,0.384,0.65,0.656,0.009,-0.015,-0.066,0.363,-0.025,-0.007,2.613,-0.707,-3.003
2024-09-23 14:37:38.095,172942.561,0.384,0.653,0.653,-0.012,0.023,-0.01,0.511,-0.1,0.012,2.61,-0.711,-3.006
2024-09-23 14:37:38.104,172942.571,0.385,0.656,0.649,-0.005,0.172,-0.021,0.47,-0.133,0.028,2.606,-0.715,-3.01
2024-09-23 14:37:38.114,172942.581,0.386,0.658,0.647,0.009,0.193,-0.006,0.157,-0.093,0.009,2.604,-0.718,-3.012
2024-09-23 14:37:38.124,172942.591,0.387,0.658,0.646,0.004,0.034,0.033,-0.119,-0.073,0.041,2.603,-0.718,-3.012
2024-09-23 14:37:38.135,172942.601,0.387,0.656,0.648,-0.008,-0.132,0.065,-0.317,-0.09,0.076,2.602,-0.716,-3.012
2024-09-23 14:37:38.144,172942.611,0.388,0.654,0.649,-0.008,-0.209,0.054,-0.32,-0.105,0.014,2.603,-0.713,-3.01
2024-09-23 14:37:38.154,172942.621,0.389,0.652,0.651,0.012,-0.092,0.049,-0.12,-0.05,-0.001,2.603,-0.711,-3.008
2024-09-23 14:37:38.165,172942.631,0.389,0.652,0.651,0.022,-0.003,0.015,0.05,-0.002,0.004,2.603,-0.71,-3.008
2024-09-23 14:37:38.174,172942.641,0.389,0.652,0.65,0.0,0.02,-0.04,-0.011,-0.04,0.016,2.602,-0.711,-3.008
2024-09-23 14:37:38.185,172942.651,0.39,0.652,0.65,-0.023,0.075,-0.042,-0.065,-0.049,-0.009,2.602,-0.71,-3.008
2024-09-23 14:37:38.194,172942.661,0.39,0.652,0.651,-0.011,0.06,-0.014,-0.026,-0.02,-0.014,2.602,-0.71,-3.008
2024-09-23 14:37:38.204,172942.671,0.39,0.652,0.651,-0.033,0.017,-0.0,0.001,0.028,0.003,2.602,-0.71,-3.008
2024-09-23 14:37:38.214,172942.681,0.389,0.652,0.651,-0.054,0.014,-0.01,-0.028,0.06,0.02,2.603,-0.71,-3.008
2024-09-23 14:37:38.224,172942.691,0.389,0.651,0.652,-0.033,0.024,0.015,-0.111,0.063,0.009,2.603,-0.709,-3.007
2024-09-23 14:37:38.235,172942.701,0.389,0.65,0.653,-0.01,-0.025,0.04,-0.129,0.048,-0.028,2.605,-0.708,-3.006
2024-09-23 14:37:38.244,172942.711,0.388,0.649,0.654,-0.007,-0.052,0.032,-0.118,0.018,-0.021,2.606,-0.707,-3.005
2024-09-23 14:37:38.255,172942.721,0.388,0.649,0.655,-0.014,-0.041,-0.003,-0.131,0.009,-0.033,2.607,-0.706,-3.004
2024-09-23 14:37:38.265,172942.731,0.388,0.648,0.655,-0.014,-0.011,-0.021,-0.118,-0.006,-0.049,2.607,-0.705,-3.003
2024-09-23 14:37:38.274,172942.741,0.387,0.648,0.656,-0.024,0.027,-0.019,-0.081,-0.027,-0.051,2.608,-0.705,-3.002
2024-09-23 14:37:38.284,172942.751,0.387,0.648,0.656,-0.037,0.021,-0.02,-0.017,-0.021,-0.042,2.608,-0.704,-3.001
2024-09-23 14:37:38.294,172942.761,0.387,0.648,0.656,-0.021,0.011,0.001,0.036,-0.054,-0.023,2.608,-0.705,-3.0
2024-09-23 14:37:38.304,172942.771,0.388,0.648,0.655,-0.004,0.002,0.013,0.042,-0.126,-0.012,2.607,-0.705,-3.0
2024-09-23 14:37:38.314,172942.781,0.389,0.648,0.655,-0.001,0.021,0.024,-0.004,-0.167,-0.007,2.606,-0.705,-3.0
2024-09-23 14:37:38.324,172942.791,0.39,0.648,0.655,0.005,0.022,0.037,-0.053,-0.147,-0.004,2.605,-0.705,-3.0
2024-09-23 14:37:38.334,172942.801,0.39,0.647,0.655,-0.015,-0.015,0.048,-0.068,-0.102,0.009,2.604,-0.704,-3.0
2024-09-23 14:37:38.344,172942.811,0.391,0.647,0.655,-0.032,-0.042,0.05,-0.03,-0.047,-0.013,2.603,-0.704,-2.999
2024-09-23 14:37:38.354,172942.821,0.391,0.647,0.654,-0.019,-0.057,0.038,0.006,0.016,-0.036,2.603,-0.704,-2.999
2024-09-23 14:37:38.364,172942.831,0.39,0.648,0.654,-0.005,-0.034,0.017,0.025,0.062,-0.024,2.604,-0.705,-2.998
2024-09-23 14:37:38.374,172942.841,0.389,0.648,0.654,-0.023,-0.012,-0.027,0.12,0.112,0.015,2.605,-0.705,-2.999
2024-09-23 14:37:38.384,172942.851,0.389,0.649,0.654,-0.056,0.019,-0.043,0.151,0.174,0.059,2.606,-0.706,-3.0
2024-09-23 14:37:38.394,172942.861,0.388,0.65,0.654,-0.06,0.063,-0.026,0.194,0.202,0.066,2.606,-0.707,-3.002
2024-09-23 14:37:38.404,172942.87,0.387,0.651,0.653,-0.048,0.094,-0.003,0.243,0.188,0.031,2.607,-0.709,-3.004
2024-09-23 14:37:38.414,172942.88,0.385,0.653,0.652,-0.021,0.049,0.001,0.305,0.234,-0.01,2.608,-0.711,-3.006
2024-09-23 14:37:38.424,172942.89,0.383,0.655,0.651,0.0,-0.012,-0.0,0.282,0.274,-0.017,2.61,-0.714,-3.007
2024-09-23 14:37:38.434,172942.9,0.382,0.656,0.651,-0.01,-0.011,-0.009,0.136,0.271,-0.007,2.612,-0.715,-3.009
2024-09-23 14:37:38.444,172942.91,0.38,0.656,0.652,-0.025,-0.023,-0.015,0.062,0.211,-0.01,2.614,-0.716,-3.009
2024-09-23 14:37:38.454,172942.92,0.379,0.657,0.652,-0.024,-0.037,-0.006,0.093,0.143,0.019,2.615,-0.717,-3.01
2024-09-23 14:37:38.464,172942.93,0.378,0.658,0.652,-0.005,-0.046,0.008,0.094,0.105,0.031,2.616,-0.718,-3.01
2024-09-23 14:37:38.474,172942.94,0.378,0.658,0.652,0.022,-0.02,0.044,-0.014,0.057,0.084,2.616,-0.718,-3.011
2024-09-23 14:37:38.484,172942.95,0.378,0.657,0.653,0.024,0.032,0.036,-0.29,0.183,0.102,2.617,-0.716,-3.012
2024-09-23 14:37:38.494,172942.96,0.378,0.657,0.652,0.013,0.017,-0.009,0.135,0.037,0.165,2.616,-0.717,-3.013
2024-09-23 14:37:38.504,172942.97,0.379,0.656,0.653,-0.02,0.01,-0.062,-0.104,0.1,0.128,2.616,-0.716,-3.015
2024-09-23 14:37:38.514,172942.98,0.379,0.655,0.654,-0.044,0.083,-0.005,-0.145,0.059,0.097,2.616,-0.714,-3.015
2024-09-23 14:37:38.524,172942.99,0.379,0.653,0.655,-0.032,0.101,0.038,-0.139,0.071,0.108,2.617,-0.712,-3.015
2024-09-23 14:37:38.534,172943.0,0.379,0.653,0.656,-0.049,-0.131,-0.013,-0.027,0.084,0.051,2.618,-0.711,-3.015
2024-09-23 14:37:38.544,172943.01,0.379,0.652,0.656,-0.015,-0.05,0.02,0.013,0.099,0.041,2.618,-0.711,-3.016
2024-09-23 14:37:38.554,172943.02,0.378,0.652,0.657,-0.005,0.018,0.009,0.04,0.106,0.019,2.619,-0.711,-3.016
2024-09-23 14:37:38.564,172943.03,0.378,0.653,0.657,-0.019,0.003,-0.006,0.092,0.104,0.018,2.619,-0.711,-3.017
2024-09-23 14:37:38.574,172943.04,0.377,0.654,0.656,-0.031,0.012,-0.023,0.214,0.076,0.003,2.62,-0.713,-3.018
2024-09-23 14:37:38.583,172943.05,0.377,0.656,0.654,-0.025,0.035,-0.036,0.356,0.04,-0.018,2.619,-0.715,-3.02
2024-09-23 14:37:38.594,172943.06,0.377,0.659,0.651,-0.019,0.028,0.001,0.485,-0.022,-0.034,2.617,-0.719,-3.023
2024-09-23 14:37:38.604,172943.07,0.376,0.662,0.648,0.001,0.007,0.038,0.469,-0.064,-0.071,2.615,-0.724,-3.025
2024-09-23 14:37:38.614,172943.08,0.377,0.665,0.645,0.024,-0.021,0.056,0.433,-0.158,-0.082,2.613,-0.728,-3.027
2024-09-23 14:37:38.623,172943.09,0.377,0.668,0.641,0.026,-0.037,0.057,0.4,-0.232,-0.069,2.61,-0.732,-3.029
2024-09-23 14:37:38.634,172943.1,0.379,0.671,0.638,0.011,-0.03,0.029,0.365,-0.281,-0.073,2.606,-0.735,-3.031
2024-09-23 14:37:38.644,172943.11,0.38,0.673,0.635,-0.002,0.01,0.019,0.244,-0.295,-0.092,2.602,-0.738,-3.032
2024-09-23 14:37:38.654,172943.12,0.381,0.675,0.632,-0.01,0.01,0.038,0.135,-0.315,-0.142,2.599,-0.74,-3.032
2024-09-23 14:37:38.662,172943.13,0.382,0.676,0.63,-0.012,-0.05,0.048,0.107,-0.279,-0.179,2.597,-0.742,-3.031
2024-09-23 14:37:38.672,172943.14,0.382,0.677,0.629,-0.012,-0.098,0.048,0.152,-0.208,-0.192,2.595,-0.744,-3.03
2024-09-23 14:37:38.682,172943.15,0.382,0.679,0.627,-0.014,-0.098,0.055,0.249,-0.091,-0.195,2.595,-0.747,-3.029
2024-09-23 14:37:38.692,172943.16,0.38,0.682,0.625,-0.014,-0.084,0.058,0.383,0.056,-0.204,2.594,-0.751,-3.029
2024-09-23 14:37:38.703,172943.17,0.378,0.686,0.622,-0.019,-0.073,0.052,0.472,0.128,-0.209,2.595,-0.755,-3.029
2024-09-23 14:37:38.713,172943.18,0.376,0.689,0.619,-0.021,-0.045,0.032,0.527,0.093,-0.207,2.595,-0.761,-3.031
2024-09-23 14:37:38.723,172943.19,0.374,0.694,0.615,-0.0,0.001,0.015,0.532,0.034,-0.196,2.595,-0.766,-3.032
2024-09-23 14:37:38.733,172943.2,0.373,0.698,0.612,0.024,0.051,-0.001,0.605,-0.037,-0.197,2.594,-0.772,-3.034
2024-09-23 14:37:38.743,172943.21,0.372,0.702,0.607,0.017,0.04,-0.027,0.675,-0.096,-0.191,2.591,-0.779,-3.036
2024-09-23 14:37:38.753,172943.22,0.372,0.707,0.601,-0.007,0.014,-0.029,0.719,-0.146,-0.156,2.588,-0.786,-3.039
2024-09-23 14:37:38.763,172943.23,0.372,0.712,0.596,-0.005,0.048,0.007,0.729,-0.184,-0.148,2.584,-0.792,-3.043
2024-09-23 14:37:38.775,172943.24,0.372,0.717,0.59,0.008,0.072,0.016,0.701,-0.186,-0.151,2.579,-0.799,-3.046
2024-09-23 14:37:38.784,172943.25,0.372,0.721,0.584,-0.007,0.032,-0.002,0.658,-0.12,-0.125,2.575,-0.806,-3.05
2024-09-23 14:37:38.793,172943.26,0.371,0.725,0.58,-0.032,0.006,-0.01,0.492,-0.054,-0.093,2.572,-0.811,-3.053
2024-09-23 14:37:38.803,172943.27,0.371,0.728,0.577,-0.034,-0.006,-0.003,0.278,-0.031,-0.1,2.57,-0.815,-3.055
2024-09-23 14:37:38.813,172943.28,0.37,0.729,0.576,-0.018,-0.037,-0.001,0.06,0.004,-0.111,2.571,-0.817,-3.055
2024-09-23 14:37:38.823,172943.29,0.369,0.729,0.576,-0.012,-0.088,0.005,-0.081,0.116,-0.076,2.572,-0.817,-3.054
2024-09-23 14:37:38.834,172943.3,0.367,0.729,0.578,-0.032,-0.087,-0.01,-0.082,0.333,-0.045,2.575,-0.817,-3.052
2024-09-23 14:37:38.843,172943.31,0.365,0.729,0.579,-0.068,-0.031,-0.023,0.045,0.396,0.012,2.579,-0.817,-3.052
2024-09-23 14:37:38.853,172943.32,0.363,0.73,0.579,-0.084,0.028,-0.035,0.246,0.292,0.017,2.582,-0.818,-3.053
2024-09-23 14:37:38.863,172943.33,0.362,0.732,0.578,-0.038,0.045,-0.057,0.517,0.258,-0.002,2.582,-0.821,-3.056
2024-09-23 14:37:38.872,172943.34,0.36,0.736,0.574,0.037,0.076,-0.029,0.833,0.338,0.053,2.581,-0.827,-3.062
2024-09-23 14:37:38.883,172943.35,0.359,0.741,0.568,0.052,0.127,-0.036,0.965,0.492,0.159,2.579,-0.834,-3.07
2024-09-23 14:37:38.893,172943.36,0.357,0.745,0.563,0.013,0.102,-0.026,0.866,0.548,0.09,2.577,-0.841,-3.079
2024-09-23 14:37:38.904,172943.37,0.354,0.75,0.559,-0.021,0.07,0.009,0.779,0.374,0.045,2.577,-0.848,-3.087
2024-09-23 14:37:38.913,172943.38,0.353,0.753,0.555,-0.037,0.042,-0.015,0.668,0.21,0.067,2.575,-0.853,-3.093
2024-09-23 14:37:38.923,172943.39,0.353,0.757,0.55,-0.015,0.002,-0.011,0.639,0.126,0.092,2.571,-0.858,-3.1
2024-09-23 14:37:38.933,172943.4,0.353,0.76,0.546,0.008,0.019,0.019,0.613,0.068,0.039,2.568,-0.863,-3.106
2024-09-23 14:37:38.943,172943.41,0.352,0.763,0.542,0.01,0.023,0.049,0.409,0.018,-0.079,2.565,-0.868,-3.11
2024-09-23 14:37:38.953,172943.42,0.352,0.765,0.54,0.016,-0.059,0.067,0.167,-0.039,-0.096,2.564,-0.871,-3.111
2024-09-23 14:37:38.963,172943.43,0.351,0.766,0.538,0.01,-0.135,0.085,0.341,-0.074,-0.153,2.563,-0.873,-3.111
2024-09-23 14:37:38.973,172943.44,0.35,0.77,0.534,0.013,-0.178,0.111,0.748,-0.057,-0.232,2.561,-0.879,-3.113
2024-09-23 14:37:38.983,172943.45,0.347,0.777,0.525,0.014,-0.139,0.122,1.425,-0.152,-0.646,2.557,-0.89,-3.117
2024-09-23 14:37:38.993,172943.46,0.342,0.788,0.512,0.048,0.041,0.118,1.572,-0.19,-0.788,2.552,-0.907,-3.121
2024-09-23 14:37:39.003,172943.469,0.338,0.798,0.499,0.059,0.116,0.082,1.688,-0.269,-0.748,2.547,-0.924,-3.125
2024-09-23 14:37:39.013,172943.479,0.333,0.81,0.483,-0.009,0.067,0.08,1.973,-0.393,-0.742,2.538,-0.944,-3.132
2024-09-23 14:37:39.023,172943.489,0.33,0.823,0.463,-0.008,-0.08,0.087,2.555,-0.465,-0.58,2.523,-0.966,3.138
2024-09-23 14:37:39.033,172943.499,0.327,0.838,0.437,-0.03,-0.127,0.071,3.565,-0.404,-0.558,2.499,-0.994,3.114
2024-09-23 14:37:39.043,172943.509,0.323,0.857,0.401,-0.038,0.097,0.097,4.696,-0.304,-0.7,2.463,-1.03,3.076
2024-09-23 14:37:39.053,172943.519,0.318,0.879,0.355,-0.035,0.256,0.128,5.55,-0.291,-0.794,2.411,-1.074,3.02
2024-09-23 14:37:39.063,172943.529,0.311,0.901,0.302,-0.021,0.229,0.197,6.11,-0.345,-0.914,2.341,-1.122,2.945
2024-09-23 14:37:39.073,172943.539,0.304,0.921,0.243,0.021,0.132,0.264,6.616,-0.495,-1.059,2.246,-1.171,2.845
2024-09-23 14:37:39.083,172943.549,0.294,0.939,0.177,0.043,0.055,0.283,7.073,-0.68,-1.22,2.114,-1.22,2.709
2024-09-23 14:37:39.093,172943.559,0.284,0.953,0.107,0.049,0.086,0.237,7.417,-0.923,-1.233,1.931,-1.263,2.524
2024-09-23 14:37:39.103,172943.569,0.272,0.962,0.032,0.063,0.185,0.211,7.655,-1.135,-1.303,1.688,-1.293,2.281
2024-09-23 14:37:39.113,172943.579,0.259,0.965,-0.046,0.084,0.231,0.241,7.806,-1.285,-1.357,1.396,-1.304,1.991
2024-09-23 14:37:39.123,172943.589,0.245,0.962,-0.125,0.087,0.182,0.294,7.847,-1.405,-1.408,1.1,-1.292,1.698
2024-09-23 14:37:39.133,172943.599,0.228,0.952,-0.203,0.101,0.157,0.391,7.786,-1.377,-1.552,0.845,-1.26,1.446
2024-09-23 14:37:39.143,172943.609,0.21,0.937,-0.278,0.127,0.172,0.496,7.629,-1.484,-1.579,0.647,-1.214,1.251
2024-09-23 14:37:39.153,172943.619,0.19,0.917,-0.351,0.106,0.144,0.545,7.434,-1.655,-1.61,0.497,-1.16,1.107
2024-09-23 14:37:39.163,172943.629,0.169,0.891,-0.42,0.129,0.115,0.578,7.154,-1.886,-1.614,0.383,-1.1,1.0
2024-09-23 14:37:39.173,172943.639,0.146,0.862,-0.485,0.175,0.048,0.585,6.813,-1.987,-1.606,0.293,-1.04,0.92
2024-09-23 14:37:39.183,172943.649,0.123,0.831,-0.543,0.196,0.002,0.555,6.379,-1.772,-1.53,0.223,-0.98,0.86
2024-09-23 14:37:39.193,172943.659,0.102,0.797,-0.595,0.209,-0.008,0.506,5.82,-1.548,-1.326,0.17,-0.923,0.815
2024-09-23 14:37:39.203,172943.669,0.084,0.765,-0.638,0.147,-0.088,0.416,4.975,-1.191,-1.071,0.131,-0.871,0.783
2024-09-23 14:37:39.213,172943.679,0.07,0.736,-0.674,0.041,-0.151,0.326,4.341,-0.878,-0.868,0.104,-0.827,0.761
2024-09-23 14:37:39.223,172943.689,0.059,0.708,-0.704,0.018,-0.129,0.247,3.851,-0.953,-0.671,0.083,-0.787,0.744
2024-09-23 14:37:39.233,172943.699,0.048,0.682,-0.73,-0.02,-0.18,0.112,3.436,-0.862,-0.516,0.066,-0.751,0.732
2024-09-23 14:37:39.243,172943.709,0.039,0.659,-0.751,-0.015,-0.08,0.076,2.901,-0.638,-0.429,0.052,-0.719,0.723
2024-09-23 14:37:39.253,172943.719,0.032,0.639,-0.768,0.007,0.057,0.115,2.352,-0.577,-0.235,0.042,-0.693,0.717
2024-09-23 14:37:39.262,172943.729,0.027,0.622,-0.782,-0.066,-0.011,0.072,2.066,-0.66,-0.12,0.034,-0.672,0.714
2024-09-23 14:37:39.272,172943.739,0.021,0.607,-0.795,-0.075,-0.062,0.045,1.895,-0.569,-0.167,0.026,-0.652,0.712
2024-09-23 14:37:39.282,172943.749,0.016,0.591,-0.806,-0.03,-0.001,0.032,1.939,-0.379,-0.159,0.02,-0.633,0.709
2024-09-23 14:37:39.293,172943.759,0.013,0.576,-0.817,-0.024,0.086,0.039,1.778,-0.286,-0.001,0.016,-0.614,0.707
2024-09-23 14:37:39.302,172943.769,0.011,0.563,-0.827,-0.056,0.016,0.016,1.536,-0.276,0.027,0.013,-0.598,0.707
2024-09-23 14:37:39.313,172943.779,0.009,0.551,-0.834,-0.052,-0.061,0.038,1.275,-0.309,0.064,0.01,-0.584,0.708
2024-09-23 14:37:39.323,172943.789,0.007,0.541,-0.841,-0.034,-0.101,0.057,1.108,-0.266,0.109,0.008,-0.572,0.709
2024-09-23 14:37:39.333,172943.799,0.005,0.532,-0.847,-0.01,-0.123,0.044,1.067,-0.264,0.135,0.006,-0.561,0.71
2024-09-23 14:37:39.342,172943.809,0.004,0.523,-0.852,-0.016,-0.074,0.04,1.101,-0.215,0.139,0.004,-0.55,0.712
2024-09-23 14:37:39.352,172943.819,0.003,0.513,-0.858,-0.046,0.001,0.04,1.167,-0.162,0.098,0.003,-0.539,0.713
2024-09-23 14:37:39.362,172943.829,0.002,0.503,-0.864,-0.039,0.053,0.039,1.158,-0.126,0.135,0.002,-0.527,0.714
2024-09-23 14:37:39.372,172943.839,0.002,0.493,-0.87,-0.038,0.036,0.022,1.087,-0.129,0.177,0.002,-0.516,0.716
2024-09-23 14:37:39.383,172943.849,0.001,0.485,-0.875,-0.038,-0.005,0.02,0.951,-0.165,0.172,0.002,-0.506,0.718
2024-09-23 14:37:39.392,172943.859,0.001,0.477,-0.879,-0.033,-0.059,0.006,0.731,-0.18,0.164,0.001,-0.497,0.72
2024-09-23 14:37:39.402,172943.869,-0.0,0.472,-0.882,-0.031,-0.137,-0.038,0.513,-0.171,0.163,-0.0,-0.491,0.722
2024-09-23 14:37:39.413,172943.879,-0.001,0.468,-0.884,-0.049,-0.197,-0.057,0.31,-0.25,0.124,-0.001,-0.487,0.723
2024-09-23 14:37:39.422,172943.889,-0.003,0.466,-0.885,-0.058,-0.217,-0.062,0.13,-0.263,0.077,-0.004,-0.485,0.724
2024-09-23 14:37:39.431,172943.899,-0.005,0.466,-0.885,-0.056,-0.195,-0.064,-0.085,-0.233,0.119,-0.005,-0.485,0.726
2024-09-23 14:37:39.441,172943.909,-0.006,0.467,-0.884,-0.046,-0.2,-0.066,-0.196,-0.263,0.158,-0.007,-0.486,0.727
2024-09-23 14:37:39.451,172943.919,-0.008,0.469,-0.883,-0.041,-0.207,-0.033,-0.221,-0.25,0.151,-0.009,-0.488,0.729
2024-09-23 14:37:39.461,172943.929,-0.009,0.471,-0.882,-0.012,-0.142,0.001,-0.137,-0.118,0.047,-0.01,-0.49,0.73
2024-09-23 14:37:39.471,172943.939,-0.01,0.471,-0.882,-0.008,-0.052,0.006,0.02,-0.019,-0.05,-0.011,-0.491,0.73
2024-09-23 14:37:39.482,172943.949,-0.01,0.47,-0.883,-0.059,0.014,-0.039,0.263,0.138,-0.114,-0.011,-0.489,0.729
2024-09-23 14:37:39.492,172943.959,-0.008,0.467,-0.884,-0.103,0.111,-0.07,0.409,0.308,-0.22,-0.009,-0.486,0.727
2024-09-23 14:37:39.502,172943.969,-0.006,0.463,-0.886,-0.085,0.14,-0.078,0.46,0.407,-0.22,-0.007,-0.482,0.725
2024-09-23 14:37:39.512,172943.979,-0.003,0.46,-0.888,-0.09,0.071,-0.103,0.298,0.444,-0.226,-0.004,-0.478,0.722
2024-09-23 14:37:39.522,172943.989,-0.001,0.458,-0.889,-0.122,-0.0,-0.08,0.154,0.423,-0.236,-0.001,-0.476,0.72
2024-09-23 14:37:39.532,172943.999,0.002,0.457,-0.89,-0.102,-0.072,-0.085,0.131,0.581,-0.293,0.003,-0.474,0.717
2024-09-23 14:37:39.543,172944.009,0.007,0.456,-0.89,-0.068,-0.098,-0.13,0.066,0.742,-0.266,0.008,-0.473,0.714
2024-09-23 14:37:39.552,172944.019,0.013,0.456,-0.89,-0.128,-0.11,-0.141,-0.166,0.798,-0.196,0.015,-0.473,0.711
2024-09-23 14:37:39.562,172944.029,0.019,0.459,-0.888,-0.163,-0.124,-0.129,-0.534,0.706,-0.154,0.021,-0.477,0.709
2024-09-23 14:37:39.572,172944.039,0.024,0.466,-0.885,-0.125,-0.175,-0.093,-0.914,0.518,-0.121,0.027,-0.484,0.708
2024-09-23 14:37:39.582,172944.049,0.027,0.475,-0.88,-0.064,-0.221,-0.063,-1.245,0.392,-0.066,0.031,-0.495,0.707
2024-09-23 14:37:39.592,172944.059,0.03,0.487,-0.873,-0.027,-0.213,-0.06,-1.469,0.308,0.03,0.034,-0.509,0.707
2024-09-23 14:37:39.602,172944.069,0.033,0.5,-0.865,-0.051,-0.167,-0.099,-1.597,0.291,0.11,0.038,-0.524,0.709
2024-09-23 14:37:39.612,172944.078,0.036,0.514,-0.857,-0.096,-0.123,-0.15,-1.65,0.338,0.137,0.042,-0.54,0.711
2024-09-23 14:37:39.622,172944.088,0.04,0.528,-0.848,-0.104,-0.094,-0.188,-1.655,0.418,0.155,0.048,-0.557,0.714
2024-09-23 14:37:39.632,172944.098,0.045,0.542,-0.839,-0.111,-0.077,-0.193,-1.631,0.47,0.165,0.054,-0.573,0.716
2024-09-23 14:37:39.642,172944.108,0.05,0.556,-0.83,-0.129,-0.07,-0.171,-1.594,0.508,0.151,0.06,-0.589,0.719
2024-09-23 14:37:39.651,172944.118,0.055,0.569,-0.821,-0.132,-0.055,-0.137,-1.585,0.605,0.15,0.067,-0.605,0.722
2024-09-23 14:37:39.662,172944.128,0.062,0.581,-0.811,-0.122,-0.025,-0.124,-1.608,0.761,0.245,0.076,-0.62,0.726
2024-09-23 14:37:39.672,172944.138,0.071,0.595,-0.801,-0.127,0.02,-0.104,-1.723,0.949,0.445,0.088,-0.637,0.732
2024-09-23 14:37:39.682,172944.148,0.083,0.609,-0.789,-0.148,0.062,-0.089,-2.041,1.182,0.742,0.104,-0.655,0.741
2024-09-23 14:37:39.691,172944.158,0.098,0.626,-0.774,-0.168,0.116,-0.095,-2.441,1.312,1.069,0.126,-0.676,0.756
2024-09-23 14:37:39.702,172944.168,0.116,0.645,-0.756,-0.18,0.169,-0.115,-2.914,1.295,1.372,0.152,-0.701,0.777
2024-09-23 14:37:39.712,172944.178,0.135,0.666,-0.733,-0.161,0.161,-0.149,-3.452,1.215,1.685,0.182,-0.729,0.803
2024-09-23 14:37:39.722,172944.188,0.156,0.69,-0.707,-0.105,0.156,-0.169,-3.87,1.228,2.038,0.218,-0.762,0.838
2024-09-23 14:37:39.732,172944.198,0.181,0.714,-0.677,-0.076,0.226,-0.206,-3.996,1.241,2.378,0.261,-0.795,0.881
2024-09-23 14:37:39.742,172944.208,0.206,0.734,-0.647,-0.131,0.327,-0.234,-3.599,1.068,2.597,0.309,-0.825,0.932
2024-09-23 14:37:39.752,172944.218,0.233,0.749,-0.62,-0.213,0.449,-0.234,-2.977,1.154,2.745,0.359,-0.847,0.985
2024-09-23 14:37:39.761,172944.228,0.262,0.758,-0.597,-0.233,0.623,-0.229,-2.246,1.277,2.966,0.413,-0.86,1.04
2024-09-23 14:37:39.771,172944.238,0.293,0.76,-0.58,-0.234,0.822,-0.197,-1.478,1.395,3.179,0.468,-0.864,1.095
2024-09-23 14:37:39.781,172944.248,0.326,0.757,-0.566,-0.287,0.937,-0.162,-0.883,1.46,3.363,0.522,-0.859,1.148
2024-09-23 14:37:39.791,172944.258,0.36,0.749,-0.556,-0.297,0.921,-0.145,-0.53,1.427,3.523,0.574,-0.847,1.198
2024-09-23 14:37:39.802,172944.268,0.395,0.738,-0.547,-0.288,0.851,-0.087,-0.449,1.441,3.74,0.625,-0.83,1.246
2024-09-23 14:37:39.811,172944.278,0.431,0.724,-0.538,-0.317,0.776,-0.029,-0.419,1.446,4.028,0.675,-0.81,1.295
2024-09-23 14:37:39.821,172944.288,0.468,0.708,-0.528,-0.38,0.679,0.012,-0.524,1.473,4.322,0.725,-0.787,1.345
2024-09-23 14:37:39.832,172944.298,0.507,0.69,-0.516,-0.445,0.52,0.057,-0.853,1.509,4.656,0.777,-0.761,1.398
2024-09-23 14:37:39.841,172944.308,0.548,0.67,-0.501,-0.452,0.375,0.124,-1.242,1.394,4.968,0.83,-0.734,1.453
2024-09-23 14:37:39.851,172944.318,0.587,0.648,-0.485,-0.419,0.261,0.204,-1.609,1.057,5.122,0.88,-0.705,1.512
2024-09-23 14:37:39.862,172944.328,0.624,0.626,-0.469,-0.352,0.147,0.253,-1.973,0.656,5.191,0.927,-0.676,1.571
2024-09-23 14:37:39.871,172944.338,0.658,0.602,-0.452,-0.24,0.1,0.287,-2.347,0.396,5.321,0.969,-0.646,1.632
2024-09-23 14:37:39.882,172944.348,0.692,0.577,-0.434,-0.182,0.118,0.31,-2.872,0.262,5.53,1.01,-0.615,1.696
2024-09-23 14:37:39.891,172944.358,0.724,0.551,-0.416,-0.251,0.071,0.33,-3.386,0.033,5.658,1.049,-0.583,1.763
2024-09-23 14:37:39.901,172944.368,0.754,0.523,-0.397,-0.382,-0.018,0.324,-3.94,-0.141,5.764,1.087,-0.551,1.834
2024-09-23 14:37:39.911,172944.378,0.782,0.495,-0.378,-0.461,-0.072,0.284,-4.36,-0.462,5.76,1.121,-0.518,1.907
2024-09-23 14:37:39.921,172944.388,0.808,0.466,-0.361,-0.457,-0.098,0.285,-4.713,-0.748,5.639,1.151,-0.485,1.981
2024-09-23 14:37:39.932,172944.398,0.829,0.438,-0.346,-0.446,-0.137,0.292,-4.934,-1.122,5.404,1.175,-0.454,2.055
2024-09-23 14:37:39.941,172944.408,0.847,0.412,-0.336,-0.405,-0.132,0.256,-5.0,-1.499,5.078,1.193,-0.424,2.128
2024-09-23 14:37:39.951,172944.418,0.861,0.386,-0.331,-0.331,-0.069,0.243,-4.859,-1.828,4.795,1.204,-0.396,2.198
2024-09-23 14:37:39.961,172944.428,0.872,0.361,-0.329,-0.275,-0.031,0.211,-4.709,-1.956,4.606,1.21,-0.37,2.264
2024-09-23 14:37:39.971,172944.438,0.881,0.337,-0.331,-0.257,-0.019,0.161,-4.549,-2.112,4.382,1.211,-0.344,2.327
2024-09-23 14:37:39.981,172944.448,0.888,0.314,-0.336,-0.267,-0.023,0.138,-4.387,-2.18,4.16,1.209,-0.32,2.387
2024-09-23 14:37:39.991,172944.458,0.893,0.293,-0.342,-0.299,-0.034,0.133,-4.292,-2.23,3.87,1.205,-0.298,2.444
2024-09-23 14:37:40.001,172944.468,0.896,0.275,-0.35,-0.293,-0.036,0.122,-4.121,-2.265,3.559,1.198,-0.278,2.499
2024-09-23 14:37:40.011,172944.478,0.897,0.258,-0.36,-0.262,0.015,0.118,-3.783,-2.267,3.349,1.189,-0.261,2.55
2024-09-23 14:37:40.021,172944.488,0.896,0.242,-0.371,-0.228,0.05,0.07,-3.367,-2.281,3.114,1.178,-0.244,2.597
2024-09-23 14:37:40.031,172944.498,0.895,0.227,-0.384,-0.189,0.032,0.004,-2.935,-2.234,2.909,1.165,-0.229,2.639
2024-09-23 14:37:40.041,172944.508,0.892,0.212,-0.398,-0.174,0.053,-0.069,-2.396,-2.179,2.721,1.151,-0.214,2.676
2024-09-23 14:37:40.051,172944.518,0.889,0.197,-0.413,-0.197,0.093,-0.148,-1.877,-2.067,2.546,1.136,-0.199,2.707
2024-09-23 14:37:40.061,172944.528,0.886,0.182,-0.427,-0.245,0.091,-0.206,-1.386,-1.919,2.361,1.121,-0.183,2.732
2024-09-23 14:37:40.071,172944.538,0.882,0.167,-0.441,-0.285,0.102,-0.237,-0.9,-1.752,2.17,1.107,-0.168,2.753
2024-09-23 14:37:40.081,172944.548,0.877,0.152,-0.455,-0.323,0.112,-0.257,-0.354,-1.638,1.947,1.092,-0.153,2.768
2024-09-23 14:37:40.091,172944.558,0.873,0.137,-0.469,-0.348,0.093,-0.275,0.171,-1.46,1.722,1.078,-0.137,2.777
2024-09-23 14:37:40.101,172944.568,0.868,0.121,-0.481,-0.345,0.071,-0.295,0.669,-1.269,1.484,1.065,-0.121,2.781
2024-09-23 14:37:40.111,172944.578,0.864,0.104,-0.492,-0.339,0.084,-0.304,1.131,-1.068,1.246,1.053,-0.105,2.78
2024-09-23 14:37:40.121,172944.588,0.861,0.088,-0.502,-0.342,0.091,-0.306,1.51,-0.848,1.038,1.043,-0.088,2.774
2024-09-23 14:37:40.131,172944.598,0.858,0.072,-0.509,-0.328,0.069,-0.314,1.732,-0.653,0.844,1.035,-0.072,2.765
2024-09-23 14:37:40.141,172944.608,0.855,0.056,-0.515,-0.302,0.014,-0.325,1.785,-0.417,0.676,1.029,-0.056,2.754
2024-09-23 14:37:40.151,172944.618,0.854,0.042,-0.518,-0.283,-0.078,-0.322,1.461,-0.054,0.555,1.026,-0.042,2.743
2024-09-23 14:37:40.161,172944.628,0.855,0.032,-0.518,-0.296,-0.179,-0.318,1.009,0.199,0.506,1.026,-0.032,2.735
2024-09-23 14:37:40.171,172944.638,0.857,0.023,-0.515,-0.32,-0.306,-0.319,0.53,0.359,0.438,1.029,-0.023,2.731
2024-09-23 14:37:40.182,172944.648,0.859,0.019,-0.512,-0.313,-0.49,-0.352,0.183,0.571,0.304,1.034,-0.019,2.73
2024-09-23 14:37:40.191,172944.658,0.863,0.016,-0.506,-0.28,-0.549,-0.373,-0.054,0.797,0.22,1.041,-0.016,2.731
2024-09-23 14:37:40.201,172944.668,0.867,0.015,-0.498,-0.236,-0.47,-0.36,-0.118,0.91,0.207,1.049,-0.015,2.732
2024-09-23 14:37:40.211,172944.677,0.872,0.013,-0.49,-0.18,-0.417,-0.321,-0.041,0.957,0.174,1.059,-0.013,2.734
2024-09-23 14:37:40.221,172944.687,0.876,0.012,-0.481,-0.12,-0.356,-0.246,0.108,1.032,0.095,1.068,-0.012,2.735
2024-09-23 14:37:40.231,172944.697,0.882,0.011,-0.472,-0.073,-0.259,-0.153,0.216,1.138,0.045,1.079,-0.011,2.733
2024-09-23 14:37:40.241,172944.707,0.887,0.01,-0.461,-0.054,-0.175,-0.075,0.173,1.219,0.017,1.091,-0.01,2.732
2024-09-23 14:37:40.252,172944.717,0.893,0.009,-0.451,-0.042,-0.146,-0.033,0.187,1.19,-0.041,1.103,-0.009,2.73
2024-09-23 14:37:40.261,172944.727,0.898,0.008,-0.441,-0.028,-0.13,-0.004,0.288,0.999,-0.096,1.114,-0.008,2.728
2024-09-23 14:37:40.271,172944.737,0.901,0.008,-0.433,-0.007,-0.091,-0.016,0.352,0.639,-0.154,1.122,-0.008,2.724
2024-09-23 14:37:40.281,172944.747,0.903,0.008,-0.429,0.05,-0.048,-0.055,0.371,0.33,-0.186,1.127,-0.008,2.72
2024-09-23 14:37:40.291,172944.757,0.904,0.009,-0.428,0.092,-0.027,-0.055,0.257,0.06,-0.189,1.129,-0.009,2.716
2024-09-23 14:37:40.301,172944.767,0.904,0.009,-0.428,0.085,-0.063,-0.014,0.194,-0.116,-0.239,1.129,-0.009,2.714
2024-09-23 14:37:40.311,172944.777,0.903,0.011,-0.43,0.041,-0.071,0.031,0.172,-0.267,-0.329,1.127,-0.011,2.711
2024-09-23 14:37:40.321,172944.787,0.902,0.014,-0.433,0.034,-0.009,0.084,0.204,-0.366,-0.402,1.123,-0.014,2.708
2024-09-23 14:37:40.331,172944.797,0.9,0.017,-0.436,0.054,-0.003,0.101,0.261,-0.397,-0.466,1.12,-0.017,2.704
2024-09-23 14:37:40.341,172944.807,0.898,0.02,-0.44,0.057,-0.005,0.112,0.262,-0.386,-0.415,1.116,-0.02,2.699
2024-09-23 14:37:40.351,172944.817,0.896,0.022,-0.443,0.038,-0.027,0.109,0.168,-0.279,-0.377,1.112,-0.022,2.696
2024-09-23 14:37:40.359,172944.827,0.895,0.025,-0.445,0.028,-0.046,0.115,-0.039,-0.13,-0.303,1.11,-0.025,2.693
2024-09-23 14:37:40.370,172944.837,0.895,0.028,-0.445,0.016,-0.029,0.117,-0.304,-0.057,-0.218,1.109,-0.028,2.694
2024-09-23 14:37:40.381,172944.847,0.895,0.031,-0.445,0.003,-0.065,0.071,-0.532,-0.001,-0.155,1.109,-0.031,2.697
2024-09-23 14:37:40.391,172944.857,0.895,0.036,-0.445,-0.006,-0.152,-0.032,-0.706,0.122,-0.163,1.11,-0.036,2.702
2024-09-23 14:37:40.400,172944.867,0.896,0.04,-0.443,-0.036,-0.188,-0.139,-0.773,0.26,-0.113,1.112,-0.04,2.707
2024-09-23 14:37:40.410,172944.877,0.897,0.045,-0.44,-0.087,-0.147,-0.188,-0.774,0.37,-0.139,1.115,-0.045,2.714
2024-09-23 14:37:40.420,172944.887,0.899,0.049,-0.435,-0.113,-0.124,-0.212,-0.636,0.485,-0.102,1.12,-0.049,2.72
2024-09-23 14:37:40.431,172944.897,0.901,0.052,-0.431,-0.122,-0.044,-0.19,-0.365,0.512,-0.093,1.125,-0.052,2.724
2024-09-23 14:37:40.441,172944.907,0.903,0.054,-0.426,-0.115,0.051,-0.148,-0.057,0.478,-0.117,1.13,-0.054,2.725
2024-09-23 14:37:40.451,172944.917,0.905,0.054,-0.422,-0.072,0.137,-0.082,0.294,0.397,-0.133,1.134,-0.055,2.724
2024-09-23 14:37:40.460,172944.927,0.906,0.054,-0.419,-0.029,0.216,-0.016,0.642,0.304,-0.173,1.137,-0.054,2.719
2024-09-23 14:37:40.471,172944.937,0.907,0.053,-0.417,0.012,0.249,0.026,0.894,0.214,-0.241,1.14,-0.053,2.711
2024-09-23 14:37:40.481,172944.947,0.908,0.051,-0.416,0.048,0.252,0.057,0.964,0.134,-0.227,1.141,-0.051,2.701
2024-09-23 14:37:40.490,172944.957,0.908,0.049,-0.416,0.053,0.197,0.056,0.846,0.096,-0.209,1.142,-0.049,2.692
2024-09-23 14:37:40.500,172944.967,0.908,0.048,-0.415,0.037,0.079,0.042,0.671,0.08,-0.183,1.142,-0.048,2.685
2024-09-23 14:37:40.510,172944.977,0.909,0.047,-0.415,0.022,-0.004,0.033,0.455,0.093,-0.154,1.143,-0.047,2.679
2024-09-23 14:37:40.520,172944.987,0.909,0.047,-0.414,-0.002,-0.061,0.023,0.262,0.091,-0.121,1.143,-0.047,2.675
2024-09-23 14:37:40.531,172944.997,0.91,0.047,-0.413,-0.011,-0.098,0.011,-0.005,0.147,-0.091,1.145,-0.047,2.673
2024-09-23 14:37:40.540,172945.007,0.91,0.048,-0.411,-0.007,-0.112,-0.01,-0.195,0.177,-0.07,1.146,-0.048,2.674
2024-09-23 14:37:40.550,172945.017,0.911,0.05,-0.409,-0.024,-0.105,-0.026,-0.232,0.232,-0.048,1.148,-0.05,2.676
2024-09-23 14:37:40.560,172945.027,0.912,0.051,-0.407,-0.053,-0.084,-0.022,-0.289,0.223,0.061,1.151,-0.051,2.678
2024-09-23 14:37:40.571,172945.037,0.913,0.051,-0.406,-0.044,0.001,-0.002,-0.422,0.058,0.168,1.152,-0.051,2.682
2024-09-23 14:37:40.580,172945.047,0.913,0.051,-0.406,0.015,0.051,0.062,-0.456,-0.08,0.273,1.152,-0.051,2.687
2024-09-23 14:37:40.590,172945.057,0.912,0.05,-0.406,0.096,0.082,0.159,-0.259,-0.072,0.185,1.152,-0.05,2.691
2024-09-23 14:37:40.600,172945.067,0.912,0.049,-0.407,0.133,0.119,0.243,-0.044,-0.143,0.097,1.151,-0.049,2.693
2024-09-23 14:37:40.610,172945.077,0.911,0.049,-0.409,0.099,0.185,0.282,0.072,-0.27,0.06,1.149,-0.049,2.693
2024-09-23 14:37:40.620,172945.087,0.91,0.048,-0.412,0.118,0.117,0.256,0.22,-0.29,0.008,1.146,-0.048,2.692
2024-09-23 14:37:40.631,172945.097,0.909,0.046,-0.414,0.13,0.019,0.206,0.356,-0.23,-0.008,1.143,-0.047,2.689
2024-09-23 14:37:40.640,172945.107,0.908,0.045,-0.416,0.068,0.026,0.149,0.358,-0.145,0.049,1.141,-0.045,2.686
2024-09-23 14:37:40.650,172945.117,0.908,0.043,-0.417,0.022,-0.0,0.118,0.291,-0.026,0.124,1.14,-0.043,2.683
2024-09-23 14:37:40.660,172945.127,0.908,0.04,-0.417,0.005,-0.073,0.096,0.14,0.066,0.203,1.14,-0.04,2.682
2024-09-23 14:37:40.670,172945.137,0.908,0.038,-0.416,-0.008,-0.119,0.071,-0.048,0.099,0.244,1.141,-0.038,2.683
2024-09-23 14:37:40.680,172945.147,0.909,0.036,-0.415,-0.0,-0.14,0.048,-0.26,0.136,0.262,1.143,-0.036,2.685
2024-09-23 14:37:40.690,172945.157,0.91,0.035,-0.413,0.016,-0.151,0.029,-0.411,0.181,0.28,1.144,-0.035,2.689
2024-09-23 14:37:40.699,172945.167,0.911,0.035,-0.412,-0.002,-0.149,-0.0,-0.494,0.181,0.281,1.146,-0.035,2.695
2024-09-23 14:37:40.710,172945.177,0.912,0.034,-0.41,-0.027,-0.117,-0.038,-0.557,0.198,0.295,1.148,-0.034,2.701
2024-09-23 14:37:40.720,172945.187,0.912,0.034,-0.408,-0.029,-0.057,-0.076,-0.553,0.179,0.27,1.151,-0.034,2.707
2024-09-23 14:37:40.730,172945.197,0.913,0.034,-0.406,-0.046,-0.017,-0.091,-0.479,0.176,0.207,1.153,-0.034,2.713
2024-09-23 14:37:40.740,172945.207,0.914,0.034,-0.404,-0.061,0.014,-0.074,-0.313,0.137,0.161,1.154,-0.034,2.717
2024-09-23 14:37:40.749,172945.217,0.914,0.033,-0.404,-0.052,0.064,-0.037,0.02,0.03,0.071,1.155,-0.033,2.719
2024-09-23 14:37:40.760,172945.227,0.914,0.033,-0.403,-0.027,0.089,0.02,0.273,-0.004,-0.045,1.155,-0.033,2.717
2024-09-23 14:37:40.770,172945.237,0.914,0.032,-0.404,0.021,0.147,0.086,0.422,-0.146,-0.079,1.154,-0.032,2.714
2024-09-23 14:37:40.780,172945.247,0.913,0.031,-0.406,0.052,0.145,0.115,0.511,-0.214,-0.171,1.152,-0.031,2.709
2024-09-23 14:37:40.790,172945.257,0.912,0.031,-0.408,0.077,0.041,0.097,0.484,-0.267,-0.199,1.15,-0.031,2.704
2024-09-23 14:37:40.800,172945.267,0.911,0.031,-0.411,0.062,-0.008,0.078,0.371,-0.278,-0.244,1.147,-0.031,2.699
2024-09-23 14:37:40.810,172945.276,0.91,0.032,-0.414,0.035,-0.093,0.07,0.266,-0.243,-0.279,1.144,-0.032,2.695
2024-09-23 14:37:40.820,172945.286,0.909,0.034,-0.416,0.02,-0.126,0.034,0.142,-0.165,-0.291,1.142,-0.034,2.692
2024-09-23 14:37:40.830,172945.296,0.908,0.036,-0.417,-0.021,-0.12,-0.023,0.056,-0.09,-0.287,1.141,-0.036,2.69
2024-09-23 14:37:40.840,172945.306,0.908,0.038,-0.417,-0.049,-0.109,-0.067,0.04,0.042,-0.291,1.14,-0.038,2.688
2024-09-23 14:37:40.850,172945.316,0.908,0.04,-0.417,-0.06,-0.079,-0.08,-0.005,0.028,-0.191,1.141,-0.041,2.687
2024-09-23 14:37:40.860,172945.326,0.908,0.042,-0.416,-0.07,-0.022,-0.085,0.003,0.029,-0.12,1.141,-0.042,2.686
2024-09-23 14:37:40.870,172945.336,0.908,0.043,-0.416,-0.028,-0.044,-0.075,0.04,0.022,-0.063,1.141,-0.043,2.686
2024-09-23 14:37:40.880,172945.346,0.908,0.043,-0.416,-0.007,-0.031,-0.036,0.049,-0.007,-0.015,1.141,-0.043,2.685
2024-09-23 14:37:40.890,172945.356,0.908,0.042,-0.416,-0.006,0.008,0.006,0.118,-0.075,0.005,1.141,-0.042,2.685
2024-09-23 14:37:40.900,172945.366,0.908,0.042,-0.417,0.012,0.004,0.046,0.263,-0.151,0.009,1.14,-0.042,2.683
2024-09-23 14:37:40.910,172945.376,0.907,0.04,-0.419,0.029,0.01,0.064,0.362,-0.254,0.003,1.138,-0.04,2.68
2024-09-23 14:37:40.920,172945.386,0.906,0.039,-0.422,0.039,0.045,0.052,0.311,-0.279,0.037,1.135,-0.039,2.677
2024-09-23 14:37:40.930,172945.396,0.905,0.037,-0.425,0.041,0.046,0.045,0.331,-0.265,0.024,1.132,-0.037,2.674
2024-09-23 14:37:40.940,172945.406,0.904,0.035,-0.427,0.049,0.026,0.058,0.37,-0.221,0.03,1.129,-0.035,2.671
2024-09-23 14:37:40.951,172945.416,0.903,0.033,-0.429,0.029,0.01,0.079,0.367,-0.199,0.033,1.127,-0.033,2.668
2024-09-23 14:37:40.960,172945.426,0.902,0.031,-0.431,0.009,0.002,0.085,0.351,-0.16,0.037,1.125,-0.032,2.665
2024-09-23 14:37:40.970,172945.436,0.901,0.03,-0.432,0.018,-0.019,0.076,0.235,-0.089,0.049,1.124,-0.03,2.662
2024-09-23 14:37:40.979,172945.446,0.901,0.029,-0.433,0.009,-0.04,0.075,0.075,-0.049,0.088,1.123,-0.029,2.661
2024-09-23 14:37:40.990,172945.456,0.901,0.028,-0.433,0.005,-0.075,0.077,-0.012,-0.027,0.087,1.123,-0.028,2.661
2024-09-23 14:37:40.999,172945.466,0.901,0.027,-0.433,0.0,-0.12,0.057,-0.143,-0.013,0.105,1.123,-0.027,2.662
2024-09-23 14:37:41.010,172945.476,0.901,0.027,-0.433,0.002,-0.109,0.011,-0.262,-0.028,0.138,1.123,-0.027,2.665
2024-09-23 14:37:41.020,172945.486,0.901,0.027,-0.433,-0.009,-0.102,-0.026,-0.284,-0.044,0.132,1.123,-0.027,2.668
2024-09-23 14:37:41.029,172945.496,0.901,0.027,-0.434,-0.006,-0.105,-0.028,-0.284,-0.059,0.121,1.122,-0.027,2.671
2024-09-23 14:37:41.039,172945.506,0.901,0.027,-0.434,-0.01,-0.032,-0.034,-0.268,-0.044,0.108,1.122,-0.027,2.674
2024-09-23 14:37:41.050,172945.516,0.9,0.028,-0.434,-0.02,0.01,-0.042,-0.258,-0.024,0.102,1.121,-0.028,2.677
2024-09-23 14:37:41.060,172945.526,0.9,0.028,-0.434,-0.026,0.035,-0.041,-0.256,-0.025,0.062,1.121,-0.028,2.679
2024-09-23 14:37:41.069,172945.536,0.9,0.028,-0.435,-0.027,0.043,-0.032,-0.242,-0.039,0.059,1.121,-0.028,2.682
2024-09-23 14:37:41.081,172945.546,0.9,0.029,-0.435,-0.02,0.04,-0.008,-0.28,-0.072,0.05,1.121,-0.029,2.684
2024-09-23 14:37:41.089,172945.556,0.9,0.03,-0.436,0.004,0.035,0.022,-0.297,-0.152,0.037,1.12,-0.03,2.687
2024-09-23 14:37:41.099,172945.566,0.899,0.031,-0.438,0.036,0.007,0.072,-0.299,-0.259,0.051,1.118,-0.031,2.69
2024-09-23 14:37:41.109,172945.576,0.897,0.032,-0.44,0.056,-0.017,0.115,-0.183,-0.298,-0.003,1.115,-0.032,2.692
2024-09-23 14:37:41.120,172945.586,0.896,0.032,-0.443,0.064,0.007,0.135,-0.02,-0.352,0.013,1.112,-0.032,2.693
2024-09-23 14:37:41.130,172945.596,0.894,0.032,-0.446,0.036,0.077,0.129,0.071,-0.296,0.02,1.108,-0.032,2.693
2024-09-23 14:37:41.139,172945.606,0.893,0.031,-0.448,0.016,0.092,0.048,0.219,-0.166,-0.016,1.106,-0.031,2.692
2024-09-23 14:37:41.149,172945.616,0.893,0.03,-0.449,0.007,0.067,-0.025,0.393,-0.036,-0.03,1.105,-0.03,2.689
2024-09-23 14:37:41.159,172945.626,0.893,0.028,-0.449,-0.069,0.046,-0.131,0.579,0.081,0.024,1.105,-0.028,2.685
2024-09-23 14:37:41.169,172945.636,0.894,0.025,-0.448,-0.113,0.009,-0.238,0.757,0.195,0.085,1.106,-0.025,2.679
2024-09-23 14:37:41.179,172945.646,0.895,0.02,-0.447,-0.122,-0.002,-0.249,0.845,0.203,0.209,1.108,-0.02,2.672
2024-09-23 14:37:41.189,172945.656,0.895,0.014,-0.445,-0.096,0.013,-0.166,0.701,0.126,0.355,1.109,-0.014,2.667
2024-09-23 14:37:41.199,172945.666,0.896,0.008,-0.444,-0.013,0.01,-0.018,0.614,0.21,0.282,1.111,-0.008,2.662
2024-09-23 14:37:41.210,172945.676,0.897,0.003,-0.442,0.06,0.021,0.117,0.548,0.281,0.258,1.113,-0.003,2.658
2024-09-23 14:37:41.219,172945.686,0.898,-0.002,-0.44,0.026,0.037,0.185,0.357,0.222,0.294,1.116,0.002,2.655
2024-09-23 14:37:41.229,172945.696,0.899,-0.006,-0.438,0.054,-0.019,0.157,0.201,0.195,0.358,1.118,0.006,2.654
2024-09-23 14:37:41.239,172945.706,0.9,-0.01,-0.435,0.127,-0.12,0.081,-0.001,0.366,0.439,1.12,0.01,2.655
2024-09-23 14:37:41.249,172945.716,0.902,-0.014,-0.431,0.102,-0.163,0.024,-0.281,0.575,0.508,1.125,0.014,2.658
2024-09-23 14:37:41.259,172945.726,0.905,-0.016,-0.425,0.035,-0.153,0.008,-0.634,0.803,0.539,1.132,0.016,2.664
2024-09-23 14:37:41.269,172945.736,0.909,-0.018,-0.417,-0.013,-0.127,0.009,-0.941,0.974,0.588,1.14,0.018,2.674
2024-09-23 14:37:41.279,172945.746,0.913,-0.019,-0.407,-0.021,-0.079,0.015,-1.265,1.192,0.618,1.151,0.019,2.686
2024-09-23 14:37:41.289,172945.756,0.918,-0.019,-0.396,-0.031,-0.042,-0.001,-1.412,1.316,0.641,1.163,0.019,2.701
2024-09-23 14:37:41.299,172945.766,0.923,-0.02,-0.384,-0.031,-0.028,-0.016,-1.305,1.296,0.605,1.176,0.02,2.716
2024-09-23 14:37:41.309,172945.776,0.928,-0.021,-0.373,-0.002,0.01,-0.072,-1.002,1.207,0.55,1.188,0.021,2.729
2024-09-23 14:37:41.319,172945.786,0.932,-0.023,-0.363,0.085,0.122,-0.155,-0.567,1.083,0.511,1.2,0.023,2.739
2024-09-23 14:37:41.329,172945.796,0.935,-0.026,-0.353,0.196,0.281,-0.245,-0.181,0.941,0.459,1.21,0.026,2.744
2024-09-23 14:37:41.339,172945.806,0.938,-0.03,-0.345,0.301,0.377,-0.325,0.149,0.732,0.423,1.218,0.03,2.745
2024-09-23 14:37:41.349,172945.816,0.94,-0.035,-0.339,0.399,0.402,-0.37,0.321,0.552,0.41,1.225,0.035,2.744
2024-09-23 14:37:41.359,172945.826,0.941,-0.039,-0.335,0.496,0.369,-0.347,0.295,0.352,0.37,1.229,0.039,2.743
2024-09-23 14:37:41.369,172945.836,0.942,-0.044,-0.332,0.569,0.291,-0.259,0.18,0.132,0.377,1.232,0.044,2.742
2024-09-23 14:37:41.379,172945.846,0.942,-0.048,-0.332,0.574,0.246,-0.131,0.108,-0.097,0.535,1.232,0.048,2.742
2024-09-23 14:37:41.389,172945.856,0.941,-0.055,-0.334,0.567,0.259,-0.007,0.09,-0.364,0.727,1.229,0.055,2.743
2024-09-23 14:37:41.399,172945.866,0.939,-0.063,-0.339,0.593,0.27,0.048,0.136,-0.727,0.915,1.224,0.063,2.745
2024-09-23 14:37:41.409,172945.876,0.935,-0.072,-0.348,0.621,0.25,0.038,0.142,-1.123,0.982,1.215,0.072,2.747
2024-09-23 14:37:41.419,172945.885,0.93,-0.082,-0.359,0.643,0.247,-0.015,0.154,-1.333,1.02,1.202,0.082,2.749
2024-09-23 14:37:41.429,172945.895,0.924,-0.092,-0.372,0.614,0.279,-0.057,0.213,-1.391,1.135,1.188,0.093,2.751
2024-09-23 14:37:41.439,172945.905,0.917,-0.104,-0.384,0.508,0.309,-0.072,0.195,-1.452,1.263,1.174,0.104,2.754
2024-09-23 14:37:41.449,172945.915,0.91,-0.117,-0.398,0.422,0.345,-0.049,0.161,-1.604,1.289,1.158,0.117,2.757
2024-09-23 14:37:41.459,172945.925,0.901,-0.129,-0.413,0.43,0.399,0.048,0.287,-1.788,1.208,1.141,0.129,2.761
2024-09-23 14:37:41.469,172945.935,0.892,-0.141,-0.429,0.475,0.392,0.13,0.513,-1.877,1.115,1.122,0.141,2.762
2024-09-23 14:37:41.478,172945.945,0.882,-0.153,-0.445,0.474,0.327,0.139,0.696,-1.892,1.067,1.104,0.154,2.761
2024-09-23 14:37:41.488,172945.955,0.872,-0.166,-0.46,0.409,0.27,0.111,0.849,-1.942,1.002,1.085,0.167,2.759
2024-09-23 14:37:41.499,172945.965,0.861,-0.178,-0.476,0.341,0.214,0.074,0.898,-2.011,0.912,1.066,0.179,2.756
2024-09-23 14:37:41.509,172945.975,0.85,-0.19,-0.492,0.287,0.117,0.05,0.945,-2.031,0.862,1.046,0.191,2.752
2024-09-23 14:37:41.519,172945.985,0.838,-0.202,-0.507,0.243,0.034,0.069,0.849,-2.009,0.839,1.027,0.203,2.749
2024-09-23 14:37:41.529,172945.995,0.826,-0.213,-0.522,0.209,0.011,0.127,0.765,-2.054,0.732,1.007,0.214,2.746
2024-09-23 14:37:41.538,172946.005,0.814,-0.222,-0.537,0.213,0.05,0.198,0.69,-2.076,0.58,0.987,0.224,2.743
2024-09-23 14:37:41.548,172946.015,0.801,-0.23,-0.552,0.219,0.097,0.248,0.753,-2.053,0.499,0.967,0.232,2.74
2024-09-23 14:37:41.558,172946.025,0.789,-0.238,-0.567,0.187,0.126,0.257,0.758,-2.018,0.43,0.948,0.24,2.737
2024-09-23 14:37:41.568,172946.035,0.776,-0.245,-0.581,0.154,0.103,0.231,0.688,-1.99,0.356,0.929,0.248,2.733
2024-09-23 14:37:41.578,172946.045,0.764,-0.251,-0.595,0.134,0.04,0.224,0.605,-2.032,0.233,0.909,0.254,2.73
2024-09-23 14:37:41.588,172946.055,0.751,-0.256,-0.608,0.117,-0.028,0.246,0.634,-2.052,0.098,0.89,0.259,2.726
2024-09-23 14:37:41.598,172946.065,0.739,-0.261,-0.622,0.084,-0.081,0.26,0.772,-2.006,-0.029,0.871,0.264,2.72
2024-09-23 14:37:41.608,172946.075,0.726,-0.265,-0.634,0.029,-0.065,0.246,0.97,-1.949,-0.171,0.853,0.269,2.713
2024-09-23 14:37:41.618,172946.085,0.715,-0.27,-0.645,-0.03,0.003,0.218,1.143,-1.952,-0.311,0.837,0.274,2.703
2024-09-23 14:37:41.628,172946.095,0.703,-0.276,-0.656,-0.071,0.077,0.199,1.311,-1.963,-0.428,0.82,0.279,2.691
2024-09-23 14:37:41.638,172946.105,0.691,-0.282,-0.665,-0.112,0.143,0.219,1.594,-2.013,-0.579,0.805,0.286,2.676
2024-09-23 14:37:41.648,172946.115,0.679,-0.289,-0.674,-0.122,0.215,0.242,1.828,-2.066,-0.621,0.789,0.293,2.659
2024-09-23 14:37:41.658,172946.125,0.667,-0.298,-0.683,-0.119,0.264,0.205,1.918,-2.039,-0.604,0.774,0.302,2.641
2024-09-23 14:37:41.668,172946.135,0.655,-0.307,-0.69,-0.112,0.3,0.266,1.973,-2.086,-0.611,0.759,0.312,2.622
2024-09-23 14:37:41.678,172946.145,0.642,-0.316,-0.698,-0.098,0.22,0.428,1.83,-2.241,-0.639,0.743,0.322,2.604
2024-09-23 14:37:41.688,172946.155,0.628,-0.324,-0.708,-0.066,0.042,0.558,1.543,-2.432,-0.683,0.725,0.33,2.586
2024-09-23 14:37:41.698,172946.165,0.612,-0.33,-0.719,-0.005,-0.013,0.665,1.327,-2.661,-0.691,0.705,0.336,2.571
2024-09-23 14:37:41.708,172946.175,0.594,-0.334,-0.731,0.029,-0.017,0.706,1.09,-2.789,-0.66,0.682,0.341,2.557
2024-09-23 14:37:41.719,172946.185,0.576,-0.338,-0.744,0.013,-0.051,0.667,0.76,-2.693,-0.618,0.659,0.344,2.546
2024-09-23 14:37:41.729,172946.195,0.559,-0.338,-0.757,-0.053,-0.006,0.598,0.406,-2.592,-0.566,0.636,0.345,2.537
2024-09-23 14:37:41.738,172946.205,0.541,-0.338,-0.77,-0.164,0.081,0.515,0.374,-2.556,-0.54,0.612,0.345,2.53
2024-09-23 14:37:41.748,172946.215,0.523,-0.34,-0.782,-0.256,0.126,0.445,0.735,-2.506,-0.486,0.59,0.346,2.522
2024-09-23 14:37:41.758,172946.225,0.505,-0.345,-0.791,-0.267,0.218,0.389,1.275,-2.48,-0.365,0.568,0.352,2.513
2024-09-23 14:37:41.768,172946.235,0.486,-0.356,-0.798,-0.228,0.402,0.331,1.957,-2.479,-0.337,0.548,0.364,2.501
2024-09-23 14:37:41.778,172946.245,0.469,-0.373,-0.801,-0.207,0.538,0.307,2.736,-2.28,-0.288,0.529,0.383,2.485
2024-09-23 14:37:41.788,172946.255,0.453,-0.398,-0.798,-0.244,0.555,0.32,3.832,-1.817,-0.188,0.516,0.41,2.465
2024-09-23 14:37:41.798,172946.265,0.442,-0.433,-0.786,-0.324,0.624,0.315,5.079,-1.151,-0.233,0.513,0.448,2.439
2024-09-23 14:37:41.808,172946.275,0.436,-0.474,-0.766,-0.452,0.717,0.24,5.664,-0.904,-0.242,0.517,0.493,2.407
2024-09-23 14:37:41.818,172946.285,0.429,-0.515,-0.742,-0.553,0.814,0.182,5.562,-0.974,-0.151,0.525,0.541,2.372
2024-09-23 14:37:41.828,172946.295,0.423,-0.555,-0.717,-0.367,0.671,0.215,5.317,-0.972,0.052,0.533,0.588,2.34
2024-09-23 14:37:41.838,172946.305,0.415,-0.592,-0.691,-0.24,0.333,0.28,5.079,-0.853,0.392,0.541,0.634,2.309
2024-09-23 14:37:41.848,172946.315,0.407,-0.627,-0.665,-0.241,0.266,0.302,4.59,-0.691,0.646,0.549,0.678,2.283
2024-09-23 14:37:41.858,172946.325,0.397,-0.658,-0.639,-0.256,0.262,0.309,4.049,-0.625,0.883,0.556,0.718,2.257
2024-09-23 14:37:41.868,172946.335,0.387,-0.686,-0.616,-0.317,0.09,0.384,3.677,-0.536,1.127,0.561,0.756,2.237
2024-09-23 14:37:41.878,172946.345,0.375,-0.712,-0.593,-0.267,-0.01,0.413,3.449,-0.46,1.345,0.564,0.793,2.22
2024-09-23 14:37:41.888,172946.355,0.362,-0.737,-0.57,-0.214,-0.012,0.392,3.355,-0.502,1.433,0.566,0.829,2.206
2024-09-23 14:37:41.898,172946.365,0.349,-0.761,-0.547,-0.201,0.013,0.367,3.32,-0.469,1.547,0.567,0.865,2.193
2024-09-23 14:37:41.908,172946.375,0.334,-0.784,-0.523,-0.204,0.058,0.367,3.3,-0.495,1.636,0.568,0.902,2.182
2024-09-23 14:37:41.918,172946.385,0.318,-0.806,-0.499,-0.224,0.139,0.4,3.141,-0.492,1.639,0.568,0.938,2.171
2024-09-23 14:37:41.928,172946.395,0.302,-0.826,-0.476,-0.18,0.163,0.418,2.875,-0.553,1.626,0.566,0.972,2.163
2024-09-23 14:37:41.938,172946.405,0.286,-0.843,-0.455,-0.149,0.142,0.442,2.698,-0.717,1.601,0.561,1.004,2.155
2024-09-23 14:37:41.948,172946.415,0.269,-0.86,-0.435,-0.157,0.068,0.439,2.567,-0.861,1.609,0.554,1.034,2.15
2024-09-23 14:37:41.958,172946.425,0.251,-0.874,-0.415,-0.077,-0.011,0.377,2.466,-0.955,1.577,0.544,1.064,2.147
2024-09-23 14:37:41.968,172946.435,0.234,-0.888,-0.396,-0.014,-0.078,0.299,2.496,-0.908,1.504,0.534,1.093,2.143
2024-09-23 14:37:41.977,172946.445,0.217,-0.901,-0.375,-0.028,-0.152,0.231,2.606,-0.745,1.451,0.526,1.123,2.139
2024-09-23 14:37:41.987,172946.455,0.202,-0.914,-0.352,-0.083,-0.182,0.142,2.685,-0.516,1.412,0.521,1.153,2.132
2024-09-23 14:37:41.997,172946.465,0.188,-0.926,-0.328,-0.136,-0.191,0.028,2.732,-0.254,1.365,0.521,1.183,2.124
2024-09-23 14:37:42.007,172946.475,0.175,-0.937,-0.304,-0.18,-0.209,-0.073,2.556,-0.099,1.37,0.523,1.213,2.116
2024-09-23 14:37:42.018,172946.484,0.162,-0.946,-0.281,-0.217,-0.207,-0.168,2.237,-0.085,1.368,0.522,1.241,2.112
2024-09-23 14:37:42.028,172946.494,0.149,-0.954,-0.261,-0.235,-0.226,-0.202,1.962,-0.087,1.332,0.517,1.265,2.112
2024-09-23 14:37:42.038,172946.504,0.136,-0.96,-0.244,-0.22,-0.269,-0.145,1.775,-0.084,1.262,0.509,1.288,2.115
2024-09-23 14:37:42.048,172946.514,0.124,-0.966,-0.228,-0.198,-0.271,-0.067,1.614,-0.055,1.166,0.499,1.309,2.12
2024-09-23 14:37:42.058,172946.524,0.113,-0.971,-0.212,-0.194,-0.261,-0.023,1.514,0.003,1.1,0.49,1.328,2.126
2024-09-23 14:37:42.068,172946.534,0.103,-0.975,-0.198,-0.171,-0.259,-0.002,1.384,0.034,1.048,0.478,1.346,2.134
2024-09-23 14:37:42.077,172946.544,0.093,-0.978,-0.186,-0.134,-0.265,0.021,1.169,0.037,1.032,0.463,1.362,2.146
2024-09-23 14:37:42.088,172946.554,0.083,-0.981,-0.176,-0.08,-0.275,0.036,0.892,0.004,1.058,0.439,1.375,2.166
2024-09-23 14:37:42.097,172946.564,0.072,-0.983,-0.168,-0.037,-0.294,0.061,0.626,-0.031,1.078,0.405,1.387,2.198
2024-09-23 14:37:42.108,172946.574,0.061,-0.985,-0.163,-0.011,-0.295,0.094,0.507,-0.043,1.077,0.361,1.396,2.238
2024-09-23 14:37:42.117,172946.584,0.051,-0.986,-0.158,-0.005,-0.247,0.111,0.584,-0.052,1.022,0.313,1.404,2.282
2024-09-23 14:37:42.128,172946.594,0.041,-0.988,-0.15,-0.02,-0.162,0.102,0.92,-0.029,0.883,0.269,1.414,2.322
2024-09-23 14:37:42.137,172946.604,0.034,-0.99,-0.139,-0.048,-0.075,0.056,1.336,0.004,0.735,0.236,1.427,2.352
2024-09-23 14:37:42.147,172946.614,0.027,-0.992,-0.125,-0.072,0.033,-0.008,1.576,0.046,0.578,0.214,1.443,2.375
2024-09-23 14:37:42.158,172946.624,0.022,-0.994,-0.109,-0.077,0.077,-0.068,1.551,0.062,0.473,0.198,1.459,2.387
2024-09-23 14:37:42.168,172946.634,0.018,-0.995,-0.095,-0.086,-0.023,-0.092,1.319,0.075,0.363,0.186,1.474,2.397
2024-09-23 14:37:42.177,172946.644,0.015,-0.996,-0.083,-0.104,-0.154,-0.089,1.081,0.11,0.261,0.176,1.487,2.403
2024-09-23 14:37:42.187,172946.654,0.013,-0.997,-0.073,-0.117,-0.243,-0.088,0.841,0.133,0.177,0.172,1.497,2.405
2024-09-23 14:37:42.197,172946.664,0.011,-0.998,-0.066,-0.125,-0.293,-0.1,0.492,0.168,0.129,0.168,1.503,2.406
2024-09-23 14:37:42.207,172946.674,0.01,-0.998,-0.064,-0.115,-0.34,-0.114,0.06,0.153,0.058,0.163,1.506,2.41
2024-09-23 14:37:42.217,172946.684,0.01,-0.998,-0.065,-0.089,-0.393,-0.097,-0.288,0.136,-0.014,0.158,1.505,2.413
2024-09-23 14:37:42.227,172946.694,0.011,-0.998,-0.069,-0.041,-0.433,-0.064,-0.545,0.149,-0.056,0.155,1.501,2.413
2024-09-23 14:37:42.238,172946.704,0.012,-0.997,-0.076,-0.003,-0.397,-0.063,-0.808,0.171,-0.076,0.152,1.494,2.415
2024-09-23 14:37:42.247,172946.714,0.013,-0.996,-0.085,0.004,-0.295,-0.048,-1.038,0.182,-0.096,0.147,1.485,2.418
2024-09-23 14:37:42.257,172946.724,0.014,-0.995,-0.096,-0.001,-0.223,0.019,-1.166,0.162,-0.108,0.142,1.474,2.42
2024-09-23 14:37:42.267,172946.734,0.015,-0.994,-0.108,0.002,-0.175,0.062,-1.117,0.116,-0.09,0.137,1.462,2.423
2024-09-23 14:37:42.277,172946.744,0.016,-0.993,-0.117,0.001,-0.094,0.055,-0.785,0.043,-0.127,0.136,1.452,2.422
2024-09-23 14:37:42.287,172946.754,0.017,-0.992,-0.123,0.005,0.001,0.048,-0.317,0.021,-0.137,0.141,1.447,2.414
2024-09-23 14:37:42.297,172946.764,0.019,-0.992,-0.124,0.005,0.098,0.018,0.06,0.017,-0.14,0.15,1.445,2.401
2024-09-23 14:37:42.307,172946.774,0.02,-0.992,-0.122,0.021,0.245,0.002,0.224,-0.037,-0.169,0.164,1.446,2.384
2024-09-23 14:37:42.318,172946.784,0.022,-0.993,-0.12,0.038,0.285,0.017,0.276,-0.174,-0.199,0.181,1.449,2.362
2024-09-23 14:37:42.328,172946.794,0.024,-0.993,-0.117,0.06,0.185,0.044,0.294,-0.252,-0.215,0.201,1.451,2.337
2024-09-23 14:37:42.337,172946.804,0.026,-0.993,-0.114,0.093,0.11,0.036,0.384,-0.218,-0.223,0.222,1.454,2.31
2024-09-23 14:37:42.347,172946.814,0.028,-0.994,-0.11,0.079,0.145,0.012,0.484,-0.261,-0.29,0.25,1.457,2.276
2024-09-23 14:37:42.358,172946.824,0.031,-0.994,-0.105,0.052,0.13,-0.002,0.541,-0.305,-0.291,0.285,1.462,2.234
2024-09-23 14:37:42.368,172946.834,0.033,-0.994,-0.1,0.035,0.03,-0.078,0.477,-0.312,-0.229,0.319,1.466,2.194
2024-09-23 14:37:42.377,172946.844,0.035,-0.995,-0.096,0.015,0.035,-0.148,0.338,-0.267,-0.222,0.349,1.469,2.157
2024-09-23 14:37:42.387,172946.854,0.037,-0.995,-0.093,-0.037,0.058,-0.147,0.155,-0.24,-0.255,0.377,1.47,2.124
2024-09-23 14:37:42.397,172946.864,0.039,-0.995,-0.093,-0.065,0.015,-0.123,-0.007,-0.195,-0.273,0.401,1.47,2.093
2024-09-23 14:37:42.407,172946.874,0.042,-0.995,-0.094,-0.055,-0.029,-0.126,-0.23,-0.111,-0.245,0.419,1.468,2.071
2024-09-23 14:37:42.417,172946.884,0.044,-0.994,-0.097,-0.053,-0.03,-0.145,-0.383,0.044,-0.192,0.425,1.464,2.062
2024-09-23 14:37:42.427,172946.894,0.046,-0.994,-0.101,-0.067,-0.019,-0.158,-0.377,0.045,-0.197,0.426,1.46,2.057
2024-09-23 14:37:42.437,172946.904,0.048,-0.993,-0.104,-0.072,-0.009,-0.14,-0.328,0.074,-0.178,0.429,1.456,2.052
2024-09-23 14:37:42.447,172946.914,0.05,-0.993,-0.107,-0.029,-0.003,-0.112,-0.263,0.053,-0.179,0.433,1.452,2.045
2024-09-23 14:37:42.457,172946.924,0.051,-0.993,-0.11,0.039,0.034,-0.087,-0.227,0.037,-0.191,0.439,1.45,2.037
2024-09-23 14:37:42.467,172946.934,0.053,-0.992,-0.112,0.052,0.039,-0.059,-0.189,0.036,-0.212,0.447,1.447,2.026
2024-09-23 14:37:42.477,172946.944,0.056,-0.992,-0.114,0.047,0.046,-0.018,-0.217,0.058,-0.212,0.456,1.444,2.014
2024-09-23 14:37:42.487,172946.954,0.058,-0.992,-0.116,0.045,0.039,0.001,-0.244,0.019,-0.203,0.463,1.441,2.005
2024-09-23 14:37:42.497,172946.964,0.06,-0.991,-0.119,0.024,0.025,0.025,-0.316,-0.035,-0.145,0.465,1.438,1.999
2024-09-23 14:37:42.507,172946.974,0.061,-0.991,-0.121,0.027,0.005,0.014,-0.256,-0.049,-0.128,0.464,1.435,1.997
2024-09-23 14:37:42.517,172946.984,0.062,-0.99,-0.124,0.032,0.026,-0.005,-0.231,-0.131,-0.161,0.464,1.432,1.992
2024-09-23 14:37:42.527,172946.994,0.063,-0.99,-0.127,0.021,0.049,-0.051,-0.317,-0.055,-0.062,0.462,1.429,1.993
2024-09-23 14:37:42.537,172947.004,0.064,-0.989,-0.131,0.011,0.075,-0.067,-0.505,-0.09,-0.059,0.452,1.425,1.999
2024-09-23 14:37:42.547,172947.014,0.064,-0.989,-0.136,-0.001,0.075,-0.04,-0.609,-0.213,-0.141,0.441,1.42,2.006
2024-09-23 14:37:42.557,172947.024,0.065,-0.988,-0.143,0.03,-0.001,-0.044,-0.815,-0.161,-0.089,0.427,1.413,2.016
2024-09-23 14:37:42.567,172947.034,0.066,-0.986,-0.153,0.026,-0.027,-0.068,-1.076,-0.214,-0.118,0.408,1.404,2.029
2024-09-23 14:37:42.577,172947.044,0.067,-0.984,-0.164,-0.023,0.013,-0.064,-1.267,-0.199,-0.146,0.386,1.392,2.046
2024-09-23 14:37:42.587,172947.054,0.068,-0.982,-0.178,-0.051,-0.045,-0.07,-1.484,-0.182,-0.179,0.366,1.379,2.062
2024-09-23 14:37:42.596,172947.064,0.07,-0.979,-0.193,-0.078,-0.046,-0.057,-1.59,-0.192,-0.181,0.346,1.364,2.078
2024-09-23 14:37:42.607,172947.074,0.071,-0.975,-0.21,-0.1,-0.009,-0.06,-1.751,-0.157,-0.107,0.325,1.348,2.094
2024-09-23 14:37:42.617,172947.084,0.071,-0.971,-0.227,-0.111,0.0,-0.073,-1.785,-0.07,-0.057,0.304,1.33,2.111
2024-09-23 14:37:42.627,172947.093,0.071,-0.967,-0.244,-0.115,-0.0,-0.017,-1.69,0.124,0.107,0.284,1.314,2.129
2024-09-23 14:37:42.637,172947.103,0.07,-0.963,-0.259,-0.119,-0.055,0.06,-1.483,0.231,0.212,0.264,1.299,2.148
2024-09-23 14:37:42.647,172947.113,0.068,-0.96,-0.272,-0.122,-0.027,0.091,-1.323,0.27,0.245,0.246,1.286,2.166
2024-09-23 14:37:42.657,172947.123,0.067,-0.956,-0.284,-0.086,0.044,0.091,-1.216,0.272,0.303,0.23,1.274,2.182
2024-09-23 14:37:42.666,172947.133,0.065,-0.954,-0.294,-0.045,0.015,0.096,-0.669,0.251,0.149,0.218,1.265,2.194
2024-09-23 14:37:42.677,172947.143,0.065,-0.953,-0.297,-0.029,-0.062,0.095,-0.017,0.366,-0.013,0.217,1.262,2.195
2024-09-23 14:37:42.686,172947.153,0.067,-0.954,-0.294,-0.058,-0.008,0.077,0.613,0.486,-0.127,0.226,1.265,2.187
2024-09-23 14:37:42.696,172947.163,0.071,-0.956,-0.284,-0.064,0.219,0.065,1.267,0.587,-0.198,0.243,1.274,2.171
2024-09-23 14:37:42.706,172947.173,0.075,-0.961,-0.268,-0.019,0.282,0.064,2.033,0.749,-0.287,0.272,1.289,2.145
2024-09-23 14:37:42.716,172947.183,0.08,-0.966,-0.245,0.017,0.227,0.071,2.646,0.972,-0.366,0.317,1.311,2.104
2024-09-23 14:37:42.727,172947.193,0.086,-0.972,-0.216,0.038,0.264,0.087,2.943,1.216,-0.343,0.379,1.336,2.047
2024-09-23 14:37:42.736,172947.203,0.092,-0.978,-0.186,0.02,0.23,0.116,3.04,1.39,-0.34,0.459,1.362,1.975
2024-09-23 14:37:42.747,172947.213,0.097,-0.983,-0.155,-0.002,0.063,0.157,2.99,1.544,-0.243,0.56,1.387,1.883
2024-09-23 14:37:42.757,172947.223,0.102,-0.987,-0.125,-0.001,-0.12,0.227,2.863,1.48,-0.228,0.684,1.409,1.769
2024-09-23 14:37:42.766,172947.233,0.105,-0.99,-0.097,0.041,-0.284,0.293,2.479,1.326,-0.22,0.828,1.427,1.634
2024-09-23 14:37:42.776,172947.243,0.109,-0.991,-0.074,0.151,-0.403,0.321,1.95,1.106,-0.224,0.976,1.439,1.494
2024-09-23 14:37:42.786,172947.253,0.111,-0.992,-0.056,0.227,-0.486,0.352,1.357,0.902,-0.203,1.105,1.446,1.37
2024-09-23 14:37:42.796,172947.263,0.114,-0.993,-0.045,0.252,-0.601,0.359,0.689,0.668,-0.126,1.193,1.448,1.285
2024-09-23 14:37:42.807,172947.273,0.115,-0.993,-0.041,0.248,-0.643,0.345,0.075,0.411,-0.061,1.23,1.449,1.251
2024-09-23 14:37:42.816,172947.283,0.115,-0.992,-0.042,0.234,-0.632,0.348,-0.328,0.238,-0.033,1.223,1.448,1.257
2024-09-23 14:37:42.827,172947.293,0.116,-0.992,-0.046,0.237,-0.588,0.363,-0.529,0.119,-0.012,1.193,1.446,1.286
2024-09-23 14:37:42.837,172947.303,0.115,-0.992,-0.051,0.204,-0.468,0.34,-0.561,0.026,0.036,1.153,1.444,1.324
2024-09-23 14:37:42.847,172947.313,0.115,-0.992,-0.055,0.167,-0.282,0.313,-0.215,-0.063,-0.002,1.124,1.443,1.35
2024-09-23 14:37:42.857,172947.323,0.115,-0.992,-0.056,0.148,-0.132,0.29,0.027,-0.021,-0.028,1.117,1.442,1.352
2024-09-23 14:37:42.866,172947.333,0.115,-0.992,-0.054,0.116,0.076,0.224,0.338,0.046,0.016,1.131,1.443,1.336
2024-09-23 14:37:42.877,172947.343,0.115,-0.992,-0.05,0.097,0.281,0.176,0.585,0.032,0.025,1.164,1.445,1.3
2024-09-23 14:37:42.886,172947.353,0.115,-0.992,-0.043,0.067,0.314,0.122,0.83,0.033,0.004,1.216,1.448,1.245
2024-09-23 14:37:42.896,172947.363,0.115,-0.993,-0.033,0.086,0.301,0.06,1.007,0.056,-0.036,1.288,1.45,1.169
2024-09-23 14:37:42.906,172947.373,0.116,-0.993,-0.023,0.087,0.297,-0.02,0.976,0.113,-0.004,1.371,1.453,1.084
2024-09-23 14:37:42.917,172947.383,0.115,-0.993,-0.014,0.051,0.272,-0.074,0.939,0.116,0.088,1.451,1.454,1.005
2024-09-23 14:37:42.927,172947.393,0.114,-0.993,-0.004,0.041,0.177,-0.095,0.959,0.154,0.163,1.534,1.456,0.92
2024-09-23 14:37:42.936,172947.403,0.112,-0.994,0.005,0.023,0.14,-0.124,0.933,0.169,0.252,1.619,1.459,0.833
2024-09-23 14:37:42.946,172947.413,0.109,-0.994,0.015,0.025,0.15,-0.142,0.916,0.15,0.342,1.706,1.461,0.745
2024-09-23 14:37:42.957,172947.423,0.105,-0.994,0.025,0.02,0.083,-0.145,1.053,0.149,0.386,1.801,1.462,0.648
2024-09-23 14:37:42.966,172947.433,0.101,-0.994,0.035,0.026,0.041,-0.123,0.951,0.11,0.423,1.904,1.463,0.544
2024-09-23 14:37:42.976,172947.443,0.097,-0.994,0.043,0.025,0.042,-0.085,0.56,-0.144,0.435,1.987,1.465,0.458
2024-09-23 14:37:42.986,172947.453,0.092,-0.995,0.047,0.075,-0.034,-0.006,0.281,-0.332,0.542,2.041,1.467,0.399
2024-09-23 14:37:42.996,172947.463,0.087,-0.995,0.048,0.155,-0.118,0.067,0.029,-0.236,0.509,2.075,1.471,0.359
2024-09-23 14:37:43.007,172947.473,0.082,-0.996,0.046,0.124,-0.177,0.091,-0.402,-0.423,0.587,2.08,1.477,0.349
2024-09-23 14:37:43.015,172947.483,0.076,-0.996,0.041,0.044,-0.089,0.099,-0.37,-0.427,0.487,2.068,1.484,0.355
2024-09-23 14:37:43.026,172947.493,0.072,-0.997,0.038,0.086,-0.063,0.074,-0.228,-0.472,0.413,2.056,1.489,0.36
2024-09-23 14:37:43.036,172947.503,0.068,-0.997,0.036,0.036,0.015,0.061,-0.136,-0.454,0.375,2.054,1.493,0.355
2024-09-23 14:37:43.046,172947.513,0.065,-0.997,0.035,-0.012,0.054,0.036,-0.036,-0.442,0.393,2.063,1.497,0.339
2024-09-23 14:37:43.056,172947.523,0.061,-0.998,0.035,0.01,-0.025,0.023,0.093,-0.39,0.375,2.087,1.5,0.31
2024-09-23 14:37:43.066,172947.533,0.058,-0.998,0.036,-0.015,-0.043,0.016,0.148,-0.413,0.336,2.124,1.503,0.267
2024-09-23 14:37:43.076,172947.543,0.055,-0.998,0.038,-0.019,-0.051,0.034,0.344,-0.48,0.146,2.17,1.504,0.214
2024-09-23 14:37:43.086,172947.553,0.055,-0.998,0.042,0.009,0.018,0.066,0.441,-0.402,0.021,2.219,1.502,0.159
2024-09-23 14:37:43.096,172947.563,0.055,-0.997,0.046,0.038,0.065,0.075,0.397,-0.297,0.049,2.267,1.499,0.106
2024-09-23 14:37:43.106,172947.573,0.055,-0.997,0.049,-0.03,-0.033,0.014,0.285,-0.204,0.017,2.303,1.497,0.065
2024-09-23 14:37:43.116,172947.583,0.054,-0.997,0.051,-0.085,-0.14,-0.039,0.065,-0.01,0.019,2.321,1.496,0.045
2024-09-23 14:37:43.127,172947.593,0.054,-0.997,0.05,-0.086,-0.154,-0.082,-0.178,0.187,0.002,2.317,1.497,0.048
2024-09-23 14:37:43.136,172947.603,0.054,-0.997,0.048,-0.115,-0.169,-0.115,-0.315,0.339,-0.042,2.292,1.498,0.075
2024-09-23 14:37:43.146,172947.613,0.055,-0.998,0.045,-0.142,-0.161,-0.156,-0.369,0.473,-0.073,2.255,1.5,0.115
2024-09-23 14:37:43.156,172947.623,0.055,-0.998,0.041,-0.124,-0.116,-0.209,-0.403,0.541,-0.117,2.208,1.502,0.165
2024-09-23 14:37:43.166,172947.633,0.056,-0.998,0.037,-0.101,-0.114,-0.239,-0.456,0.547,-0.122,2.152,1.503,0.226
2024-09-23 14:37:43.175,172947.643,0.058,-0.998,0.032,-0.054,-0.117,-0.227,-0.547,0.501,-0.182,2.082,1.505,0.299
2024-09-23 14:37:43.186,172947.653,0.06,-0.998,0.027,-0.005,-0.144,-0.212,-0.662,0.55,-0.305,1.99,1.505,0.396
2024-09-23 14:37:43.196,172947.663,0.063,-0.998,0.02,0.027,-0.201,-0.207,-0.846,0.656,-0.392,1.871,1.504,0.519
2024-09-23 14:37:43.206,172947.673,0.067,-0.998,0.01,0.023,-0.229,-0.184,-1.108,0.775,-0.434,1.722,1.503,0.674
2024-09-23 14:37:43.215,172947.683,0.072,-0.997,-0.001,-0.004,-0.266,-0.119,-1.147,0.693,-0.48,1.563,1.499,0.839
2024-09-23 14:37:43.226,172947.692,0.077,-0.997,-0.011,-0.005,-0.294,-0.04,-1.04,0.538,-0.604,1.428,1.493,0.979
2024-09-23 14:37:43.235,172947.702,0.084,-0.996,-0.02,0.046,-0.273,-0.017,-0.844,0.473,-0.71,1.335,1.484,1.076
2024-09-23 14:37:43.246,172947.712,0.091,-0.995,-0.027,0.091,-0.2,-0.006,-0.677,0.437,-0.778,1.279,1.475,1.135
2024-09-23 14:37:43.256,172947.722,0.099,-0.995,-0.033,0.057,-0.131,0.018,-0.52,0.414,-0.835,1.252,1.466,1.166
2024-09-23 14:37:43.266,172947.732,0.108,-0.993,-0.037,0.019,-0.104,0.016,-0.418,0.31,-0.925,1.241,1.456,1.179
2024-09-23 14:37:43.275,172947.742,0.118,-0.992,-0.041,0.008,-0.105,0.021,-0.471,0.241,-1.011,1.236,1.446,1.185
2024-09-23 14:37:43.286,172947.752,0.129,-0.991,-0.046,0.001,-0.131,0.026,-0.588,0.187,-1.123,1.227,1.434,1.195
2024-09-23 14:37:43.296,172947.762,0.14,-0.989,-0.052,-0.02,-0.165,0.004,-0.635,0.086,-1.219,1.216,1.421,1.208
2024-09-23 14:37:43.306,172947.772,0.153,-0.987,-0.058,-0.048,-0.166,-0.041,-0.536,0.055,-1.32,1.209,1.407,1.214
2024-09-23 14:37:43.315,172947.782,0.166,-0.984,-0.062,-0.062,-0.158,-0.079,-0.349,0.12,-1.396,1.213,1.392,1.209
2024-09-23 14:37:43.326,172947.792,0.18,-0.981,-0.064,-0.094,-0.095,-0.122,-0.138,0.163,-1.456,1.229,1.378,1.193
2024-09-23 14:37:43.336,172947.802,0.195,-0.979,-0.064,-0.135,-0.012,-0.129,0.006,0.198,-1.495,1.251,1.364,1.171
2024-09-23 14:37:43.345,172947.812,0.21,-0.976,-0.064,-0.148,0.002,-0.119,0.031,0.276,-1.536,1.276,1.35,1.147
2024-09-23 14:37:43.356,172947.822,0.225,-0.972,-0.063,-0.14,-0.004,-0.105,-0.101,0.368,-1.563,1.296,1.335,1.128
2024-09-23 14:37:43.366,172947.832,0.241,-0.968,-0.064,-0.149,-0.04,-0.087,-0.166,0.447,-1.633,1.312,1.319,1.114
2024-09-23 14:37:43.375,172947.842,0.257,-0.964,-0.064,-0.16,-0.105,-0.061,-0.165,0.484,-1.717,1.326,1.302,1.103
2024-09-23 14:37:43.386,172947.852,0.275,-0.959,-0.064,-0.151,-0.142,-0.055,-0.064,0.48,-1.818,1.341,1.285,1.091
2024-09-23 14:37:43.396,172947.862,0.293,-0.954,-0.063,-0.128,-0.141,-0.054,0.114,0.457,-1.897,1.36,1.267,1.075
2024-09-23 14:37:43.405,172947.872,0.312,-0.948,-0.059,-0.11,-0.146,-0.054,0.402,0.445,-2.021,1.384,1.248,1.053
2024-09-23 14:37:43.415,172947.882,0.332,-0.942,-0.052,-0.107,-0.116,-0.053,0.722,0.488,-2.109,1.415,1.229,1.024
2024-09-23 14:37:43.426,172947.892,0.352,-0.935,-0.042,-0.125,-0.039,-0.059,1.023,0.483,-2.139,1.451,1.209,0.989
2024-09-23 14:37:43.435,172947.902,0.372,-0.928,-0.03,-0.14,-0.007,-0.068,1.186,0.472,-2.216,1.49,1.188,0.951
2024-09-23 14:37:43.445,172947.912,0.393,-0.919,-0.017,-0.14,-0.048,-0.067,1.282,0.417,-2.26,1.527,1.167,0.914
2024-09-23 14:37:43.455,172947.922,0.414,-0.91,-0.004,-0.14,-0.083,-0.039,1.363,0.311,-2.279,1.562,1.144,0.879
2024-09-23 14:37:43.465,172947.932,0.435,-0.901,0.01,-0.139,-0.087,-0.015,1.412,0.218,-2.324,1.594,1.121,0.845
2024-09-23 14:37:43.475,172947.942,0.455,-0.89,0.024,-0.12,-0.101,-0.007,1.477,0.133,-2.359,1.623,1.097,0.813
2024-09-23 14:37:43.485,172947.952,0.477,-0.878,0.037,-0.109,-0.142,-0.004,1.467,0.114,-2.425,1.649,1.072,0.783
2024-09-23 14:37:43.495,172947.962,0.498,-0.866,0.051,-0.122,-0.181,-0.012,1.484,0.135,-2.487,1.672,1.047,0.757
2024-09-23 14:37:43.505,172947.972,0.52,-0.852,0.063,-0.145,-0.186,-0.021,1.331,0.167,-2.57,1.692,1.02,0.734
2024-09-23 14:37:43.516,172947.982,0.541,-0.838,0.075,-0.179,-0.192,-0.027,1.306,0.091,-2.53,1.709,0.993,0.714
2024-09-23 14:37:43.525,172947.992,0.562,-0.823,0.086,-0.189,-0.185,0.001,1.388,-0.019,-2.503,1.723,0.966,0.696
2024-09-23 14:37:43.535,172948.002,0.583,-0.807,0.098,-0.178,-0.154,0.003,1.475,0.016,-2.543,1.737,0.939,0.678
2024-09-23 14:37:43.545,172948.012,0.603,-0.79,0.11,-0.178,-0.066,-0.011,1.591,0.071,-2.509,1.752,0.911,0.659
2024-09-23 14:37:43.555,172948.022,0.622,-0.773,0.123,-0.206,-0.014,-0.021,1.564,0.045,-2.483,1.766,0.884,0.64
2024-09-23 14:37:43.565,172948.032,0.641,-0.756,0.135,-0.222,-0.107,-0.031,1.493,0.012,-2.48,1.778,0.857,0.623
2024-09-23 14:37:43.575,172948.042,0.659,-0.737,0.146,-0.223,-0.189,-0.026,1.41,0.018,-2.482,1.788,0.829,0.609
2024-09-23 14:37:43.585,172948.052,0.678,-0.719,0.156,-0.217,-0.183,-0.014,1.298,-0.016,-2.495,1.797,0.802,0.596
2024-09-23 14:37:43.595,172948.062,0.695,-0.7,0.164,-0.231,-0.195,-0.012,1.222,-0.081,-2.493,1.803,0.775,0.586
2024-09-23 14:37:43.605,172948.072,0.713,-0.68,0.172,-0.267,-0.161,-0.01,1.213,-0.121,-2.468,1.807,0.748,0.576
2024-09-23 14:37:43.615,172948.082,0.729,-0.66,0.179,-0.284,-0.081,-0.011,1.208,-0.148,-2.428,1.811,0.721,0.567
2024-09-23 14:37:43.625,172948.092,0.745,-0.641,0.186,-0.306,0.0,-0.005,1.22,-0.158,-2.373,1.815,0.695,0.558
2024-09-23 14:37:43.635,172948.102,0.76,-0.621,0.193,-0.343,0.059,0.0,1.305,-0.081,-2.314,1.819,0.669,0.548
2024-09-23 14:37:43.646,172948.112,0.774,-0.601,0.2,-0.37,0.087,-0.007,1.328,0.004,-2.241,1.824,0.644,0.538
2024-09-23 14:37:43.656,172948.122,0.787,-0.581,0.208,-0.375,0.043,-0.008,1.283,0.064,-2.17,1.83,0.62,0.528
2024-09-23 14:37:43.665,172948.132,0.799,-0.561,0.216,-0.345,-0.024,0.009,1.26,0.048,-2.141,1.835,0.596,0.519
2024-09-23 14:37:43.675,172948.142,0.811,-0.541,0.223,-0.272,-0.096,0.037,1.222,-0.058,-2.123,1.839,0.572,0.511
2024-09-23 14:37:43.685,172948.152,0.822,-0.521,0.228,-0.191,-0.163,0.081,1.194,-0.214,-2.137,1.841,0.548,0.503
2024-09-23 14:37:43.695,172948.162,0.834,-0.501,0.232,-0.121,-0.179,0.115,1.176,-0.401,-2.16,1.842,0.524,0.496
2024-09-23 14:37:43.705,172948.172,0.846,-0.48,0.233,-0.07,-0.153,0.121,1.149,-0.559,-2.161,1.84,0.5,0.488
2024-09-23 14:37:43.715,172948.182,0.857,-0.459,0.233,-0.054,-0.115,0.106,1.109,-0.721,-2.17,1.836,0.476,0.482
2024-09-23 14:37:43.725,172948.192,0.869,-0.437,0.231,-0.061,-0.056,0.083,1.133,-0.867,-2.188,1.831,0.453,0.475
2024-09-23 14:37:43.735,172948.202,0.88,-0.415,0.229,-0.085,0.034,0.044,1.266,-0.885,-2.196,1.825,0.428,0.467
2024-09-23 14:37:43.745,172948.212,0.891,-0.393,0.226,-0.117,0.109,0.011,1.397,-0.79,-2.181,1.82,0.404,0.458
2024-09-23 14:37:43.755,172948.222,0.901,-0.37,0.225,-0.14,0.127,-0.001,1.53,-0.814,-2.196,1.815,0.379,0.448
2024-09-23 14:37:43.766,172948.232,0.911,-0.347,0.223,-0.135,0.065,0.019,1.573,-0.99,-2.258,1.81,0.354,0.437
2024-09-23 14:37:43.775,172948.242,0.921,-0.322,0.217,-0.086,-0.031,0.051,1.55,-1.254,-2.294,1.803,0.328,0.425
2024-09-23 14:37:43.785,172948.252,0.931,-0.298,0.21,-0.018,-0.067,0.089,1.545,-1.427,-2.311,1.792,0.302,0.414
2024-09-23 14:37:43.795,172948.262,0.941,-0.273,0.2,-0.004,-0.033,0.109,1.53,-1.528,-2.28,1.781,0.276,0.403
2024-09-23 14:37:43.805,172948.272,0.95,-0.249,0.19,-0.047,0.014,0.096,1.487,-1.532,-2.195,1.768,0.252,0.392
2024-09-23 14:37:43.815,172948.282,0.958,-0.226,0.179,-0.12,0.072,0.077,1.417,-1.475,-2.075,1.755,0.228,0.381
2024-09-23 14:37:43.825,172948.291,0.964,-0.204,0.168,-0.169,0.118,0.064,1.445,-1.487,-1.989,1.743,0.205,0.37
2024-09-23 14:37:43.835,172948.301,0.971,-0.183,0.156,-0.188,0.122,0.048,1.422,-1.502,-1.916,1.73,0.184,0.358
2024-09-23 14:37:43.845,172948.311,0.976,-0.162,0.144,-0.159,0.08,0.031,1.433,-1.54,-1.874,1.717,0.163,0.346
2024-09-23 14:37:43.855,172948.321,0.981,-0.142,0.131,-0.106,0.041,0.047,1.422,-1.622,-1.834,1.703,0.143,0.334
2024-09-23 14:37:43.865,172948.331,0.986,-0.123,0.116,-0.085,-0.023,0.071,1.303,-1.731,-1.787,1.688,0.123,0.322
2024-09-23 14:37:43.875,172948.341,0.99,-0.104,0.1,-0.071,-0.062,0.078,1.2,-1.812,-1.729,1.671,0.104,0.312
2024-09-23 14:37:43.885,172948.351,0.993,-0.086,0.083,-0.083,-0.028,0.071,1.165,-1.828,-1.694,1.654,0.086,0.301
2024-09-23 14:37:43.895,172948.361,0.995,-0.069,0.066,-0.126,0.01,0.04,1.192,-1.793,-1.649,1.637,0.069,0.291
2024-09-23 14:37:43.904,172948.371,0.997,-0.052,0.049,-0.169,0.043,-0.0,1.191,-1.696,-1.556,1.62,0.052,0.28
2024-09-23 14:37:43.915,172948.381,0.999,-0.036,0.033,-0.191,0.075,-0.022,1.188,-1.587,-1.507,1.604,0.036,0.268
2024-09-23 14:37:43.925,172948.391,1.0,-0.021,0.018,-0.193,0.084,-0.028,1.114,-1.477,-1.435,1.589,0.021,0.257
2024-09-23 14:37:43.934,172948.401,1.0,-0.007,0.004,-0.187,0.062,-0.034,1.008,-1.364,-1.377,1.575,0.007,0.246
2024-09-23 14:37:43.944,172948.411,1.0,0.007,-0.009,-0.166,0.049,-0.02,1.086,-1.396,-1.374,1.562,-0.007,0.236
2024-09-23 14:37:43.955,172948.421,1.0,0.02,-0.024,-0.152,0.013,0.0,1.11,-1.461,-1.362,1.547,-0.02,0.225
2024-09-23 14:37:43.965,172948.431,0.999,0.033,-0.039,-0.118,-0.033,0.007,1.185,-1.536,-1.329,1.532,-0.033,0.213
2024-09-23 14:37:43.975,172948.441,0.997,0.046,-0.055,-0.063,-0.017,0.037,1.369,-1.701,-1.292,1.515,-0.046,0.2
2024-09-23 14:37:43.985,172948.451,0.996,0.057,-0.074,-0.075,-0.017,0.036,1.644,-1.819,-1.281,1.497,-0.057,0.184
2024-09-23 14:37:43.994,172948.461,0.993,0.069,-0.092,-0.076,0.014,0.023,1.769,-1.66,-1.244,1.478,-0.069,0.165
2024-09-23 14:37:44.005,172948.471,0.991,0.079,-0.109,-0.053,0.08,0.014,1.875,-1.378,-1.186,1.461,-0.079,0.146
2024-09-23 14:37:44.015,172948.481,0.988,0.088,-0.123,-0.106,0.09,-0.002,1.889,-1.206,-1.104,1.447,-0.088,0.126
2024-09-23 14:37:44.025,172948.491,0.986,0.096,-0.136,-0.182,0.016,-0.041,1.803,-1.156,-1.059,1.433,-0.096,0.106
2024-09-23 14:37:44.035,172948.501,0.983,0.104,-0.15,-0.157,-0.025,-0.05,1.762,-1.221,-1.051,1.42,-0.104,0.087
2024-09-23 14:37:44.045,172948.511,0.98,0.112,-0.164,-0.115,-0.037,-0.03,1.663,-1.279,-1.052,1.405,-0.112,0.069
2024-09-23 14:37:44.055,172948.521,0.977,0.119,-0.178,-0.096,-0.05,-0.013,1.51,-1.302,-1.008,1.39,-0.119,0.051
2024-09-23 14:37:44.065,172948.531,0.973,0.126,-0.193,-0.08,-0.032,0.019,1.338,-1.359,-0.994,1.375,-0.126,0.035
2024-09-23 14:37:44.075,172948.541,0.969,0.133,-0.209,-0.086,-0.035,0.047,1.279,-1.585,-1.047,1.358,-0.134,0.021
2024-09-23 14:37:44.085,172948.551,0.964,0.141,-0.226,-0.074,-0.055,0.057,1.182,-1.638,-1.063,1.34,-0.141,0.007
2024-09-23 14:37:44.094,172948.561,0.959,0.148,-0.243,-0.016,-0.022,0.065,1.052,-1.615,-1.017,1.322,-0.149,-0.007
2024-09-23 14:37:44.105,172948.571,0.953,0.155,-0.26,0.01,0.023,0.093,0.932,-1.594,-0.987,1.304,-0.156,-0.019
2024-09-23 14:37:44.115,172948.581,0.947,0.162,-0.277,-0.055,0.012,0.084,0.874,-1.588,-0.99,1.287,-0.163,-0.03
2024-09-23 14:37:44.125,172948.591,0.941,0.169,-0.293,-0.061,0.024,0.068,0.79,-1.566,-0.972,1.269,-0.17,-0.041
2024-09-23 14:37:44.134,172948.601,0.935,0.176,-0.309,-0.049,0.024,0.065,0.65,-1.557,-0.921,1.252,-0.177,-0.051
2024-09-23 14:37:44.144,172948.611,0.928,0.182,-0.324,-0.039,-0.013,0.083,0.59,-1.542,-0.932,1.235,-0.183,-0.06
